time,seconds_elapsed,z,y,x
1775711360313190400,0.0461904296875,0.3446044921875,-0.8046417236328125,0.3909454345703125
1775711360323203600,0.05620361328125,0.3338775634765625,-0.8282623291015625,0.3934478759765625
1775711360333217300,0.06621728515625,0.3207550048828125,-0.8350982666015625,0.4019012451171875
1775711360343230500,0.07623046875,0.3009185791015625,-0.8354949951171875,0.4118804931640625
1775711360353244400,0.086244384765625,0.277008056640625,-0.8173370361328125,0.4051361083984375
1775711360363257300,0.09625732421875,0.2366180419921875,-0.8161773681640625,0.3611297607421875
1775711360373271600,0.106271484375,0.222900390625,-0.8275604248046875,0.3012847900390625
1775711360383284500,0.116284423828125,0.249786376953125,-0.8433074951171875,0.283966064453125
1775711360393298400,0.12629833984375,0.27325439453125,-0.8700408935546875,0.3040313720703125
1775711360403311600,0.1363115234375,0.2515106201171875,-0.8980560302734375,0.3286285400390625
1775711360413325600,0.14632568359375,0.26715087890625,-0.8868408203125,0.32012939453125
1775711360423338500,0.15633837890625,0.2747650146484375,-0.8187713623046875,0.316070556640625
1775711360433352400,0.1663525390625,0.23876953125,-0.807952880859375,0.3661346435546875
1775711360443365600,0.17636572265625,0.18402099609375,-0.8265838623046875,0.457183837890625
1775711360453379300,0.18637939453125,0.1071014404296875,-0.8276519775390625,0.536834716796875
1775711360463392500,0.196392578125,0.0570831298828125,-0.8424072265625,0.565521240234375
1775711360473406500,0.206406494140625,0.0033416748046875,-0.8119964599609375,0.52032470703125
1775711360483419400,0.21641943359375,0.0088043212890625,-0.75042724609375,0.4431610107421875
1775711360493433600,0.22643359375,0.033233642578125,-0.744659423828125,0.3979034423828125
1775711360503446500,0.236446533203125,0.079498291015625,-0.7866363525390625,0.3919830322265625
1775711360513460500,0.24646044921875,0.2300872802734375,-0.8368988037109375,0.4256439208984375
1775711360523473400,0.256473388671875,0.2924652099609375,-0.865966796875,0.4373321533203125
1775711360533487600,0.266487548828125,0.297637939453125,-0.857177734375,0.418701171875
1775711360543500500,0.27650048828125,0.329803466796875,-0.8354644775390625,0.4457855224609375
1775711360553514500,0.286514404296875,0.3815155029296875,-0.835723876953125,0.513214111328125
1775711360563527200,0.296527099609375,0.4097137451171875,-0.798248291015625,0.553375244140625
1775711360573541000,0.306541015625,0.3984375,-0.820770263671875,0.53472900390625
1775711360583554000,0.316553955078125,0.329803466796875,-0.79693603515625,0.484588623046875
1775711360593568000,0.326568115234375,0.28802490234375,-0.76806640625,0.532073974609375
1775711360603581200,0.336581298828125,0.26171875,-0.791656494140625,0.605987548828125
1775711360613595100,0.34659521484375,0.158538818359375,-0.8225250244140625,0.6660308837890625
1775711360623608000,0.356608154296875,0.2241058349609375,-0.87042236328125,0.7089385986328125
1775711360633621000,0.36662109375,0.315673828125,-0.9416351318359375,0.586029052734375
1775711360643635000,0.376635009765625,0.308319091796875,-0.848297119140625,0.5151214599609375
1775711360653648100,0.386648193359375,0.24200439453125,-0.772430419921875,0.558837890625
1775711360663662000,0.396662109375,0.2306976318359375,-0.8165283203125,0.6409912109375
1775711360673675000,0.406675048828125,0.2645111083984375,-0.8854827880859375,0.652801513671875
1775711360683689200,0.416689208984375,0.286865234375,-0.8499298095703125,0.6261444091796875
1775711360693702000,0.426701904296875,0.37640380859375,-0.7851715087890625,0.559967041015625
1775711360703716000,0.436716064453125,0.4451904296875,-0.757415771484375,0.501373291015625
1775711360713729000,0.44672900390625,0.2747802734375,-0.743194580078125,0.520843505859375
1775711360723743200,0.4567431640625,0.1610107421875,-0.77227783203125,0.542999267578125
1775711360733756200,0.466756103515625,0.162017822265625,-0.8272857666015625,0.5551300048828125
1775711360743770000,0.47677001953125,0.2698822021484375,-0.8439483642578125,0.5518341064453125
1775711360753783000,0.486782958984375,0.2459869384765625,-0.83148193359375,0.521881103515625
1775711360763797000,0.496796875,0.18292236328125,-0.805511474609375,0.5309906005859375
1775711360773810200,0.50681005859375,0.1343994140625,-0.81463623046875,0.5108795166015625
1775711360783824000,0.516823974609375,0.0970611572265625,-0.8475189208984375,0.4856109619140625
1775711360793837000,0.526837158203125,0.060028076171875,-0.859100341796875,0.4934539794921875
1775711360803851000,0.53685107421875,0.0516204833984375,-0.8480224609375,0.514434814453125
1775711360813864000,0.546864013671875,0.050262451171875,-0.840911865234375,0.5227203369140625
1775711360823878100,0.556878173828125,0.1753387451171875,-0.8320770263671875,0.5524444580078125
1775711360833891000,0.56689111328125,0.254425048828125,-0.84698486328125,0.5952301025390625
1775711360843905000,0.576905029296875,0.237396240234375,-0.82684326171875,0.6336212158203125
1775711360853918000,0.58691796875,0.24566650390625,-0.7689971923828125,0.6525726318359375
1775711360863932200,0.59693212890625,0.2708282470703125,-0.7505950927734375,0.666229248046875
1775711360873945000,0.606945068359375,0.2619781494140625,-0.76666259765625,0.669586181640625
1775711360883959000,0.616958984375,0.2501373291015625,-0.769073486328125,0.6884002685546875
1775711360893972200,0.62697216796875,0.21990966796875,-0.7866058349609375,0.6748199462890625
1775711360903986000,0.63698583984375,0.168975830078125,-0.7705230712890625,0.6377410888671875
1775711360913999000,0.6469990234375,0.1468963623046875,-0.73797607421875,0.6256256103515625
1775711360924013000,0.657012939453125,0.0800018310546875,-0.7227020263671875,0.60546875
1775711360934026000,0.66702587890625,-0.0023651123046875,-0.734527587890625,0.606109619140625
1775711360944040000,0.6770400390625,0.0017547607421875,-0.7210693359375,0.603790283203125
1775711360954053000,0.68705322265625,0.0427703857421875,-0.68768310546875,0.5751953125
1775711360964066000,0.697066162109375,0.135162353515625,-0.6728973388671875,0.5730743408203125
1775711360974080000,0.707080078125,0.1571044921875,-0.6896209716796875,0.5931854248046875
1775711360984093200,0.71709326171875,0.156585693359375,-0.7511138916015625,0.6170654296875
1775711360994107000,0.72710693359375,0.1961669921875,-0.738037109375,0.6513519287109375
1775711361004120000,0.7371201171875,0.1383514404296875,-0.7488555908203125,0.644256591796875
1775711361014134300,0.74713427734375,0.0752410888671875,-0.787384033203125,0.5857696533203125
1775711361024147000,0.75714697265625,0.077301025390625,-0.80963134765625,0.5382080078125
1775711361034161200,0.7671611328125,0.09161376953125,-0.8118743896484375,0.548797607421875
1775711361044174000,0.777174072265625,0.038604736328125,-0.8024139404296875,0.543548583984375
1775711361054188000,0.78718798828125,0.0134429931640625,-0.8025360107421875,0.5225372314453125
1775711361064201200,0.797201171875,0.0236358642578125,-0.790252685546875,0.466278076171875
1775711361074215200,0.807215087890625,0.081756591796875,-0.803436279296875,0.3992767333984375
1775711361084228000,0.81722802734375,0.1391754150390625,-0.8135223388671875,0.3840179443359375
1775711361094242000,0.827241943359375,0.1876678466796875,-0.7888946533203125,0.3956146240234375
1775711361104255200,0.837255126953125,0.238311767578125,-0.8040313720703125,0.4401397705078125
1775711361114269000,0.84726904296875,0.2310333251953125,-0.8050994873046875,0.4950714111328125
1775711361124282000,0.8572822265625,0.204833984375,-0.792144775390625,0.520721435546875
1775711361134296000,0.867296142578125,0.208740234375,-0.79425048828125,0.5624847412109375
1775711361144309000,0.87730908203125,0.225128173828125,-0.80462646484375,0.5802154541015625
1775711361154323200,0.8873232421875,0.248779296875,-0.812957763671875,0.5548248291015625
1775711361164335900,0.8973359375,0.204010009765625,-0.797943115234375,0.5592193603515625
1775711361174350000,0.90735009765625,0.17242431640625,-0.7984619140625,0.5643768310546875
1775711361184363000,0.917363037109375,0.1714630126953125,-0.842041015625,0.5970306396484375
1775711361194377200,0.927377197265625,0.13214111328125,-0.898529052734375,0.6231689453125
1775711361204390100,0.93739013671875,0.146331787109375,-0.9135284423828125,0.6377105712890625
1775711361214404000,0.947404052734375,0.149993896484375,-0.837646484375,0.6616668701171875
1775711361224417000,0.9574169921875,0.1355743408203125,-0.7699737548828125,0.61968994140625
1775711361234431000,0.967430908203125,0.12738037109375,-0.7862396240234375,0.607330322265625
1775711361244444200,0.977444091796875,0.132110595703125,-0.809844970703125,0.5980377197265625
1775711361254458000,0.9874580078125,0.1502838134765625,-0.804168701171875,0.5636749267578125
1775711361264471000,0.997470947265625,0.1700592041015625,-0.798980712890625,0.5203857421875
1775711361274484200,1.007484130859375,0.164703369140625,-0.7927093505859375,0.4951324462890625
1775711361284498000,1.017497802734375,0.1590423583984375,-0.773223876953125,0.48687744140625
1775711361294511000,1.027510986328125,0.1578369140625,-0.7302398681640625,0.447265625
1775711361304525000,1.037525146484375,0.0808258056640625,-0.8365020751953125,0.5452728271484375
1775711361314538000,1.0475380859375,0.0485382080078125,-0.89691162109375,0.5761871337890625
1775711361324552000,1.057552001953125,0.0398406982421875,-0.859649658203125,0.5159149169921875
1775711361334565000,1.067565185546875,0.0556793212890625,-0.8280792236328125,0.484100341796875
1775711361344579000,1.0775791015625,0.0747222900390625,-0.8470611572265625,0.4801177978515625
1775711361354592000,1.087592041015625,0.08966064453125,-0.8703765869140625,0.4699859619140625
1775711361364606200,1.097606201171875,0.1226806640625,-0.889190673828125,0.4397430419921875
1775711361374619000,1.107618896484375,0.1437530517578125,-0.908416748046875,0.388702392578125
1775711361384633000,1.117633056640625,0.128387451171875,-0.897369384765625,0.34967041015625
1775711361394646300,1.127646240234375,0.1250762939453125,-0.882659912109375,0.355438232421875
1775711361404660000,1.137659912109375,0.1556549072265625,-0.906341552734375,0.4109954833984375
1775711361414673200,1.147673095703125,0.1706085205078125,-0.93585205078125,0.462249755859375
1775711361424687000,1.15768701171875,0.1630401611328125,-0.912017822265625,0.4687652587890625
1775711361434700000,1.167699951171875,0.155975341796875,-0.9160919189453125,0.4899749755859375
1775711361444714000,1.1777138671875,0.1141357421875,-0.9185791015625,0.5101318359375
1775711361454727200,1.18772705078125,0.0776824951171875,-0.9088897705078125,0.5277099609375
1775711361464740900,1.197740966796875,0.0478973388671875,-0.8914337158203125,0.542022705078125
1775711361474754000,1.207754150390625,0.035064697265625,-0.8801116943359375,0.5572509765625
1775711361484768300,1.217768310546875,0.026885986328125,-0.8402557373046875,0.537567138671875
1775711361494781000,1.227781005859375,0.01116943359375,-0.8964080810546875,0.5700225830078125
1775711361504795100,1.237795166015625,-0.0104827880859375,-0.894500732421875,0.588592529296875
1775711361514808000,1.24780810546875,-0.09088134765625,-0.877532958984375,0.65533447265625
1775711361524821000,1.257821044921875,-0.0919647216796875,-0.873870849609375,0.7070159912109375
1775711361534835200,1.267835205078125,0.0275115966796875,-0.8191375732421875,0.6724395751953125
1775711361544848000,1.277847900390625,0.0576171875,-0.8016357421875,0.691802978515625
1775711361554862000,1.287862060546875,0.111480712890625,-0.8162384033203125,0.735565185546875
1775711361564875300,1.297875244140625,0.135650634765625,-0.822174072265625,0.754150390625
1775711361574889500,1.307889404296875,0.1007537841796875,-0.8439483642578125,0.7764739990234375
1775711361584902400,1.31790234375,0.0653076171875,-0.8337860107421875,0.7864532470703125
1775711361594916400,1.327916259765625,0.0330047607421875,-0.8060150146484375,0.784149169921875
1775711361604929500,1.337929443359375,0.0089111328125,-0.796173095703125,0.779266357421875
1775711361614943500,1.347943603515625,0.0023651123046875,-0.7816314697265625,0.7669525146484375
1775711361624956400,1.357956298828125,0.00677490234375,-0.7675018310546875,0.7364044189453125
1775711361634970400,1.367970458984375,0.007080078125,-0.7590484619140625,0.7101287841796875
1775711361644983600,1.377983642578125,0.010406494140625,-0.74273681640625,0.6966705322265625
1775711361654997200,1.387997314453125,0.021453857421875,-0.7228851318359375,0.6873016357421875
1775711361665010400,1.398010498046875,0.0361328125,-0.7367095947265625,0.7092437744140625
1775711361675024400,1.4080244140625,0.048095703125,-0.7168731689453125,0.705718994140625
1775711361685037300,1.418037353515625,0.068267822265625,-0.6829681396484375,0.6899566650390625
1775711361695051500,1.428051513671875,0.07012939453125,-0.65887451171875,0.69000244140625
1775711361705064400,1.438064453125,0.060546875,-0.642578125,0.6964569091796875
1775711361715078400,1.448078369140625,0.047637939453125,-0.631927490234375,0.6956787109375
1775711361725091600,1.458091552734375,0.0414276123046875,-0.6102752685546875,0.678192138671875
1775711361735104500,1.4681044921875,0.04388427734375,-0.5787506103515625,0.649383544921875
1775711361745118500,1.478118408203125,0.0508880615234375,-0.560791015625,0.6221771240234375
1775711361755131400,1.48813134765625,0.058135986328125,-0.54730224609375,0.608734130859375
1775711361765145600,1.4981455078125,0.0582122802734375,-0.5357666015625,0.6024932861328125
1775711361775158500,1.508158447265625,0.0563812255859375,-0.5213470458984375,0.5803985595703125
1775711361785172500,1.51817236328125,0.0623626708984375,-0.526275634765625,0.5680999755859375
1775711361795185700,1.528185546875,0.073394775390625,-0.5343475341796875,0.5522918701171875
1775711361805199400,1.538199462890625,0.0728912353515625,-0.530609130859375,0.5381317138671875
1775711361815212500,1.548212646484375,0.0533294677734375,-0.5276641845703125,0.541748046875
1775711361825226500,1.5582265625,0.0251922607421875,-0.5352630615234375,0.571258544921875
1775711361835239400,1.568239501953125,-0.007965087890625,-0.53240966796875,0.5947418212890625
1775711361845253400,1.57825341796875,-0.0298614501953125,-0.5224761962890625,0.6135406494140625
1775711361855266600,1.5882666015625,-0.0432586669921875,-0.5257720947265625,0.6343994140625
1775711361865280500,1.598280517578125,-0.05096435546875,-0.5302581787109375,0.636322021484375
1775711361875293400,1.60829345703125,-0.050506591796875,-0.5331268310546875,0.65289306640625
1775711361885307600,1.6183076171875,-0.0600433349609375,-0.5429229736328125,0.6778411865234375
1775711361895320300,1.6283203125,-0.06494140625,-0.56146240234375,0.682952880859375
1775711361905334500,1.63833447265625,-0.0680084228515625,-0.5664215087890625,0.6359710693359375
1775711361915347500,1.648347412109375,-0.048736572265625,-0.58477783203125,0.5865020751953125
1775711361925360400,1.6583603515625,-0.0141448974609375,-0.6258087158203125,0.5664825439453125
1775711361935374600,1.66837451171875,0.0032958984375,-0.659027099609375,0.5509185791015625
1775711361945387300,1.67838720703125,0.0232086181640625,-0.6649169921875,0.5338897705078125
1775711361955401500,1.6884013671875,0.0491943359375,-0.66448974609375,0.5320587158203125
1775711361965414400,1.698414306640625,0.0722198486328125,-0.659515380859375,0.5507659912109375
1775711361975428400,1.708428466796875,0.1020355224609375,-0.664459228515625,0.596893310546875
1775711361985441500,1.718441650390625,0.1255035400390625,-0.69036865234375,0.6595916748046875
1775711361995455500,1.72845556640625,0.1482086181640625,-0.7041015625,0.70367431640625
1775711362005468400,1.738468505859375,0.1741180419921875,-0.7227325439453125,0.73065185546875
1775711362015482400,1.748482421875,0.20166015625,-0.7413177490234375,0.742828369140625
1775711362025495600,1.75849560546875,0.246856689453125,-0.748016357421875,0.7344207763671875
1775711362035509200,1.76850927734375,0.249481201171875,-0.7625732421875,0.71942138671875
1775711362045522400,1.7785224609375,0.2332916259765625,-0.7757415771484375,0.7189178466796875
1775711362055536400,1.788536376953125,0.2286376953125,-0.771697998046875,0.6817779541015625
1775711362065549300,1.79854931640625,0.236480712890625,-0.7783966064453125,0.65478515625
1775711362075563500,1.8085634765625,0.2399749755859375,-0.7993316650390625,0.6544952392578125
1775711362085576400,1.818576416015625,0.2473602294921875,-0.816864013671875,0.6653900146484375
1775711362095590400,1.82859033203125,0.2513427734375,-0.8234710693359375,0.6996612548828125
1775711362105603600,1.838603515625,0.227294921875,-0.84381103515625,0.7553253173828125
1775711362115616500,1.848616455078125,0.1966094970703125,-0.8499298095703125,0.8348388671875
1775711362125630500,1.85863037109375,0.19189453125,-0.8252410888671875,0.90679931640625
1775711362135643400,1.868643310546875,0.1984710693359375,-0.801422119140625,0.944549560546875
1775711362145657600,1.87865771484375,0.18463134765625,-0.78143310546875,0.9668731689453125
1775711362155670500,1.88867041015625,0.1444549560546875,-0.7633819580078125,0.9804229736328125
1775711362165684500,1.8986845703125,0.1107330322265625,-0.743804931640625,0.964813232421875
1775711362175697700,1.90869775390625,0.0993499755859375,-0.7342681884765625,0.938934326171875
1775711362185711400,1.91871142578125,0.089141845703125,-0.726226806640625,0.91473388671875
1775711362195724500,1.928724609375,0.0860748291015625,-0.70892333984375,0.892852783203125
1775711362205738500,1.938738525390625,0.0918731689453125,-0.706390380859375,0.890228271484375
1775711362215751400,1.94875146484375,0.1051177978515625,-0.70654296875,0.9024200439453125
1775711362225765400,1.958765380859375,0.142303466796875,-0.6857147216796875,0.9140777587890625
1775711362235778600,1.968778564453125,0.163482666015625,-0.6739044189453125,0.9254302978515625
1775711362245792500,1.97879248046875,0.1699066162109375,-0.6624755859375,0.9232635498046875
1775711362255805400,1.988805419921875,0.16998291015625,-0.6399078369140625,0.920135498046875
1775711362265819600,1.998819580078125,0.1532440185546875,-0.616180419921875,0.9225616455078125
1775711362275832300,2.008832275390625,0.1194610595703125,-0.5992889404296875,0.9261474609375
1775711362285846500,2.018846435546875,0.1004180908203125,-0.6011810302734375,0.931365966796875
1775711362295859500,2.028859375,0.087677001953125,-0.5838470458984375,0.904205322265625
1775711362305872400,2.038872314453125,0.059967041015625,-0.58233642578125,0.87054443359375
1775711362315886600,2.048886474609375,0.0529937744140625,-0.60491943359375,0.84661865234375
1775711362325899300,2.058899169921875,0.04681396484375,-0.6065826416015625,0.8137054443359375
1775711362335913500,2.06891357421875,0.0296173095703125,-0.609130859375,0.8006439208984375
1775711362345926400,2.078926513671875,0.0237579345703125,-0.626129150390625,0.8144378662109375
1775711362355940400,2.0889404296875,0.0151214599609375,-0.621551513671875,0.8322906494140625
1775711362365953500,2.09895361328125,-0.024383544921875,-0.6165924072265625,0.8281097412109375
1775711362375967500,2.108967529296875,-0.017120361328125,-0.6035614013671875,0.820953369140625
1775711362385980400,2.11898046875,-0.0128173828125,-0.62066650390625,0.7988739013671875
1775711362395994400,2.128994384765625,-0.0281524658203125,-0.6535186767578125,0.801055908203125
1775711362406007600,2.139007568359375,-0.0284881591796875,-0.6437225341796875,0.8088836669921875
1775711362416021200,2.149021240234375,-0.039703369140625,-0.6475677490234375,0.7899169921875
1775711362426034400,2.159034423828125,-0.021514892578125,-0.674835205078125,0.75482177734375
1775711362436048400,2.16904833984375,0.0003814697265625,-0.6781768798828125,0.7022857666015625
1775711362446061300,2.179061279296875,0.004486083984375,-0.6757049560546875,0.6875457763671875
1775711362456075500,2.189075439453125,0.0287017822265625,-0.677642822265625,0.6840057373046875
1775711362466088400,2.19908837890625,0.052703857421875,-0.6844482421875,0.656280517578125
1775711362476101400,2.209101318359375,0.0615081787109375,-0.6962890625,0.6371612548828125
1775711362486115300,2.219115234375,0.0847320556640625,-0.703643798828125,0.6274566650390625
1775711362496128500,2.22912841796875,0.1263275146484375,-0.6993560791015625,0.6254730224609375
1775711362506142500,2.239142578125,0.1446380615234375,-0.692108154296875,0.635955810546875
1775711362516155400,2.2491552734375,0.1366119384765625,-0.690460205078125,0.6517486572265625
1775711362526169600,2.259169677734375,0.1197509765625,-0.689910888671875,0.6469879150390625
1775711362536182500,2.2691826171875,0.108184814453125,-0.686431884765625,0.631988525390625
1775711362546196500,2.279196533203125,0.1022491455078125,-0.6882781982421875,0.6257476806640625
1775711362556209700,2.289209716796875,0.0958099365234375,-0.690460205078125,0.6545562744140625
1775711362566223600,2.2992236328125,0.091522216796875,-0.69097900390625,0.6947021484375
1775711362576236500,2.309236572265625,0.1096038818359375,-0.6934661865234375,0.7279815673828125
1775711362586250500,2.31925048828125,0.137359619140625,-0.696441650390625,0.7396697998046875
1775711362596263700,2.329263671875,0.1467437744140625,-0.695404052734375,0.723419189453125
1775711362606277400,2.33927734375,0.1473388671875,-0.6983795166015625,0.705047607421875
1775711362616290600,2.34929052734375,0.1240692138671875,-0.7082061767578125,0.6939544677734375
1775711362626303700,2.3593037109375,0.114227294921875,-0.7080078125,0.6777496337890625
1775711362636317400,2.3693173828125,0.1229095458984375,-0.7061309814453125,0.676116943359375
1775711362646330600,2.37933056640625,0.1060028076171875,-0.7004241943359375,0.6686859130859375
1775711362656344600,2.389344482421875,0.1135101318359375,-0.6890716552734375,0.6810302734375
1775711362666357500,2.399357421875,0.110992431640625,-0.7002716064453125,0.700347900390625
1775711362676371500,2.409371337890625,0.0932159423828125,-0.72271728515625,0.6883087158203125
1775711362686384600,2.419384521484375,0.1132049560546875,-0.716583251953125,0.6933746337890625
1775711362696398600,2.429398681640625,0.1638946533203125,-0.7049713134765625,0.702880859375
1775711362706411500,2.43941162109375,0.1859588623046875,-0.7001495361328125,0.7002410888671875
1775711362716425700,2.44942578125,0.1844940185546875,-0.70697021484375,0.696136474609375
1775711362726438400,2.4594384765625,0.18707275390625,-0.7141265869140625,0.685394287109375
1775711362736452600,2.46945263671875,0.18853759765625,-0.7087554931640625,0.6746826171875
1775711362746465800,2.4794658203125,0.1923065185546875,-0.7100677490234375,0.6750030517578125
1775711362756479500,2.4894794921875,0.1931915283203125,-0.703948974609375,0.670654296875
1775711362766492700,2.49949267578125,0.1778717041015625,-0.6926727294921875,0.6714935302734375
1775711362776506600,2.509506591796875,0.1616363525390625,-0.6887359619140625,0.6704864501953125
1775711362786519600,2.51951953125,0.1552886962890625,-0.6819915771484375,0.6565399169921875
1775711362796532700,2.52953271484375,0.1472930908203125,-0.678466796875,0.6593475341796875
1775711362806546700,2.539546630859375,0.1383514404296875,-0.6691741943359375,0.6739654541015625
1775711362816559600,2.5495595703125,0.1252593994140625,-0.6634063720703125,0.6875457763671875
1775711362826573600,2.559573486328125,0.118682861328125,-0.6643218994140625,0.689849853515625
1775711362836586500,2.56958642578125,0.1154022216796875,-0.6626129150390625,0.676483154296875
1775711362846600400,2.579600341796875,0.11669921875,-0.6678314208984375,0.6660919189453125
1775711362856613600,2.589613525390625,0.130767822265625,-0.6745452880859375,0.661376953125
1775711362866627600,2.599627685546875,0.1410980224609375,-0.67401123046875,0.645904541015625
1775711362876640500,2.609640625,0.1478271484375,-0.6763763427734375,0.6378173828125
1775711362886654700,2.61965478515625,0.15374755859375,-0.6765899658203125,0.6382598876953125
1775711362896667400,2.62966748046875,0.1541748046875,-0.6766204833984375,0.64361572265625
1775711362906681600,2.639681640625,0.1552581787109375,-0.677978515625,0.654571533203125
1775711362916694500,2.649694580078125,0.1579132080078125,-0.6807098388671875,0.6642913818359375
1775711362926707500,2.65970751953125,0.1677398681640625,-0.6836090087890625,0.6709136962890625
1775711362936721700,2.6697216796875,0.1703033447265625,-0.686859130859375,0.6702423095703125
1775711362946734600,2.679734619140625,0.1683502197265625,-0.6912078857421875,0.673919677734375
1775711362956748500,2.68974853515625,0.1637115478515625,-0.69390869140625,0.6754913330078125
1775711362966761500,2.699761474609375,0.1569366455078125,-0.6944427490234375,0.674957275390625
1775711362976775700,2.709775634765625,0.146026611328125,-0.6970672607421875,0.6845245361328125
1775711362986788600,2.71978857421875,0.140869140625,-0.7004241943359375,0.6945037841796875
1775711362996802600,2.729802490234375,0.1514129638671875,-0.6998443603515625,0.6988983154296875
1775711363006815700,2.739815673828125,0.16290283203125,-0.7044219970703125,0.7020263671875
1775711363016829400,2.749829345703125,0.1660919189453125,-0.709503173828125,0.7056427001953125
1775711363026842600,2.759842529296875,0.1600189208984375,-0.718902587890625,0.696990966796875
1775711363036856600,2.769856689453125,0.1593017578125,-0.722625732421875,0.69110107421875
1775711363046869500,2.779869384765625,0.15594482421875,-0.72479248046875,0.69110107421875
1775711363056883500,2.789883544921875,0.1490478515625,-0.72686767578125,0.6886138916015625
1775711363066896600,2.799896728515625,0.148040771484375,-0.724334716796875,0.6920318603515625
1775711363076909600,2.80990966796875,0.142364501953125,-0.724945068359375,0.6939697265625
1775711363086923500,2.819923583984375,0.130096435546875,-0.7268218994140625,0.697296142578125
1775711363096936400,2.8299365234375,0.117889404296875,-0.7241973876953125,0.6995849609375
1775711363106950400,2.839950439453125,0.101776123046875,-0.7247772216796875,0.6976165771484375
1775711363116963600,2.849963623046875,0.0859222412109375,-0.718353271484375,0.690582275390625
1775711363126977800,2.859977783203125,0.068023681640625,-0.71649169921875,0.691192626953125
1775711363136990500,2.869990478515625,0.0617218017578125,-0.7207794189453125,0.701324462890625
1775711363147004700,2.880004638671875,0.055389404296875,-0.7200469970703125,0.6976318359375
1775711363157017300,2.890017333984375,0.052978515625,-0.7231597900390625,0.6961669921875
1775711363167031600,2.900031494140625,0.054473876953125,-0.7200775146484375,0.691009521484375
1775711363177044700,2.910044677734375,0.067474365234375,-0.722564697265625,0.693115234375
1775711363187058700,2.92005859375,0.0722198486328125,-0.7246551513671875,0.6933746337890625
1775711363197071600,2.930071533203125,0.0780029296875,-0.7225341796875,0.6983489990234375
1775711363207084500,2.94008447265625,0.0891876220703125,-0.7159423828125,0.702667236328125
1775711363217098500,2.950098388671875,0.0929718017578125,-0.719451904296875,0.7010498046875
1775711363227111700,2.960111572265625,0.0991363525390625,-0.7220611572265625,0.697021484375
1775711363237125600,2.970125732421875,0.1092376708984375,-0.7198944091796875,0.6927032470703125
1775711363247138600,2.980138671875,0.1113433837890625,-0.72515869140625,0.6944580078125
1775711363257152500,2.990152587890625,0.1147308349609375,-0.725555419921875,0.6955413818359375
1775711363267165700,3.000165771484375,0.1223907470703125,-0.7267608642578125,0.700439453125
1775711363277179400,3.010179443359375,0.123931884765625,-0.7272491455078125,0.701507568359375
1775711363287192600,3.020192626953125,0.1174163818359375,-0.72479248046875,0.69671630859375
1775711363297206500,3.03020654296875,0.1213226318359375,-0.7248992919921875,0.69720458984375
1775711363307219500,3.040219482421875,0.11810302734375,-0.725250244140625,0.690155029296875
1775711363317233700,3.050233642578125,0.1153106689453125,-0.72174072265625,0.69091796875
1775711363327246600,3.06024658203125,0.11260986328125,-0.72412109375,0.6912078857421875
1775711363337259500,3.070259521484375,0.1152801513671875,-0.7223968505859375,0.689910888671875
1775711363347273500,3.0802734375,0.1179046630859375,-0.7206268310546875,0.682586669921875
1775711363357286700,3.09028662109375,0.1275787353515625,-0.720947265625,0.68194580078125
1775711363367300600,3.100300537109375,0.1306610107421875,-0.717041015625,0.6744842529296875
1775711363377313500,3.1103134765625,0.132537841796875,-0.712738037109375,0.6706085205078125
1775711363387327700,3.12032763671875,0.1304473876953125,-0.70880126953125,0.6665802001953125
1775711363397340400,3.13034033203125,0.128875732421875,-0.7082672119140625,0.6622467041015625
1775711363407354600,3.140354736328125,0.127532958984375,-0.703826904296875,0.6526336669921875
1775711363417367800,3.150367919921875,0.1287841796875,-0.6953277587890625,0.644378662109375
1775711363427381500,3.160381591796875,0.1237030029296875,-0.690216064453125,0.63812255859375
1775711363437394700,3.170394775390625,0.1174163818359375,-0.6850433349609375,0.6427001953125
1775711363447408600,3.18040869140625,0.1145172119140625,-0.681427001953125,0.647796630859375
1775711363457421600,3.190421630859375,0.1142578125,-0.680267333984375,0.65545654296875
1775711363467434800,3.200434814453125,0.10723876953125,-0.6760101318359375,0.6603851318359375
1775711363477448400,3.210448486328125,0.1097259521484375,-0.6755218505859375,0.660125732421875
1775711363487461600,3.220461669921875,0.11370849609375,-0.6750640869140625,0.65826416015625
1775711363497475600,3.2304755859375,0.1245574951171875,-0.67919921875,0.66607666015625
1775711363507488500,3.240488525390625,0.1389923095703125,-0.6884002685546875,0.6717376708984375
1775711363517502500,3.25050244140625,0.15484619140625,-0.6942901611328125,0.6716156005859375
1775711363527515600,3.260515625,0.1641998291015625,-0.705657958984375,0.6776885986328125
1775711363537529300,3.270529296875,0.17132568359375,-0.71075439453125,0.68231201171875
1775711363547542500,3.28054248046875,0.175506591796875,-0.7124481201171875,0.6888427734375
1775711363557556700,3.290556640625,0.174346923828125,-0.7173919677734375,0.7014312744140625
1775711363567569400,3.3005693359375,0.1750640869140625,-0.715545654296875,0.7121124267578125
1775711363577583600,3.31058349609375,0.1640472412109375,-0.71527099609375,0.717254638671875
1775711363587596500,3.320596435546875,0.1524200439453125,-0.7160797119140625,0.7241973876953125
1775711363597609500,3.330609375,0.1375732421875,-0.7134246826171875,0.7194366455078125
1775711363607623400,3.34062353515625,0.126708984375,-0.7133026123046875,0.70989990234375
1775711363617636400,3.35063623046875,0.1198577880859375,-0.713897705078125,0.701171875
1775711363627650600,3.360650634765625,0.118743896484375,-0.7093353271484375,0.6922149658203125
1775711363637663500,3.37066357421875,0.1197967529296875,-0.7032928466796875,0.686004638671875
1775711363647677400,3.380677490234375,0.1159820556640625,-0.7034912109375,0.676116943359375
1775711363657690600,3.390690673828125,0.105621337890625,-0.694915771484375,0.6592864990234375
1775711363667704300,3.400704345703125,0.0966644287109375,-0.6864166259765625,0.643829345703125
1775711363677717500,3.410717529296875,0.08392333984375,-0.6813812255859375,0.630462646484375
1775711363687731500,3.4207314453125,0.07586669921875,-0.6726531982421875,0.618743896484375
1775711363697744400,3.430744384765625,0.070281982421875,-0.6635894775390625,0.6082000732421875
1775711363707757600,3.440757568359375,0.0605316162109375,-0.65106201171875,0.5975341796875
1775711363717771500,3.450771484375,0.048248291015625,-0.6331787109375,0.5846099853515625
1775711363727784400,3.460784423828125,0.04510498046875,-0.618438720703125,0.5698394775390625
1775711363737798400,3.47079833984375,0.03680419921875,-0.611968994140625,0.5513458251953125
1775711363747811600,3.4808115234375,0.0198211669921875,-0.613922119140625,0.543853759765625
1775711363757825300,3.4908251953125,0.0063629150390625,-0.6004791259765625,0.52783203125
1775711363767838500,3.50083837890625,-0.0013885498046875,-0.6000518798828125,0.5242156982421875
1775711363777852400,3.510852294921875,-0.0118255615234375,-0.600128173828125,0.5256195068359375
1775711363787865300,3.520865234375,-0.03399658203125,-0.5854034423828125,0.5247344970703125
1775711363797879600,3.530879638671875,-0.06097412109375,-0.583465576171875,0.52008056640625
1775711363807892500,3.540892578125,-0.07757568359375,-0.5782318115234375,0.50238037109375
1775711363817906400,3.550906494140625,-0.0793609619140625,-0.5626983642578125,0.496124267578125
1775711363827919400,3.56091943359375,-0.0736083984375,-0.5581817626953125,0.49322509765625
1775711363837932300,3.570932373046875,-0.06353759765625,-0.5602874755859375,0.50030517578125
1775711363847946500,3.580946533203125,-0.056396484375,-0.5648040771484375,0.5159149169921875
1775711363857959400,3.59095947265625,-0.0493316650390625,-0.570556640625,0.5338897705078125
1775711363867973600,3.6009736328125,-0.0499725341796875,-0.5650177001953125,0.5491485595703125
1775711363877986300,3.610986328125,-0.0432281494140625,-0.55413818359375,0.5736236572265625
1775711363888000500,3.62100048828125,-0.03509521484375,-0.54364013671875,0.60186767578125
1775711363898013400,3.631013427734375,-0.030670166015625,-0.530364990234375,0.6249542236328125
1775711363908027400,3.64102734375,-0.020263671875,-0.5237579345703125,0.650604248046875
1775711363918040600,3.65104052734375,-0.0141143798828125,-0.5301666259765625,0.6669921875
1775711363928054500,3.661054443359375,-0.0087738037109375,-0.547576904296875,0.6917724609375
1775711363938067500,3.6710673828125,0.001495361328125,-0.562591552734375,0.7190399169921875
1775711363948080600,3.68108056640625,0.0269927978515625,-0.55682373046875,0.7416534423828125
1775711363958094300,3.69109423828125,0.057373046875,-0.5572662353515625,0.7737884521484375
1775711363968107500,3.701107421875,0.0712127685546875,-0.5606842041015625,0.8148345947265625
1775711363978121500,3.71112158203125,0.0719146728515625,-0.568359375,0.8553619384765625
1775711363988134400,3.721134521484375,0.076202392578125,-0.5638427734375,0.8697357177734375
1775711363998148400,3.7311484375,0.079193115234375,-0.55059814453125,0.8855438232421875
1775711364008161500,3.74116162109375,0.069610595703125,-0.5615234375,0.930084228515625
1775711364018175500,3.751175537109375,0.05328369140625,-0.57000732421875,0.9606475830078125
1775711364028188400,3.7611884765625,0.0380859375,-0.5564117431640625,0.964874267578125
1775711364038202600,3.77120263671875,0.03045654296875,-0.5446319580078125,0.9608154296875
1775711364048215300,3.78121533203125,0.032989501953125,-0.5277252197265625,0.944580078125
1775711364058228500,3.791228515625,0.024932861328125,-0.5213470458984375,0.941009521484375
1775711364068242400,3.801242431640625,0.0343170166015625,-0.530487060546875,0.957977294921875
1775711364078255400,3.81125537109375,0.0621795654296875,-0.5169677734375,0.956329345703125
1775711364088269600,3.82126953125,0.0963897705078125,-0.527496337890625,0.9438934326171875
1775711364098282500,3.831282470703125,0.139434814453125,-0.545318603515625,0.9405059814453125
1775711364108296400,3.84129638671875,0.1599884033203125,-0.533447265625,0.9548492431640625
1775711364118309400,3.851309326171875,0.1984405517578125,-0.5293121337890625,1.0033111572265625
1775711364128323600,3.861323486328125,0.2573699951171875,-0.5168914794921875,1.0134735107421875
1775711364138336500,3.87133642578125,0.320587158203125,-0.508148193359375,0.9960479736328125
1775711364148350500,3.8813505859375,0.35699462890625,-0.5069580078125,0.976593017578125
1775711364158363400,3.89136328125,0.3533935546875,-0.49810791015625,0.970611572265625
1775711364168376300,3.901376220703125,0.3327178955078125,-0.48809814453125,0.9683837890625
1775711364178390500,3.911390625,0.29730224609375,-0.4898223876953125,0.9752349853515625
1775711364188403500,3.921403564453125,0.2556610107421875,-0.487152099609375,0.9709625244140625
1775711364198417400,3.93141748046875,0.228973388671875,-0.486328125,0.9537506103515625
1775711364208430600,3.9414306640625,0.2240753173828125,-0.4869537353515625,0.945587158203125
1775711364218444300,3.9514443359375,0.260162353515625,-0.492828369140625,0.9302978515625
1775711364228457500,3.96145751953125,0.3034820556640625,-0.5122833251953125,0.92144775390625
1775711364238471400,3.971471435546875,0.31646728515625,-0.53570556640625,0.898956298828125
1775711364248484400,3.981484375,0.3244781494140625,-0.541534423828125,0.8536529541015625
1775711364258498300,3.991498291015625,0.3235931396484375,-0.55029296875,0.80487060546875
1775711364268511500,4.001511474609375,0.325653076171875,-0.563720703125,0.7613983154296875
1775711364278524400,4.0115244140625,0.3415374755859375,-0.5663299560546875,0.7411346435546875
1775711364288538400,4.021538330078125,0.33917236328125,-0.5629425048828125,0.7313385009765625
1775711364298551600,4.031551513671875,0.3126068115234375,-0.5691986083984375,0.7226104736328125
1775711364308565500,4.0415654296875,0.2784271240234375,-0.5722503662109375,0.7126617431640625
1775711364318578400,4.051578369140625,0.2628021240234375,-0.56787109375,0.689971923828125
1775711364328592600,4.061592529296875,0.273651123046875,-0.5739593505859375,0.6787261962890625
1775711364338605300,4.071605224609375,0.264923095703125,-0.5781402587890625,0.685760498046875
1775711364348619500,4.08161962890625,0.254547119140625,-0.565643310546875,0.706298828125
1775711364358632400,4.091632568359375,0.2436676025390625,-0.5421905517578125,0.72705078125
1775711364368645400,4.101645263671875,0.2258453369140625,-0.510772705078125,0.7271575927734375
1775711364378659600,4.11165966796875,0.2233734130859375,-0.4848175048828125,0.72265625
1775711364388672300,4.12167236328125,0.20281982421875,-0.4705963134765625,0.7346649169921875
1775711364398686500,4.1316865234375,0.16314697265625,-0.457916259765625,0.7454833984375
1775711364408699400,4.141699462890625,0.1218414306640625,-0.4445037841796875,0.748931884765625
1775711364418713600,4.151713623046875,0.069793701171875,-0.4704742431640625,0.7819061279296875
1775711364428726500,4.1617265625,0.03399658203125,-0.5102081298828125,0.8072052001953125
1775711364438740500,4.171740478515625,0.02764892578125,-0.5442657470703125,0.814361572265625
1775711364448753400,4.18175341796875,0.0378570556640625,-0.6122283935546875,0.828399658203125
1775711364458767400,4.191767333984375,0.028839111328125,-0.6707305908203125,0.860504150390625
1775711364468780500,4.201780517578125,-0.0166168212890625,-0.7172088623046875,0.904541015625
1775711364478793500,4.21179345703125,-0.0484619140625,-0.7558746337890625,0.93182373046875
1775711364488807400,4.221807373046875,-0.07025146484375,-0.773712158203125,0.9584503173828125
1775711364498820600,4.231820556640625,-0.1053009033203125,-0.7954254150390625,0.990509033203125
1775711364508834300,4.241834228515625,-0.1265411376953125,-0.8115234375,0.996856689453125
1775711364518847500,4.251847412109375,-0.1323699951171875,-0.8261260986328125,0.9937591552734375
1775711364528861400,4.261861328125,-0.159210205078125,-0.838287353515625,1.00640869140625
1775711364538874400,4.271874267578125,-0.1952362060546875,-0.8166656494140625,1.0123748779296875
1775711364548888300,4.281888427734375,-0.2427215576171875,-0.776580810546875,1.0198516845703125
1775711364558901500,4.291901611328125,-0.3017425537109375,-0.740631103515625,1.0363922119140625
1775711364568915000,4.3019150390625,-0.341827392578125,-0.687652587890625,1.028778076171875
1775711364578927900,4.311927978515625,-0.3746490478515625,-0.6318206787109375,1.011138916015625
1775711364588940800,4.32194091796875,-0.400299072265625,-0.582916259765625,0.979583740234375
1775711364598955000,4.331955078125,-0.3967132568359375,-0.527740478515625,0.9415283203125
1775711364608968000,4.341968017578125,-0.3605804443359375,-0.4908905029296875,0.9239654541015625
1775711364618982000,4.35198193359375,-0.3010711669921875,-0.4651641845703125,0.9072113037109375
1775711364628994800,4.361994873046875,-0.2315673828125,-0.441436767578125,0.8934326171875
1775711364639009000,4.372009033203125,-0.150115966796875,-0.426666259765625,0.88897705078125
1775711364649022000,4.38202197265625,-0.0785064697265625,-0.422027587890625,0.90216064453125
1775711364659036000,4.392035888671875,-0.0319366455078125,-0.4371185302734375,0.9384307861328125
1775711364669049000,4.402049072265625,0.0056304931640625,-0.4614410400390625,0.973846435546875
1775711364679062000,4.41206201171875,0.04718017578125,-0.484283447265625,1.009857177734375
1775711364689076000,4.422075927734375,0.072357177734375,-0.5251617431640625,1.0499725341796875
1775711364699089200,4.432089111328125,0.063232421875,-0.5724639892578125,1.0773773193359375
1775711364709102800,4.442102783203125,0.0125579833984375,-0.5996246337890625,1.08447265625
1775711364719116000,4.452115966796875,-0.0345001220703125,-0.6297149658203125,1.1011810302734375
1775711364729130000,4.4621298828125,-0.0613250732421875,-0.6566009521484375,1.1206512451171875
1775711364739143000,4.472142822265625,-0.05908203125,-0.6505279541015625,1.1241302490234375
1775711364749156900,4.482156982421875,-0.0333251953125,-0.6305084228515625,1.11920166015625
1775711364759170000,4.492170166015625,0.01202392578125,-0.6079559326171875,1.1150360107421875
1775711364769183000,4.502182861328125,0.068145751953125,-0.5908966064453125,1.123565673828125
1775711364779197000,4.512197021484375,0.1265411376953125,-0.5822906494140625,1.1409149169921875
1775711364789209900,4.5222099609375,0.15740966796875,-0.5698089599609375,1.1491241455078125
1775711364799223800,4.532223876953125,0.1709136962890625,-0.5544586181640625,1.146240234375
1775711364809237000,4.542237060546875,0.169342041015625,-0.5454254150390625,1.1307830810546875
1775711364819251000,4.5522509765625,0.1483001708984375,-0.5434112548828125,1.111297607421875
1775711364829264000,4.562263916015625,0.1159820556640625,-0.535980224609375,1.0928955078125
1775711364839278000,4.572278076171875,0.06982421875,-0.516937255859375,1.088470458984375
1775711364849290800,4.582290771484375,0.019989013671875,-0.506683349609375,1.10015869140625
1775711364859304000,4.592303955078125,-0.020721435546875,-0.49542236328125,1.1100006103515625
1775711364869318000,4.60231787109375,-0.0479583740234375,-0.480316162109375,1.118255615234375
1775711364879330800,4.612330810546875,-0.047821044921875,-0.491851806640625,1.115264892578125
1775711364889345000,4.622344970703125,-0.0279998779296875,-0.501861572265625,1.1190185546875
1775711364899358000,4.63235791015625,-0.008636474609375,-0.5100555419921875,1.08697509765625
1775711364909372000,4.642371826171875,0.029693603515625,-0.5236358642578125,1.0212860107421875
1775711364919384800,4.652384765625,0.0694732666015625,-0.53045654296875,0.9535980224609375
1775711364929399000,4.66239892578125,0.09039306640625,-0.54779052734375,0.9040985107421875
1775711364939412000,4.672411865234375,0.0858306884765625,-0.5697479248046875,0.8634490966796875
1775711364949425000,4.6824248046875,0.0686187744140625,-0.5713043212890625,0.8238525390625
1775711364959439000,4.692439208984375,0.0428009033203125,-0.5812530517578125,0.8042755126953125
1775711364969452000,4.7024521484375,0.0082855224609375,-0.598419189453125,0.8073272705078125
1775711364979466000,4.712466064453125,-0.01837158203125,-0.6060943603515625,0.8221282958984375
1775711364989479200,4.722479248046875,-0.0370025634765625,-0.6063232421875,0.83526611328125
1775711364999492900,4.732492919921875,-0.0525665283203125,-0.606109619140625,0.8413238525390625
1775711365009506000,4.742506103515625,-0.0695343017578125,-0.599761962890625,0.8689422607421875
1775711365019520000,4.75252001953125,-0.07373046875,-0.58544921875,0.9053802490234375
1775711365029533000,4.762532958984375,-0.0582427978515625,-0.57720947265625,0.9163360595703125
1775711365039547000,4.772546875,-0.0419921875,-0.588165283203125,0.8921051025390625
1775711365049560000,4.78256005859375,-0.0265350341796875,-0.6108856201171875,0.8602752685546875
1775711365059573000,4.792572998046875,-0.0181732177734375,-0.622894287109375,0.8302001953125
1775711365069587000,4.8025869140625,-0.01702880859375,-0.6288604736328125,0.8101959228515625
1775711365079599900,4.812599853515625,-0.0258636474609375,-0.6201324462890625,0.7891082763671875
1775711365089613800,4.82261376953125,-0.04766845703125,-0.6009674072265625,0.766815185546875
1775711365099627000,4.832626953125,-0.06158447265625,-0.5951995849609375,0.756500244140625
1775711365109641000,4.842640869140625,-0.0568389892578125,-0.5905914306640625,0.7788543701171875
1775711365119654000,4.85265380859375,-0.0477447509765625,-0.582977294921875,0.8125762939453125
1775711365129667000,4.8626669921875,-0.0374603271484375,-0.5903167724609375,0.819305419921875
1775711365139680800,4.8726806640625,-0.0381317138671875,-0.5810089111328125,0.82769775390625
1775711365149694000,4.88269384765625,-0.0461578369140625,-0.5738983154296875,0.836822509765625
1775711365159708000,4.8927080078125,-0.0615692138671875,-0.5811614990234375,0.8249969482421875
1775711365169720800,4.902720947265625,-0.0770111083984375,-0.56719970703125,0.806365966796875
1775711365179735000,4.912735107421875,-0.087158203125,-0.564453125,0.7899627685546875
1775711365189748000,4.922748046875,-0.088348388671875,-0.5761871337890625,0.7847137451171875
1775711365199762000,4.932761962890625,-0.0772857666015625,-0.59088134765625,0.7997894287109375
1775711365209774800,4.94277490234375,-0.06719970703125,-0.59716796875,0.8194427490234375
1775711365219789000,4.9527890625,-0.0497283935546875,-0.595001220703125,0.8226318359375
1775711365229802000,4.962802001953125,-0.036956787109375,-0.583251953125,0.80487060546875
1775711365239815000,4.97281494140625,-0.02520751953125,-0.5633087158203125,0.766845703125
1775711365249829000,4.9828291015625,-0.0127716064453125,-0.5660400390625,0.7312164306640625
1775711365259841800,4.992841796875,-0.006256103515625,-0.5870361328125,0.7033233642578125
1775711365269856000,5.00285595703125,-0.0147857666015625,-0.6025238037109375,0.6671142578125
1775711365279869000,5.012868896484375,-0.036895751953125,-0.622650146484375,0.6399078369140625
1775711365289883000,5.0228828125,-0.0507965087890625,-0.625640869140625,0.6085052490234375
1775711365299896000,5.03289599609375,-0.0552520751953125,-0.6034393310546875,0.5708160400390625
1775711365309909000,5.042908935546875,-0.0587158203125,-0.607574462890625,0.5479736328125
1775711365319923000,5.0529228515625,-0.0651397705078125,-0.6183013916015625,0.54278564453125
1775711365329936100,5.06293603515625,-0.0828399658203125,-0.632080078125,0.566375732421875
1775711365339949800,5.07294970703125,-0.1011505126953125,-0.6448211669921875,0.6019439697265625
1775711365349963000,5.082962890625,-0.1251678466796875,-0.6260833740234375,0.6195220947265625
1775711365359977000,5.09297705078125,-0.134765625,-0.612945556640625,0.6284637451171875
1775711365369990000,5.102989990234375,-0.1202850341796875,-0.6165313720703125,0.637451171875
1775711365380003800,5.11300390625,-0.104339599609375,-0.595794677734375,0.65191650390625
1775711365390017000,5.12301708984375,-0.064422607421875,-0.59393310546875,0.6411895751953125
1775711365400030000,5.133030029296875,-0.0187835693359375,-0.63128662109375,0.6168212890625
1775711365410044000,5.1430439453125,-0.0035247802734375,-0.6479339599609375,0.59722900390625
1775711365420057000,5.15305712890625,-0.003875732421875,-0.64544677734375,0.5699615478515625
1775711365430070800,5.16307080078125,-0.000396728515625,-0.6445770263671875,0.560150146484375
1775711365440084000,5.173083984375,-0.008514404296875,-0.653472900390625,0.5560760498046875
1775711365450098000,5.183097900390625,-0.0213470458984375,-0.6562652587890625,0.54473876953125
1775711365460110800,5.19311083984375,-0.032562255859375,-0.646728515625,0.537994384765625
1775711365470125000,5.203125,-0.049072265625,-0.6255950927734375,0.53936767578125
1775711365480138000,5.213137939453125,-0.070343017578125,-0.6054534912109375,0.5621185302734375
1775711365490151000,5.22315087890625,-0.0741729736328125,-0.581939697265625,0.593017578125
1775711365500164900,5.233164794921875,-0.07421875,-0.559539794921875,0.5906982421875
1775711365510177800,5.243177734375,-0.0727996826171875,-0.5542449951171875,0.578887939453125
1775711365520192000,5.25319189453125,-0.073486328125,-0.5492095947265625,0.58935546875
1775711365530205000,5.263204833984375,-0.073699951171875,-0.546478271484375,0.5888671875
1775711365540219100,5.27321923828125,-0.0605621337890625,-0.5267486572265625,0.573028564453125
1775711365550231800,5.283231689453125,-0.064605712890625,-0.514068603515625,0.5157012939453125
1775711365560246000,5.29324609375,-0.07012939453125,-0.52667236328125,0.44873046875
1775711365570259700,5.303259765625,-0.0898284912109375,-0.5188140869140625,0.414093017578125
1775711365580272600,5.313272705078125,-0.1015167236328125,-0.503082275390625,0.3746490478515625
1775711365590286800,5.323286865234375,-0.104400634765625,-0.4961700439453125,0.3426666259765625
1775711365600299500,5.333299560546875,-0.108795166015625,-0.4794464111328125,0.336639404296875
1775711365610313700,5.343313720703125,-0.1244659423828125,-0.475494384765625,0.3392486572265625
1775711365620326700,5.35332666015625,-0.1266326904296875,-0.4775390625,0.35260009765625
1775711365630340900,5.3633408203125,-0.114410400390625,-0.4613037109375,0.342437744140625
1775711365640353800,5.373353759765625,-0.0868988037109375,-0.452056884765625,0.3076324462890625
1775711365650366700,5.38336669921875,-0.0535430908203125,-0.450653076171875,0.2726287841796875
1775711365660380700,5.393380615234375,-0.0195465087890625,-0.450103759765625,0.26068115234375
1775711365670393600,5.4033935546875,0.0084991455078125,-0.455413818359375,0.2720184326171875
1775711365680407800,5.41340771484375,0.0307159423828125,-0.4445648193359375,0.287109375
1775711365690420700,5.423420654296875,0.049224853515625,-0.43731689453125,0.299163818359375
1775711365700434700,5.4334345703125,0.0652313232421875,-0.4210662841796875,0.32965087890625
1775711365710447900,5.44344775390625,0.0760040283203125,-0.394805908203125,0.3576812744140625
1775711365720461600,5.453461669921875,0.0910491943359375,-0.386627197265625,0.4050140380859375
1775711365730474800,5.463474853515625,0.08074951171875,-0.4038543701171875,0.4777069091796875
1775711365740488000,5.473488037109375,0.0902862548828125,-0.4246978759765625,0.5601959228515625
1775711365750501600,5.483501708984375,0.1050872802734375,-0.4224700927734375,0.632080078125
1775711365760514800,5.493514892578125,0.114959716796875,-0.4344940185546875,0.6674652099609375
1775711365770528800,5.50352880859375,0.1287689208984375,-0.45794677734375,0.6958465576171875
1775711365780541700,5.513541748046875,0.12030029296875,-0.4501800537109375,0.700714111328125
1775711365790555600,5.5235556640625,0.10101318359375,-0.4494476318359375,0.6973419189453125
1775711365800568800,5.53356884765625,0.05865478515625,-0.4708251953125,0.6984405517578125
1775711365810581800,5.543581787109375,0.025634765625,-0.5034332275390625,0.6808319091796875
1775711365820595700,5.553595703125,0.0372772216796875,-0.5394287109375,0.6861724853515625
1775711365830608600,5.563608642578125,0.052001953125,-0.5998382568359375,0.7465972900390625
1775711365840622600,5.57362255859375,0.10723876953125,-0.6298675537109375,0.842132568359375
1775711365850635800,5.5836357421875,0.203948974609375,-0.611358642578125,0.9476470947265625
1775711365860649700,5.593649658203125,0.2735137939453125,-0.5980224609375,1.00836181640625
1775711365870662700,5.60366259765625,0.2756805419921875,-0.6230621337890625,1.0273895263671875
1775711365880676900,5.6136767578125,0.2281646728515625,-0.636871337890625,1.0040130615234375
1775711365890689500,5.623689453125,0.1570587158203125,-0.6186981201171875,0.9472503662109375
1775711365900702700,5.63370263671875,0.075042724609375,-0.6209716796875,0.892547607421875
1775711365910716700,5.643716552734375,0.0060882568359375,-0.614166259765625,0.8705291748046875
1775711365920729600,5.6537294921875,-0.0491943359375,-0.5954132080078125,0.85968017578125
1775711365930743800,5.663743896484375,-0.0810089111328125,-0.608123779296875,0.895294189453125
1775711365940756700,5.6737568359375,-0.083282470703125,-0.587921142578125,0.940887451171875
1775711365950770700,5.683770751953125,-0.0643310546875,-0.543701171875,0.9670562744140625
1775711365960783600,5.69378369140625,-0.044586181640625,-0.5410614013671875,1.01446533203125
1775711365970796800,5.703796875,-0.033660888671875,-0.5419769287109375,1.0512237548828125
1775711365980810800,5.713810791015625,-0.025726318359375,-0.557098388671875,1.0615997314453125
1775711365990823700,5.72382373046875,-0.01788330078125,-0.58575439453125,1.045928955078125
1775711366000838000,5.733837890625,-0.0331573486328125,-0.603515625,1.0105438232421875
1775711366010850600,5.7438505859375,-0.06500244140625,-0.6215362548828125,0.9605865478515625
1775711366020864800,5.75386474609375,-0.10589599609375,-0.6144866943359375,0.8987579345703125
1775711366030877700,5.763877685546875,-0.1374664306640625,-0.6205596923828125,0.8824005126953125
1775711366040890600,5.773890625,-0.166015625,-0.6270599365234375,0.9061737060546875
1775711366050904800,5.78390478515625,-0.1862640380859375,-0.6232452392578125,0.93402099609375
1775711366060917500,5.79391748046875,-0.180633544921875,-0.6211090087890625,0.9525146484375
1775711366070931700,5.803931640625,-0.1790924072265625,-0.62811279296875,0.9786529541015625
1775711366080945000,5.81394482421875,-0.196380615234375,-0.634613037109375,0.9885711669921875
1775711366090958600,5.82395849609375,-0.1912689208984375,-0.621734619140625,0.9748992919921875
1775711366100971800,5.8339716796875,-0.1873931884765625,-0.59906005859375,0.9557037353515625
1775711366110985700,5.84398583984375,-0.179443359375,-0.576995849609375,0.95574951171875
1775711366120998700,5.85399853515625,-0.159942626953125,-0.5480804443359375,0.965057373046875
1775711366131011800,5.86401171875,-0.155548095703125,-0.5243377685546875,0.974273681640625
1775711366141025800,5.87402587890625,-0.163787841796875,-0.50909423828125,0.978302001953125
1775711366151038700,5.884038818359375,-0.163482666015625,-0.5236663818359375,0.9850921630859375
1775711366161052700,5.894052734375,-0.1556243896484375,-0.5578155517578125,0.975341796875
1775711366171065900,5.90406591796875,-0.1309967041015625,-0.56451416015625,0.9451751708984375
1775711366181079600,5.91407958984375,-0.1123809814453125,-0.5552825927734375,0.9287872314453125
1775711366191092700,5.9240927734375,-0.107879638671875,-0.5450286865234375,0.902740478515625
1775711366201105700,5.934105712890625,-0.101226806640625,-0.5432586669921875,0.875091552734375
1775711366211119600,5.94411962890625,-0.09210205078125,-0.5522918701171875,0.857757568359375
1775711366221132800,5.9541328125,-0.082916259765625,-0.5486297607421875,0.8311614990234375
1775711366231146800,5.964146728515625,-0.1023712158203125,-0.543182373046875,0.7968902587890625
1775711366241159700,5.97415966796875,-0.1356201171875,-0.548431396484375,0.786376953125
1775711366251173600,5.984173583984375,-0.1681671142578125,-0.5386505126953125,0.764495849609375
1775711366261186600,5.9941865234375,-0.1888885498046875,-0.5239410400390625,0.7242279052734375
1775711366271199700,6.00419970703125,-0.1765594482421875,-0.5422821044921875,0.6951446533203125
1775711366281213700,6.014213623046875,-0.171630859375,-0.5401458740234375,0.6927490234375
1775711366291226600,6.0242265625,-0.1769561767578125,-0.5356597900390625,0.729278564453125
1775711366301240600,6.034240478515625,-0.1847381591796875,-0.56011962890625,0.7669219970703125
1775711366311253800,6.044253662109375,-0.19158935546875,-0.5523529052734375,0.7549591064453125
1775711366321267700,6.054267822265625,-0.1947174072265625,-0.542877197265625,0.7362060546875
1775711366331280600,6.06428076171875,-0.1933135986328125,-0.546295166015625,0.7090606689453125
1775711366341293800,6.0742939453125,-0.182403564453125,-0.55084228515625,0.701995849609375
1775711366351307500,6.0843076171875,-0.1558074951171875,-0.5522308349609375,0.7147979736328125
1775711366361320700,6.09432080078125,-0.1322479248046875,-0.5535736083984375,0.728424072265625
1775711366371335000,6.1043349609375,-0.11480712890625,-0.5473175048828125,0.7436370849609375
1775711366381347600,6.11434765625,-0.1067962646484375,-0.54931640625,0.765289306640625
1775711366391361800,6.12436181640625,-0.1060028076171875,-0.529022216796875,0.789093017578125
1775711366401374700,6.134374755859375,-0.0984039306640625,-0.5230712890625,0.82965087890625
1775711366411388700,6.144388671875,-0.0943756103515625,-0.5330047607421875,0.88763427734375
1775711366421401900,6.15440185546875,-0.10955810546875,-0.5159149169921875,0.9127044677734375
1775711366431414500,6.16441455078125,-0.11669921875,-0.532562255859375,0.930755615234375
1775711366441428700,6.1744287109375,-0.125091552734375,-0.5623626708984375,0.9342041015625
1775711366451441700,6.184441650390625,-0.14013671875,-0.5652008056640625,0.92388916015625
1775711366461456000,6.194455810546875,-0.15509033203125,-0.5754241943359375,0.910736083984375
1775711366471468800,6.20446875,-0.1499176025390625,-0.5723114013671875,0.907958984375
1775711366481482800,6.214482666015625,-0.1593780517578125,-0.5476226806640625,0.9075775146484375
1775711366491495700,6.22449560546875,-0.1679840087890625,-0.5429229736328125,0.89971923828125
1775711366501508600,6.234508544921875,-0.1532135009765625,-0.547027587890625,0.92620849609375
1775711366511522800,6.244522705078125,-0.15966796875,-0.5422210693359375,0.965087890625
1775711366521535700,6.25453564453125,-0.154449462890625,-0.54083251953125,0.9758453369140625
1775711366531549700,6.2645498046875,-0.1351165771484375,-0.5349884033203125,0.9743194580078125
1775711366541563000,6.27456298828125,-0.1304931640625,-0.5281524658203125,0.9712371826171875
1775711366551576600,6.28457666015625,-0.1586456298828125,-0.5190277099609375,0.9414825439453125
1775711366561589800,6.29458984375,-0.2022247314453125,-0.5144195556640625,0.9132843017578125
1775711366571602400,6.3046025390625,-0.23443603515625,-0.5045623779296875,0.880950927734375
1775711366581616400,6.314616455078125,-0.2388763427734375,-0.5023040771484375,0.8460845947265625
1775711366591629300,6.32462939453125,-0.213958740234375,-0.51580810546875,0.8181915283203125
1775711366601643300,6.334643310546875,-0.196258544921875,-0.51025390625,0.78741455078125
1775711366611656400,6.344656494140625,-0.1712799072265625,-0.5241851806640625,0.7388763427734375
1775711366621670100,6.354670166015625,-0.129791259765625,-0.563720703125,0.7054595947265625
1775711366631683300,6.364683349609375,-0.1101531982421875,-0.58453369140625,0.737884521484375
1775711366641696300,6.3746962890625,-0.1302490234375,-0.598846435546875,0.7879791259765625
1775711366651710200,6.384710205078125,-0.1583251953125,-0.59393310546875,0.832977294921875
1775711366661723400,6.394723388671875,-0.1789703369140625,-0.60894775390625,0.85333251953125
1775711366671737300,6.4047373046875,-0.173095703125,-0.6447906494140625,0.8314056396484375
1775711366681750300,6.414750244140625,-0.1503448486328125,-0.6389007568359375,0.7888641357421875
1775711366691764500,6.424764404296875,-0.1389312744140625,-0.645843505859375,0.755828857421875
1775711366701777200,6.434777099609375,-0.16131591796875,-0.6437835693359375,0.7434234619140625
1775711366711790300,6.444790283203125,-0.2254638671875,-0.6007843017578125,0.74017333984375
1775711366721804300,6.45480419921875,-0.279144287109375,-0.5897979736328125,0.7685699462890625
1775711366731817200,6.464817138671875,-0.3377838134765625,-0.579864501953125,0.834991455078125
1775711366741831400,6.47483154296875,-0.3897552490234375,-0.576324462890625,0.9171600341796875
1775711366751844400,6.48484423828125,-0.428558349609375,-0.5735626220703125,0.9643096923828125
1775711366761858300,6.4948583984375,-0.43048095703125,-0.55853271484375,0.9896240234375
1775711366771871200,6.504871337890625,-0.381988525390625,-0.5464324951171875,0.9893035888671875
1775711366781884400,6.514884521484375,-0.3202667236328125,-0.5242767333984375,0.9691009521484375
1775711366791898400,6.5248984375,-0.273284912109375,-0.5019683837890625,0.948089599609375
1775711366801911300,6.534911376953125,-0.2558746337890625,-0.4812774658203125,0.931610107421875
1775711366811925500,6.544925537109375,-0.2364044189453125,-0.4626007080078125,0.912567138671875
1775711366821938200,6.554938232421875,-0.213714599609375,-0.4412994384765625,0.8984375
1775711366831952400,6.564952392578125,-0.2101898193359375,-0.4242706298828125,0.912200927734375
1775711366841965300,6.57496533203125,-0.23443603515625,-0.403564453125,0.9351806640625
1775711366851978200,6.584978271484375,-0.2641143798828125,-0.3829345703125,0.9384918212890625
1775711366861992400,6.594992431640625,-0.271820068359375,-0.37451171875,0.9191436767578125
1775711366872005000,6.605005126953125,-0.260650634765625,-0.39996337890625,0.9227294921875
1775711366882019300,6.615019287109375,-0.2571563720703125,-0.419952392578125,0.91558837890625
1775711366892032500,6.625032470703125,-0.238006591796875,-0.4277496337890625,0.91143798828125
1775711366902045200,6.635045166015625,-0.189910888671875,-0.439483642578125,0.9069366455078125
1775711366912059400,6.645059326171875,-0.132904052734375,-0.449462890625,0.9053802490234375
1775711366922072300,6.655072265625,-0.09393310546875,-0.4600830078125,0.9047698974609375
1775711366932086300,6.665086181640625,-0.073516845703125,-0.4689178466796875,0.915252685546875
1775711366942099500,6.675099365234375,-0.066680908203125,-0.471343994140625,0.90625
1775711366952113400,6.685113525390625,-0.079254150390625,-0.477386474609375,0.8834686279296875
1775711366962126300,6.695126220703125,-0.11529541015625,-0.4868621826171875,0.8687744140625
1775711366972139300,6.70513916015625,-0.1598968505859375,-0.498779296875,0.85711669921875
1775711366982153500,6.715153564453125,-0.1938934326171875,-0.5061187744140625,0.8610076904296875
1775711366992166400,6.72516650390625,-0.2363739013671875,-0.502105712890625,0.8681640625
1775711367002180400,6.735180419921875,-0.2769775390625,-0.4988861083984375,0.879241943359375
1775711367012193500,6.745193603515625,-0.3134918212890625,-0.503814697265625,0.9056854248046875
1775711367022207200,6.755207275390625,-0.3560943603515625,-0.5152587890625,0.9270172119140625
1775711367032220400,6.765220458984375,-0.3719024658203125,-0.5195465087890625,0.9379425048828125
1775711367042233300,6.7752333984375,-0.3531494140625,-0.5210723876953125,0.944976806640625
1775711367052247300,6.785247314453125,-0.3271942138671875,-0.5236053466796875,0.9372711181640625
1775711367062260500,6.795260498046875,-0.30419921875,-0.5217132568359375,0.9270782470703125
1775711367072274400,6.8052744140625,-0.2843017578125,-0.5071868896484375,0.9152984619140625
1775711367082287400,6.815287353515625,-0.2808685302734375,-0.497589111328125,0.919158935546875
1775711367092301300,6.82530126953125,-0.2946624755859375,-0.4927215576171875,0.9343719482421875
1775711367102314200,6.835314208984375,-0.32489013671875,-0.478790283203125,0.97100830078125
1775711367112327400,6.845327392578125,-0.3486175537109375,-0.476226806640625,1.0331268310546875
1775711367122341400,6.85534130859375,-0.35589599609375,-0.4740447998046875,1.0861358642578125
1775711367132354300,6.865354248046875,-0.3364410400390625,-0.4757537841796875,1.131927490234375
1775711367142368300,6.8753681640625,-0.301483154296875,-0.4857635498046875,1.15643310546875
1775711367152381400,6.88538134765625,-0.2554168701171875,-0.491546630859375,1.1602935791015625
1775711367162394400,6.895394287109375,-0.20037841796875,-0.4762420654296875,1.1499481201171875
1775711367172408300,6.905408203125,-0.1517791748046875,-0.460418701171875,1.151092529296875
1775711367182421500,6.91542138671875,-0.1318817138671875,-0.4522552490234375,1.14984130859375
1775711367192435200,6.925435302734375,-0.1280975341796875,-0.4424896240234375,1.1348876953125
1775711367202448400,6.935448486328125,-0.117523193359375,-0.4414215087890625,1.1324310302734375
1775711367212462300,6.94546240234375,-0.120391845703125,-0.4482421875,1.133941650390625
1775711367222475300,6.955475341796875,-0.1407928466796875,-0.4590301513671875,1.1366424560546875
1775711367232488400,6.965488525390625,-0.161224365234375,-0.459197998046875,1.138763427734375
1775711367242502100,6.975502197265625,-0.181182861328125,-0.4514923095703125,1.134185791015625
1775711367252515300,6.985515380859375,-0.1891937255859375,-0.4511871337890625,1.11712646484375
1775711367262529300,6.995529296875,-0.183837890625,-0.4586181640625,1.087371826171875
1775711367272542200,7.005542236328125,-0.1823577880859375,-0.46173095703125,1.0572967529296875
1775711367282556400,7.015556396484375,-0.180511474609375,-0.4655609130859375,1.02508544921875
1775711367292569300,7.0255693359375,-0.1895599365234375,-0.455810546875,0.995513916015625
1775711367302582300,7.035582275390625,-0.218536376953125,-0.453521728515625,0.9833984375
1775711367312596200,7.04559619140625,-0.2412567138671875,-0.4680328369140625,0.98162841796875
1775711367322609400,7.055609375,-0.2445831298828125,-0.4766082763671875,0.972747802734375
1775711367332623400,7.065623291015625,-0.2442169189453125,-0.472808837890625,0.9559173583984375
1775711367342636300,7.07563623046875,-0.252899169921875,-0.4730072021484375,0.9382781982421875
1775711367352649500,7.0856494140625,-0.258392333984375,-0.466094970703125,0.9201812744140625
1775711367362663200,7.0956630859375,-0.2581787109375,-0.451568603515625,0.91058349609375
1775711367372676400,7.10567626953125,-0.249542236328125,-0.440673828125,0.913299560546875
1775711367382690300,7.115690185546875,-0.23895263671875,-0.4488677978515625,0.924072265625
1775711367392703200,7.125703125,-0.2169342041015625,-0.46771240234375,0.9298248291015625
1775711367402717400,7.135717529296875,-0.196319580078125,-0.477447509765625,0.924652099609375
1775711367412730000,7.145730224609375,-0.1876678466796875,-0.4825897216796875,0.909088134765625
1775711367422743300,7.155743408203125,-0.1833038330078125,-0.4787139892578125,0.888763427734375
1775711367432757500,7.165757568359375,-0.186553955078125,-0.4671630859375,0.8687591552734375
1775711367442770200,7.175770263671875,-0.2034759521484375,-0.460296630859375,0.8752288818359375
1775711367452784400,7.185784423828125,-0.229217529296875,-0.4624786376953125,0.8921966552734375
1775711367462797300,7.19579736328125,-0.23736572265625,-0.457550048828125,0.90203857421875
1775711367472811300,7.205811279296875,-0.23614501953125,-0.45025634765625,0.9068450927734375
1775711367482824400,7.215824462890625,-0.238189697265625,-0.446624755859375,0.9085540771484375
1775711367492837400,7.22583740234375,-0.237335205078125,-0.447418212890625,0.9136810302734375
1775711367502851300,7.235851318359375,-0.2214202880859375,-0.4340362548828125,0.92437744140625
1775711367512864300,7.2458642578125,-0.19683837890625,-0.4231109619140625,0.9224853515625
1775711367522878500,7.25587841796875,-0.1750335693359375,-0.428131103515625,0.903778076171875
1775711367532891400,7.265891357421875,-0.1427459716796875,-0.4326019287109375,0.8763427734375
1775711367542904300,7.275904296875,-0.1117706298828125,-0.44720458984375,0.845123291015625
1775711367552918500,7.28591845703125,-0.0955047607421875,-0.466522216796875,0.815460205078125
1775711367562931200,7.29593115234375,-0.082489013671875,-0.482666015625,0.788482666015625
1775711367572945200,7.305945068359375,-0.0664825439453125,-0.4842071533203125,0.766937255859375
1775711367582958300,7.315958251953125,-0.0717620849609375,-0.48712158203125,0.7709808349609375
1775711367592972000,7.325971923828125,-0.0833587646484375,-0.485931396484375,0.7732696533203125
1775711367602985200,7.335985107421875,-0.087554931640625,-0.4764862060546875,0.7637786865234375
1775711367612998000,7.345997802734375,-0.09002685546875,-0.4741058349609375,0.7650146484375
1775711367623012000,7.35601220703125,-0.0968170166015625,-0.468292236328125,0.7675628662109375
1775711367633025300,7.366025390625,-0.10235595703125,-0.4707183837890625,0.7572784423828125
1775711367643039200,7.376039306640625,-0.1015167236328125,-0.4918670654296875,0.746368408203125
1775711367653052200,7.38605224609375,-0.1067352294921875,-0.4998016357421875,0.734161376953125
1775711367663065000,7.396065185546875,-0.1069488525390625,-0.51513671875,0.7263946533203125
1775711367673079000,7.4060791015625,-0.081024169921875,-0.5260009765625,0.7111968994140625
1775711367683092200,7.41609228515625,-0.0381622314453125,-0.5193634033203125,0.6887969970703125
1775711367693106200,7.426106201171875,-0.0221710205078125,-0.5132904052734375,0.6686553955078125
1775711367703119000,7.436119140625,-0.0370330810546875,-0.524383544921875,0.6607513427734375
1775711367713132000,7.446132080078125,-0.0550079345703125,-0.53375244140625,0.658294677734375
1775711367723146200,7.456146240234375,-0.076995849609375,-0.539215087890625,0.6830291748046875
1775711367733159200,7.4661591796875,-0.100921630859375,-0.53802490234375,0.6956024169921875
1775711367743173000,7.476173095703125,-0.1160888671875,-0.5373382568359375,0.70062255859375
1775711367753186300,7.486186279296875,-0.131134033203125,-0.5319366455078125,0.7177734375
1775711367763200000,7.496199951171875,-0.127410888671875,-0.51995849609375,0.7303924560546875
1775711367773213200,7.506213134765625,-0.115447998046875,-0.5140228271484375,0.742919921875
1775711367783226000,7.51622607421875,-0.1178741455078125,-0.5316619873046875,0.7562713623046875
1775711367793240000,7.526239990234375,-0.119903564453125,-0.548187255859375,0.7622833251953125
1775711367803253200,7.536253173828125,-0.1175079345703125,-0.55950927734375,0.7528839111328125
1775711367813267200,7.54626708984375,-0.1009979248046875,-0.570953369140625,0.7204437255859375
1775711367823280000,7.556280029296875,-0.082611083984375,-0.5626220703125,0.691802978515625
1775711367833294000,7.566294189453125,-0.091400146484375,-0.5589447021484375,0.684783935546875
1775711367843307000,7.57630712890625,-0.0987396240234375,-0.56561279296875,0.694061279296875
1775711367853320200,7.5863203125,-0.10284423828125,-0.56903076171875,0.6953125
1775711367863334100,7.596334228515625,-0.1141204833984375,-0.5780487060546875,0.6961669921875
1775711367873347000,7.60634716796875,-0.1291961669921875,-0.56903076171875,0.7118072509765625
1775711367883361000,7.616361083984375,-0.1533050537109375,-0.5611572265625,0.7315216064453125
1775711367893374200,7.626374267578125,-0.164764404296875,-0.54986572265625,0.73431396484375
1775711367903387100,7.63638720703125,-0.141357421875,-0.53851318359375,0.713134765625
1775711367913401000,7.646401123046875,-0.11297607421875,-0.5478363037109375,0.678070068359375
1775711367923414300,7.656414306640625,-0.0731658935546875,-0.5527496337890625,0.64190673828125
1775711367933428000,7.666427978515625,-0.055694580078125,-0.55401611328125,0.6277008056640625
1775711367943441200,7.676441162109375,-0.0560302734375,-0.5448760986328125,0.62432861328125
1775711367953454000,7.6864541015625,-0.0690460205078125,-0.532501220703125,0.6037139892578125
1775711367963468000,7.696468017578125,-0.083587646484375,-0.5282745361328125,0.5817718505859375
1775711367973481200,7.706481201171875,-0.0970611572265625,-0.514404296875,0.583831787109375
1775711367983495200,7.7164951171875,-0.109222412109375,-0.495330810546875,0.5923614501953125
1775711367993508000,7.726508056640625,-0.1056060791015625,-0.490570068359375,0.5718994140625
1775711368003522000,7.73652197265625,-0.0764312744140625,-0.48614501953125,0.5300445556640625
1775711368013535000,7.746534912109375,-0.0319671630859375,-0.481475830078125,0.4754638671875
1775711368023548200,7.756548095703125,0.00006103515625,-0.4958038330078125,0.4457855224609375
1775711368033562000,7.76656201171875,0.0250701904296875,-0.5023345947265625,0.43792724609375
1775711368043575000,7.776574951171875,0.0447845458984375,-0.5005340576171875,0.439178466796875
1775711368053589000,7.786589111328125,0.041046142578125,-0.4983673095703125,0.44647216796875
1775711368063602200,7.796602294921875,0.0272064208984375,-0.4902191162109375,0.45135498046875
1775711368073615000,7.806614990234375,0.0170135498046875,-0.4799957275390625,0.4592437744140625
1775711368083629000,7.816629150390625,0.009979248046875,-0.483734130859375,0.4755706787109375
1775711368093642200,7.826642333984375,0.00067138671875,-0.488189697265625,0.50372314453125
1775711368103656000,7.836656005859375,-0.0194244384765625,-0.500213623046875,0.5214996337890625
1775711368113669000,7.846669189453125,-0.0136871337890625,-0.5129852294921875,0.5117645263671875
1775711368123682000,7.85668212890625,-0.0080413818359375,-0.5218505859375,0.525482177734375
1775711368133696000,7.866696044921875,-0.019073486328125,-0.5313568115234375,0.5449371337890625
1775711368143709200,7.876709228515625,-0.0143585205078125,-0.5506134033203125,0.5592041015625
1775711368153723100,7.88672314453125,-0.012176513671875,-0.5618133544921875,0.5817718505859375
1775711368163736000,7.896736083984375,-0.024139404296875,-0.5794677734375,0.6298828125
1775711368173750300,7.906750244140625,-0.0356903076171875,-0.577362060546875,0.6898193359375
1775711368183763000,7.916762939453125,-0.05572509765625,-0.55157470703125,0.734527587890625
1775711368193776000,7.926776123046875,-0.070648193359375,-0.5566558837890625,0.7581024169921875
1775711368203790000,7.9367900390625,-0.0755615234375,-0.6009521484375,0.7787017822265625
1775711368213803000,7.946802978515625,-0.079345703125,-0.60638427734375,0.7650146484375
1775711368223817200,7.956817138671875,-0.075408935546875,-0.5902252197265625,0.755340576171875
1775711368233830100,7.966830078125,-0.06927490234375,-0.6183624267578125,0.7592926025390625
1775711368243843000,7.976843017578125,-0.0523529052734375,-0.640350341796875,0.7599945068359375
1775711368253857000,7.98685693359375,-0.0477294921875,-0.6222076416015625,0.7508392333984375
1775711368263870200,7.9968701171875,-0.0501861572265625,-0.6208343505859375,0.757965087890625
1775711368273884200,8.00688427734375,-0.050628662109375,-0.62420654296875,0.7550811767578125
1775711368283897000,8.01689697265625,-0.0446014404296875,-0.629547119140625,0.75079345703125
1775711368293910000,8.026909912109375,-0.0445556640625,-0.6309814453125,0.7519683837890625
1775711368303924000,8.036924072265625,-0.0425872802734375,-0.6280059814453125,0.740692138671875
1775711368313937200,8.046937255859374,-0.0444793701171875,-0.6404876708984375,0.7306671142578125
1775711368323951000,8.056951171875,-0.0541534423828125,-0.643341064453125,0.7350921630859375
1775711368333964000,8.066964111328126,-0.050506591796875,-0.6249847412109375,0.7477264404296875
1775711368343977200,8.076977294921875,-0.028961181640625,-0.6182098388671875,0.7763824462890625
1775711368353991000,8.086990966796876,-0.0326385498046875,-0.6024627685546875,0.806549072265625
1775711368364004000,8.097004150390624,-0.05224609375,-0.5959625244140625,0.8353271484375
1775711368374018300,8.107018310546875,-0.052764892578125,-0.5905609130859375,0.8530426025390625
1775711368384031000,8.117031005859374,-0.044158935546875,-0.595947265625,0.8641204833984375
1775711368394045200,8.127045166015625,-0.02484130859375,-0.6243133544921875,0.858001708984375
1775711368404058000,8.13705810546875,-0.007537841796875,-0.617828369140625,0.828704833984375
1775711368414071000,8.147071044921875,-0.000640869140625,-0.608154296875,0.8229827880859375
1775711368424085200,8.157085205078126,0.0047760009765625,-0.60638427734375,0.832305908203125
1775711368434098000,8.167097900390624,-0.0041351318359375,-0.5912017822265625,0.8442230224609375
1775711368444112100,8.177112060546875,-0.0176239013671875,-0.59466552734375,0.8700408935546875
1775711368454125000,8.187125,-0.041412353515625,-0.5957183837890625,0.882537841796875
1775711368464138000,8.197137939453125,-0.072296142578125,-0.5860595703125,0.870635986328125
1775711368474152200,8.207152099609376,-0.0860595703125,-0.5933380126953125,0.86669921875
1775711368484165000,8.2171650390625,-0.0979766845703125,-0.5924530029296875,0.84857177734375
1775711368494179000,8.227178955078125,-0.102691650390625,-0.5887451171875,0.823211669921875
1775711368504192000,8.23719189453125,-0.0949859619140625,-0.5907135009765625,0.8050689697265625
1775711368514205200,8.247205078125,-0.0794525146484375,-0.58013916015625,0.7840576171875
1775711368524219100,8.25721923828125,-0.0435943603515625,-0.5756378173828125,0.7702484130859375
1775711368534232000,8.267232177734375,-0.0216522216796875,-0.58294677734375,0.773101806640625
1775711368544246300,8.277246337890626,-0.017578125,-0.576904296875,0.7698822021484375
1775711368554259000,8.287259033203124,-0.0117034912109375,-0.5782012939453125,0.777618408203125
1775711368564272000,8.297272216796875,-0.0208892822265625,-0.5792694091796875,0.7930908203125
1775711368574286300,8.307286376953124,-0.047332763671875,-0.5621185302734375,0.79693603515625
1775711368584299500,8.317299560546875,-0.0876312255859375,-0.5429534912109375,0.82696533203125
1775711368594313500,8.3273134765625,-0.1225433349609375,-0.519775390625,0.873565673828125
1775711368604326400,8.337326416015625,-0.134521484375,-0.4998321533203125,0.912567138671875
1775711368614339300,8.34733935546875,-0.12445068359375,-0.4927215576171875,0.939453125
1775711368624353500,8.357353515625,-0.1013641357421875,-0.4976348876953125,0.9590606689453125
1775711368634366500,8.367366455078125,-0.0767822265625,-0.5147705078125,0.9573974609375
1775711368644380700,8.377380615234374,-0.0614776611328125,-0.5281829833984375,0.942962646484375
1775711368654393300,8.387393310546875,-0.0537567138671875,-0.5247955322265625,0.924346923828125
1775711368664406500,8.397406494140625,-0.03533935546875,-0.526092529296875,0.9043731689453125
1775711368674420500,8.40742041015625,0.001983642578125,-0.53759765625,0.871612548828125
1775711368684433400,8.417433349609375,0.0215911865234375,-0.5517425537109375,0.8520965576171875
1775711368694447600,8.427447509765624,0.005035400390625,-0.565826416015625,0.846343994140625
1775711368704460300,8.437460205078125,-0.0251617431640625,-0.5708770751953125,0.85601806640625
1775711368714473500,8.447473388671876,-0.055267333984375,-0.5557708740234375,0.8764801025390625
1775711368724487400,8.4574873046875,-0.06103515625,-0.5448150634765625,0.9054107666015625
1775711368734500400,8.467500244140625,-0.049835205078125,-0.539825439453125,0.922119140625
1775711368744514600,8.4775146484375,-0.039031982421875,-0.53515625,0.927459716796875
1775711368754527500,8.487527587890625,-0.0440216064453125,-0.5327606201171875,0.9290771484375
1775711368764540400,8.49754052734375,-0.044403076171875,-0.5290985107421875,0.9227752685546875
1775711368774554400,8.507554443359375,-0.0333099365234375,-0.51654052734375,0.9248809814453125
1775711368784567300,8.5175673828125,-0.0142974853515625,-0.506195068359375,0.9261016845703125
1775711368794581500,8.52758154296875,0.0203399658203125,-0.519683837890625,0.9207000732421875
1775711368804594400,8.537594482421875,0.0591583251953125,-0.5325775146484375,0.9022674560546875
1775711368814607400,8.547607421875,0.0712738037109375,-0.5295257568359375,0.901153564453125
1775711368824621300,8.557621337890625,0.06964111328125,-0.528717041015625,0.9133148193359375
1775711368834634500,8.567634521484376,0.073333740234375,-0.5247344970703125,0.919158935546875
1775711368844648400,8.5776484375,0.0830230712890625,-0.5052642822265625,0.9170379638671875
1775711368854661400,8.587661376953125,0.0846099853515625,-0.493499755859375,0.9198760986328125
1775711368864675600,8.597675537109374,0.0852508544921875,-0.489837646484375,0.9258270263671875
1775711368874688500,8.6076884765625,0.0828399658203125,-0.475067138671875,0.91766357421875
1775711368884701400,8.617701416015626,0.0709381103515625,-0.4624786376953125,0.9156951904296875
1775711368894715600,8.627715576171875,0.0670928955078125,-0.454193115234375,0.9182586669921875
1775711368904728300,8.637728271484375,0.0783843994140625,-0.4418792724609375,0.921844482421875
1775711368914742500,8.647742431640625,0.0825042724609375,-0.4308319091796875,0.92572021484375
1775711368924755500,8.65775537109375,0.08709716796875,-0.4205474853515625,0.924224853515625
1775711368934768400,8.667768310546874,0.0990447998046875,-0.412841796875,0.894866943359375
1775711368944782600,8.677782470703125,0.1135711669921875,-0.4190673828125,0.8544769287109375
1775711368954795300,8.687795166015626,0.1073150634765625,-0.42681884765625,0.822967529296875
1775711368964808400,8.697808349609375,0.0980682373046875,-0.4242706298828125,0.803741455078125
1775711368974822400,8.707822509765625,0.087890625,-0.416748046875,0.790191650390625
1775711368984835300,8.71783544921875,0.0710906982421875,-0.4188232421875,0.7899322509765625
1775711368994849500,8.727849609375,0.043731689453125,-0.4219207763671875,0.7972412109375
1775711369004862500,8.737862548828126,0.0135498046875,-0.421295166015625,0.808807373046875
1775711369014876400,8.74787646484375,-0.00335693359375,-0.4286041259765625,0.8351287841796875
1775711369024889300,8.757889404296876,-0.0121917724609375,-0.430145263671875,0.8681640625
1775711369034902500,8.767902587890624,-0.0240020751953125,-0.4305267333984375,0.8868408203125
1775711369044916500,8.77791650390625,-0.0320892333984375,-0.4364166259765625,0.898345947265625
1775711369054929400,8.787929443359374,-0.03692626953125,-0.4480743408203125,0.9000091552734375
1775711369064943600,8.797943603515625,-0.0346832275390625,-0.449462890625,0.893585205078125
1775711369074956500,8.80795654296875,-0.0272216796875,-0.441436767578125,0.8899383544921875
1775711369084969500,8.817969482421875,-0.0156097412109375,-0.442352294921875,0.89703369140625
1775711369094983400,8.8279833984375,-0.0112457275390625,-0.444091796875,0.9174652099609375
1775711369104996400,8.837996337890624,-0.0231475830078125,-0.457366943359375,0.96014404296875
1775711369115010600,8.848010498046875,-0.0263671875,-0.47991943359375,1.0070037841796875
1775711369125023500,8.8580234375,-0.01220703125,-0.4860076904296875,1.03936767578125
1775711369135036400,8.868036376953125,0.0071563720703125,-0.4818878173828125,1.0425872802734375
1775711369145050600,8.878050537109376,0.0189361572265625,-0.48681640625,1.033447265625
1775711369155063300,8.888063232421874,0.027008056640625,-0.488128662109375,1.0417327880859375
1775711369165077500,8.898077392578125,0.0273590087890625,-0.4808197021484375,1.050933837890625
1775711369175090400,8.90809033203125,0.0287628173828125,-0.4950103759765625,1.018951416015625
1775711369185103400,8.918103271484375,0.037872314453125,-0.519256591796875,0.95159912109375
1775711369195117600,8.92811767578125,0.0382537841796875,-0.53302001953125,0.8951263427734375
1775711369205130200,8.938130126953125,0.023712158203125,-0.5476837158203125,0.8584747314453125
1775711369215143400,8.948143310546875,0.0045318603515625,-0.5546417236328125,0.84832763671875
1775711369225157400,8.958157470703124,-0.012359619140625,-0.54852294921875,0.8515625
1775711369235170300,8.96817041015625,-0.0372161865234375,-0.539794921875,0.85906982421875
1775711369245184500,8.9781845703125,-0.063446044921875,-0.533782958984375,0.86297607421875
1775711369255197400,8.988197509765625,-0.0864715576171875,-0.5304718017578125,0.8691864013671875
1775711369265210400,8.99821044921875,-0.0976715087890625,-0.527099609375,0.869537353515625
1775711369275224300,9.008224365234375,-0.098297119140625,-0.5209808349609375,0.85980224609375
1775711369285237500,9.018237548828125,-0.0848388671875,-0.538970947265625,0.847015380859375
1775711369295251500,9.02825146484375,-0.0693511962890625,-0.5554656982421875,0.8113861083984375
1775711369305264400,9.038264404296875,-0.0342559814453125,-0.5674591064453125,0.784210205078125
1775711369315277300,9.04827734375,-0.0275421142578125,-0.5660552978515625,0.773712158203125
1775711369325291500,9.05829150390625,-0.0312042236328125,-0.5460662841796875,0.842926025390625
1775711369335304400,9.068304443359375,-0.0655975341796875,-0.4777679443359375,0.9556732177734375
1775711369345318700,9.078318603515624,-0.10284423828125,-0.4517822265625,1.01470947265625
1775711369355331300,9.088331298828125,-0.1363983154296875,-0.465576171875,1.0107269287109375
1775711369365344500,9.098344482421876,-0.168426513671875,-0.4832916259765625,0.9735260009765625
1775711369375358500,9.1083583984375,-0.2121429443359375,-0.5099639892578125,0.922821044921875
1775711369385371400,9.118371337890625,-0.25250244140625,-0.548126220703125,0.8936920166015625
1775711369395385600,9.128385498046875,-0.290740966796875,-0.5671234130859375,0.8638916015625
1775711369405398300,9.138398193359375,-0.3025360107421875,-0.5809478759765625,0.85211181640625
1775711369415411500,9.148411376953124,-0.30072021484375,-0.6011199951171875,0.86328125
1775711369425425400,9.15842529296875,-0.3006744384765625,-0.5999908447265625,0.8730010986328125
1775711369435438300,9.168438232421876,-0.2861328125,-0.601776123046875,0.8972625732421875
1775711369445452500,9.17845263671875,-0.266937255859375,-0.6120452880859375,0.9105987548828125
1775711369455465500,9.188465576171875,-0.245513916015625,-0.618865966796875,0.923187255859375
1775711369465478400,9.198478515625,-0.228485107421875,-0.6346893310546875,0.9443359375
1775711369475492400,9.208492431640625,-0.2084808349609375,-0.659332275390625,0.9578094482421875
1775711369485505300,9.21850537109375,-0.1703948974609375,-0.682037353515625,0.9762420654296875
1775711369495519500,9.22851953125,-0.129974365234375,-0.6941986083984375,1.0030670166015625
1775711369505532400,9.238532470703126,-0.099365234375,-0.7121429443359375,1.039642333984375
1775711369515545300,9.24854541015625,-0.0814666748046875,-0.71490478515625,1.0680999755859375
1775711369525559600,9.2585595703125,-0.0856170654296875,-0.69183349609375,1.0889129638671875
1775711369535572500,9.268572509765624,-0.09356689453125,-0.6618804931640625,1.1167144775390625
1775711369545586400,9.27858642578125,-0.1008758544921875,-0.6300506591796875,1.1631927490234375
1775711369555599400,9.288599365234376,-0.1060638427734375,-0.5998687744140625,1.1961212158203125
1775711369565612500,9.298612548828125,-0.1038818359375,-0.5771636962890625,1.198455810546875
1775711369575626800,9.308626708984375,-0.086669921875,-0.5500946044921875,1.1812744140625
1775711369585639700,9.3186396484375,-0.0630340576171875,-0.5344696044921875,1.138702392578125
1775711369595652900,9.32865283203125,-0.0427703857421875,-0.533843994140625,1.0843353271484375
1775711369605666600,9.33866650390625,-0.032379150390625,-0.5370330810546875,1.02520751953125
1775711369615679700,9.3486796875,-0.02069091796875,-0.540252685546875,0.969146728515625
1775711369625693700,9.358693603515626,-0.0244140625,-0.529144287109375,0.922088623046875
1775711369635706600,9.36870654296875,-0.0489654541015625,-0.5069427490234375,0.8824005126953125
1775711369645719800,9.3787197265625,-0.0822601318359375,-0.49102783203125,0.86749267578125
1775711369655733800,9.388733642578124,-0.1276092529296875,-0.48065185546875,0.87335205078125
1775711369665746700,9.39874658203125,-0.15948486328125,-0.47137451171875,0.8763885498046875
1775711369675760600,9.4087607421875,-0.1736907958984375,-0.4666748046875,0.8904266357421875
1775711369685773800,9.41877392578125,-0.1810455322265625,-0.457763671875,0.919769287109375
1775711369695786800,9.428786865234375,-0.169342041015625,-0.4546661376953125,0.9490203857421875
1775711369705800700,9.43880078125,-0.1374053955078125,-0.44921875,0.9514312744140625
1775711369715813600,9.448813720703125,-0.0903472900390625,-0.446533203125,0.9400634765625
1775711369725827600,9.45882763671875,-0.0440826416015625,-0.4604034423828125,0.929901123046875
1775711369735840800,9.4688408203125,0.003448486328125,-0.4777679443359375,0.9070587158203125
1775711369745853700,9.478853759765625,0.048095703125,-0.48419189453125,0.8792724609375
1775711369755867600,9.48886767578125,0.0782623291015625,-0.4939727783203125,0.845977783203125
1775711369765880800,9.498880859375,0.0847320556640625,-0.5046844482421875,0.83770751953125
1775711369775894500,9.50889453125,0.0682220458984375,-0.506805419921875,0.8426055908203125
1775711369785907700,9.51890771484375,0.038116455078125,-0.5060577392578125,0.8505859375
1775711369795921000,9.5289208984375,0.0056304931640625,-0.5136260986328125,0.8567352294921875
1775711369805934600,9.5389345703125,-0.0290985107421875,-0.5090789794921875,0.84417724609375
1775711369815947800,9.54894775390625,-0.07196044921875,-0.4967803955078125,0.837615966796875
1775711369825961700,9.558961669921874,-0.1099700927734375,-0.4830474853515625,0.8359832763671875
1775711369835974700,9.568974609375,-0.1373748779296875,-0.480194091796875,0.8506622314453125
1775711369845987800,9.57898779296875,-0.1504974365234375,-0.48553466796875,0.86322021484375
1775711369856001800,9.589001708984375,-0.1548004150390625,-0.4908905029296875,0.8724822998046875
1775711369866014700,9.5990146484375,-0.1472320556640625,-0.4922027587890625,0.8755035400390625
1775711369876028000,9.60902783203125,-0.1210174560546875,-0.493133544921875,0.880157470703125
1775711369886041600,9.61904150390625,-0.1308746337890625,-0.4960784912109375,0.9027099609375
1775711369896054800,9.6290546875,-0.1461181640625,-0.49188232421875,0.9301300048828125
1775711369906068700,9.63906884765625,-0.149627685546875,-0.4879150390625,0.9403839111328125
1775711369916081700,9.64908154296875,-0.1580352783203125,-0.489776611328125,0.9085540771484375
1775711369926094800,9.6590947265625,-0.160003662109375,-0.4864349365234375,0.87835693359375
1775711369936108800,9.66910888671875,-0.1706390380859375,-0.4808502197265625,0.8555450439453125
1775711369946121700,9.679121826171874,-0.187042236328125,-0.4839935302734375,0.8518829345703125
1775711369956135700,9.6891357421875,-0.19580078125,-0.491119384765625,0.860809326171875
1775711369966148900,9.69914892578125,-0.1975860595703125,-0.50103759765625,0.8701324462890625
1775711369976161800,9.709161865234375,-0.1822662353515625,-0.5221405029296875,0.8719329833984375
1775711369986175700,9.71917578125,-0.173614501953125,-0.538421630859375,0.86517333984375
1775711369996188700,9.729188720703124,-0.165985107421875,-0.5303955078125,0.8371734619140625
1775711370006202600,9.73920263671875,-0.1564788818359375,-0.536712646484375,0.8098602294921875
1775711370016215800,9.7492158203125,-0.1348724365234375,-0.546295166015625,0.77685546875
1775711370026228700,9.759228759765625,-0.118743896484375,-0.5323638916015625,0.7400054931640625
1775711370036242700,9.76924267578125,-0.113739013671875,-0.53887939453125,0.73974609375
1775711370046255900,9.779255859375,-0.120758056640625,-0.546905517578125,0.755859375
1775711370056268800,9.789268798828125,-0.1515960693359375,-0.536834716796875,0.7545623779296875
1775711370066282800,9.79928271484375,-0.184783935546875,-0.53369140625,0.7599639892578125
1775711370076296000,9.8092958984375,-0.2209625244140625,-0.5190277099609375,0.7720489501953125
1775711370086309600,9.8193095703125,-0.23052978515625,-0.5054779052734375,0.7743072509765625
1775711370096322800,9.82932275390625,-0.2306976318359375,-0.489837646484375,0.77447509765625
1775711370106335700,9.839335693359375,-0.243438720703125,-0.4931182861328125,0.7882843017578125
1775711370116349700,9.849349609375,-0.234344482421875,-0.495391845703125,0.8000946044921875
1775711370126363000,9.85936279296875,-0.231842041015625,-0.4887542724609375,0.8186187744140625
1775711370136376800,9.869376953125,-0.2308502197265625,-0.502838134765625,0.8268890380859375
1775711370146389800,9.8793896484375,-0.208404541015625,-0.510650634765625,0.8155975341796875
1775711370156403000,9.88940283203125,-0.197784423828125,-0.5026702880859375,0.8167877197265625
1775711370166416600,9.899416748046875,-0.19708251953125,-0.499664306640625,0.817840576171875
1775711370176429800,9.909429931640625,-0.2096710205078125,-0.494293212890625,0.814727783203125
1775711370186442800,9.91944287109375,-0.2305145263671875,-0.4986419677734375,0.8097076416015625
1775711370196456700,9.929456787109375,-0.232421875,-0.5072784423828125,0.795745849609375
1775711370206470000,9.939469970703126,-0.222808837890625,-0.509674072265625,0.782135009765625
1775711370216483800,9.94948388671875,-0.2232208251953125,-0.5052032470703125,0.7780914306640625
1775711370226496800,9.959496826171875,-0.2155609130859375,-0.516937255859375,0.7876434326171875
1775711370236509700,9.969509765625,-0.1878204345703125,-0.5237884521484375,0.7846832275390625
1775711370246524000,9.97952392578125,-0.1609954833984375,-0.53497314453125,0.7832183837890625
1775711370256536800,9.989536865234374,-0.13421630859375,-0.5603179931640625,0.7882232666015625
1775711370266550800,9.99955078125,-0.13128662109375,-0.5524444580078125,0.769744873046875
1775711370276563700,10.009563720703126,-0.132598876953125,-0.5434417724609375,0.763824462890625
1775711370286576600,10.01957666015625,-0.131805419921875,-0.54156494140625,0.777313232421875
1775711370296590800,10.0295908203125,-0.123260498046875,-0.5341033935546875,0.7985382080078125
1775711370306603800,10.039603759765624,-0.107208251953125,-0.525421142578125,0.8028564453125
1775711370316616700,10.04961669921875,-0.0782012939453125,-0.538726806640625,0.7893524169921875
1775711370326631000,10.059630859375,-0.0413665771484375,-0.5511016845703125,0.77142333984375
1775711370336643600,10.0696435546875,-0.0265045166015625,-0.5666961669921875,0.747528076171875
1775711370346657800,10.07965771484375,-0.0106353759765625,-0.6032257080078125,0.7501983642578125
1775711370356671000,10.0896708984375,0.0025634765625,-0.6104736328125,0.7483062744140625
1775711370366683600,10.09968359375,-0.0023040771484375,-0.596099853515625,0.73992919921875
1775711370376697900,10.10969775390625,0.0054473876953125,-0.5740203857421875,0.735321044921875
1775711370386710500,10.11971044921875,-0.0031585693359375,-0.5663299560546875,0.7375335693359375
1775711370396724700,10.129724853515626,0.001556396484375,-0.576019287109375,0.75689697265625
1775711370406738000,10.139738037109375,-0.0042266845703125,-0.5686187744140625,0.78167724609375
1775711370416750600,10.14975048828125,-0.0041656494140625,-0.5707550048828125,0.7949066162109375
1775711370426764800,10.159764892578124,0.0110321044921875,-0.5716094970703125,0.79742431640625
1775711370436777700,10.16977783203125,0.01678466796875,-0.5586395263671875,0.7537689208984375
1775711370446790700,10.179790771484376,0.0184326171875,-0.5686187744140625,0.712615966796875
1775711370456804900,10.189804931640625,0.015472412109375,-0.5662078857421875,0.672515869140625
1775711370466817800,10.19981787109375,-0.00213623046875,-0.5552520751953125,0.645263671875
1775711370476831700,10.209831787109374,-0.01483154296875,-0.53265380859375,0.6292572021484375
1775711370486844700,10.2198447265625,-0.018096923828125,-0.515899658203125,0.611602783203125
1775711370496857600,10.229857666015626,-0.0285186767578125,-0.5004425048828125,0.609771728515625
1775711370506871800,10.239871826171875,-0.042816162109375,-0.4808807373046875,0.622039794921875
1775711370516884700,10.249884765625,-0.05633544921875,-0.464813232421875,0.6609039306640625
1775711370526899000,10.25989892578125,-0.065338134765625,-0.443450927734375,0.6875457763671875
1775711370536911600,10.26991162109375,-0.059326171875,-0.42938232421875,0.6750640869140625
1775711370546924800,10.2799248046875,-0.043609619140625,-0.421661376953125,0.6453704833984375
1775711370556938800,10.289938720703125,-0.033935546875,-0.4270477294921875,0.592559814453125
1775711370566951700,10.29995166015625,-0.0258026123046875,-0.4375152587890625,0.5350189208984375
1775711370576963800,10.3099638671875,-0.03741455078125,-0.4280853271484375,0.479705810546875
1775711370586977800,10.319977783203125,-0.0442047119140625,-0.4259033203125,0.4212646484375
1775711370596990700,10.32999072265625,-0.041473388671875,-0.440093994140625,0.393890380859375
1775711370607005000,10.3400048828125,-0.0561370849609375,-0.4396514892578125,0.4172515869140625
1775711370617017900,10.350017822265626,-0.0736541748046875,-0.4299468994140625,0.47088623046875
1775711370627030800,10.36003076171875,-0.0936279296875,-0.418609619140625,0.5590362548828125
1775711370637045000,10.370044921875,-0.1138458251953125,-0.4034881591796875,0.628662109375
1775711370647057700,10.3800576171875,-0.12286376953125,-0.39654541015625,0.6932525634765625
1775711370657070800,10.39007080078125,-0.124053955078125,-0.384033203125,0.7356719970703125
1775711370667085000,10.4000849609375,-0.11859130859375,-0.3833160400390625,0.7291412353515625
1775711370677097700,10.41009765625,-0.0742645263671875,-0.402191162109375,0.696563720703125
1775711370687112000,10.42011181640625,-0.0265350341796875,-0.42510986328125,0.6484222412109375
1775711370697124600,10.43012451171875,0.014739990234375,-0.45794677734375,0.597442626953125
1775711370707137800,10.4401376953125,0.0444183349609375,-0.500091552734375,0.5501556396484375
1775711370717152000,10.450152099609374,0.0505218505859375,-0.5452117919921875,0.5218505859375
1775711370727164700,10.46016455078125,0.0366973876953125,-0.562255859375,0.499420166015625
1775711370737179000,10.470178955078126,0.016693115234375,-0.5751800537109375,0.5096588134765625
1775711370747191800,10.48019189453125,-0.0297698974609375,-0.5821685791015625,0.5281982421875
1775711370757204700,10.490204833984375,-0.0542755126953125,-0.5624847412109375,0.563629150390625
1775711370767219000,10.500218994140624,-0.044830322265625,-0.536834716796875,0.625762939453125
1775711370777232000,10.51023193359375,-0.02679443359375,-0.5460662841796875,0.673675537109375
1775711370787244800,10.520244873046876,0.01251220703125,-0.578460693359375,0.7256927490234375
1775711370797258800,10.5302587890625,0.0569915771484375,-0.6052093505859375,0.7562103271484375
1775711370807271700,10.540271728515625,0.08123779296875,-0.6351776123046875,0.7629852294921875
1775711370817286000,10.550285888671874,0.07763671875,-0.66265869140625,0.7718505859375
1775711370827298800,10.560298828125,0.042449951171875,-0.6612701416015625,0.783447265625
1775711370837311700,10.570311767578126,0.0088653564453125,-0.635772705078125,0.8136444091796875
1775711370847325700,10.58032568359375,-0.0290679931640625,-0.6118316650390625,0.8599853515625
1775711370857339000,10.5903388671875,-0.0598297119140625,-0.58636474609375,0.9086456298828125
1775711370867351800,10.600351806640624,-0.1136474609375,-0.564178466796875,0.948944091796875
1775711370877365800,10.61036572265625,-0.1550445556640625,-0.550750732421875,0.962371826171875
1775711370887379000,10.62037890625,-0.1517791748046875,-0.533233642578125,0.97674560546875
1775711370897392600,10.630392578125,-0.1501922607421875,-0.535614013671875,0.9823150634765625
1775711370907405800,10.64040576171875,-0.1541900634765625,-0.5532073974609375,0.9503173828125
1775711370917418800,10.650418701171875,-0.141448974609375,-0.5528564453125,0.91314697265625
1775711370927432700,10.6604326171875,-0.129058837890625,-0.55279541015625,0.9019927978515625
1775711370937446000,10.67044580078125,-0.133392333984375,-0.57025146484375,0.92913818359375
1775711370947459800,10.6804599609375,-0.1419677734375,-0.5525360107421875,0.9510650634765625
1775711370957472800,10.69047265625,-0.15594482421875,-0.52685546875,0.959259033203125
1775711370967486000,10.70048583984375,-0.1614837646484375,-0.52374267578125,0.960296630859375
1775711370977499600,10.710499755859376,-0.138671875,-0.529022216796875,0.950042724609375
1775711370987512800,10.720512939453124,-0.1118621826171875,-0.5238037109375,0.9320068359375
1775711370997526000,10.730526123046875,-0.0952301025390625,-0.5236358642578125,0.9029541015625
1775711371007539700,10.740539794921874,-0.08001708984375,-0.5380706787109375,0.86346435546875
1775711371017553000,10.750552978515625,-0.06243896484375,-0.539794921875,0.8193206787109375
1775711371027566800,10.76056689453125,-0.0644378662109375,-0.540802001953125,0.823760986328125
1775711371037579800,10.770579833984375,-0.087432861328125,-0.5272064208984375,0.8468780517578125
1775711371047593000,10.780593017578125,-0.0943603515625,-0.506317138671875,0.8705596923828125
1775711371057607000,10.79060693359375,-0.0984649658203125,-0.5182647705078125,0.8785858154296875
1775711371067619800,10.800619873046875,-0.11328125,-0.543060302734375,0.8960113525390625
1775711371077633000,10.810633056640626,-0.1340484619140625,-0.5676727294921875,0.9170684814453125
1775711371087646700,10.820646728515625,-0.14300537109375,-0.588043212890625,0.9201812744140625
1775711371097660000,10.830659912109375,-0.1407012939453125,-0.6005401611328125,0.91278076171875
1775711371107673900,10.840673828125,-0.1305999755859375,-0.6089324951171875,0.880462646484375
1775711371117686800,10.850686767578125,-0.11297607421875,-0.6043701171875,0.8380584716796875
1775711371127700000,10.860699951171876,-0.1017608642578125,-0.591339111328125,0.800384521484375
1775711371137714000,10.8707138671875,-0.1172027587890625,-0.59698486328125,0.7796478271484375
1775711371147726800,10.880726806640626,-0.13690185546875,-0.5894775390625,0.73675537109375
1775711371157739800,10.89073974609375,-0.139617919921875,-0.5763702392578125,0.706298828125
1775711371167754000,10.90075390625,-0.1509552001953125,-0.55914306640625,0.704681396484375
1775711371177767000,10.910766845703124,-0.1588592529296875,-0.5534820556640625,0.7303466796875
1775711371187780900,10.92078076171875,-0.159820556640625,-0.540740966796875,0.7664642333984375
1775711371197793800,10.930793701171876,-0.1622161865234375,-0.5431976318359375,0.83477783203125
1775711371207806700,10.940806640625,-0.16888427734375,-0.5591278076171875,0.8832550048828125
1775711371217821000,10.950821044921875,-0.17242431640625,-0.5419158935546875,0.8924407958984375
1775711371227833900,10.960833740234374,-0.1547393798828125,-0.5465087890625,0.885040283203125
1775711371237846800,10.9708466796875,-0.154052734375,-0.5594940185546875,0.857940673828125
1775711371247861000,10.980861083984376,-0.172088623046875,-0.5484619140625,0.8299407958984375
1775711371257873700,10.990873779296875,-0.1860198974609375,-0.543060302734375,0.81695556640625
1775711371267887900,11.000887939453126,-0.2011566162109375,-0.5310211181640625,0.840179443359375
1775711371277901000,11.010901123046875,-0.2094879150390625,-0.519622802734375,0.88653564453125
1775711371287913700,11.020913818359375,-0.21875,-0.50628662109375,0.9180908203125
1775711371297928000,11.030927978515624,-0.2087860107421875,-0.50830078125,0.9637451171875
1775711371307940600,11.040940673828125,-0.19281005859375,-0.5350494384765625,0.97698974609375
1775711371317953800,11.050953857421876,-0.1514892578125,-0.5482177734375,0.9301605224609375
1775711371327968000,11.060968017578125,-0.1076812744140625,-0.557708740234375,0.8828887939453125
1775711371337980700,11.070980712890625,-0.0819091796875,-0.562042236328125,0.850616455078125
1775711371347995000,11.080994873046874,-0.0772247314453125,-0.5601348876953125,0.8486785888671875
1775711371358007800,11.0910078125,-0.078369140625,-0.5606842041015625,0.861846923828125
1775711371368020700,11.101020751953126,-0.0966644287109375,-0.543182373046875,0.87451171875
1775711371378035000,11.111034912109375,-0.13104248046875,-0.54241943359375,0.9027099609375
1775711371388048000,11.1210478515625,-0.1425933837890625,-0.52996826171875,0.9138946533203125
1775711371398060800,11.131060791015624,-0.12908935546875,-0.5025177001953125,0.9069061279296875
1775711371408074800,11.14107470703125,-0.1134490966796875,-0.4911651611328125,0.902587890625
1775711371418087700,11.151087646484376,-0.095489501953125,-0.484619140625,0.8958587646484375
1775711371428100900,11.161100830078125,-0.0719757080078125,-0.4790496826171875,0.891998291015625
1775711371438114800,11.17111474609375,-0.0402984619140625,-0.4750823974609375,0.8854217529296875
1775711371448127700,11.181127685546874,0.000701904296875,-0.4723052978515625,0.8670501708984375
1775711371458141700,11.1911416015625,0.0298919677734375,-0.471649169921875,0.8407745361328125
1775711371468155000,11.20115478515625,0.0308380126953125,-0.478607177734375,0.8112030029296875
1775711371478167800,11.211167724609375,0.0074615478515625,-0.4866180419921875,0.78948974609375
1775711371488181800,11.221181640625,-0.002960205078125,-0.4851226806640625,0.7806854248046875
1775711371498195000,11.23119482421875,-0.010772705078125,-0.4807586669921875,0.7858123779296875
1775711371508207900,11.241207763671875,-0.0308685302734375,-0.485443115234375,0.7857513427734375
1775711371518221800,11.251221923828124,-0.040771484375,-0.49786376953125,0.793975830078125
1775711371528234800,11.26123486328125,-0.061126708984375,-0.5118408203125,0.7991485595703125
1775711371538248700,11.271248779296876,-0.077911376953125,-0.5267486572265625,0.7972259521484375
1775711371548262000,11.281261962890625,-0.1057891845703125,-0.537109375,0.79473876953125
1775711371558274800,11.29127490234375,-0.146209716796875,-0.542877197265625,0.782379150390625
1775711371568288800,11.301288818359374,-0.1600189208984375,-0.5590667724609375,0.7741851806640625
1775711371578302200,11.31130224609375,-0.17340087890625,-0.571136474609375,0.788787841796875
1775711371588315100,11.321315185546876,-0.19207763671875,-0.57244873046875,0.8059844970703125
1775711371598329000,11.3313291015625,-0.2006378173828125,-0.5864715576171875,0.8189544677734375
1775711371608342300,11.34134228515625,-0.1992645263671875,-0.6085662841796875,0.822509765625
1775711371618356200,11.351356201171875,-0.162994384765625,-0.6168670654296875,0.825286865234375
1775711371628369200,11.361369140625,-0.1419219970703125,-0.6199798583984375,0.8424835205078125
1775711371638382000,11.371382080078124,-0.13006591796875,-0.637847900390625,0.8587646484375
1775711371648396000,11.38139599609375,-0.1121368408203125,-0.6722412109375,0.871795654296875
1775711371658409200,11.3914091796875,-0.0955047607421875,-0.6999359130859375,0.886199951171875
1775711371668422100,11.401422119140625,-0.0845947265625,-0.72235107421875,0.8971405029296875
1775711371678436000,11.41143603515625,-0.102630615234375,-0.731903076171875,0.918975830078125
1775711371688449000,11.421448974609374,-0.1281890869140625,-0.722412109375,0.9619293212890625
1775711371698463200,11.431463134765625,-0.154327392578125,-0.7107086181640625,1.000091552734375
1775711371708476200,11.44147607421875,-0.1651611328125,-0.6991119384765625,1.033721923828125
1775711371718489000,11.451489013671875,-0.16937255859375,-0.6657867431640625,1.077484130859375
1775711371728503300,11.46150341796875,-0.188751220703125,-0.6354217529296875,1.1382293701171875
1775711371738516000,11.471515869140624,-0.2066192626953125,-0.614471435546875,1.1908721923828125
1775711371748529200,11.481529052734375,-0.2149200439453125,-0.60260009765625,1.2268218994140625
1775711371758543000,11.491543212890624,-0.2143096923828125,-0.583343505859375,1.2265167236328125
1775711371768556000,11.50155615234375,-0.1946258544921875,-0.5706329345703125,1.2213134765625
1775711371778569200,11.5115693359375,-0.178680419921875,-0.5505218505859375,1.2093048095703125
1775711371788583200,11.521583251953125,-0.161834716796875,-0.524200439453125,1.20220947265625
1775711371798596000,11.53159619140625,-0.1447296142578125,-0.519317626953125,1.2081298828125
1775711371808610300,11.5416103515625,-0.1176605224609375,-0.5095672607421875,1.2153778076171875
1775711371818623000,11.551623046875,-0.092803955078125,-0.4978790283203125,1.2236328125
1775711371828636200,11.56163623046875,-0.071380615234375,-0.4864959716796875,1.2252960205078125
1775711371838650000,11.571650146484375,-0.0487060546875,-0.463714599609375,1.207183837890625
1775711371848663000,11.5816630859375,-0.033935546875,-0.4464111328125,1.1883392333984375
1775711371858676200,11.59167626953125,-0.03094482421875,-0.4374237060546875,1.156890869140625
1775711371868690000,11.60168994140625,-0.031036376953125,-0.4314422607421875,1.1184539794921875
1775711371878703000,11.611703125,-0.039154052734375,-0.43438720703125,1.077728271484375
1775711371888717000,11.621717041015625,-0.04901123046875,-0.437255859375,1.0417327880859375
1775711371898730000,11.63172998046875,-0.0510711669921875,-0.4304656982421875,1.014251708984375
1775711371908743200,11.6417431640625,-0.0369873046875,-0.4239959716796875,1.009613037109375
1775711371918757000,11.651757080078125,-0.0335235595703125,-0.4243011474609375,1.01324462890625
1775711371928770000,11.66177001953125,-0.034271240234375,-0.419097900390625,1.017974853515625
1775711371938783200,11.671783203125,-0.041290283203125,-0.4219207763671875,1.022216796875
1775711371948797200,11.681797119140626,-0.04742431640625,-0.4315338134765625,1.021636962890625
1775711371958810000,11.69181005859375,-0.0386810302734375,-0.4221649169921875,1.0157470703125
1775711371968823300,11.7018232421875,-0.0331573486328125,-0.4217681884765625,1.0048675537109375
1775711371978837000,11.7118369140625,-0.030914306640625,-0.431732177734375,0.9818267822265625
1775711371988850200,11.72185009765625,-0.02581787109375,-0.4300689697265625,0.9535369873046875
1775711371998864100,11.731864013671874,-0.027618408203125,-0.430755615234375,0.949371337890625
1775711372008877000,11.741876953125,-0.0348052978515625,-0.421844482421875,0.9457244873046875
1775711372018890200,11.75189013671875,-0.044769287109375,-0.4129180908203125,0.9479827880859375
1775711372028904200,11.761904296875,-0.053070068359375,-0.41473388671875,0.94158935546875
1775711372038917000,11.771917236328125,-0.0626983642578125,-0.417816162109375,0.9145050048828125
1775711372048930000,11.781929931640626,-0.0703887939453125,-0.4222412109375,0.890350341796875
1775711372058944300,11.7919443359375,-0.0689544677734375,-0.42596435546875,0.8744659423828125
1775711372068957200,11.801957275390626,-0.0626678466796875,-0.4123992919921875,0.865509033203125
1775711372078970000,11.81197021484375,-0.0596160888671875,-0.409820556640625,0.8586883544921875
1775711372088984000,11.821984130859375,-0.056884765625,-0.4160919189453125,0.84698486328125
1775711372098997000,11.8319970703125,-0.06072998046875,-0.4124298095703125,0.8347625732421875
1775711372109011200,11.84201123046875,-0.092529296875,-0.4156951904296875,0.83441162109375
1775711372119024000,11.852024169921876,-0.1201934814453125,-0.4170074462890625,0.8259429931640625
1775711372129037000,11.862037109375,-0.128082275390625,-0.41845703125,0.83123779296875
1775711372139051300,11.87205126953125,-0.135833740234375,-0.426116943359375,0.842529296875
1775711372149064200,11.882064208984374,-0.135894775390625,-0.4184417724609375,0.84375
1775711372159077000,11.8920771484375,-0.1305389404296875,-0.422637939453125,0.83905029296875
1775711372169091300,11.90209130859375,-0.1161651611328125,-0.4131622314453125,0.8140869140625
1775711372179104000,11.91210400390625,-0.107666015625,-0.4153900146484375,0.787872314453125
1775711372189118200,11.9221181640625,-0.1069793701171875,-0.4222259521484375,0.7724609375
1775711372199131100,11.932131103515625,-0.1094970703125,-0.4342803955078125,0.77252197265625
1775711372209144000,11.94214404296875,-0.1015625,-0.43182373046875,0.767822265625
1775711372219158300,11.952158203125,-0.11181640625,-0.4376068115234375,0.7826995849609375
1775711372229171000,11.9621708984375,-0.1169891357421875,-0.450592041015625,0.80792236328125
1775711372239184100,11.97218408203125,-0.1166229248046875,-0.4437255859375,0.8278961181640625
1775711372249198000,11.982197998046875,-0.1234588623046875,-0.440673828125,0.8466949462890625
1775711372259211000,11.9922109375,-0.120330810546875,-0.441864013671875,0.860015869140625
1775711372269224200,12.00222412109375,-0.116363525390625,-0.4388275146484375,0.871185302734375
1775711372279238100,12.012238037109375,-0.1157684326171875,-0.4449462890625,0.8746337890625
1775711372289251000,12.0222509765625,-0.10687255859375,-0.44970703125,0.8627471923828125
1775711372299264300,12.03226416015625,-0.093048095703125,-0.453125,0.838043212890625
1775711372309278000,12.04227783203125,-0.07977294921875,-0.45404052734375,0.8011474609375
1775711372319291100,12.052291015625,-0.0528411865234375,-0.476654052734375,0.78253173828125
1775711372329305000,12.06230517578125,-0.0363616943359375,-0.4886474609375,0.7759246826171875
1775711372339318000,12.072318115234374,-0.0330810546875,-0.49542236328125,0.7857208251953125
1775711372349331200,12.082331298828125,-0.025177001953125,-0.4969329833984375,0.808502197265625
1775711372359345200,12.09234521484375,-0.0304107666015625,-0.482330322265625,0.8389739990234375
1775711372369358000,12.102358154296875,-0.0288543701171875,-0.4730224609375,0.8493194580078125
1775711372379371300,12.112371337890625,-0.0150604248046875,-0.46759033203125,0.846954345703125
1775711372389385200,12.12238525390625,-0.0108489990234375,-0.4604949951171875,0.861419677734375
1775711372399398100,12.132398193359375,-0.0155029296875,-0.4760284423828125,0.8737945556640625
1775711372409411000,12.1424111328125,-0.0115203857421875,-0.4935150146484375,0.871124267578125
1775711372419425000,12.152425048828125,-0.0020751953125,-0.5039825439453125,0.8458251953125
1775711372429438200,12.162438232421875,0.017913818359375,-0.518096923828125,0.8023529052734375
1775711372439452200,12.1724521484375,0.0228729248046875,-0.534820556640625,0.7759857177734375
1775711372449465000,12.182465087890625,0.0076904296875,-0.547760009765625,0.7604827880859375
1775711372459478000,12.19247802734375,-0.0107421875,-0.5456085205078125,0.76861572265625
1775711372469492200,12.2024921875,-0.0423126220703125,-0.554931640625,0.804840087890625
1775711372479505200,12.212505126953126,-0.0753021240234375,-0.5724029541015625,0.8391876220703125
1775711372489518000,12.22251806640625,-0.0926666259765625,-0.567047119140625,0.8595733642578125
1775711372499532300,12.2325322265625,-0.10491943359375,-0.5574493408203125,0.8650665283203125
1775711372509545000,12.242544921875,-0.099273681640625,-0.5678253173828125,0.8687286376953125
1775711372519558100,12.25255810546875,-0.1088714599609375,-0.5662078857421875,0.8577880859375
1775711372529572000,12.262572021484376,-0.1276092529296875,-0.5637054443359375,0.8255462646484375
1775711372539585000,12.2725849609375,-0.1215362548828125,-0.557373046875,0.809112548828125
1775711372549599200,12.28259912109375,-0.134857177734375,-0.5466461181640625,0.8243255615234375
1775711372559612200,12.292612060546874,-0.155059814453125,-0.52935791015625,0.8755035400390625
1775711372569625000,12.302625,-0.1899261474609375,-0.5129547119140625,0.920379638671875
1775711372579639600,12.3126396484375,-0.2108306884765625,-0.4970245361328125,0.932708740234375
1775711372589652500,12.322652587890625,-0.2035064697265625,-0.4657135009765625,0.9478912353515625
1775711372599665700,12.332665771484375,-0.2115325927734375,-0.468719482421875,0.971343994140625
1775711372609679600,12.3426796875,-0.20233154296875,-0.4687042236328125,0.989044189453125
1775711372619692500,12.352692626953125,-0.198699951171875,-0.4726715087890625,0.96588134765625
1775711372629705700,12.362705810546874,-0.195953369140625,-0.48260498046875,0.8974761962890625
1775711372639719400,12.372719482421875,-0.1679840087890625,-0.4814605712890625,0.813720703125
1775711372649732600,12.382732666015626,-0.14117431640625,-0.503875732421875,0.7421112060546875
1775711372659745800,12.392745849609375,-0.1063232421875,-0.5111541748046875,0.6876068115234375
1775711372669759500,12.402759521484375,-0.0816650390625,-0.4954376220703125,0.663848876953125
1775711372679772700,12.412772705078124,-0.0894317626953125,-0.4740447998046875,0.6608734130859375
1775711372689786600,12.42278662109375,-0.11962890625,-0.4397735595703125,0.65374755859375
1775711372699799600,12.432799560546876,-0.1539306640625,-0.4377899169921875,0.6613616943359375
1775711372709812700,12.442812744140625,-0.2125701904296875,-0.4261627197265625,0.6834869384765625
1775711372719826700,12.45282666015625,-0.2420654296875,-0.406494140625,0.7010955810546875
1775711372729839600,12.462839599609374,-0.2398681640625,-0.4135894775390625,0.6708526611328125
1775711372739852500,12.4728525390625,-0.196868896484375,-0.4084625244140625,0.614654541015625
1775711372749866500,12.482866455078126,-0.125701904296875,-0.4127655029296875,0.553466796875
1775711372759879700,12.492879638671875,-0.0765838623046875,-0.4275665283203125,0.4825592041015625
1775711372769892600,12.502892578125,-0.0355072021484375,-0.4387664794921875,0.4412841796875
1775711372779906600,12.512906494140625,-0.018890380859375,-0.4475250244140625,0.403900146484375
1775711372789919500,12.52291943359375,-0.003875732421875,-0.4458465576171875,0.340179443359375
1775711372799933700,12.53293359375,-0.0098419189453125,-0.4457855224609375,0.281097412109375
1775711372809946600,12.542946533203125,-0.0193328857421875,-0.4525909423828125,0.251251220703125
1775711372819959600,12.55295947265625,-0.0304718017578125,-0.4405517578125,0.2617645263671875
1775711372829973800,12.562973876953125,-0.0328521728515625,-0.4133453369140625,0.2698974609375
1775711372839986700,12.572986572265625,-0.008819580078125,-0.3920135498046875,0.2782135009765625
1775711372849999600,12.58299951171875,0.016021728515625,-0.3896484375,0.3349456787109375
1775711372860013600,12.593013671875,0.0092620849609375,-0.3898162841796875,0.422393798828125
1775711372870026500,12.603026611328126,-0.0013885498046875,-0.3939361572265625,0.523040771484375
1775711372880039700,12.613039794921875,-0.0048828125,-0.4138946533203125,0.617034912109375
1775711372890053600,12.6230537109375,-0.007568359375,-0.4370269775390625,0.6756591796875
1775711372900066600,12.633066650390624,-0.0037078857421875,-0.448028564453125,0.72528076171875
1775711372910079500,12.64307958984375,-0.008880615234375,-0.4492034912109375,0.76123046875
1775711372920093400,12.653093505859376,-0.0049896240234375,-0.454315185546875,0.787750244140625
1775711372930106600,12.663106689453125,-0.0169830322265625,-0.4599609375,0.8090667724609375
1775711372940119600,12.67311962890625,-0.03436279296875,-0.4733123779296875,0.81597900390625
1775711372950133500,12.683133544921875,-0.0417938232421875,-0.4716644287109375,0.8091888427734375
1775711372960146700,12.693146728515625,-0.0428009033203125,-0.468963623046875,0.802825927734375
1775711372970160400,12.703160400390624,-0.0462493896484375,-0.4932098388671875,0.8094024658203125
1775711372980173600,12.713173583984375,-0.0522003173828125,-0.5434417724609375,0.8180084228515625
1775711372990186800,12.723186767578126,-0.0448150634765625,-0.548583984375,0.844024658203125
1775711373000200400,12.733200439453125,-0.0573272705078125,-0.540374755859375,0.9092559814453125
1775711373010213600,12.743213623046875,-0.06646728515625,-0.5269927978515625,0.975921630859375
1775711373020226600,12.7532265625,-0.06878662109375,-0.5120391845703125,1.0139617919921875
1775711373030240500,12.763240478515625,-0.0511016845703125,-0.5318603515625,1.0423736572265625
1775711373040253700,12.773253662109376,-0.0246734619140625,-0.54388427734375,1.05859375
1775711373050266600,12.7832666015625,-0.042449951171875,-0.5394744873046875,1.0436553955078125
1775711373060280600,12.793280517578125,-0.04937744140625,-0.5513153076171875,0.9948272705078125
1775711373070293800,12.803293701171874,-0.0583953857421875,-0.5428924560546875,0.9480133056640625
1775711373080306400,12.813306396484375,-0.0919036865234375,-0.523193359375,0.8917083740234375
1775711373090320600,12.823320556640626,-0.086456298828125,-0.5175933837890625,0.859771728515625
1775711373100333600,12.83333349609375,-0.102874755859375,-0.4867401123046875,0.8441314697265625
1775711373110346500,12.843346435546875,-0.12896728515625,-0.464019775390625,0.8451385498046875
1775711373120360700,12.853360595703125,-0.1345062255859375,-0.4645538330078125,0.88006591796875
1775711373130373400,12.863373291015625,-0.135894775390625,-0.4423828125,0.897979736328125
1775711373140387600,12.8733876953125,-0.132171630859375,-0.4045562744140625,0.8883514404296875
1775711373150400500,12.883400390625,-0.1180267333984375,-0.3997344970703125,0.90386962890625
1775711373160413400,12.893413330078126,-0.0918731689453125,-0.4035186767578125,0.9215240478515625
1775711373170427600,12.903427734375,-0.05810546875,-0.400238037109375,0.9225616455078125
1775711373180440600,12.913440673828125,-0.02520751953125,-0.3886566162109375,0.9140777587890625
1775711373190453500,12.92345361328125,0.0048675537109375,-0.3857574462890625,0.901641845703125
1775711373200467700,12.9334677734375,0.0353240966796875,-0.3985443115234375,0.8812103271484375
1775711373210480600,12.943480712890626,0.0688934326171875,-0.4256744384765625,0.8722381591796875
1775711373220493600,12.95349365234375,0.0809173583984375,-0.43475341796875,0.862396240234375
1775711373230507500,12.963507568359375,0.071136474609375,-0.442169189453125,0.8630523681640625
