time,seconds_elapsed,z,y,x
1775711360320701700,0.05370166015625,0.6180439277991652,0.7423124047636985,0.504526854212582
1775711360330714400,0.06371435546875,0.530946659104526,0.6278606806755066,0.5496785398423671
1775711360340728600,0.073728515625,0.3516889931067824,0.6213204652518034,0.6221040168449282
1775711360350741500,0.083741455078125,0.17113544207960366,0.7702122190803289,0.5683578136101365
1775711360360755500,0.09375537109375,-0.21160130798071622,0.8248983335137366,0.16457798326015471
1775711360370768600,0.1037685546875,-0.35831308742165563,0.706738402557373,-0.4608513786152005
1775711360380782600,0.113782470703125,-0.13714403288960456,0.5611456902742386,-0.7291928109496831
1775711360390795500,0.12379541015625,0.17701485550701618,0.29048633638620375,-0.6169321671649813
1775711360400809500,0.1338095703125,0.19830752664357423,0.26793781996965405,-0.686805329336226
1775711360410822400,0.143822509765625,0.10789923370480536,-0.0169575645416975,-0.5433496290817856
1775711360420836400,0.15383642578125,0.2873123825252056,0.6045154609233141,-0.7212664018645882
1775711360430849500,0.163849609375,-0.031575580219924446,0.7835334729462862,-0.3771747320190072
1775711360440862500,0.173862548828125,-0.5076853182435035,0.5401327128618956,0.403995811188221
1775711360450876400,0.18387646484375,-0.4986722829654813,0.5121241774737835,0.33795185191631316
1775711360460889600,0.1938896484375,-1.7783739471018314,0.3455769399672746,1.4637906958132982
1775711360470903300,0.2039033203125,-2.2845172966003418,0.5312251837849616,1.0592387120470403
1775711360480916500,0.21391650390625,-2.3280163927175104,1.1304466299533844,0.2294923539802432
1775711360490930400,0.223930419921875,-2.041485662089288,1.2393898197531699,-0.3205246240362525
1775711360500943400,0.233943359375,-2.0376044367417694,1.2006477089047431,-0.39919367160350083
1775711360510957600,0.24395751953125,-0.308859905205667,0.278285026460886,-0.2935349103018641
1775711360520970500,0.253970458984375,0.4832824061319232,-0.097440968054533,-0.19537293449640272
1775711360530984400,0.263984375,0.42611295045018194,-0.11755495080053806,-0.436312565164268
1775711360540997600,0.27399755859375,0.6745730397507548,0.07988952927291393,-0.3230734317362308
1775711360551011600,0.284011474609375,0.6075801091909409,0.02648994751870632,-0.38096711003929373
1775711360561024300,0.294024169921875,1.3655837118223308,0.31900399034023286,0.6621835137769579
1775711360571038000,0.304037841796875,1.2784694919928907,0.11066636033058166,0.526399663324654
1775711360581051100,0.314051025390625,0.6821274006530642,0.2266793423861265,-0.07342237908542155
1775711360591065000,0.324065185546875,0.19039631512761115,0.5353717820703983,0.21454291439056394
1775711360601078000,0.334078125,0.2176101930066943,0.5066583132833242,0.15322539911866187
1775711360611092000,0.344092041015625,-0.9225503139704465,-0.043753217008709905,1.4056284297019241
1775711360621105200,0.354105224609375,-0.4988426710963249,-0.41141514753401276,1.9252999538153408
1775711360631119000,0.364119140625,0.6022530689492821,-1.2591361382305621,0.7713935378193855
1775711360641132000,0.374132080078125,0.66242199870795,-0.4829080198615789,-0.10279986473917961
1775711360651146200,0.384146240234375,0.16185951808169483,0.3362497241735458,0.10734802956283092
1775711360661159000,0.394158935546875,-0.006954933704435825,0.03290916691124439,0.9218629162281751
1775711360671173000,0.404173095703125,0.4051262765228748,-0.7343588154107332,1.0428688842654228
1775711360681186300,0.414186279296875,0.6954489467799663,-0.5098971490740776,0.795395175653696
1775711360691200000,0.424199951171875,1.4769183268032968,0.1457867735505104,0.13354571613669394
1775711360701213200,0.434213134765625,1.5042293814465402,0.14888298600018024,0.1279489190429449
1775711360711227100,0.44422705078125,0.8767441099546849,0.6350222428679466,-0.3737123166054487
1775711360721240000,0.454239990234375,0.8993789894804358,0.6467535971939563,-0.3648310910135507
1775711360731254000,0.46425390625,-0.4623267118647694,-0.11799626482725142,0.003356324690580368
1775711360741267000,0.474266845703125,-0.4394754131093621,-0.10761749415397644,0.01046820252239704
1775711360751281000,0.484281005859375,0.6726734897397458,-0.3158119163006544,0.04441898744106292
1775711360761294000,0.494294189453125,-0.0007166238367557525,0.05091477920114994,-0.21350538803637026
1775711360771308300,0.504308349609375,-0.4777078208699822,0.012820318606495856,-0.36678164055943485
1775711360781321000,0.514321044921875,-0.7865072280600667,-0.30656887165904045,-0.6556254704356194
1775711360791335200,0.524335205078125,-1.1286698295392095,-0.46635143733620643,-0.6403963371217251
1775711360801348000,0.53434814453125,-1.0834966627299785,-0.48397068065702914,-0.6801175221353769
1775711360811362000,0.544362060546875,-1.2301355230651796,-0.3419733625173568,-0.4399222800940275
1775711360821375200,0.554375244140625,-0.10301862205639481,-0.2747860784292221,-0.22692425705790517
1775711360831388000,0.564387939453125,-0.10009718165174127,-0.30612054336965083,-0.27168460528254507
1775711360841402000,0.574402099609375,0.7113198851287365,-0.349910585257411,0.5046551567673683
1775711360851415000,0.5844150390625,0.7228643385805189,-0.3734329151421785,0.4690782319515943
1775711360861429000,0.594428955078125,1.0329263130523263,0.42777182357311244,0.7727443679064512
1775711360871442200,0.604442138671875,1.0219311640463768,0.25519115112125873,0.7802946371555328
1775711360881456000,0.6144560546875,0.9189784468330442,0.22602350882589817,0.9192167856335639
1775711360891469000,0.624468994140625,0.728103846669197,0.046991468277573584,0.8589858965545892
1775711360901483000,0.63448291015625,0.7722609683036804,0.059389762079715726,0.8643535610675811
1775711360911496200,0.64449609375,0.06427388085946441,0.5129202962875365,0.3578343639940023
1775711360921510000,0.654510009765625,-0.4533727132976055,0.7098562423169612,0.16806173372268676
1775711360931523000,0.664523193359375,-1.292203564443439,0.6116016197919846,0.13966390675604343
1775711360941537000,0.674537109375,-1.2972247536063193,0.6925216611564159,0.14786299530267716
1775711360951550000,0.684550048828125,-0.9142074330389499,1.0247785163015126,-0.14615969851613045
1775711360961564200,0.694564208984375,-0.02725508667230606,1.1581558901339768,-0.23432488870322704
1775711360971577000,0.7045771484375,0.34731472354531284,1.0807231063634157,-0.06606792466938495
1775711360981591000,0.714591064453125,0.28716157587766644,0.42569852443039413,0.13313538177013395
1775711360991604000,0.72460400390625,0.7271218498945236,0.4655442126065492,0.4486790025234222
1775711361001618200,0.7346181640625,0.2938438301205635,0.4423123901009559,0.43682489860057827
1775711361011631000,0.744631103515625,0.31113062661662694,0.4428314455389976,0.43411622416377066
1775711361021645000,0.75464501953125,-0.4180103810805827,-0.17037994753718375,-0.6194236917197704
1775711361031658200,0.764658203125,-0.2228676751434803,-0.2303174066275358,-0.5251011479467154
1775711361041672000,0.774671875,-0.7204734979212284,-0.10938041217327117,-0.5245896912932395
1775711361051685000,0.78468505859375,-1.0629226612567901,-0.10359130737781524,-0.6913730756431817
1775711361061699000,0.794698974609375,-1.04382516207695,0.02830722607374191,-1.1601315741211176
1775711361071712000,0.8047119140625,-0.5608407159782945,-0.04236497752070427,-1.8223007671117781
1775711361081726000,0.814725830078125,0.006081365740299225,-0.1732189703553915,-2.0196920556932687
1775711361091739100,0.8247392578125,0.4372891551114618,0.06722410896718502,-1.9161603695482015
1775711361101753000,0.834753173828125,0.9550012157201766,-0.03000526216328144,-1.5203659849941729
1775711361111766000,0.84476611328125,0.9209213975943624,-0.09309738589227198,-0.9483189614772796
1775711361121779000,0.854779052734375,0.6188216341733932,0.051476504737138745,-0.6661860274165868
1775711361131793000,0.86479296875,0.6029717386126517,0.05040799872279167,-0.27498832300305365
1775711361141806000,0.87480615234375,0.7413935363531112,-0.020726561686396597,0.01994914757311344
1775711361151820300,0.8848203125,1.0156941693529487,-0.09294365663528442,-0.19657354245781897
1775711361161833000,0.8948330078125,0.688987349550426,0.07950783647894859,-0.13870879798829555
1775711361171847200,0.90484716796875,0.2959828879758715,0.1334130296677351,-0.0549988336443901
1775711361181860000,0.914860107421875,0.3446760456047952,-0.21507132217884062,0.26034838775396346
1775711361191874000,0.9248740234375,-0.0520459751881659,-0.7712970917075872,0.5768213983118534
1775711361201887200,0.93488720703125,0.025158845045417547,-0.9960469273358583,0.7045733334779739
1775711361211901200,0.944901123046875,0.12109189275503159,-0.3320855902314186,1.0118974074184894
1775711361221914000,0.9549140625,-0.006017214462906122,0.43653029956817624,0.646096010068059
1775711361231928000,0.964927978515625,-0.0599964958012104,0.37681671236157416,0.4813344869345426
1775711361241941000,0.97494091796875,-0.034518355673551555,0.38833296263217926,0.492203086951375
1775711361251955000,0.984954833984375,0.1824360037729144,0.16187573856413365,0.12408581387400626
1775711361261968100,0.994968017578125,0.40781273912787436,0.21357494614124298,-0.29044717341959475
1775711361271982000,1.004982177734375,0.4380184922993183,0.28499475323259826,-0.5933095917761325
1775711361281995000,1.0149951171875,0.3506161031782627,0.39497663843035696,-0.6325368557929992
1775711361292009200,1.02500927734375,0.46304530846290287,0.9214701175183058,-1.12801151176095
1775711361302022000,1.03502197265625,-0.24927754316329956,-0.016517419558763503,-0.2842956650525331
1775711361312036000,1.0450361328125,-0.6081295597672463,-0.7550801164001226,0.16515023019015787
1775711361322049000,1.055049072265625,-0.6986683472178876,-0.46244040137231346,-0.3938946884125471
1775711361332063200,1.065063232421875,-0.5647580355525016,-0.1050268931388855,-0.773747991991043
1775711361342076200,1.075076171875,-0.5528058050174266,-0.11300035623610019,-0.7875830405980349
1775711361352090000,1.085090087890625,-0.20208675292134284,-0.511524458014965,-0.9396259519338607
1775711361362103000,1.09510302734375,0.12664477764181792,-0.6942442471653223,-1.226093700328469
1775711361372117000,1.105116943359375,0.40337738702893255,-0.9304881212323903,-1.73729024156332
1775711361382130200,1.115130126953125,0.28213227647356687,-0.8727899655014276,-2.1894436421990395
1775711361392143000,1.12514306640625,0.24238822204098104,-0.7358288879632949,-2.2430846314936876
1775711361402157000,1.135156982421875,0.5157483593203127,-0.9464823936998844,-1.795230389356613
1775711361412170200,1.145170166015625,0.7562590970516204,-1.3198650399595497,-1.2876210589587687
1775711361422184000,1.155183837890625,0.7134090394277125,-1.1494243021458386,-1.2690735948771237
1775711361432197000,1.165197021484375,0.7006289797663688,-1.1839829898297787,-1.1300298658460377
1775711361442211000,1.175211181640625,0.35617724443674087,-1.2751795105367898,-0.9730477445423602
1775711361452224000,1.18522412109375,0.005326236524060368,-1.2244067701548338,-0.855457722428441
1775711361462238000,1.195238037109375,-0.25694522824697197,-1.0778864216327666,-0.7584674207508564
1775711361472251100,1.205251220703125,-0.37509361489601434,-1.027899863192439,-0.6367839918434619
1775711361482265000,1.21526513671875,-0.34501046519093215,-1.0666320371687412,-0.6885124255150556
1775711361492278000,1.225278076171875,-0.5251391418695449,-1.1599614782512186,-0.6696224316060543
1775711361502292200,1.235292236328125,-0.7252795099634677,-1.2993559204161167,-0.5143821855336428
1775711361512305000,1.245304931640625,-1.3620388788223265,-1.1270961504817008,-0.020252514433860776
1775711361522319000,1.255319091796875,-1.6503168915092945,-1.1799807684510946,0.5636714093595743
1775711361532332300,1.265332275390625,-0.41819505346510555,-0.7231324879974126,0.19530220734775064
1775711361542346000,1.275345947265625,-0.07621931632757187,-0.5105991598635912,0.24967384900450704
1775711361552359200,1.285359130859375,0.419221400838159,-0.6917489232182502,0.6590864245444535
1775711361562373400,1.295373291015625,0.7304266635935753,-0.7715788312584161,0.8273375433593988
1775711361572386600,1.305386474609375,0.4122236143726855,-1.0023293686062098,1.0107985062658786
1775711361582400500,1.315400390625,0.035713191481307145,-0.9834557413101196,1.1146779829353093
1775711361592413400,1.325413330078125,-0.30297406203746796,-0.7129179679751396,1.0916448978722095
1775711361602427400,1.335427490234375,-0.5847510953325777,-0.6199976922154427,1.030802014374733
1775711361612440300,1.3454404296875,-0.6956080097991972,-0.488377975705266,0.9236082985907792
1775711361622453500,1.35545361328125,-0.6926923415482044,-0.3511819203674793,0.6340080973893404
1775711361632467500,1.365467529296875,-0.7059142266929149,-0.2726332843095064,0.349323140758276
1775711361642480400,1.37548046875,-0.7044166816115379,-0.14540098910331725,0.21071020435988902
1775711361652494300,1.385494384765625,-0.6302665727734565,0.06995791784524917,0.06711012719869613
1775711361662507500,1.395507568359375,-0.5131668914597481,-0.08618307645916938,0.252363234218955
1775711361672521500,1.405521484375,-0.4158136747539043,0.028476152899861332,0.23567454974651336
1775711361682534400,1.415534423828125,-0.23348032763786614,0.351133989572525,0.06232113935649394
1775711361692548600,1.425548583984375,-0.1961890001196414,0.5847369937419891,0.030572248396277427
1775711361702561300,1.435561279296875,-0.31137130350470543,0.7332423786014318,0.07704056958258151
1775711361712575500,1.445575439453125,-0.45285248881578444,0.818041891747713,0.06786474495828151
1775711361722588400,1.45558837890625,-0.5473720164656639,1.0124719924360512,-0.09849310745596886
1775711361732602400,1.465602294921875,-0.5481644820176065,1.3148755611091851,-0.3721288468062877
1775711361742615600,1.475615478515625,-0.5723135654985905,1.3087187920451164,-0.3749772219747305
1775711361752629500,1.48562939453125,-0.4588857776306569,1.6223603785693645,-0.8011544698327779
1775711361762642400,1.495642333984375,-0.47155952737331386,1.7475070996731519,-0.8505617670804262
1775711361772656400,1.505656494140625,-0.5243395159244537,1.8973083695620296,-1.048027289941907
1775711361782669600,1.515669677734375,-0.4903459147773683,1.8717782069861888,-1.1754022084891795
1775711361792683300,1.525683349609375,-0.38633272872567176,1.7935452127486466,-1.306923140799999
1775711361802696400,1.535696533203125,-0.3760978235024959,1.8278087168782948,-1.4476543845266103
1775711361812710400,1.54571044921875,-0.5352151302039623,1.8679367291271685,-1.4402444005310535
1775711361822723300,1.555723388671875,-0.7808160306811333,1.8069038760155438,-1.1688941417694092
1775711361832736500,1.565736572265625,-1.0849860245049,1.8245505918651819,-0.9168553171992302
1775711361842750500,1.57575048828125,-1.3214730596780777,1.9364397719889879,-0.7354045250713824
1775711361852763400,1.585763427734375,-1.429596895918995,1.9369523976862428,-0.49818333040475843
1775711361862777300,1.59577734375,-1.520535496342182,1.8943962815076112,-0.4628507357388735
1775711361872790500,1.60579052734375,-1.4823006043635307,1.8828852919340133,-0.3100122901111841
1775711361882804500,1.615804443359375,-1.5653636491060257,1.8122183490365742,-0.06134557232260704
1775711361892817400,1.6258173828125,-1.601682332199812,1.6424200007796286,0.06037760407328605
1775711361902831600,1.63583154296875,-1.624268111886829,1.596651936817169,-0.3406868298381567
1775711361912844500,1.645844482421875,-1.4536369660675525,1.4552859023183584,-0.8421382221281528
1775711361922858500,1.6558583984375,-1.1019675544440746,1.0950415545731782,-1.0497042832434176
1775711361932871400,1.665871337890625,-0.896081409239769,0.7498048063457011,-1.1933066984921694
1775711361942885400,1.675885498046875,-0.7224000820696354,0.6506155333191156,-1.3608435315579175
1775711361952898600,1.685898681640625,-0.46770635907649993,0.6505816310495138,-1.4255308155238628
1775711361962912500,1.69591259765625,-0.25423063552603126,0.6762760442763567,-1.279483345210552
1775711361972925400,1.705925537109375,0.013654577473551035,0.6389122360438108,-0.8857242658764123
1775711361982939400,1.715939453125,0.23489472448043525,0.37143618836700915,-0.2849368855655193
1775711361992952300,1.725952392578125,0.20944113427214323,0.35114100383520125,-0.3027151188403368
1775711362002966500,1.735966552734375,0.6628817251741885,0.01325111123919487,0.4239794455528259
1775711362012979500,1.7459794921875,0.6576209551017731,-0.004350596424937248,0.4062912286490202
1775711362022992400,1.755992431640625,1.361905607831478,-0.29262276389300823,0.471094832471013
1775711362033006300,1.76600634765625,1.463281577247381,-0.43218262575268745,0.28158114539682866
1775711362043019500,1.77601953125,1.3242191435158253,-0.5926233630776405,0.2734486923456192
1775711362053033500,1.786033447265625,1.265886197012663,-0.582995118510723,-0.06925649157762527
1775711362063046400,1.79604638671875,1.3681578000940382,-0.6233516788184642,-0.38042788859605786
1775711362073060600,1.806060546875,1.4059458250880241,-0.8366630055874585,-0.42059973998665806
1775711362083073300,1.8160732421875,1.4548295368529855,-1.0474532894462347,-0.3496878824174404
1775711362093087500,1.82608740234375,1.5023254475213585,-1.1403735652059317,-0.07376257082521916
1775711362103100400,1.836100341796875,1.2718259623251855,-1.366952369827032,0.4185205956250429
1775711362113114400,1.8461142578125,0.9166178551815449,-1.5041191990703344,1.1309253533810377
1775711362123127600,1.85612744140625,0.8012613642733544,-1.314547644329071,1.8412462906002998
1775711362133141500,1.8661416015625,0.8495020288944244,-1.1164116748601198,2.221117714357376
1775711362143154400,1.876154541015625,0.735509739011526,-0.9438906236410141,2.4222797536492346
1775711362153168400,1.88616845703125,0.3587057400010526,-0.7825731034815311,2.5503560984641314
1775711362163181600,1.896181640625,0.012685147919505833,-0.6097229664385319,2.4237714535117147
1775711362173195300,1.9061953125,-0.11593538677468895,-0.5126935017943381,2.1469103223741053
1775711362183208400,1.91620849609375,-0.1967722799003124,-0.45974458641707894,1.9039134669154882
1775711362193222400,1.926222412109375,-0.2477671386003494,-0.2988064209640026,1.6578718369334935
1775711362203235300,1.9362353515625,-0.19302081841230392,-0.26991759561002254,1.598733419266343
1775711362213248500,1.94624853515625,-0.09458031792640685,-0.3112923930495977,1.6982243055880069
1775711362223262500,1.956262451171875,0.24733473853245377,-0.14708967284262178,1.7845932600080965
1775711362233275400,1.966275390625,0.4831003275632858,-0.01790390548110008,1.9007067798286674
1775711362243289300,1.976289306640625,0.5373193359415978,0.05933247893452644,1.8815666105508804
1775711362253302500,1.986302490234375,0.5420961218893527,0.25244331371784207,1.818211451971531
1775711362263316500,1.99631640625,0.40170580055490135,0.477568412399292,1.848000441035628
1775711362273329400,2.006329345703125,0.05289221675395965,0.6691144820839167,1.8604098407536744
1775711362283343600,2.016343505859375,-0.16592355265021322,0.641851212105155,1.9349702839583158
1775711362293356500,2.0263564453125,-0.29540450356602665,0.8041390386015176,1.7075708106040954
1775711362303370500,2.03637060546875,-0.5707843101046979,0.8727636620163917,1.375214002215862
1775711362313383400,2.046383544921875,-0.6593254939973354,0.6511889492928982,1.1493950760513543
1775711362323397400,2.0563974609375,-0.7087550030767917,0.6138783325523137,0.8296627714365721
1775711362333410600,2.06641064453125,-0.8657540755152702,0.6153770466774702,0.6657166563391685
1775711362343424500,2.076424560546875,-0.8472844259101897,0.6141968969821929,0.6616442923337221
1775711362353437400,2.0864375,-0.9707423902094363,0.4611743269592523,0.9502905538111924
1775711362363451400,2.096451416015625,-1.2984276996552944,0.5259551344275474,0.9351128584235906
1775711362373464300,2.10646435546875,-1.2456814672432839,0.631707419231534,0.8707529067158698
1775711362383478500,2.116478515625,-1.1129600731015206,0.52852410813272,0.6437585070312023
1775711362393491500,2.126491455078125,-1.2426584661602973,0.1882896982371807,0.6365069284677505
1775711362403504400,2.13650439453125,-1.2368857279777525,0.26125848833620546,0.739577426841855
1775711362413518300,2.146518310546875,-1.360616298673302,0.28824527946114537,0.6009352643489837
1775711362423531500,2.156531494140625,-1.2304010421335696,0.03201777102947235,0.3070990330129862
1775711362433545500,2.16654541015625,-1.001632180122286,-0.011308160477876663,-0.1927647978246212
1775711362443558400,2.176558349609375,-0.9806442640859633,0.040087680238485336,-0.3784790926158428
1775711362453572600,2.186572509765625,-0.7971966721177101,0.05232932217419147,-0.36492987521290776
1775711362463585300,2.196585205078125,-0.5643056156098842,0.018613515055179594,-0.5899029982030392
1775711362473599500,2.206599609375,-0.4856779229663312,-0.08367489303052425,-0.7853361384540796
1775711362483612400,2.2166123046875,-0.30032500883340835,-0.14241642033457755,-0.8599526957601308
1775711362493626400,2.22662646484375,0.0869872324489057,-0.10780512568056583,-0.8923299477517604
1775711362503639600,2.2366396484375,0.3099462391376495,-0.03181903358697891,-0.7874158673375844
1775711362513653500,2.246653564453125,0.2409142039656639,0.00513736288845539,-0.6240893454432487
1775711362523666400,2.25666650390625,0.07753565962314606,0.003995791637897491,-0.6387374639987945
1775711362533680400,2.266680419921875,-0.03281630099602043,0.05077800107896328,-0.7847270666450261
1775711362543693600,2.276693603515625,-0.09427190956436098,0.028790625676512718,-0.8637526725649833
1775711362553706500,2.28670654296875,-0.15500015370622278,0.008027239111065863,-0.627962387484312
1775711362563720400,2.296720458984375,-0.21964937068410217,0.010649988830089569,-0.23535364722907542
1775711362573733600,2.306733642578125,-0.09075988285541534,-0.007646715360879897,0.11422960577011108
1775711362583747600,2.31674755859375,0.18073650637865066,-0.035412674164772034,0.27295360230505467
1775711362593760500,2.326760498046875,0.27250059784054753,-0.027384850531816482,0.1382014329880476
1775711362603774500,2.3367744140625,0.29623817791119217,-0.03392915760874748,-0.033708208334445953
1775711362613787600,2.34678759765625,0.0693815792620182,-0.12251754164397716,-0.12002046413123607
1775711362623801300,2.35680126953125,-0.07585011768899858,-0.12468787142038344,-0.28190789313316345
1775711362633814500,2.366814453125,0.015738836401700974,-0.09694061731696128,-0.3046177375912666
1775711362643828700,2.376828857421875,-0.13637714017033575,-0.04620294824838638,-0.3718254799455404
1775711362653841400,2.38684130859375,-0.11558102037906647,0.07157528991401195,-0.28549276588261124
1775711362663855600,2.396855712890625,-0.11898534892983734,0.016837153032422066,-0.05375497106313705
1775711362673868500,2.40686865234375,-0.32635742184296246,-0.22610534189045428,-0.13749416150152682
1775711362683882500,2.416882568359375,-0.20307941722050307,-0.18590426440536975,-0.1184551145106554
1775711362693895700,2.426895751953125,0.2793079397678375,-0.07031038454473018,-0.003798807761073112
1775711362703908600,2.43690869140625,0.53305590634346,-0.00660918900668621,-0.01921674164533615
1775711362713922600,2.446922607421875,0.5143801397070288,-0.05953647707402706,-0.05290273814797401
1775711362723935500,2.456935546875,0.5283388146936893,-0.1349327865809202,-0.14182488418221473
1775711362733949700,2.46694970703125,0.5427589697122573,-0.08884323557913303,-0.24058102648854254
1775711362743962600,2.476962646484375,0.5735151963733136,-0.08374854278862476,-0.2440156771123409
1775711362753976600,2.4869765625,0.5745357715927064,-0.0817728588014841,-0.24223171630501747
1775711362763989800,2.49698974609375,0.4728733864508569,0.08035071704387664,-0.28380642023086544
1775711362774003500,2.50700341796875,0.2969486642681062,0.1243061786264181,-0.28509587551951404
1775711362784016600,2.5170166015625,0.23537761262655257,0.1894441289693117,-0.4180880494266748
1775711362794030600,2.527030517578125,0.16309914287924765,0.21714929749667644,-0.42089258545339103
1775711362804043500,2.53704345703125,0.0814076787509024,0.2965449057728052,-0.2818517790317535
1775711362814057500,2.547057373046875,-0.05169730788096785,0.362599970960617,-0.1421609842687845
1775711362824070700,2.557070556640625,-0.1286908234514296,0.3602665595769882,-0.09189093271195888
1775711362834084600,2.567084716796875,-0.16050620377659797,0.37993747473061085,-0.21433716268539427
1775711362844097500,2.57709765625,-0.15699308108910917,0.34409283888936043,-0.32457039229571816
1775711362854111700,2.58711181640625,-0.026979192340373992,0.2716489494472742,-0.3724930039435625
1775711362864124400,2.59712451171875,0.08999182109236717,0.27029928840398787,-0.5087292743384838
1775711362874137600,2.6071376953125,0.1518342370212078,0.25502105525135993,-0.6035077451854944
1775711362884151800,2.61715185546875,0.19966113320961593,0.24995617307722567,-0.6031885962337256
1775711362894164500,2.62716455078125,0.20418533263579008,0.24976152728796003,-0.5689619169831276
1775711362904178700,2.6371787109375,0.19578122303634882,0.23403321228027343,-0.4542582639604807
1775711362914191400,2.64719140625,0.21269699426293373,0.2025374192982912,-0.36518355771303174
1775711362924205600,2.65720556640625,0.27609292324408885,0.1713409015238285,-0.2845896795630455
1775711362934218800,2.66721875,0.3109399263501167,0.14083236601352692,-0.28938100549280643
1775711362944232400,2.677232421875,0.28652225506082174,0.10375731159448623,-0.2596878780186176
1775711362954245600,2.68724560546875,0.2356931083165109,0.06753565913438797,-0.23352117110490797
1775711362964259600,2.697259521484375,0.1730360150039196,0.06293956351578235,-0.24333354006707666
1775711362974272500,2.7072724609375,0.07024535648450254,0.032980478581786155,-0.16397358762621878
1775711362984286500,2.717286376953125,0.0008522329151630402,-0.0030050270348787305,-0.06640110214650631
1775711362994299600,2.727299560546875,0.1057689436778426,-0.00910451295375824,-0.02015431475639343
1775711363004312600,2.7373125,0.23485154292583466,-0.03978372885584831,-0.0050339025139808655
1775711363014326500,2.747326416015625,0.24948680199980736,-0.03987432974874973,-0.00799041423201561
1775711363024339700,2.757339599609375,0.2571288411855697,-0.17708616717755793,-0.031850597769021986
1775711363034353400,2.767353515625,0.2551533033289015,-0.22326690359413623,-0.10430091695189475
1775711363044366600,2.77736669921875,0.247586082945019,-0.23491291772425174,-0.0969704279333353
1775711363054380500,2.787380615234375,0.18852116890549658,-0.2554851656317711,-0.11397943040132522
1775711363064393500,2.7973935546875,0.18443083085194228,-0.22896540749669073,-0.08863397674262523
1775711363074407700,2.80740771484375,0.1423169054828584,-0.21460428918898106,-0.05988719020783901
1775711363084420600,2.817420654296875,0.031349224118143316,-0.22943127144277095,-0.02423135493695736
1775711363094434600,2.8274345703125,-0.06587678601145744,-0.20766776792407035,-0.0033259295523166655
1775711363104447500,2.837447509765625,-0.21563611645475028,-0.19950316616892813,-0.00855155524611473
1775711363114461700,2.847461669921875,-0.36175950154848396,-0.15063888975679873,-0.065991352301836
1775711363124474600,2.857474609375,-0.5387012187540531,-0.10599895304143428,-0.07717676318287849
1775711363134488600,2.867488525390625,-0.5892530098617077,-0.1484235517948866,0.028874796828627584
1775711363144501800,2.877501708984375,-0.6599347850020975,-0.13795008857548235,0.005372340688109397
1775711363154514400,2.887514404296875,-0.6786568749982863,-0.15903145504891872,-0.004686111989617347
1775711363164528600,2.897528564453125,-0.6735946962378919,-0.12644728230834007,-0.05199497565329075
1775711363174541600,2.90754150390625,-0.5508217185281217,-0.14307459198236464,-0.03592471534013748
1775711363184555500,2.917555419921875,-0.4963454474531114,-0.16850538583695887,-0.02401215922832489
1775711363194568700,2.927568603515625,-0.4467337136745453,-0.14306582415401936,0.012606968116760254
1775711363204582700,2.937582763671875,-0.32785116753205656,-0.08017360691130161,0.07109890457391739
1775711363214595600,2.947595703125,-0.29398396924361586,-0.09578384849727153,0.0680003540366888
1775711363224609500,2.957609619140625,-0.24545243191719054,-0.13040917167663574,0.035167759492993354
1775711363234622500,2.96762255859375,-0.15708192841634153,-0.10226210460066795,-0.012289572730660437
1775711363244636400,2.977636474609375,-0.14121478945985436,-0.13746844253838061,0.01675765805542469
1775711363254649600,2.987649658203125,-0.12273206117749214,-0.15112287388145923,0.0369260013371706
1775711363264663800,2.997663818359375,-0.13205986149311064,-0.14730769950747488,0.0425596233099699
1775711363274676500,3.007676513671875,-0.03177811705470085,-0.16258593266010282,0.11113748497366904
1775711363284689700,3.017689697265625,-0.1075099421262741,-0.1283545772343874,0.0638958413273096
1775711363294703400,3.027703369140625,-0.09257891497611999,-0.12043079849779605,0.07567454192638397
1775711363304716500,3.037716552734375,-0.11217457293644546,-0.1305406891018152,0.014663316124677658
1775711363314730800,3.047730712890625,-0.14377148820534347,-0.09026303924918175,0.012822656694054602
1775711363324743400,3.057743408203125,-0.17960618717446922,-0.09866378784775734,0.020451251876354215
1775711363334757600,3.067757568359375,-0.16531214275360107,-0.09176116885244846,0.03214987297654152
1775711363344770600,3.0777705078125,-0.16782807109728454,-0.08978197773396969,0.034679099193215365
1775711363354784500,3.087784423828125,-0.04862988313436508,-0.07984510560929775,-0.05349018264710903
1775711363364797700,3.097797607421875,-0.01377133572101593,-0.03358955039083957,-0.12756781077086926
1775711363374811600,3.107811767578125,0.011376841799914836,0.0047439796566963194,-0.16705401798486708
1775711363384824600,3.117824462890625,-0.010817308221012354,0.050773909425735474,-0.2109025120615959
1775711363394838500,3.127838623046875,-0.025743659196048974,0.053366848528385157,-0.23608371506929396
1775711363404851700,3.137851806640625,-0.035855595626682044,0.09186462922692298,-0.33828210678398607
1775711363414864600,3.14786474609375,-0.014947393763065336,0.17095219446718693,-0.4241244069814682
1775711363424878600,3.157878662109375,-0.04130699290037155,0.22310616007447243,-0.4999631995588541
1775711363434891500,3.1678916015625,-0.09795739314407109,0.26799802572429177,-0.4677940373599529
1775711363444905500,3.177905517578125,-0.1268330667555332,0.3048369332998991,-0.43092765725553034
1775711363454918700,3.187918701171875,-0.10384250565990805,0.2940022355526686,-0.36765783887207504
1775711363464932600,3.1979326171875,-0.17284078469276426,0.3388789036333561,-0.3140378923654556
1775711363474945500,3.207945556640625,-0.15313172948583958,0.33634909289479253,-0.3228086433202028
1775711363484959500,3.21795947265625,-0.1046387706041336,0.3317968364179134,-0.35449031426310534
1775711363494972400,3.227972412109375,-0.005385638561099767,0.291852948564291,-0.2959001781284809
1775711363504986600,3.237986572265625,0.13046309382095933,0.19872575205564497,-0.23127368443906307
1775711363514999600,3.24799951171875,0.2890799767196178,0.134476274985075,-0.23234978923797606
1775711363525012500,3.258012451171875,0.38594102599434554,0.017877601996064186,-0.20298633210957048
1775711363535026400,3.2680263671875,0.45793680634275075,-0.0439233128786087,-0.14664543620645998
1775711363545039600,3.27803955078125,0.49136195995211596,-0.06807166570723057,-0.09894202026724815
1775711363555053600,3.288053466796875,0.4882708620689809,-0.11546294695734977,0.014215572357177733
1775711363565066200,3.298066162109375,0.4876679277397692,-0.1208639292180538,0.11761515655517578
1775711363575080400,3.30808056640625,0.3953143459521234,-0.10485738179087638,0.1609796665072441
1775711363585093400,3.31809326171875,0.2853250081002712,-0.1307166301906109,0.23604805923402308
1775711363595107600,3.328107666015625,0.14783720327429473,-0.10240589698553085,0.1946551416158676
1775711363605120500,3.33812060546875,0.04398052295856177,-0.10601707322001457,0.10405775584578514
1775711363615134500,3.348134521484375,-0.024929712464660404,-0.12154723530709743,0.015892565658688546
1775711363625147400,3.3581474609375,-0.04068257739171385,-0.07756137858629227,-0.08358487665951252
1775711363635161300,3.368161376953125,-0.012677110743522643,-0.02579728907942772,-0.14445932433903216
1775711363645174500,3.378174560546875,-0.0391349095582962,-0.015647650986909865,-0.2402601239711046
1775711363655187500,3.3881875,-0.12688355483375488,0.04811258126199245,-0.39867257033884523
1775711363665201400,3.398201416015625,-0.20904256340861319,0.13729717762470245,-0.5599579417943954
1775711363675214600,3.408214599609375,-0.32438984809704124,0.17876725213229655,-0.6923544878959655
1775711363685228300,3.418228271484375,-0.40363574570417404,0.2724883228808641,-0.816534994316101
1775711363695241500,3.428241455078125,-0.44985747171826657,0.3551204288601875,-0.9185410783290863
1775711363705255400,3.43825537109375,-0.5434487055420876,0.46797056297063827,-1.038912840116024
1775711363715268400,3.448268310546875,-0.6706779320083558,0.6208388192147016,-1.161956451460719
1775711363725282300,3.4582822265625,-0.7213502807557582,0.7752776857763528,-1.3044564584255218
1775711363735295500,3.46829541015625,-0.7843162208218127,0.8484814536750316,-1.5006336950421333
1775711363745309400,3.478309326171875,-0.9485844074804335,0.8124708136171102,-1.5882003348141909
1775711363755322400,3.488322265625,-1.0996494136948138,0.9193021258294581,-1.743176376992464
1775711363765336600,3.498336669921875,-1.1692051074147223,0.9357815514653921,-1.8178946411073207
1775711363775349500,3.508349609375,-1.2699883716344833,0.9102876292467117,-1.8127946876198053
1775711363785362400,3.518362548828125,-1.4636908887006341,1.0313982267022133,-1.8279811508357524
1775711363795376600,3.528376708984375,-1.730765662100166,1.0570534769624471,-1.8735428785711525
1775711363805389300,3.538389404296875,-1.9080908987306058,1.0641717845350502,-2.0680209100544453
1775711363815403500,3.548403564453125,-1.9360392283640802,1.1956138063907622,-2.173916402721405
1775711363825416400,3.55841650390625,-1.880719199941307,1.21911743157506,-2.2296786219537257
1775711363835430400,3.568430419921875,-1.7799463109850882,1.1642436856150626,-2.2238193745315074
1775711363845443600,3.578443603515625,-1.700859330266714,1.0728028347581624,-2.1183535054534675
1775711363855457500,3.58845751953125,-1.6175497634172438,0.9625777884542942,-1.9920751499712466
1775711363865470500,3.598470458984375,-1.601303562015295,0.9388315866857767,-1.895313980874419
1775711363875484400,3.608484375,-1.518342370212078,0.980905472305417,-1.7333651770740746
1775711363885497600,3.61849755859375,-1.4005471809148788,1.0177496405780315,-1.5200287158638237
1775711363895510500,3.628510498046875,-1.325950497353077,1.0651122802555562,-1.3646610440194606
1775711363905524500,3.6385244140625,-1.1969126140296458,1.0782482406824827,-1.166107725921273
1775711363915537400,3.648537353515625,-1.0850890464879572,0.9575573299437761,-1.065354856839776
1775711363925551400,3.65855126953125,-0.9787048204559832,0.7220990532964467,-0.903332403281331
1775711363935564500,3.668564453125,-0.8292541906356811,0.4763017534643411,-0.6950140624940395
1775711363945578500,3.67857861328125,-0.5469524028141052,0.44457682790160175,-0.5512023884087801
1775711363955591400,3.68859130859375,-0.1891268066484481,0.37594109857082364,-0.2932739212781191
1775711363965605400,3.69860546875,-0.009962591087818145,0.27276480173468587,0.0377712199896574
1775711363975618300,3.708618408203125,0.01855272477865219,0.1364747553259134,0.40379181304872036
1775711363985632500,3.718632568359375,0.04991356626935303,0.10405541775822638,0.5313508559912443
1775711363995645400,3.7286455078125,0.07063136012740433,0.17861469191908835,0.6187631819844246
1775711364005658400,3.738658447265625,-0.04265365826897323,0.06024433308243751,1.0141729511350392
1775711364015672300,3.74867236328125,-0.08956037087254226,0.01903495533764362,0.9904366862386464
1775711364025685500,3.758685546875,-0.31249234342388804,-0.13062953642904757,1.295759357228875
1775711364035699500,3.768699462890625,-0.6121978321194649,0.08291969074904919,1.317255734243989
1775711364045712400,3.77871240234375,-0.6519242778301239,0.2205710886389017,1.1627058085232973
1775711364055726600,3.7887265625,-0.8032498346768319,0.29778409217894075,1.1020926421284676
1775711364065739500,3.798739501953125,-0.8190143900416791,0.1768482667684555,1.2648685444027186
1775711364075753500,3.80875341796875,-0.6361655676841735,0.28128537732064723,1.2880945216894149
1775711364085766700,3.8187666015625,-0.3970226111747324,0.23250644110441207,1.147614622375369
1775711364095780400,3.8287802734375,-0.039070758280903096,0.0011064999371767042,1.1245201625138521
1775711364105793500,3.83879345703125,0.10304770202040672,0.09905950916707515,1.2166507492005825
1775711364115806500,3.848806396484375,0.36348040705695744,0.12224632348716258,1.6901321845471857
1775711364125820400,3.8588203125,0.8829599157296121,0.22180267626047134,1.8654378980487585
1775711364135833600,3.86883349609375,1.4516123283721505,0.330229148709774,1.7071961320728062
1775711364145847600,3.87884765625,1.8422084136307237,0.33185528860688207,1.5139765762180089
1775711364155860500,3.888860595703125,1.8125078335024416,0.41116204955577845,1.4474264209896326
1775711364165874400,3.89887451171875,1.6086638616502285,0.5327911179274321,1.4389526071548462
1775711364175887400,3.908887451171875,1.2507948647342622,0.5336234770983457,1.5017758508145809
1775711364185901300,3.9189013671875,0.8189642672896384,0.5609691646635532,1.5085340929031372
1775711364195914500,3.92891455078125,0.5125814197219908,0.5954337443232536,1.3509434843122958
1775711364205928400,3.938928466796875,0.3962180167935788,0.6095341658681631,1.2911164998590945
1775711364215941400,3.94894140625,0.6618623189985752,0.5831558620303869,1.1617349176645277
1775711364225954600,3.95895458984375,1.0910934014692901,0.4350421068370342,1.0889672030955553
1775711364235968300,3.96896826171875,1.2210907774746418,0.21842180165052413,0.9212205266714095
1775711364245981400,3.9789814453125,1.2960906350098549,0.17537819421589373,0.5147925199002027
1775711364255995400,3.988995361328125,1.2921603098236023,0.11109890652894973,0.048587213036417956
1775711364266008300,3.99900830078125,1.308909346181154,0.01065992570221424,-0.3723883745253086
1775711364276022500,4.0090224609375,1.4815446714296936,-0.024064181676506993,-0.6002005203336477
1775711364286035500,4.019035400390625,1.5248000219188629,0.02176174995303154,-0.689209175607562
1775711364296049400,4.02904931640625,1.3275474111557006,-0.01331248603761196,-0.7899415864229202
1775711364306062300,4.039062255859375,1.051871836540848,-0.06100128892958164,-0.8796469917893409
1775711364316076500,4.04907666015625,0.9257986482419073,-0.018768997877836226,-1.1216846468269823
1775711364326089500,4.05908935546875,1.1006338216222822,-0.06649813278019427,-1.2785872731536625
1775711364336102400,4.069102294921875,1.1133236457169056,-0.1368587862074375,-1.2453010896235703
1775711364346116600,4.07911669921875,1.1969837795697151,-0.15133973150253294,-1.2706295921474695
1775711364356129300,4.08912939453125,1.0857131697356701,0.16258768622577188,-0.8873200106352567
1775711364366143500,4.0991435546875,0.9977202673755585,0.4509720818966627,-0.8897481145650148
1775711364376156700,4.10915673828125,1.0610543831668793,0.7045113741576671,-0.964323755338788
1775711364386170400,4.11917041015625,0.999586353508383,0.8413882805436849,-0.8962988513827324
1775711364396183600,4.12918359375,0.7307951315797865,0.9330150093615055,-0.7940332396507263
1775711364406197500,4.139197509765625,0.4561526994049549,1.0869026717811823,-0.7971335437536239
1775711364416210400,4.14921044921875,0.10197327772192656,0.8647820156127214,-0.5255868856370449
1775711364426223600,4.1592236328125,-0.14099369405508042,0.43704818596243855,-0.2746849561423063
1775711364436237600,4.169237548828125,-0.06867898395061492,0.09712883336544036,-0.21608605217933655
1775711364446250500,4.17925048828125,0.1846937013055198,-0.5469324560046196,-0.10343348646759987
1775711364456264400,4.189264404296875,0.3140343852341175,-1.187622807636857,0.15970423974394798
1775711364466277400,4.19927734375,0.04583996015489101,-1.6731465629547833,0.5790238767921925
1775711364476291300,4.209291259765625,-0.1403600540603511,-2.0995517743498087,0.8544014913737773
1775711364486304500,4.219304443359375,-0.22192780047748237,-2.314943999046087,1.095816046077013
1775711364496318500,4.229318359375,-0.44787477346844967,-2.5393244168400764,1.4109598538577557
1775711364506331400,4.239331298828125,-0.5987158347338438,-2.713992416960001,1.5022218410164117
1775711364516345600,4.249345703125,-0.5749410644579679,-2.8715432780623433,1.4617477918088435
1775711364526358300,4.259358154296875,-0.7542717226266861,-3.031744361412525,1.5586065760612486
1775711364536371500,4.269371337890625,-1.05779406619668,-2.8859990889161824,1.6331050599455832
1775711364546385400,4.279385498046875,-1.4779425552845,-2.5163065293461084,1.668691921633482
1775711364556398300,4.2893984375,-2.0477789170145986,-2.199295174127817,1.8301976578414438
1775711364566412000,4.299412109375,-2.459592123955488,-1.7271622307807206,1.7721499580204485
1775711364576425000,4.309425048828125,-2.767139485257864,-1.1931962238550184,1.5935305899262426
1775711364586439000,4.31943896484375,-3.030682869660854,-0.7433779881685971,1.29021107545197
1775711364596452000,4.3294521484375,-3.0284575948268175,-0.20692191799283027,0.8975047200411558
1775711364606466000,4.339466064453125,-2.714846987962723,0.15509820725321768,0.6959265011638402
1775711364616479000,4.34947900390625,-2.168658043801784,0.4036059350878,0.5222282228589058
1775711364626492000,4.359491943359375,-1.538426542341709,0.6319155090242624,0.3623065409719944
1775711364636505900,4.369505859375,-0.8064531607627868,0.7778817307949065,0.3042594256728887
1775711364646519000,4.37951904296875,-0.13450498962290583,0.8427057928830385,0.39264556513428683
1775711364656533000,4.389532958984375,0.27386136479973794,0.7145318329125643,0.7273164956837892
1775711364666546000,4.3995458984375,0.5736993938338011,0.4685819728672504,1.0669558622956274
1775711364676560000,4.409559814453125,0.9232938258141279,0.24989888993203638,1.4115338543534277
1775711364686573000,4.419572998046875,1.1423767217218874,-0.12866437383592128,1.8127309747338294
1775711364696586800,4.429586669921875,1.075588081562519,-0.6050456222772598,2.094673939180374
1775711364706600000,4.439599853515625,0.568578434090875,-0.8897937072724104,2.174348364397883
1775711364716613000,4.449613037109375,0.0490384274026379,-1.170806112870574,2.3144980088442564
1775711364726626800,4.459626708984375,-0.2787421225786209,-1.4733166490495204,2.5202877079367636
1775711364736640000,4.469639892578125,-0.3347638695299625,-1.4520757081001996,2.5529215650379657
1775711364746654000,4.479654052734375,-0.1325625503182411,-1.2839251270502805,2.510572369608283
1775711364756667000,4.4896669921875,0.25645313388109203,-1.077839075359702,2.4475299302399156
1775711364766680800,4.499680908203125,0.7741793691456318,-0.9208300660490989,2.4989970826268193
1775711364776694000,4.509694091796875,1.3424439515143631,-0.8583575355231762,2.6512691265434025
1775711364786708000,4.5197080078125,1.3415385271072386,-0.8848962906196713,2.6361405309945343
1775711364796721000,4.529720947265625,1.8327689696341751,-0.6435004406169057,2.7064655285865067
1775711364806735000,4.539735107421875,1.8691162943005561,-0.5671548675611615,2.5649434267431497
1775711364816747800,4.549747802734375,1.7028285845130682,-0.5580982854023575,2.3569167623788116
1775711364826761000,4.559760986328125,1.4203238945305348,-0.5185241076439618,2.1608862407565117
1775711364836775200,4.569775146484375,1.001254432851076,-0.3524278287753463,2.083309080079198
1775711364846787800,4.579787841796875,0.5100263284116983,-0.2550754157871008,2.1870780821114777
1775711364856802000,4.589802001953125,0.09998305375277995,-0.1681836065366864,2.273566863518953
1775711364866815000,4.59981494140625,-0.1785124005883932,-0.0034054245293140407,2.379931142741442
1775711364876829000,4.609828857421875,-0.22551439025998113,-0.05855038864612579,2.343919333639741
1775711364886842000,4.619842041015625,-0.03889763020370155,-0.17033873874396085,2.4043588970333336
1775711364896856000,4.62985595703125,0.14973755700290203,-0.19144494739770887,2.1738936063677072
1775711364906869000,4.639868896484375,0.5080190802425146,-0.2819631304517388,1.57995857616961
1775711364916882000,4.6498818359375,0.9261474616795777,-0.301571501763165,0.935160789218545
1775711364926895900,4.659895751953125,1.156150980052352,-0.4019499845743179,0.4435574217259884
1775711364936909000,4.669908935546875,1.1368541589081287,-0.5844640220195054,0.08150865490734577
1775711364946923000,4.679923095703125,0.9844996974050998,-0.5768804350227117,-0.2894038018465042
1775711364956936000,4.68993603515625,0.7451958512455225,-0.6061170509010553,-0.48670682762265205
1775711364966950000,4.699949951171875,0.41220779574904587,-0.7501713015705347,-0.4702858541756868
1775711364976963000,4.709963134765625,0.14066402370929718,-0.8126666284501552,-0.31293022338449955
1775711364986976800,4.719976806640625,-0.035028095293976366,-0.8000649210304022,-0.15703180566430092
1775711364996990000,4.729989990234375,-0.16861118429899213,-0.7712351323872804,-0.09131400960683822
1775711365007003100,4.740003173828125,-0.3249100360462442,-0.698812285733223,0.16776713469028473
1775711365017016800,4.750016845703125,-0.3088140202373266,-0.6752730047136545,0.18317396265864372
1775711365027030000,4.760030029296875,-0.21455697944853452,-0.4149427371382713,0.7088584634512662
1775711365037044000,4.7700439453125,-0.03028645372483879,-0.464177600428462,0.5342839868336916
1775711365047057000,4.780056884765625,0.1447842819770798,-0.6495943735778331,0.2529594465464353
1775711365057070800,4.79007080078125,0.250112240421772,-0.7342313896387815,-0.029377485653758046
1775711365067084000,4.800083984375,0.2902477418573573,-0.7591495577961206,-0.20472586925327776
1775711365077098000,4.810097900390625,0.2269668540906161,-0.6671025577396154,-0.37983576792180535
1775711365087111000,4.82011083984375,0.04003569432292133,-0.4489321005016565,-0.5889169097751379
1775711365097123800,4.830123779296875,-0.1474719136258587,-0.34530922894179816,-0.6862859816372394
1775711365107137800,4.8401376953125,-0.13361936589479445,-0.2884235586374998,-0.5046393746763468
1775711365117151000,4.85015087890625,-0.07384674197733401,-0.16903905432224273,-0.12647124770581722
1775711365127165000,4.8601650390625,0.010870974637009203,-0.1943850925028324,-0.013745032235980033
1775711365137177900,4.870177734375,-0.0013286547878757118,-0.097519293987751,0.07722995467483997
1775711365147192000,4.880192138671875,-0.08103110052347183,0.03756313019692897,0.21321312709152698
1775711365157205000,4.890205078125,-0.2280348486483097,-0.002728548181056976,0.13573299704790115
1775711365167219000,4.900218994140625,-0.3787672619074583,0.16205869391560554,-0.006760580176115035
1775711365177232100,4.910232177734375,-0.46976449718270447,0.2585691031217575,-0.13325930041074752
1775711365187244800,4.920244873046875,-0.46017128739655017,0.20110475614666937,-0.18070026602149009
1775711365197259000,4.930259033203125,-0.34226503894031046,0.10031330862045287,-0.016786299628019332
1775711365207272000,4.94027197265625,-0.21910043156445025,0.06290390768051148,0.20535481480658052
1775711365217286000,4.950285888671875,-0.03213701349496841,0.136119366016984,0.3128437141448259
1775711365227299000,4.960299072265625,0.11954524783492088,0.2929483425855636,0.21228490633070468
1775711365237313000,4.97031298828125,0.23639822437856345,0.5519669430404901,-0.08884615818858146
1775711365247326000,4.980325927734375,0.3797960569659248,0.6344347983688116,-0.40339141555428504
1775711365257340000,4.99033984375,0.46038931406140327,0.4909171387940645,-0.6150011991024017
1775711365267353000,5.00035302734375,0.4004377533804625,0.40473113972544666,-0.9166139096587895
1775711365277366000,5.010365966796875,0.19406948721501976,0.2765495809704065,-1.1350134994775056
1775711365287380000,5.0203798828125,0.05626786719951778,0.25347791746258735,-1.3839526044666766
1775711365297393000,5.030392822265625,0.06609715076386928,0.3033276977807283,-1.3397072200268507
1775711365307406800,5.04040673828125,-0.013501834597252309,0.5678028100758791,-1.9186743981957435
1775711365317420000,5.050419921875,-0.05346797081530094,0.48007484226226804,-1.9683716183006763
1775711365327434000,5.06043408203125,-0.23235388089120387,0.3853185832470655,-1.760261951828003
1775711365337447000,5.070447021484375,-0.4050041114479303,0.2504284667640924,-1.3856278442025183
1775711365347460900,5.0804609375,-0.4193208060920238,0.26454350135624405,-1.3738970743983983
1775711365357473800,5.090473876953125,-0.7957278416741639,0.6026777241021395,-1.0710603750050067
1775711365367487000,5.100487060546875,-0.6912818902283907,0.5717383959591389,-0.972559668764472
1775711365377501000,5.1105009765625,-0.5775374376267194,0.7852356006890535,-0.8037982623398303
1775711365387513900,5.120513916015625,-0.22857319330871104,0.8922896157413721,-0.8381681494534016
1775711365397527800,5.13052783203125,0.22421908975243568,0.578110853600502,-1.0408031839072704
1775711365407541000,5.140541015625,0.41039402432534844,0.41103813091516495,-1.2024509589344263
1775711365417555000,5.150554931640625,0.41420331694781776,0.47052083197534084,-1.4383850363999604
1775711365427567900,5.16056787109375,0.44184009641408917,0.5245031820535659,-1.5206220055818558
1775711365437582000,5.17058203125,0.3689455405950546,0.4731050032496452,-1.5163473970025776
1775711365447595000,5.180594970703125,0.21602584642469883,0.44914311290383335,-1.6111656153380869
1775711365457608000,5.19060791015625,0.10103811576366424,0.5559533823281526,-1.654922339478135
1775711365467622100,5.2006220703125,-0.09099540864434093,0.766998517730832,-1.6446283244788646
1775711365477634800,5.210634765625,-0.34037937132418156,0.9997323378503322,-1.4348860883682966
1775711365487649000,5.22064892578125,-0.445258964946866,1.22163496735394,-1.110249060577154
1775711365497662000,5.230661865234375,-0.47139052748195825,1.4876865351855755,-1.0621855791538952
1775711365507676000,5.240676025390625,-0.49449558180272574,1.5674550684273243,-1.177068680396676
1775711365517689000,5.250689208984375,-0.5195201329439878,1.6331366241276264,-1.0625006364524363
1775711365527701800,5.26070166015625,-0.547015458112955,1.681284276703,-1.0274918669134379
1775711365537716000,5.270716064453125,-0.42721945038735865,1.8712001148372888,-1.150572303137183
1775711365547729000,5.28072900390625,-0.4191173924744129,2.0496447108864784,-1.6279063222587107
1775711365557743000,5.2907431640625,-0.45412791557908055,1.9537784448027609,-2.2943998081892727
1775711365567756500,5.300756591796875,-0.619989508908987,2.008765588009357,-2.638096341237426
1775711365577770800,5.310770751953125,-0.7434107213944197,2.180335622113943,-3.006561404839158
1775711365587784000,5.320783935546875,-0.7860024934083223,2.263094569343328,-3.337954336631298
1775711365597797600,5.330797607421875,-0.8384668401390314,2.414619594284892,-3.4184108521372076
1775711365607810800,5.340810791015625,-1.0273001437336207,2.483113869318366,-3.4109348171681164
1775711365617823500,5.350823486328125,-1.1225684439241885,2.4430168367296456,-3.2796471090912815
1775711365627837700,5.360837646484375,-1.0626333229213953,2.5830992611587047,-3.3393577736884352
1775711365637851000,5.370850830078125,-0.858087486410141,2.6877058830589053,-3.6755192350566386
1775711365647864800,5.38086474609375,-0.5729343277454376,2.6849522004365918,-4.0500604037016625
1775711365657877800,5.390877685546875,-0.28122750965356824,2.672680747884512,-4.229335020834207
1775711365667891700,5.4008916015625,-0.03350362567305565,2.5785318071126935,-4.171335836330056
1775711365677904600,5.410904541015625,0.14773206239938735,2.618015091717243,-4.078572796958684
1775711365687917800,5.420917724609375,0.27822894889209415,2.6412691260546444,-4.018952733254433
1775711365697931800,5.430931884765625,0.4040799823403358,2.729104061374068,-3.790471309882402
1775711365707944700,5.44094482421875,0.42559740214347835,2.9291584316849706,-3.5574423062086105
1775711365717958700,5.450958740234375,0.5246177848765626,3.0079584121555087,-3.1753415159642695
1775711365727971800,5.460971923828125,0.36557635642290115,2.8034336184322832,-2.513160632535815
1775711365737985500,5.470985595703125,0.3603706044733524,2.53163386233747,-1.771184912380576
1775711365747998700,5.480998779296875,0.47281858752369876,2.4860575215548275,-1.0688538048714398
1775711365758012700,5.4910126953125,0.5274877508223057,2.344775073686242,-0.7481003405153751
1775711365768025600,5.501025634765625,0.6694985860306769,2.0347896715819833,-0.5108171865284442
1775711365778038800,5.511038818359375,0.6155565679628402,2.032434632888436,-0.4756237080723047
1775711365788052700,5.521052734375,0.46017194498367603,2.0134750808745623,-0.5672060132265091
1775711365798065700,5.531065673828125,0.09289919643905013,1.7892799565196036,-0.5839671784132718
1775711365808079600,5.54107958984375,-0.25383096868395805,1.437302501860261,-0.7672375871837138
1775711365818092800,5.5510927734375,-0.17160042924284935,1.0606348425805567,-0.824729991209507
1775711365828106800,5.561106689453125,-0.023323628974892197,0.41161213141083713,-0.32048166167736053
1775711365838119700,5.57111962890625,0.4421042637756094,-0.01970774003267288,0.49380701501667496
1775711365848132600,5.581132568359375,1.396208859449625,0.03777238903343677,1.5044892014265059
1775711365858146600,5.591146484375,2.149901905405521,0.14202420614659786,2.083306157469749
1775711365868159700,5.60115966796875,2.3004665608823296,-0.12392039417922496,2.288143670403957
1775711365878173700,5.611173583984375,1.933080524688959,-0.3581657879054546,2.0738801574766637
1775711365888186600,5.6211865234375,1.3189514322459697,-0.22080898904800414,1.5264385829061269
1775711365898200800,5.631200927734375,0.5833668744325637,-0.23556173702180383,0.9267360752224921
1775711365908213500,5.641213623046875,-0.046351416808366776,-0.22831425011157988,0.6667319708615541
1775711365918227700,5.651227783203125,-0.5573077195465564,-0.05465571929514408,0.5103273571848869
1775711365928241000,5.661240966796875,-0.8569792329072952,-0.20764964774549005,0.7697913633197545
1775711365938253600,5.671253662109375,-0.8764601784467697,-0.13749299245774746,1.196516892710328
1775711365948267800,5.681267822265625,-0.6738835961818694,0.27678280520439147,1.4202028984993695
1775711365958280700,5.69128076171875,-0.44128772322833537,0.29454350282251834,1.830190059056878
1775711365968294700,5.701294677734375,-0.28721418284773825,0.2303787814259529,2.1983839045017954
1775711365978307800,5.711307861328125,-0.17345044102370738,0.09215630564987659,2.3019383870005607
1775711365988321800,5.72132177734375,-0.007529226461052894,-0.23066110549867153,2.1725369310617446
1775711365998334700,5.731334716796875,-0.04336156907631084,-0.42166240078210826,1.8225871828377245
1775711366008347600,5.74134765625,-0.24974278605487196,-0.6298024623930454,1.357917999500036
1775711366018361900,5.75136181640625,-0.15492109712064264,-0.6409200687348843,1.3549673330008982
1775711366028374800,5.761374755859375,-0.7921002988267689,-0.6328571737885474,0.5004653038620949
1775711366038388700,5.771388671875,-0.9994505982995032,-0.7481997092366218,0.6956336556971072
1775711366048401700,5.781401611328125,-1.15629177676253,-0.7366781982690096,0.9632739540249109
1775711366058415600,5.79141552734375,-1.099473837932199,-0.7679384289294481,0.9475660972833633
1775711366068428800,5.8014287109375,-0.9767858350921421,-0.8360130172461271,1.3592010250478983
1775711366078442800,5.81144287109375,-1.1014841548413037,-0.9429401910483837,1.4767343485385178
1775711366088455700,5.82145556640625,-1.0362211898792535,-0.8781360027045011,1.3503098625838756
1775711366098468900,5.83146875,-0.9377332700550556,-0.6778273653715848,1.142660799360275
1775711366108482600,5.841482666015625,-0.8334522268474102,-0.5025245744794606,1.090036293631792
1775711366118495700,5.851495849609375,-0.605546484471485,-0.25370763456523415,1.1679694281399249
1775711366128509700,5.861509765625,-0.4909200614035129,-0.032171500286459924,1.257282619318366
1775711366138522600,5.871522705078125,-0.5321101499259472,0.10709259349703788,1.2916782253950834
1775711366148536600,5.88153662109375,-0.5039250158619135,0.005139116454124451,1.3473714710444211
1775711366158549800,5.8915498046875,-0.4114775452457368,-0.338280353218317,1.2985451885551214
1775711366168562700,5.901562744140625,-0.16545125896334648,-0.4473819484502077,1.0004425319463015
1775711366178576600,5.91157666015625,0.055638885113596916,-0.3542880696892738,0.8334697625041008
1775711366188589800,5.92158984375,0.1287105510652065,-0.24280396323502063,0.6085445703089237
1775711366198603500,5.931603515625,0.17841946160793304,-0.19192542439103125,0.3413303884387016
1775711366208616700,5.94161669921875,0.2602256381571293,-0.26270459549129005,0.1655932977825403
1775711366218631000,5.951630859375,0.3675261753164232,-0.2325999646067619,-0.06288461845815181
1775711366228643600,5.9616435546875,0.19695757333934305,-0.1495943491399288,-0.4087082266628742
1775711366238656800,5.97165673828125,-0.13702303685843945,-0.1844464668124914,-0.5122562794208526
1775711366248670700,5.981670654296875,-0.4828483986288309,-0.09876491013467312,-0.6943909621596336
1775711366258683600,5.99168359375,-0.7171066518366337,0.07862637746930122,-1.074383381947875
1775711366268697900,6.00169775390625,-0.6422802511721849,-0.05986790098547935,-1.3917740918725727
1775711366278710500,6.01171044921875,-0.5752887819170952,-0.09576105214357375,-1.439476923289895
1775711366288724700,6.021724853515625,-0.6291051277786492,0.0055909518748521805,-1.144166527748108
1775711366298737700,6.031737548828125,-0.7012066335238516,-0.23691256710886954,-0.7128337968230247
1775711366308752000,6.041751953125,-0.7633838343650102,-0.19057517882585526,-0.7829401832282543
1775711366318764800,6.051764892578125,-0.7953956140451133,-0.0736339760094881,-0.9552788636177778
1775711366328777700,6.06177783203125,-0.7811532998114824,-0.08717442558407783,-1.2168833889126778
1775711366338791700,6.071791748046875,-0.6726999393552542,-0.1318307289123535,-1.3139198678195476
1775711366348804600,6.0818046875,-0.6640158437706529,-0.13325403971374034,-1.3136287759184837
1775711366358818800,6.09181884765625,-0.17346790361516176,-0.17019290053248404,-1.0698182659894226
1775711366368831700,6.101831787109375,0.01060220416560769,-0.1188116728633642,-0.9339835621327162
1775711366378844700,6.1118447265625,0.1088128414183855,-0.15607143619954586,-0.7332260119885206
1775711366388859000,6.12185888671875,0.1234014848716557,0.0033089784175157544,-0.5107569807738065
1775711366398871600,6.13187158203125,0.1958142485231161,0.08331190493702888,-0.1649234356969595
1775711366408885800,6.1418857421875,0.26329437807798384,-0.05594049840867519,0.4004612073212862
1775711366418899000,6.15189892578125,0.15136311237812042,0.0835422065615654,0.6806324859201908
1775711366428912600,6.16191259765625,0.08470905838385223,-0.03709025198817253,0.8547703246861695
1775711366438925800,6.17192578125,0.045816433148831125,-0.3578027998119592,0.9174743258804082
1775711366448939800,6.181939697265625,-0.05586041890978813,-0.4051438121795654,0.8265408400237559
1775711366458952700,6.19195263671875,-0.17947861527204512,-0.49237026021182534,0.6987310371905565
1775711366468966000,6.2019658203125,-0.08924933216199278,-0.5030734405338764,0.658130731254816
1775711366478979600,6.2119794921875,-0.11923194410204886,-0.2821984005123377,0.6698796212375163
1775711366488992800,6.22199267578125,-0.18208675194382667,-0.20517828919589517,0.5917267064988613
1775711366499006700,6.2320068359375,-0.007920856127142906,-0.2665086639493704,0.7894991033524275
1775711366509019600,6.24201953125,-0.01468669700026512,-0.2368663898795843,1.1858832704931497
1775711366519033600,6.25203369140625,0.04538520212471485,-0.22682897998988627,1.330472943213582
1775711366529046800,6.262046875,0.2850165266729891,-0.17752163598537443,1.3141039922147988
1775711366539059700,6.272059814453125,0.41476621152758597,-0.12433306663334369,1.3132061665922403
1775711366549073700,6.28207373046875,0.23714418390765785,-0.0253232418268919,1.062422895041108
1775711366559086800,6.2920869140625,-0.14398410804271697,0.01539864466190338,0.7915852619767189
1775711366569100300,6.302100341796875,-0.09189502436518669,0.01851999155282974,0.8050766117125749
1775711366579113200,6.31211328125,-0.4676657348051667,0.16538754607737063,0.15686404788196087
1775711366589127400,6.32212744140625,-0.2058054811835289,0.04146422928869724,-0.10441723680794239
1775711366599140400,6.332140380859375,0.01025514429360628,0.06368073727190494,-0.38013562765121456
1775711366609153300,6.3421533203125,0.25237463239580393,-0.014831658428907393,-0.8430524143636227
1775711366619167200,6.352167236328125,0.669656333875656,-0.4142921642750501,-1.2202952431827783
1775711366629180400,6.362180419921875,0.9238187264710664,-0.6623796208709478,-0.9868927300214767
1775711366639194400,6.3721943359375,0.7558549001649022,-0.8271066572129726,-0.5074316357433796
1775711366649207300,6.382207275390625,0.4979917533554136,-0.8233072649300098,-0.07194178513884544
1775711366659221500,6.392221435546875,0.2923728807851672,-0.9413578902930021,0.18058453068733216
1775711366669234200,6.402234130859375,0.3357765537038445,-1.3194184652358292,0.012273206117749213
1775711366679247400,6.412247314453125,0.604537965016067,-1.2961591702014208,-0.3948872065812349
1775711366689261300,6.42226123046875,0.7708183682799339,-1.3472457988381386,-0.7379425191164016
1775711366699274200,6.432274169921875,0.6521504878014326,-1.3991881675213576,-0.8890361669033765
1775711366709288400,6.442288330078125,0.07681319056749343,-1.028123735076189,-0.9481997190117836
1775711366719301000,6.452301025390625,-0.44150721119791264,-0.9194102623790502,-0.733044225680828
1775711366729315300,6.4623154296875,-0.9996271239101886,-0.8914996344074606,-0.15305296516120434
1775711366739328500,6.47232861328125,-0.9982368385955691,-0.9423319960221648,-0.18217033857405185
1775711366749341200,6.482341064453125,-1.928609370624274,-0.9115504887893795,1.1133885276466606
1775711366759355400,6.49235546875,-2.0088636415563523,-0.8144608183905482,1.3719196368455886
1775711366769368300,6.502368408203125,-1.5781822141468524,-0.7275877138406038,1.3831979867070912
1775711366779382300,6.51238232421875,-0.9460328963667154,-0.5515194915339351,1.1868985850155354
1775711366789395500,6.5223955078125,-0.4591042426869273,-0.34769203242510555,0.9608195466101169
1775711366799408400,6.532408447265625,-0.2500548111461103,-0.17053396905511617,0.7800029607325791
1775711366809422300,6.54242236328125,-0.07828136342391372,-0.014311726208031176,0.5887310318142175
1775711366819435300,6.552435302734375,0.14630173733532428,0.18766601338088512,0.4096083903729915
1775711366829449500,6.562449462890625,0.19144962357282638,0.3249102917745709,0.5022422504067421
1775711366839462400,6.57246240234375,-0.04285363782048225,0.5102072379365563,0.7094120056807994
1775711366849476400,6.582476318359375,-0.35403847884237766,0.7009101347953081,0.7718722612470388
1775711366859489500,6.592489501953125,-0.49484731784984465,0.7968556035950779,0.5787538276791572
1775711366869502200,6.602502197265625,-0.40585692888498304,0.5721414238020778,0.5780798739403485
1775711366879516400,6.612516357421875,-0.39204803763255475,0.3556345158621669,0.5223953961193561
1775711366889529300,6.622529296875,-0.26198008060902356,0.2761789940923452,0.45899932100772856
1775711366899543300,6.632543212890625,0.13261603407114744,0.15832944425940512,0.407654918217659
1775711366909556500,6.642556396484375,0.6877217135287821,0.05708002383261919,0.3891097922235727
1775711366919570400,6.6525703125,1.073257008266449,-0.03753302731961012,0.3644628422230482
1775711366929583400,6.662583251953125,1.2706865830317138,-0.13507131826877594,0.46251229756474493
1775711366939596300,6.67259619140625,1.3603947648771106,-0.15143004013448952,0.411500487729907
1775711366949610200,6.6826103515625,1.2763245889186858,-0.20941315028667448,0.19829379037916658
1775711366959623400,6.69262353515625,0.9576778875835239,-0.3007777210369706,0.04859539634287357
1775711366969637400,6.702637451171875,0.5295008442103862,-0.41131811690032477,-0.07122691486775874
1775711366979650300,6.712650390625,0.19654490088522433,-0.5024842424690723,-0.050307460957765573
1775711366989664300,6.722664306640625,-0.21140154762491584,-0.4712210891991853,0.01798106237053871
1775711366999677400,6.732677490234375,-0.6322147842317819,-0.44521687937080856,0.1059369937211275
1775711367009690400,6.7426904296875,-1.001633203035593,-0.47840077157020566,0.3447930961132049
1775711367019704300,6.752704345703125,-1.0260662180244922,-0.47882659576684233,0.33879180987179275
1775711367029717500,6.762717529296875,-1.6664450194895266,-0.6356622943371534,0.6740525230079889
1775711367039731200,6.772731201171875,-1.5559626374237239,-0.6540048834964632,0.7507476401537656
1775711367049744400,6.782744384765625,-1.3146084346055984,-0.6832718945130706,0.6799357358276844
1775711367059758300,6.79275830078125,-1.1164631127864122,-0.6749371968880296,0.5697527750998735
1775711367069771300,6.802771240234375,-0.9261839942976832,-0.5571610045522452,0.4410428085565567
1775711367079784400,6.812784423828125,-0.8821386624746024,-0.46843759596049783,0.4410620977789163
1775711367089798400,6.82279833984375,-0.9969827468812466,-0.4618535413950681,0.5667331350177526
1775711367099811300,6.832811279296875,-1.2968819315180182,-0.3596022504493594,0.8644926772773265
1775711367109825300,6.8428251953125,-1.564043360287696,-0.36533641018718477,1.4400129298627375
1775711367119838200,6.852838134765625,-1.6795627136074005,-0.3964695073366165,1.9443869316011666
1775711367129851400,6.862851318359375,-1.5317423884026706,-0.43981502032727,2.38049403732121
1775711367139865300,6.872865234375,-1.2156276897631584,-0.575895223377645,2.6333202128767965
1775711367149878300,6.882878173828125,-0.804318340691179,-0.6821835147544741,2.671992181098461
1775711367159892200,6.892892333984375,-0.28076500670835375,-0.5776385599136352,2.553297412613034
1775711367169905400,6.902905517578125,0.20831541817784308,-0.44775662698149676,2.537422967132926
1775711367179919400,6.91291943359375,0.422003323174268,-0.39318566336035726,2.533825819423795
1775711367189932300,6.922932373046875,0.4594384430773556,-0.3151572517842054,2.3680501508116722
1775711367199945500,6.932945556640625,0.5518599755346775,-0.31292788529694077,2.3239532349318264
1775711367209959200,6.942959228515625,0.5425906274080277,-0.3959875690385699,2.333501399999857
1775711367219972400,6.952972412109375,0.3581913607381284,-0.5150958867609501,2.3424317254304885
1775711367229986300,6.962986328125,0.1471598154693842,-0.543658548900485,2.364232638350129
1775711367239999200,6.972999267578125,0.14110051543042063,-0.5413835897058248,2.3640923530966043
1775711367250013400,6.983013427734375,-0.1707036265335977,-0.4285997988298535,2.184507354840636
1775711367260026000,6.993026123046875,-0.12305530178248882,-0.48598202047944067,1.913665630123019
1775711367270039300,7.003039306640625,-0.10856018183156847,-0.4926569681987166,1.6135960573554038
1775711367280053500,7.013053466796875,-0.09731281163021921,-0.5101338804394007,1.3233125500649212
1775711367290066200,7.023066162109375,-0.17195099624618887,-0.4072507213309407,1.032959484669566
1775711367300080400,7.033080322265625,-0.461585245847702,-0.3205760619625449,0.9011287557572126
1775711367310093300,7.04309326171875,-0.7235672261528671,-0.4199845306977629,0.9005401422142982
1775711367320107300,7.053107177734375,-0.7974417329199611,-0.48802550900578495,0.827803407305479
1775711367330120400,7.063120361328125,-0.8154455916441976,-0.45603082659095523,0.8399059330314397
1775711367340133400,7.07313330078125,-0.8973650193095206,-0.3950882821112871,0.5228396327555179
1775711367350147300,7.083147216796875,-0.9146469934999942,-0.3650000178396702,0.5344745409697294
1775711367360160300,7.09316015625,-0.9964577000938355,-0.13505933557003735,0.2613222012221813
1775711367370174500,7.103174560546875,-0.9284772198013961,0.0042807460591197015,0.28827801268696784
1775711367380187400,7.1131875,-0.8446225862897933,-0.019432137961685657,0.40065468406677246
1775711367390200300,7.123200439453125,-0.6457786146819591,-0.18114216457009313,0.4733914189755916
1775711367400214500,7.133214599609375,-0.4333757810600102,-0.25641513995826243,0.4640869995355606
1775711367410227200,7.143227294921875,-0.3284432882063091,-0.2822019076436758,0.3321984029561281
1775711367420241400,7.153241455078125,-0.2924409775853157,-0.22949878372102975,0.14997078123688698
1775711367430254300,7.16325439453125,-0.3106131786137819,-0.09497194759249687,-0.047670098191499706
1775711367440268300,7.173268310546875,-0.4674532610982656,0.008739479033648967,-0.003218377524614334
1775711367450281500,7.183281494140625,-0.7258293258659542,0.028357787217199802,0.18520283813774585
1775711367460294100,7.193294189453125,-0.843494459042698,0.09088643184453249,0.29720541550815105
1775711367470308400,7.203308349609375,-0.8582986449427902,0.19781974312663078,0.3622738077461719
1775711367480321300,7.2133212890625,-0.9084726887792348,0.2663832840040326,0.3967144220083952
1775711367490335200,7.223335205078125,-0.9301900150686502,0.2967120790332556,0.4509422712802887
1775711367500348400,7.233348388671875,-0.8313171145148575,0.45614247027188537,0.5750713397741317
1775711367510361300,7.243361328125,-0.6124982763707637,0.6234484171912074,0.6031465106576681
1775711367520375300,7.253375244140625,-0.4126373828053474,0.6376853245973587,0.4616366837739944
1775711367530388500,7.263388427734375,-0.12980243795514107,0.6561541704848408,0.2289461182743311
1775711367540402400,7.27340234375,0.1736902411289513,0.5855687683910131,-0.03925122941434383
1775711367550415400,7.283415283203125,0.34760011635795235,0.45367432659268375,-0.2987397854685783
1775711367560429300,7.29342919921875,0.46054245879650113,0.33556758712828155,-0.5277975474238396
1775711367570442200,7.303442138671875,0.6131805595465004,0.3624883272796869,-0.7310673726499081
1775711367580455200,7.313455078125,0.5837437449209392,0.3846785317778587,-0.6961538801789283
1775711367590469000,7.32346923828125,0.4443341051869094,0.4332546388983726,-0.6161188049554824
1775711367600482300,7.333482421875,0.39007483786344527,0.5632721809089184,-0.6888911956995725
1775711367610496000,7.34349609375,0.36916006012856956,0.6362941624999046,-0.6774889271974563
1775711367620509200,7.35350927734375,0.31412673969268795,0.7237795537292957,-0.6081774905622005
1775711367630522000,7.363522216796875,0.26117139457464217,0.7595540469437837,-0.6789058082580566
1775711367640536000,7.3735361328125,0.28289105895161626,0.591982727086544,-0.7533592839568853
1775711367650549200,7.38354931640625,0.2510053898692131,0.548902879294753,-0.8452391107529401
1775711367660563200,7.393563232421875,0.2341026242546737,0.4411982913792133,-0.8970686667114496
1775711367670576000,7.403576171875,0.463510807082802,0.3480880460053682,-1.016657753688097
1775711367680590000,7.413590087890625,0.9023978989101946,0.43829380210936064,-1.1980752280682325
1775711367690603000,7.42360302734375,1.1116712023347615,0.5432330169647932,-1.386005445343256
1775711367700616200,7.4336162109375,0.9989942328341305,0.46394496071636676,-1.4495797996312378
1775711367710630100,7.443630126953125,0.8331576278150081,0.39005379507541654,-1.4813187537193298
1775711367720643000,7.45364306640625,0.6232287830911576,0.34585634143054483,-1.248235389509797
1775711367730657000,7.463656982421875,0.38964273005649447,0.37018998769819733,-1.0831102937608956
1775711367740670200,7.473670166015625,0.3810423672325909,0.39044191761016844,-1.070041553351283
1775711367750683100,7.48368310546875,0.05635550895035266,0.4692582646936178,-0.8489093236982822
1775711367760697000,7.493697021484375,0.042346272820234294,0.6066232468575239,-0.7086801842749119
1775711367770710300,7.503710205078125,0.15635156831517816,0.7168442015081644,-0.5640811592042446
1775711367780724000,7.513723876953125,0.12630816609859466,0.5992080021649598,-0.41741468020975586
1775711367790737200,7.523737060546875,0.10307342098355293,0.4551461527109146,-0.32699382005035876
1775711367800751000,7.533751220703125,0.11166691567525266,0.3743909465193748,-0.3564858719944954
1775711367810764000,7.543763916015625,0.2605095696650445,0.29705694694817064,-0.6346440572053194
1775711367820777200,7.553777099609375,0.46789165251553055,0.3913549408018589,-0.9032131608158349
1775711367830791200,7.563791259765625,0.42505861909165976,0.4730021273970604,-0.9725696056365967
1775711367840804000,7.57380419921875,0.3422100938826799,0.44433308227360246,-0.8598188402473926
1775711367850818000,7.583818115234375,0.31080855505540966,0.4386205498456955,-0.8109229996532201
1775711367860831000,7.5938310546875,0.20097221580818295,0.38325112932324407,-0.7967670485287904
1775711367870844200,7.60384423828125,0.0473230383194983,0.47102118271291255,-0.6427846935629844
1775711367880858000,7.613858154296875,-0.18837898395583033,0.5804769982099532,-0.41351241207420825
1775711367890871000,7.62387109375,-0.3578986614018678,0.7070534598559141,-0.3523614855408668
1775711367900885000,7.633885009765625,-0.1730610033147037,0.8609376151442527,-0.5088263049721717
1775711367910898200,7.643898193359375,0.08301262972950935,0.8180845618456601,-0.820923584663868
1775711367920912100,7.653912109375,0.4425625654697418,0.7950485541731118,-1.1753782430917024
1775711367930925000,7.663925048828125,0.6291262436319143,0.7975140675038099,-1.3258090430557727
1775711367940938200,7.673938232421875,0.5978032499335706,0.8967530248910188,-1.3348486740797758
1775711367950952000,7.683951904296875,0.4598297804825008,1.036654247534275,-1.4975708003401755
1775711367960965000,7.693965087890625,0.2736864466242492,1.1053788241922855,-1.7271084547668694
1775711367970979300,7.703979248046875,0.12432196071743964,1.2395219217002391,-1.7171803504705427
1775711367980992000,7.713991943359375,-0.01374379012696445,1.4586165080457925,-1.6028566366761923
1775711367991005200,7.724005126953125,-0.007762450695037841,1.549547655814886,-1.7430740856617688
1775711368001019100,7.73401904296875,0.23441899672746658,1.6151877104610204,-2.106466083782911
1775711368011032000,7.744031982421875,0.6630312166474759,1.7105156318843364,-2.624740600579977
1775711368021046300,7.75404638671875,0.978676690340042,1.6050380723685025,-2.926803977513313
1775711368031059000,7.764058837890625,1.2002590749133377,1.5470762972652912,-2.999492781627178
1775711368041072000,7.774072021484375,1.366793964394927,1.578076415684819,-2.9856740996330973
1775711368051086000,7.784086181640625,1.3354279352724552,1.6158382833242415,-2.917076364225149
1775711368061099000,7.79409912109375,1.1696985169548542,1.692770716357231,-2.8514064989626404
1775711368071113200,7.80411328125,1.041882284380868,1.7935604103177785,-2.7947026149660346
1775711368081126100,7.814126220703125,0.9324404243439436,1.772163986545801,-2.654815420848131
1775711368091140000,7.82414013671875,0.8360580984968692,1.7197551693946123,-2.3953584289759395
1775711368101153000,7.834153076171875,0.6214334241069853,1.5954554205089806,-2.196564872381091
1775711368111166200,7.844166259765625,0.6111714847464114,1.4587047708511351,-2.299005256158113
1775711368121180200,7.85418017578125,0.6805348707646132,1.3557611137270926,-2.207156409022212
1775711368131193000,7.864193115234375,0.5606324800550937,1.2554694324165583,-2.023986538016796
1775711368141207300,7.874207275390625,0.5678799669653177,1.0409534060329197,-1.908499625661969
1775711368151220000,7.884219970703125,0.6033844110667705,0.903684869980812,-1.7348802578121423
1775711368161233200,7.894233154296875,0.4720324055820703,0.7066384493142366,-1.330241472545266
1775711368171247000,7.9042470703125,0.3427349214743823,0.62804071341753,-0.7794967647761106
1775711368181260000,7.914260009765625,0.1466968010675162,0.8397019348919391,-0.33727263748049735
1775711368191274200,7.924274169921875,-0.02081540901362896,0.8218740172564983,-0.13122107258141041
1775711368201287000,7.934286865234375,-0.08895597523860632,0.3725836048364639,0.08108779914677143
1775711368211300000,7.944300048828125,-0.13948847712390125,0.2379115150183439,-0.03245908505618572
1775711368221314300,7.954314208984375,-0.1250298167258501,0.4070370785802602,-0.16580606375038623
1775711368231327000,7.964326904296875,-0.09812902338393031,0.16388649386465548,-0.15540508124530314
1775711368241341200,7.974341064453125,-0.1195569382727146,0.14497545716762542,-0.1724134991914034
1775711368251354000,7.98435400390625,0.09024093701522796,0.013601239851117133,-0.2612099730193615
1775711368261368000,7.9943681640625,0.04486969035062938,0.03667231883704662,-0.22871757021546363
1775711368271381200,8.00438134765625,0.009716507372260094,-0.030465865412354468,-0.24850422070324418
1775711368281394000,8.014393798828126,0.05626026841495186,-0.09805763864815234,-0.3258680308908224
1775711368291408100,8.024408203125,0.04786536503527313,-0.15684300509393215,-0.31875381497144695
1775711368301421000,8.034421142578125,0.05411211393773555,-0.12795944043695925,-0.43729719228744507
1775711368311435300,8.044435302734374,0.04660692593939602,-0.25853520085215564,-0.5667869110316038
1775711368321448200,8.0544482421875,-0.06138002258148044,-0.3443821772247553,-0.5581657976806164
1775711368331461000,8.064461181640626,-0.077380724789761,-0.18617957421541212,-0.4677683183968067
1775711368341475000,8.07447509765625,0.11122578431162983,-0.13384206873476504,-0.21533961772620677
1775711368351488000,8.084488037109375,0.09412676547262817,-0.1663987689465284,-0.24089900639653206
1775711368361502200,8.094502197265625,-0.10338727270569652,0.021500468668341634,0.30784839007556436
1775711368371515100,8.10451513671875,-0.13656824229564518,0.028899346747994423,0.47362522773146626
1775711368381528000,8.114528076171876,-0.04825575259234756,-0.0253232418268919,0.5603109930157661
1775711368391542300,8.124542236328125,0.14492522481773049,-0.3301180895507336,0.5142079980105161
1775711368401555000,8.134554931640626,0.35055122124850746,-0.34738486617207526,0.2170990286141634
1775711368411569200,8.144569091796875,0.41118952208459375,-0.2537941438049078,0.10185118571221828
1775711368421582300,8.154582275390625,0.4826806773791089,-0.2834177131742239,0.16711948443651198
1775711368431595000,8.164594970703124,0.39958500900864596,-0.1534165377765894,0.25410978562533854
1775711368441609200,8.174609130859375,0.2612491359859705,-0.19567162518203257,0.4742775541603565
1775711368451622000,8.184621826171876,0.0397364191154018,-0.2517062316149473,0.6197814191162586
1775711368461636000,8.194635986328125,-0.2842144530424848,-0.17659750687777995,0.4989209970295429
1775711368471649300,8.204649169921876,-0.4494546265384182,-0.24175650000870227,0.4368494485199451
1775711368481662000,8.214661865234374,-0.5769335899820551,-0.26327391981184484,0.283831554672122
1775711368491676200,8.22467626953125,-0.6614414632380008,-0.2319645893126726,0.00810498052239418
1775711368501689000,8.234689208984374,-0.6212485690593719,-0.2720610373795032,-0.17137305022776125
1775711368511703000,8.244703125,-0.5033118889322504,-0.1795014116257429,-0.38386604635119437
1775711368521716200,8.25471630859375,-0.19675996840801088,-0.14321721532344817,-0.5500590635925531
1775711368531729200,8.264729248046875,0.03165127580463886,-0.22953648538291452,-0.5490747287303209
1775711368541743000,8.2747431640625,0.048508887103199956,-0.2119008754491806,-0.5943038635104895
1775711368551756000,8.284756103515624,0.08921616054475306,-0.23177812682986257,-0.5507376935064793
1775711368561770200,8.294770263671875,0.00893149447441101,-0.2972165214240551,-0.4138245467633009
1775711368571783400,8.304783447265624,-0.2472907349939458,-0.1720943502396345,-0.40295653126835823
1775711368581797400,8.31479736328125,-0.6379220559626817,-0.023415362378954887,-0.182947752687335
1775711368591810600,8.324810546875,-1.0303379039943217,0.15127017339766025,0.2506552612572908
1775711368601823500,8.334823486328125,-1.0486094737440348,0.10826923606097698,0.22302198892235756
1775711368611837400,8.34483740234375,-1.1351035158485174,0.3551122455537319,0.8734493061929941
1775711368621850400,8.354850341796874,-0.9223580062687396,0.3032622313290834,1.0537895067304373
1775711368631864600,8.364864501953125,-0.6935071650624275,0.12066869890689849,1.05152799153924
1775711368641877500,8.37487744140625,-0.5446750324666499,-0.05456687196791172,0.9100830465853214
1775711368651890400,8.384890380859375,-0.48642099641859526,-0.049640521481633185,0.7058937684267759
1775711368661904600,8.394904541015626,-0.3470288923412561,-0.05567746355831623,0.5237298595935106
1775711368671917300,8.404917236328124,-0.028005612778663633,-0.1703004525601864,0.1966904468357563
1775711368681931500,8.414931640625,0.18017887249588965,-0.3144751147389412,-0.026518589091300962
1775711368691944400,8.4249443359375,0.017241048525040967,-0.4655313531249761,-0.09563070376217364
1775711368701957400,8.434957275390625,-0.308296718364954,-0.5497884299576282,-0.018743863436579702
1775711368711971600,8.4449716796875,-0.658910483455658,-0.42218028717637057,0.1606008963227272
1775711368721984500,8.454984619140625,-0.7943664171278476,-0.3188087600290775,0.4317009797155857
1775711368731998500,8.46499853515625,-0.7414543266296386,-0.28000468986034394,0.6098872170895338
1775711368742011600,8.47501171875,-0.775762254422903,-0.2944406269699335,0.6023199967056513
1775711368752024300,8.4850244140625,-0.7070306635022163,-0.23953648587167262,0.6787789670079946
1775711368762038500,8.49503857421875,-0.7493114698708057,-0.2150596317410469,0.611412234699726
1775711368772051500,8.505051513671875,-0.6591384469926357,-0.11844985381364821,0.6202928757697344
1775711368782065400,8.5150654296875,-0.47831426233053204,-0.012006079614162444,0.6194768832117319
1775711368792078600,8.52507861328125,-0.16111761367321015,-0.13539046722054482,0.5699275471448898
1775711368802091300,8.53509130859375,0.25592938400162385,-0.30776772605478764,0.3851671920776367
1775711368812105500,8.54510546875,0.4258955083072185,-0.3121098469123244,0.32993571872115135
1775711368822118400,8.555118408203125,0.426780474448204,-0.320950740493834,0.4385989225357771
1775711368832132400,8.56513232421875,0.47849195698499675,-0.32496640587598086,0.47897711015343664
1775711368842145500,8.5751455078125,0.5879565403103828,-0.17049626739323137,0.4473246653050184
1775711368852158500,8.585158447265625,0.6259528012275696,-0.06259148073047399,0.44695349390506744
1775711368862172400,8.59517236328125,0.647263300281763,-0.05724661257117986,0.506641946670413
1775711368872185300,8.605185302734375,0.642529842019081,0.046214930947124956,0.42307519018948075
1775711368882199600,8.615199462890626,0.5283925907075405,0.1615589276999235,0.37706630320847034
1775711368892212500,8.62521240234375,0.46560909453630445,0.2327671378672123,0.3883312090665102
1775711368902225400,8.635225341796875,0.5688613792181014,0.328097397378087,0.424764458450675
1775711368912239600,8.645239501953125,0.6117290455639361,0.4387058900415897,0.4551140040069818
1775711368922252500,8.65525244140625,0.6498048014581204,0.5390361497968434,0.4696206682652235
1775711368932266500,8.6652666015625,0.7618155621349811,0.6409636156156658,0.21080898855924604
1775711368942279400,8.675279541015625,0.9277040434718131,0.6002636486977339,-0.17996435296237467
1775711368952292400,8.685292236328126,0.888541076862812,0.5326274517983198,-0.4988870947599411
1775711368962306600,8.695306640625,0.8098913185179233,0.5612833451792597,-0.6908323928952217
1775711368972319500,8.705319580078125,0.7244120064139365,0.6434741371318697,-0.8259609943091869
1775711368982333400,8.71533349609375,0.5835141739487648,0.6361705361202359,-0.8403414018392562
1775711368992346600,8.7253466796875,0.3348433645069599,0.6133537241563201,-0.7687941689759492
1775711369002359300,8.735359375,0.04798222374743782,0.6127972593173384,-0.6707762778162956
1775711369012373500,8.74537353515625,-0.11903085943884216,0.5440621612653136,-0.4275175565510988
1775711369022386400,8.755386474609375,-0.09775193369984626,0.5389204144626856,-0.43057752864360804
1775711369032400400,8.765400390625,-0.2720119375407696,0.5106958982363343,0.08818155680000782
1775711369042413600,8.77541357421875,-0.3223603150308132,0.4521960707336664,0.2008160023331642
1775711369052426200,8.78542626953125,-0.3293617182254791,0.3282847366437316,0.22694997602105138
1775711369062440400,8.7954404296875,-0.2783621833503246,0.27543314416110515,0.16885259183943271
1775711369072453400,8.805453369140626,-0.1696586475253105,0.3490972230479121,0.10671733044385909
1775711369082467600,8.815467529296875,-0.019605448701977727,0.31168080784529445,0.15160978061556815
1775711369092480500,8.82548046875,0.06640227119028567,0.28468846376240253,0.30798575271964074
1775711369102493400,8.835493408203124,-0.012014262920618057,0.1485275966912508,0.6969716263025999
1775711369112507400,8.84550732421875,-0.05148527256548405,-0.10365385122001171,1.1523317140251397
1775711369122520300,8.855520263671876,0.08531507971929386,-0.19757307488918302,1.4876976411014795
1775711369132534500,8.865534423828125,0.2936445264224894,-0.17469664169251917,1.5590806233137846
1775711369142547500,8.87554736328125,0.4372726423680782,-0.21086510266065597,1.4565297648996114
1775711369152560400,8.885560302734374,0.541491105200909,-0.24611148034781216,1.5153373431771993
1775711369162574600,8.89557470703125,0.5914286003351211,-0.1381467801913619,1.6401853735953569
1775711369172587500,8.90558740234375,0.6305500658899545,-0.2319131513863802,1.4113105669915675
1775711369182601500,8.9156015625,0.7539186714053153,-0.43800007985979317,0.7803413989067077
1775711369192614700,8.92561474609375,0.8259446276962756,-0.5555699359685182,0.2275426812171936
1775711369202627300,8.93562744140625,0.7347317403763532,-0.67266106864959,-0.14827683680057524
1775711369212641500,8.9456416015625,0.5871224641064181,-0.7330287358507513,-0.2676116567552089
1775711369222654500,8.955654541015624,0.45724633986055846,-0.6669084964722395,-0.23027532105147838
1775711369232668400,8.96566845703125,0.2600333304554224,-0.5679463101997971,-0.1513672040313482
1775711369242681600,8.975681640625,0.2978074730545282,-0.5602265296027064,-0.14441139354407787
1775711369252694300,8.9856943359375,-0.15639124273844063,-0.4537827554032206,-0.0437444491803646
1775711369262708500,8.99570849609375,-0.24015849022753535,-0.4220531536653638,-0.014600772282481193
1775711369272721400,9.005721435546874,-0.22795827628076076,-0.3450318733051419,-0.09595686697661876
1775711369282735400,9.0157353515625,-0.07504859204776584,-0.49366526845842595,-0.20572014098763464
1775711369292748500,9.02574853515625,0.11585801068954169,-0.6609443273708224,-0.5271276853382587
1775711369302761500,9.035761474609375,0.4528770387351513,-0.807320006725192,-0.8159621628642082
1775711369312775400,9.045775390625,0.5829454341500997,-0.8123577086314558,-0.9624012628436088
1775711369322788400,9.055788330078125,0.5462375325430184,-0.6987889048576355,-0.42239597575366494
1775711369332802600,9.065802490234375,0.2441729865659028,-0.0676148618504405,0.6877408566206693
1775711369342815500,9.0758154296875,-0.12835282366871834,0.27500381283313036,1.3610913688391446
1775711369352828400,9.085828369140625,-0.10254910484850406,0.29586013837903735,1.3751555500268935
1775711369362842600,9.095842529296876,-0.7001122624158859,0.04507219065278768,1.0867506960898636
1775711369372855600,9.10585546875,-1.0810889440011233,-0.14908961448818445,0.6125917998731136
1775711369382869500,9.115869384765626,-1.4583832838118076,-0.47069414271563287,0.3327116131752729
1775711369392882400,9.12588232421875,-1.824242548829317,-0.6278793853759765,0.07940028445124625
1775711369402895400,9.135895263671875,-1.98738786893785,-0.6960825685083866,-0.046771688047051424
1775711369412909600,9.14590966796875,-1.9886609576135872,-0.8491308574944734,0.09462883324325085
1775711369422922500,9.155922607421875,-2.0304969428241253,-0.8209726845026015,0.1988859110534191
1775711369432935400,9.165935302734376,-1.9413135155051946,-0.7827081280380487,0.4446399562656879
1775711369442949600,9.17594970703125,-1.7848247306764125,-0.8527630765169858,0.6173638365805149
1775711369452962300,9.18596240234375,-1.5950193671792745,-0.8938982199817895,0.7290168698608875
1775711369462976500,9.1959765625,-1.4371440964281559,-1.0337012429475785,0.9497621460229158
1775711369472989400,9.205989501953125,-1.262625733911991,-1.2559054857462644,1.0850111589461564
1775711369483002400,9.21600244140625,-0.9059347677994519,-1.496535027551651,1.2513807017982006
1775711369493016600,9.2260166015625,-0.5103565832793713,-1.6454671133905647,1.492008490037918
1775711369503029200,9.236029296875,-0.1967383776307106,-1.8338234471231698,1.832590105935931
1775711369513043500,9.24604345703125,0.0018108488142490385,-1.944755764913559,2.0902327418625353
1775711369523056400,9.256056396484375,-0.027794600376486775,-1.7748574634134768,2.276619821348786
1775711369533069300,9.2660693359375,-0.1211339052658528,-1.5324433762788772,2.5021996780604123
1775711369543083500,9.27608349609375,-0.2062625773012638,-1.283284491059184,2.9144793334692713
1775711369553096400,9.286096435546876,-0.2730383579790592,-1.0208803398191928,3.241030085927248
1775711369563110400,9.2961103515625,-0.26731128556914624,-0.8452060852661728,3.268353561660647
1775711369573123600,9.30612353515625,-0.09929514455385506,-0.6142728848278523,3.1064082649916407
1775711369583136800,9.31613671875,0.12986030562222003,-0.4590031204000115,2.7106904528051614
1775711369593151000,9.32615087890625,0.3703489776521921,-0.46631548923999067,2.174477543735504
1775711369603163600,9.33616357421875,0.4857371788728982,-0.49707916855514045,1.5927069985836744
1775711369613177900,9.346177734375,0.6099835901360958,-0.5418295799076557,1.0346779790252447
1775711369623190500,9.3561904296875,0.5903360558580607,-0.4543257762387395,0.5533148505181074
1775711369633203700,9.36620361328125,0.35786300556659695,-0.24287907429784536,0.15522154137194155
1775711369643218000,9.376218017578125,0.022236381727457045,-0.08076718889027834,-0.031520342901349065
1775711369653230600,9.386230712890624,-0.43944889042861757,0.010507950010895729,0.006579378390312194
1775711369663244800,9.396244873046875,-0.7860486706376075,0.09973550873249769,0.023106150299310683
1775711369673257700,9.4062578125,-0.9636269321810453,0.1373772571235895,0.14368600187897682
1775711369683270700,9.416270751953125,-1.04324224762246,0.201284496627748,0.40344694513380525
1775711369693284900,9.426284912109375,-0.9520954843413084,0.23049451676011085,0.6959259166419506
1775711369703297800,9.4362978515625,-0.6257780291825532,0.2548155958071351,0.7493284210056066
1775711369713310700,9.446310791015625,-0.1555506271958351,0.2811266796275973,0.630534283798933
1775711369723324700,9.45632470703125,0.34769466277360916,0.17575784118324517,0.546864651465416
1775711369733337600,9.466337646484375,0.8357826425563544,-0.002277589543163776,0.34086978518962857
1775711369743351800,9.476351806640626,1.317690034008026,-0.06891250044554471,0.08933481848835945
1775711369753364700,9.48636474609375,1.6533979063898323,-0.15771189688295126,-0.24023323596417903
1775711369763377700,9.496377685546875,1.7726374492764472,-0.2506374333396554,-0.34742052200734613
1775711369773391600,9.5063916015625,1.6544944694548844,-0.28067835133820773,-0.30019407593011854
1775711369783404800,9.51640478515625,1.3776082038760185,-0.25950024649202824,-0.22180092269480228
1775711369793418800,9.526418701171876,1.063191541326046,-0.32401743458807464,-0.14209785590469837
1775711369803431700,9.536431640625,0.7557347809165715,-0.28508535412549973,-0.24497253944575786
1775711369813444900,9.54644482421875,0.37161921678371723,-0.17623422652333973,-0.32216566924154755
1775711369823458600,9.55645849609375,0.0038543373405933376,-0.03393237247914076,-0.3429915996491909
1775711369833471700,9.5664716796875,-0.2530348498702049,0.0056231005787849425,-0.20391163026094436
1775711369843486000,9.57648583984375,-0.37699075375422836,-0.035539223153889174,-0.07328618548512458
1775711369853498600,9.58649853515625,-0.41085283747613427,-0.08995674977898598,0.028978841724991797
1775711369863511800,9.59651171875,-0.33392756483629343,-0.0958227192029357,0.06475684207081794
1775711369873525800,9.60652587890625,-0.31715646277740595,-0.09128712159991263,0.06951718834042549
1775711369883538700,9.61653857421875,-0.09570544949881732,-0.12679507283270358,0.3161602913469076
1775711369893553000,9.626552978515624,-0.24738245013169943,-0.08787409828603267,0.5894505782604217
1775711369903565600,9.636565673828125,-0.25752163989543914,-0.02181318787932396,0.7402683317154646
1775711369913578800,9.646578857421876,-0.32368425711095333,-0.011481178957223892,0.47988078099489206
1775711369923592700,9.6565927734375,-0.3060461629591882,0.032824118976294996,0.18903262555897235
1775711369933605600,9.666605712890625,-0.37790333855450153,0.1240557109966874,-0.03368775006830692
1775711369943618800,9.676618896484374,-0.525198763102293,0.12024492053687572,-0.06697685620784759
1775711369953632800,9.6866328125,-0.6154004275530577,0.08845394400060176,0.021358429849147795
1775711369963645700,9.696645751953126,-0.6405519660748541,0.025085341417789456,0.14480010060071943
1775711369973659600,9.70665966796875,-0.49518064145743845,-0.13509995984137058,0.19083470654487608
1775711369983672800,9.7166728515625,-0.4004844420664012,-0.2826812155932188,0.17091186245679854
1775711369993685800,9.726685791015624,-0.32470585524365303,-0.1801934855431318,-0.06717325556278228
1775711370003699700,9.73669970703125,-0.23550343096330761,-0.17181202616691588,-0.32111645244956016
1775711370013712600,9.746712646484376,-0.02251914419159293,-0.2529828274220228,-0.598407791697979
1775711370023726600,9.7567265625,-0.0106475046120584,-0.21975509608089921,-0.575852261018753
1775711370033739800,9.76673974609375,0.24011180154159664,-0.09041793754994869,-0.9876882643133401
1775711370043752700,9.776752685546874,0.19976167097464204,-0.17936755611300467,-0.8039777105599641
1775711370053766700,9.7867666015625,-0.06365399539545179,-0.06129179630875587,-0.7953975137412548
1775711370063779800,9.79677978515625,-0.38110228072628377,-0.018844985723495484,-0.7394938402116298
1775711370073793500,9.80679345703125,-0.7198720248967408,0.128607090690732,-0.606949410071969
1775711370083806700,9.816806640625,-0.8469478143669664,0.2857452793389559,-0.5606389097958803
1775711370093820000,9.82681982421875,-0.8122200537264347,0.46073242841064926,-0.5500181470602751
1775711370103833600,9.83683349609375,-0.9372311657518148,0.4682996487945318,-0.4220364947915077
1775711370113846800,9.8468466796875,-0.8671667187921702,0.43468847109377384,-0.2836351553171873
1775711370123859700,9.856859619140625,-0.8294733863443136,0.5191618210256099,-0.1079284597992897
1775711370133873700,9.866873779296874,-0.8294745553880929,0.4319213444679975,0.015927052450180054
1775711370143886800,9.876886962890625,-0.6314886619143187,0.3570598724901676,-0.08000818721652031
1775711370153900800,9.88690087890625,-0.5005504979275167,0.46148236999511716,-0.04865677114129066
1775711370163913700,9.896913818359375,-0.48728711172863837,0.5220610495984555,-0.02456102528274059
1775711370173927000,9.906927001953125,-0.6016558337084948,0.6077893680274487,-0.025797873601317405
1775711370183940600,9.916940673828124,-0.8182312768399715,0.6060515844494104,-0.05677636471092701
1775711370193953800,9.926953857421875,-0.8722178647018969,0.5580225898176431,-0.15333061305880546
1775711370203967700,9.9369677734375,-0.7799838176406919,0.542748448318243,-0.2770926018059254
1775711370213980700,9.946980712890625,-0.7711072682239115,0.6213374163866042,-0.31563948234319683
1775711370223993900,9.956993896484375,-0.7228267830491065,0.5416846184790134,-0.20816168892085551
1775711370234007800,9.9670078125,-0.47661432654485103,0.49295770471096034,-0.2029898392409086
1775711370244020700,9.977020751953125,-0.2161445043683052,0.4228466421306133,-0.23010639422535895
1775711370254034000,9.987033935546876,0.03962576181516051,0.1876847180813551,-0.1499561681896448
1775711370264047900,9.9970478515625,0.07568330975472927,0.24538521189987658,-0.3146276749521494
1775711370274060800,10.007060791015626,0.033590281043201685,0.36151918998658655,-0.39014322692453857
1775711370284074800,10.01707470703125,0.0035785891391336916,0.37892800542712207,-0.27278292191326614
1775711370294087700,10.027087646484375,0.041408699709177016,0.46262861742079253,-0.05273439584374427
1775711370304100900,10.037100830078124,0.15345350878611205,0.5844482399284839,0.019649287843704222
1775711370314114800,10.04711474609375,0.38566111307442186,0.4939233348727226,-0.08452069620490074
1775711370324127700,10.057127685546876,0.7035078962035477,0.39243338368833064,-0.24157763631045817
1775711370334141700,10.0671416015625,0.8681026844680308,0.29149229855835435,-0.46851183024048804
1775711370344155000,10.07715478515625,0.9433381043247878,-0.0521843607455492,-0.4655494733035564
1775711370354167800,10.087167724609374,0.898871332219243,-0.039591421154141423,-0.4621878879159689
1775711370364181800,10.097181640625,0.9648894263975322,-0.021173136410117147,-0.5484311701297759
1775711370374195000,10.10719482421875,0.9867688113808631,0.2012257521778345,-0.5956348198533058
1775711370384208600,10.117208740234375,0.8582318633168935,0.31182898414433,-0.5921750347882508
1775711370394221800,10.127221923828126,0.8258295499492436,0.21840426599383353,-0.42931086970865723
1775711370404234800,10.13723486328125,0.7460222921323031,0.28841654437482356,-0.1737362722277641
1775711370414248700,10.147248779296875,0.6856910114187746,0.30756957313418387,-0.020598551392555235
1775711370424262000,10.157261962890624,0.8157038041889667,0.28680501752495763,0.05196341147124767
1775711370434274600,10.167274658203125,0.8900906443923712,0.4405588244318962,-0.32099311833083627
1775711370444288800,10.177288818359376,0.9119371500194072,0.3964923036903143,-0.7288403442502022
1775711370454302000,10.187302001953125,0.9254285728204995,0.4162596649557352,-1.096768816757202
1775711370464315600,10.197315673828125,0.7766442979544401,0.5224374816954136,-1.378470958185196
1775711370474328800,10.207328857421874,0.6482493887096643,0.7479296601235866,-1.527145269870758
1775711370484341800,10.217341796875,0.6263409237623214,0.9332587549895047,-1.6975012520104646
1775711370494355700,10.227355712890626,0.5330050529390573,1.0733341651558876,-1.7318009964972734
1775711370504369000,10.237368896484375,0.39595154787711795,1.2746218766540287,-1.6398001736700534
1775711370514381600,10.247381591796875,0.24912900153808296,1.4282131864756344,-1.2781214092075823
1775711370524395800,10.257395751953124,0.1507319018024951,1.6447539966851472,-0.9739221892893314
1775711370534408700,10.26740869140625,0.19540048009045421,1.7982687341392039,-1.0445417859137058
1775711370544423000,10.2774228515625,0.35905024258978663,1.8996862046092748,-1.310067868566513
1775711370554435800,10.287435791015625,0.47223757276535033,1.8955898752063511,-1.7809481815040111
1775711370564448800,10.29744873046875,0.5806997010499239,1.803865531232953,-2.333795999032259
1775711370574462000,10.3074619140625,0.5167085826545953,1.8945242918014524,-2.85040053679049
1775711370584475000,10.317474853515625,0.44498840437717735,1.958375709465146,-3.418166521987319
1775711370594488800,10.32748876953125,0.48860009402334686,1.8242367036104201,-3.7362189106911416
1775711370604501800,10.337501708984375,0.37451537661664186,1.7945090893447397,-3.5771085451871154
1775711370614515000,10.347514892578126,0.2115221052646637,1.8582628918528556,-3.1002538340151307
1775711370624529000,10.35752880859375,0.022661329141259193,1.9386767372608185,-2.29114051413238
1775711370634541800,10.367541748046875,0.024876667103171348,1.904350104767084,-2.317916877377033
1775711370644554800,10.3775546875,-0.29253457415290174,2.0994909840732814,-0.9902648368030786
1775711370654569000,10.38756884765625,-0.2931774751663208,2.192042426520586,-0.5371025513857602
1775711370664582000,10.397581787109376,-0.2490970720298588,2.1951292866200207,-0.5650672476321459
1775711370674595800,10.407595947265625,0.16588446274884044,2.0240467437714336,-0.8668506385803222
1775711370684609000,10.417609130859375,0.6491542285948991,1.8014555474817753,-1.3183324235647915
1775711370694621700,10.42762158203125,1.074098135265708,1.4883113890856503,-1.8091390877217053
1775711370704636000,10.437635986328125,1.3786264410078524,1.1068237623035908,-2.296036469480395
1775711370714648800,10.44764892578125,1.4703431861966847,0.6441174034714698,-2.5831062754213807
1775711370724661800,10.457661865234375,1.317092506506294,0.43625615880191326,-2.8340245715290306
1775711370734676000,10.467676025390626,1.122646185335517,0.3013549364030361,-2.7958348338663574
1775711370744688600,10.477688720703124,0.6510971062909812,0.17002689631581305,-2.6296143440961837
1775711370754702800,10.487702880859375,0.3116594727963209,0.30898236254155637,-2.365360181075334
1775711370764716000,10.497716064453124,0.3417139078635722,0.5235697005957365,-1.7926544013887642
1775711370774728700,10.507728759765625,0.4607406847823411,0.4365823220163583,-1.3494079453080892
1775711370784743000,10.517742919921876,0.7992448368191719,0.07343640761077404,-0.8879384347945452
1775711370794755800,10.527755859375,1.2321189519673585,-0.2394534837633371,-0.5752192238122225
1775711370804769800,10.537769775390625,1.5149468825548886,-0.5659685803860426,-0.5257897147327661
1775711370814783000,10.547782958984374,1.5181120685875416,-0.9067249683290719,-0.4839841246604919
1775711370824795600,10.557795654296875,1.2037228785663843,-0.97480131021142,-0.4000228159040212
1775711370834809900,10.567809814453126,0.8566991738568991,-0.7717828293979168,-0.16502397346198558
1775711370844822800,10.57782275390625,0.46397060661427675,-0.5812585039764643,0.2613800688892603
1775711370854835700,10.587835693359375,0.13533895622901618,-0.3744961604595184,0.6917576910465956
1775711370864850000,10.597849853515624,-0.3822645294386893,-0.17826631687283515,1.0931669928729533
1775711370874862800,10.60786279296875,-0.8529484430212527,-0.0767535693347454,1.2281523864239454
1775711370884876800,10.617876708984374,-0.8618483002483844,0.08020166396200656,1.3557044151037931
1775711370894889700,10.6278896484375,-0.8120026115834712,0.082317633202672,1.4301894549846648
1775711370904903000,10.63790283203125,-0.8505675392340868,-0.0940729529261589,1.1497820295423269
1775711370914916900,10.647916748046875,-0.7204897184036672,-0.12500468228459358,0.7843243310630321
1775711370924929800,10.6579296875,-0.5722025063395499,-0.1014665703088045,0.6151660342752933
1775711370934942700,10.667942626953124,-0.590537862040475,-0.2850543744653463,0.8475748602241278
1775711370944956700,10.677956787109375,-0.6705360393196343,-0.17204525040090082,1.0844061787903307
1775711370954969900,10.687969970703126,-0.7985072432596236,0.08545417766273021,1.1571078423857688
1775711370964984000,10.697984130859375,-0.8753121774554252,0.12546762362122535,1.1818372099727392
1775711370974996700,10.707996826171875,-0.6839754396725446,0.06877659910619259,1.0755401507675648
1775711370985010000,10.718010009765624,-0.4151835601568222,0.10828677171766757,0.9132008863449096
1775711370995023600,10.728023681640625,-0.24245091201364993,0.1360872173130512,0.6463824257940054
1775711371005036800,10.738036865234376,-0.1041453610640019,-0.003986439287662506,0.2761065133780241
1775711371015050000,10.748050048828125,0.054174657779932016,-0.03514613218307495,-0.18115034787654877
1775711371025063700,10.758063720703126,0.035732334573194385,-0.04026479037106037,-0.1859194619745016
1775711371035076900,10.768076904296874,-0.18549575666971505,0.045295185753703116,0.01279927581846714
1775711371045090800,10.7780908203125,-0.29584932472407816,0.25102409456968305,0.24623919838070868
1775711371055103700,10.788103759765624,-0.3482406062185764,0.17753917164206504,0.3396516415715217
1775711371065117000,10.798116943359375,-0.4693908780973404,-0.08103285408914089,0.4711784191012382
1775711371075131000,10.808130859375,-0.6685100864499807,-0.3239332634359598,0.6939876420557498
1775711371085143800,10.818143798828125,-0.7468868000071496,-0.5441816959917545,0.7414379600167273
1775711371095157000,10.828156982421875,-0.7163887858908623,-0.6792208655565977,0.6928396410644054
1775711371105170700,10.838170654296874,-0.6063187109529972,-0.763494309002161,0.3898077113598585
1775711371115183900,10.848183837890625,-0.40425833458192645,-0.7491343597382306,-0.006375380250811576
1775711371125197800,10.85819775390625,-0.24538521189987658,-0.615804332178831,-0.40666240004897114
1775711371135210800,10.868210693359375,-0.3330781814653426,-0.6589806260824204,-0.6038420917063951
1775711371145224000,10.878223876953125,-0.5247597871631383,-0.608329466253519,-0.998212580937147
1775711371155238000,10.88823779296875,-0.5276730442613363,-0.4812082302063703,-1.3345973296672105
1775711371165250800,10.898250732421875,-0.6088537823885679,-0.3267150031089783,-1.3826350921273232
1775711371175264000,10.908263916015626,-0.6849369051158428,-0.2606815652310848,-1.1716478243917225
1775711371185278000,10.91827783203125,-0.6889349617760628,-0.17328735941648482,-0.8435404901415109
1775711371195291000,10.928290771484376,-0.7113735880773514,-0.17079846521019934,-0.21895663917958735
1775711371205304800,10.938304931640625,-0.768987134264782,-0.3590004851639271,0.31803894470036026
1775711371215317800,10.94831787109375,-0.8132552419930696,-0.23812486550807951,0.41907998307347294
1775711371225331000,10.9583310546875,-0.628153014685586,-0.2328705982416868,0.37268531164526936
1775711371235345000,10.968344970703125,-0.576892636917159,-0.3969564140707254,0.1297398941129446
1775711371245357800,10.97835791015625,-0.7450321851164102,-0.3023497926592827,-0.16020926665663718
1775711371255370800,10.988370849609375,-0.8619155202656984,-0.2466471946597099,-0.324154797232151
1775711371265385000,10.998385009765625,-1.0225035571068524,-0.15945640246272086,-0.15774901402294636
1775711371275398000,11.00839794921875,-1.1053028363466262,-0.056795069411396976,0.2972451629966497
1775711371285411800,11.018411865234375,-1.2125713709324597,0.0608633417636156,0.5848761099517346
1775711371295425000,11.028425048828124,-1.1432429100971668,0.06213701496124267,1.0316378806769848
1775711371305437700,11.038437744140625,-1.003859208521992,-0.19517185896635053,1.2290209859520196
1775711371315452000,11.048451904296876,-0.6092834059774875,-0.34077041646838185,0.8159253379851579
1775711371325464800,11.05846484375,-0.1523836875975132,-0.4352437668889761,0.34895781457722186
1775711371335477800,11.068477783203125,0.1297952775619924,-0.4872574472427368,-0.004088146096467972
1775711371345492000,11.078491943359374,0.21721111068651078,-0.4729664715617895,-0.059337155109643935
1775711371355504600,11.088504638671875,0.21895415496155618,-0.47747839602828024,-0.061842415928840634
1775711371365518800,11.098518798828126,0.05000774735882878,-0.3379197032123804,0.1782347526907921
1775711371375532000,11.108531982421875,-0.3052921297214925,-0.30310908659398555,0.44052199955284593
1775711371385544700,11.118544677734375,-0.48268473249971866,-0.23065175314843653,0.5780845501154661
1775711371395559000,11.128558837890624,-0.3844154238622635,0.04096563211679458,0.503335306340456
1775711371405571800,11.13857177734375,-0.25629523990564046,0.157171506395936,0.45696401578783985
1775711371415584800,11.148584716796876,-0.11675766294300556,0.2247925057262182,0.38896424627304077
1775711371425599000,11.158598876953125,0.0957336526799947,0.26895956423282624,0.34324937380254267
1775711371435611600,11.168611572265625,0.3725141197968274,0.3109031014710665,0.28112638736665246
1775711371445625900,11.1786259765625,0.772239340993762,0.33860242477953434,0.12363514749705791
1775711371455638800,11.188638671875,1.0981178932785987,0.3689806119084358,-0.12776421012580394
1775711371465651700,11.198651611328126,1.1569499484103172,0.307778247448802,-0.4119792111575603
1775711371475666000,11.208666015625,0.9477402848064899,0.22515607834160326,-0.6251046599656344
1775711371485678800,11.218678955078126,0.8167307360839098,0.23765724799633026,-0.7284621585875749
1775711371495691800,11.22869189453125,0.7596019046735019,0.29647827027738094,-0.6879477773696184
1775711371505705700,11.238705810546875,0.5549566994410008,0.27515082008838654,-0.673373308572173
1775711371515719000,11.248718994140624,0.48189621247053144,0.16099895572960377,-0.6045148764014243
1775711371525732900,11.25873291015625,0.31617607343792914,0.03634147944748401,-0.5279366636335849
1775711371535745800,11.268745849609376,0.17331117868348955,-0.11359481499791145,-0.5449924278527498
1775711371545758700,11.2787587890625,-0.02652282687500119,-0.21457740118205545,-0.5551707075178622
1775711371555772700,11.288772705078125,-0.40235388920009135,-0.2712947291821241,-0.65402037332654
1775711371565786000,11.2987861328125,-0.5306575399648398,-0.41657647581994534,-0.7500725173711776
1775711371575799300,11.30879931640625,-0.6217017196543514,-0.5446762015104294,-0.6241437059789896
1775711371585813000,11.31881298828125,-0.8022206377595663,-0.5655950708985328,-0.45597968092560764
1775711371595826200,11.328826171875,-0.8781086763061583,-0.6778694509476423,-0.32714228861033917
1775711371605840100,11.338840087890626,-0.8995411943048238,-0.9066817137092351,-0.2709954539746046
1775711371615853000,11.34885302734375,-0.5638414321642369,-1.0139578470796347,-0.26520985631048677
1775711371625866200,11.3588662109375,-0.32912900544814766,-1.0408546218335628,-0.11133154624104499
1775711371635880200,11.368880126953124,-0.23095512000918386,-1.1955255435854195,0.04949731361865997
1775711371645893000,11.37889306640625,-0.05655008167438209,-1.531639658680558,0.17094576472640036
1775711371655906300,11.38890625,0.09922273690477013,-1.8370652055233716,0.3017413053721189
1775711371665920000,11.398919921875,0.23452362614572048,-2.0786913571506735,0.4088999498426914
1775711371675933200,11.40893310546875,0.07868314915783703,-2.215584045627713,0.5805424646615982
1775711371685946000,11.418946044921874,-0.17128705244474113,-2.173614204904437,0.955921837696433
1775711371695960000,11.4289599609375,-0.4427963011603802,-2.1017349636077878,1.331961135944724
1775711371705973200,11.43897314453125,-0.5930430497944355,-2.0291762156143784,1.6310212394088506
1775711371715987200,11.4489873046875,-0.6588122837781906,-1.786779956397414,1.9971195738792418
1775711371726000000,11.459000244140626,-0.8685621186733246,-1.5206471400231123,2.559918292057514
1775711371736013000,11.469012939453124,-1.100347844287753,-1.3469047303155064,3.0520740327358244
1775711371746027300,11.47902734375,-1.2209686854649335,-1.289213296586275,3.414057333102822
1775711371756040200,11.489040283203124,-1.2543605943918228,-1.1540829416066407,3.4201462976276873
1775711371766053000,11.49905322265625,-1.1020173118699341,-1.058340301902592,3.3400621225655076
1775711371776067000,11.509067138671876,-0.9487865789890289,-0.9400041375964879,3.201788793385029
1775711371786080000,11.519080078125,-0.8162293624330311,-0.7116422489508986,3.081633304697275
1775711371796094200,11.52909423828125,-0.6802168177913874,-0.6970917455509305,3.109977940171957
1775711371806107100,11.539107177734374,-0.4672269780617207,-0.6507689703151583,3.1569360907018185
1775711371816120000,11.5491201171875,-0.24700141492486,-0.5743319195836782,3.2117104679405686
1775711371826134300,11.55913427734375,-0.07094393320791423,-0.5157534738868474,3.2280601297169924
1775711371836147000,11.56914697265625,0.12046535835452377,-0.3245505185514688,3.041964726653695
1775711371846160100,11.57916015625,0.2607903228351846,-0.16684738949686287,2.8435136998862025
1775711371856174300,11.58917431640625,0.2657762580215931,-0.0975038041576743,2.5555098279654977
1775711371866187000,11.59918701171875,0.263836814391613,-0.04492401435375214,2.1641262455910444
1775711371876200200,11.6092001953125,0.17359949410557746,-0.06837152543663978,1.770528494298458
1775711371886214100,11.619214111328125,0.06628306525740772,-0.10890724170356988,1.3920160839349032
1775711371896227000,11.62922705078125,0.007454919115826487,-0.05990589490830898,1.1164081677287816
1775711371906241300,11.6392412109375,-0.015590331309102475,-0.06589373714625835,1.1122732598811387
1775711371916254000,11.64925390625,0.14505674224290996,0.0032920272827148436,1.0592068556040526
1775711371926267100,11.65926708984375,0.11972761866450309,0.04216273294687271,1.107951889550686
1775711371936281000,11.669281005859375,0.04571253438293934,0.03220861742645502,1.1486708534300327
1775711371946294000,11.6792939453125,-0.03619293782226741,-0.07568477105945348,1.1448322981804608
1775711371956307200,11.68930712890625,0.02706807620022446,0.004087561574578285,1.0934972477406262
1775711371966321200,11.699321044921875,0.09876779621150344,0.038378830493986604,1.005896705698967
1775711371976334000,11.709333984375,0.1350952836662531,-0.06078852296173572,0.7962006468176841
1775711371986348000,11.71934814453125,0.19221242463886737,-0.037056934240460394,0.5115624519377947
1775711371996361000,11.72936083984375,0.19379001268651336,-0.028993747033178804,0.45544367435276506
1775711372006374100,11.7393740234375,0.12616546969227493,0.04239975657314062,0.43270343475639816
1775711372016388000,11.74938818359375,0.04314641022197902,0.16683453001528978,0.4368108700752258
1775711372026401000,11.759401123046874,0.055198082543537016,0.1832914515584707,0.4453220933109522
1775711372036414200,11.769414306640625,-0.11132928121872246,0.1576043448552489,0.18118892632126807
1775711372046428200,11.77942822265625,-0.17490188194103537,0.13686843081861733,-0.06121580846309661
1775711372056441000,11.789441162109375,-0.16014204663932322,0.12004326048493384,-0.21321897231042383
1775711372066454300,11.799454345703126,-0.0876643279928714,0.2477723992973566,-0.30133856979012485
1775711372076468200,11.80946826171875,-0.025458741307444868,0.33162732506990433,-0.34661271275579925
1775711372086481200,11.819481201171875,0.009085808253288268,0.2823424851581454,-0.4436836784541607
1775711372096495000,11.8294951171875,0.02620068224854767,0.3285428030580282,-0.5647463451147079
1775711372106508000,11.839508056640625,-0.24550438130013644,0.3331698783367872,-0.5613076028376818
1775711372116521200,11.849521240234376,-0.5136895270943641,0.3263008693501353,-0.6149082601219416
1775711372126535200,11.85953515625,-0.6050660074781626,0.3532280392423272,-0.5859042839556932
1775711372136548000,11.869548095703125,-0.6584638356667012,0.28778672203868627,-0.4468295752644539
1775711372146561000,11.87956103515625,-0.6653214464765042,0.37524785560965535,-0.41696226026713845
1775711372156575200,11.8895751953125,-0.6214847159028053,0.37100364216864107,-0.4376929136067629
1775711372166588200,11.899588134765626,-0.46537820838987826,0.47693859006315464,-0.6390045905023813
1775711372176601000,11.90960107421875,-0.37256431561410425,0.49989802536815403,-0.8981704904735088
1775711372186615300,11.919615234375,-0.33850298299305137,0.4678825924262404,-1.048657404538989
1775711372196628000,11.9296279296875,-0.3663460986863821,0.3685229312688112,-1.0555495021402834
1775711372206642200,11.93964208984375,-0.27007709702067073,0.39207156463861464,-1.0820493865311145
1775711372216655000,11.949655029296874,-0.32770744821242986,0.37732787675410506,-0.9665805943548679
1775711372226668000,11.95966796875,-0.3847966051995754,0.24258622883111236,-0.703265758010745
1775711372236682200,11.96968212890625,-0.34840551445670426,0.2937383239194751,-0.49508010369241234
1775711372246695200,11.979695068359375,-0.3956793068069964,0.35588469123095273,-0.30593641897439955
1775711372256708000,11.9897080078125,-0.3791325880885124,0.3468161263734102,-0.1689928770929575
1775711372266722300,11.999722412109374,-0.3335533246964216,0.3892988850548863,-0.03933013986945152
1775711372276735000,12.00973486328125,-0.32973288962543007,0.36079555188715456,0.01782207241654396
1775711372286748200,12.019748046875,-0.26253398816473783,0.3293292772606015,-0.07017302190065383
1775711372296762000,12.02976220703125,-0.1257750821352005,0.32080461002141236,-0.2700456059038639
1775711372306775000,12.039775146484375,-0.007506357042118906,0.3563976091891527,-0.6143599785894155
1775711372316789200,12.049789306640625,0.24860702349059283,0.18183979144543408,-0.8111725905001163
1775711372326802000,12.059802001953125,0.44590135450363155,0.06287994228303433,-0.8712211087495088
1775711372336815000,12.069815185546876,0.4911317313928157,0.00789016872793436,-0.7981874367207288
1775711372346829000,12.0798291015625,0.576878096935153,-0.0270616099268198,-0.5816752680838108
1775711372356842000,12.089842041015626,0.5958884292881935,-0.02274813064187765,-0.5773059669584035
1775711372366855200,12.099855224609374,0.577581276768446,0.22596797924637793,-0.1415863992512226
1775711372376869000,12.109869140625,0.7340653123568743,0.2771349796429276,-0.15396891096234322
1775711372386882000,12.119882080078124,0.8212262939374894,0.3782534671664238,-0.02784896091222763
1775711372396895200,12.129895263671875,0.7762509877879172,0.26478578567951916,0.12071078448295593
1775711372406909200,12.1399091796875,0.8231868534207344,0.09777297648787497,0.1253741001188755
1775711372416922000,12.149922119140625,0.9150245946407317,0.022415829947590827,-0.06318214010000228
1775711372426935300,12.159935302734375,1.1150824720829724,-0.09031097004413605,-0.4783914192199707
1775711372436949000,12.169948974609374,1.2193985866039991,-0.21942659477889537,-0.7408692202180623
1775711372446962200,12.179962158203125,1.0965157918442041,-0.33057577019035816,-0.8890969571799039
1775711372456976100,12.18997607421875,0.9535473636500537,-0.3084884415447712,-0.835630739930272
1775711372466989000,12.199989013671875,0.672934186502546,-0.367911521372199,-0.49801148096919057
1775711372477002200,12.210002197265625,0.3687707685500383,-0.5322516042232514,-0.12933774305284024
1775711372487016200,12.22001611328125,0.20625965469181537,-0.5038099381148815,0.1048614734441042
1775711372497029000,12.230029052734375,0.09995514283254742,-0.37186347386837004,0.18142156603336332
1775711372507042000,12.2400419921875,0.1554858183313161,-0.4552618880450725,0.22958850783109663
1775711372517056300,12.25005615234375,0.13405899942107496,-0.4368120391190052,0.16641805816888808
1775711372527069200,12.260069091796876,-0.047694575045630336,-0.38394437228441236,-0.12716624423265457
1775711372537082000,12.27008203125,0.02141322877630591,-0.3192003896951675,-0.3195686384856701
1775711372547096000,12.280095947265625,-0.07126490879058837,-0.21487083117067812,-0.20368132863640784
1775711372557109000,12.29010888671875,-0.24210312148928642,-0.06292495046854019,0.2590484110713005
1775711372567123700,12.300123779296875,-0.5599415751814842,0.11697101343274116,0.7535515916585922
1775711372577136600,12.31013671875,-0.7929751088999212,0.2568091077119112,0.9031938715934753
1775711372587149600,12.320149658203125,-0.7067880869179963,0.5898796173274516,1.0388502962738275
1775711372597163800,12.330163818359376,-0.7570661756508051,0.6021598377078772,1.272991645103693
1775711372607176400,12.340176513671874,-0.6856231338143348,0.602163929361105,1.4833441220670938
1775711372617189600,12.350189697265625,-0.6070522859245538,0.6180711080670357,1.3499462899684904
1775711372627203600,12.36020361328125,-0.5872897469647228,0.5533791479259729,0.7493149770021438
1775711372637216500,12.370216552734375,-0.3294007350616157,0.608484364554286,-0.03963058412075043
1775711372647229700,12.380229736328126,-0.06285524623319506,0.46704643386304373,-0.7441624165445566
1775711372657243400,12.390243408203125,0.2637105576634407,0.3926140009522438,-1.2663766108781098
1775711372667256600,12.400256591796875,0.24974516067504882,0.42098669347763057,-1.2495908957719801
1775711372677270500,12.4102705078125,0.46068581278994675,0.7680740380078553,-1.5492004498124121
1775711372687283500,12.420283447265625,0.15872706527486444,1.1345207475244998,-1.616173214367032
1775711372697296600,12.430296630859376,-0.15708032098114488,1.207037702202797,-1.553238327026367
1775711372707310600,12.440310546875,-0.7373619427494704,1.2737410021662712,-1.3513579103320836
1775711372717323500,12.450323486328125,-1.0760596445970236,1.5194418558865785,-1.1443243486583232
1775711372727336700,12.460336669921874,-1.0880005500204861,1.4650065013438462,-1.353548698374629
