time,seconds_elapsed,z,y,x
1775711360320701700,0.05370166015625,2.6618621244892475,-8.82453748999238,3.348491512736678
1775711360330714400,0.06371435546875,2.6403230773761868,-8.819471438774466,3.3787571794018145
1775711360340728600,0.073728515625,2.6145766417011616,-8.81562470021844,3.408683823370933
1775711360350741500,0.083741455078125,2.59072581051439,-8.81383372514844,3.4314556271493433
1775711360360755500,0.09375537109375,2.5697400133699175,-8.813003704065084,3.4493200774028896
1775711360370768600,0.1037685546875,2.550953479835391,-8.809315370941162,3.472607429488003
1775711360380782600,0.113782470703125,2.532243518668413,-8.800641066098212,3.50811275037229
1775711360390795500,0.12379541015625,2.514516431058943,-8.78511207305491,3.559405422975123
1775711360400809500,0.1338095703125,2.4932249289661645,-8.762566479247807,3.629279461929202
1775711360410822400,0.143822509765625,2.4669147219285366,-8.735794792178273,3.710878425468504
1775711360420836400,0.15383642578125,2.440281566546857,-8.706642931973933,3.796019883920252
1775711360430849500,0.163849609375,2.416798838020116,-8.676170052298904,3.8798923453494902
1775711360440862500,0.173862548828125,2.401349047692865,-8.646450621339678,3.955097223937511
1775711360450876400,0.18387646484375,2.392335427892953,-8.618440916907787,4.02114059868753
1775711360460889600,0.1938896484375,2.3869503738537428,-8.591955645564198,4.0805817986935375
1775711360470903300,0.2039033203125,2.3790887005679306,-8.567662331306934,4.1358796152845025
1775711360480916500,0.21391650390625,2.3702146353691815,-8.542295250338315,4.193046732878685
1775711360490930400,0.223930419921875,2.364852377683669,-8.511030343502759,4.259136577118933
1775711360500943400,0.233943359375,2.360972029118985,-8.472288232654332,4.337805624686181
1775711360510957600,0.24395751953125,2.367874063592404,-8.42740104317963,4.420690244121849
1775711360520970500,0.253970458984375,2.3999342124588785,-8.378929565477371,4.494909911064803
1775711360530984400,0.263984375,2.4529145458877086,-8.327841767796874,4.560773837594688
1775711360540997600,0.27399755859375,2.5206387133315205,-8.27359462930262,4.622161203232407
1775711360551011600,0.284011474609375,2.5876316438913345,-8.220196216592193,4.68005546605736
1775711360561024300,0.294024169921875,2.6391674776002763,-8.17258515511155,4.734347612737119
1775711360571038000,0.304037841796875,2.6637328867971894,-8.133186626181006,4.788129179546237
1775711360581051100,0.314051025390625,2.6612258724123237,-8.100759105306864,4.844168169893324
1775711360591065000,0.324065185546875,2.637605050589144,-8.070822232204675,4.906654436683654
1775711360601078000,0.334078125,2.610391172710061,-8.042108178895711,4.967971367433667
1775711360611092000,0.344092041015625,2.57724264408499,-8.016924053278565,5.025644973245263
1775711360621105200,0.354105224609375,2.526432202041149,-7.999116009387373,5.079535553386807
1775711360631119000,0.364119140625,2.458883975686133,-7.984578365468979,5.1352515953898425
1775711360641132000,0.374132080078125,2.3834512796916068,-7.968024121031164,5.196164036992192
1775711360651146200,0.384146240234375,2.307459342379123,-7.950857882174849,5.256410708162188
1775711360661159000,0.394158935546875,2.233412109393626,-7.936317315647005,5.310093783032894
1775711360671173000,0.404173095703125,2.157268196389824,-7.922625474902987,5.361770194256305
1775711360681186300,0.414186279296875,2.083471284903586,-7.910959587028622,5.407981325811147
1775711360691200000,0.424199951171875,2.025200443851203,-7.9046455815762275,5.439257338562608
1775711360701213200,0.434213134765625,1.9978892430774866,-7.907741209504008,5.444854135656357
1775711360711227100,0.44422705078125,1.985374337158352,-7.916088182088732,5.437298605710268
1775711360721240000,0.454239990234375,1.9627388731107114,-7.927818951892852,5.42841738011837
1775711360731254000,0.46425390625,1.9335629013784228,-7.939538615781069,5.4217544150978325
1775711360741267000,0.474266845703125,1.9107121871449053,-7.949917386454343,5.414642537266015
1775711360751281000,0.484281005859375,1.8939109822086988,-7.958099523866176,5.4085249311685555
1775711360761294000,0.494294189453125,1.8720847887173293,-7.963601628413796,5.408025164952874
1775711360771308300,0.504308349609375,1.8389606638811529,-7.966506702205538,5.415104894080757
1775711360781321000,0.514321044921875,1.7938677227012811,-7.965247057533264,5.432056613403558
1775711360791335200,0.524335205078125,1.7427824092388151,-7.956299196445942,5.461719345739484
1775711360801348000,0.53434814453125,1.6976093885600565,-7.938681122168898,5.501441115275025
1775711360811362000,0.544362060546875,1.663036964611709,-7.914431647053361,5.5467550057291986
1775711360821375200,0.554375244140625,1.6445853621199726,-7.885100923150778,5.5938259689837695
1775711360831388000,0.564387939453125,1.6416640678457914,-7.853766458210349,5.638586317208409
1775711360841402000,0.574402099609375,1.6393375245943664,-7.825539311635493,5.678370630586147
1775711360851415000,0.5844150390625,1.6277924866206943,-7.802018735316396,5.713948139923811
1775711360861429000,0.594428955078125,1.6065318180575965,-7.781264116579294,5.748163713258505
1775711360871442200,0.604442138671875,1.5748798116005955,-7.764155160868167,5.779966964754462
1775711360881456000,0.6144560546875,1.5362752095267176,-7.754292523023485,5.803551838481426
1775711360891469000,0.624468994140625,1.495211523862928,-7.7558713166475295,5.812157754263281
1775711360901483000,0.63448291015625,1.4510542560979722,-7.768270194971561,5.806790089750289
1775711360911496200,0.64449609375,1.4057657923460005,-7.783960516056418,5.7969093317270275
1775711360921510000,0.654510009765625,1.3624208638772368,-7.795646277675032,5.791555111217498
1775711360931523000,0.664523193359375,1.3212332595728338,-7.801091099077463,5.793766942048072
1775711360941537000,0.674537109375,1.2849544700980187,-7.800008564537763,5.803374143826961
1775711360951550000,0.684550048828125,1.2568772533878683,-7.792438421544432,5.819669445067643
1775711360961564200,0.694564208984375,1.2393201155178248,-7.780218406918644,5.839749525544047
1775711360971577000,0.7045771484375,1.2235804023332892,-7.7647355911046265,5.863627244737744
1775711360981591000,0.714591064453125,1.2021813482128083,-7.749860678055882,5.887683243107795
1775711360991604000,0.72460400390625,1.1846486141316592,-7.7394275468468665,5.904933653116226
1775711361001618200,0.7346181640625,1.168414468493685,-7.734900424811244,5.914094280171394
1775711361011631000,0.744631103515625,1.1511286949109285,-7.735421233814955,5.9168035391300915
1775711361021645000,0.75464501953125,1.1407603725664317,-7.7406603035122155,5.911955514577031
1775711361031658200,0.764658203125,1.1455328476652502,-7.750604774421453,5.897988948544859
1775711361041672000,0.774671875,1.1672907982259988,-7.764101384854317,5.875929676949977
1775711361051685000,0.78468505859375,1.1993917905595153,-7.779915624579787,5.848483451619744
1775711361061699000,0.794698974609375,1.2352116572856902,-7.795546324431895,5.820145830407738
1775711361071712000,0.8047119140625,1.2696738988578318,-7.808820232024789,5.794879287204146
1775711361081726000,0.814725830078125,1.2989083227790892,-7.81862617124617,5.775146997252106
1775711361091739100,0.8247392578125,1.3242453008703887,-7.822643005672097,5.763942297148704
1775711361101753000,0.834753173828125,1.3497167189963162,-7.8219287199229,5.7590007490932935
1775711361111766000,0.84476611328125,1.3764645867988465,-7.820338820382952,5.7548290163666005
1775711361121779000,0.854779052734375,1.403980077973008,-7.822755818396806,5.744886299023032
1775711361131793000,0.86479296875,1.425216927269101,-7.834406508702039,5.723742388707399
1775711361141806000,0.87480615234375,1.4307457736931741,-7.8560478471457955,5.692616013559698
1775711361151820300,0.8848203125,1.42085464040637,-7.885881844395398,5.653706144928932
1775711361161833000,0.8948330078125,1.4017489579200744,-7.9190213129311795,5.612002261665463
1775711361171847200,0.90484716796875,1.3832501552857457,-7.948684629788994,5.574530316883325
1775711361181860000,0.914860107421875,1.3758566840335726,-7.970703569373488,5.544841865584254
1775711361191874000,0.9248740234375,1.3761892769888042,-7.984448017087578,5.524950585678219
1775711361201887200,0.93488720703125,1.377693690202385,-7.995526460462808,5.508529612231254
1775711361211901200,0.944901123046875,1.3701967585757373,-8.008415168130398,5.491652127188444
1775711361221914000,0.9549140625,1.3473679639130829,-8.022258400043844,5.477074151259661
1775711361231928000,0.964927978515625,1.3187477263674139,-8.035568547993899,5.464515698459744
1775711361241941000,0.97494091796875,1.2932698785007,-8.047084213742613,5.453647098442912
1775711361251955000,0.984954833984375,1.268898676701635,-8.05510911476612,5.447519555473328
1775711361261968100,0.994968017578125,1.2399968457356094,-8.058775236058235,5.448754650226235
1775711361271982000,1.004982177734375,1.2070976156964897,-8.059117181363701,5.4556338883459565
1775711361281995000,1.0149951171875,1.1758373850360513,-8.056421366408467,5.4664300076484675
1775711361292009200,1.02500927734375,1.1478037882719188,-8.049158097407222,5.483063747063279
1775711361302022000,1.03502197265625,1.1219636829640716,-8.039971166867018,5.50185963294804
1775711361312036000,1.0450361328125,1.1029808962050824,-8.032088889184594,5.517188134983182
1775711361322049000,1.055049072265625,1.089222858357057,-8.02635239135921,5.528260733139515
1775711361332063200,1.065063232421875,1.0775660305719823,-8.020444628620147,5.539107121324538
1775711361342076200,1.075076171875,1.0656139461673795,-8.012470581001043,5.552941585409641
1775711361352090000,1.085090087890625,1.0502327640969307,-8.002855780437589,5.569712687468528
1775711361362103000,1.09510302734375,1.0318494776010512,-7.991320240944623,5.589675279045105
1775711361372117000,1.105116943359375,1.0133910800423473,-7.97549372625947,5.615597655808926
1775711361382130200,1.115130126953125,0.9945761971961706,-7.953135179457068,5.6505608326405286
1775711361392143000,1.12514306640625,0.9746136786848306,-7.92444626058936,5.694175517961383
1775711361402157000,1.135156982421875,0.9536929826658218,-7.890516518458724,5.744616249909996
1775711361412170200,1.145170166015625,0.9267148132387548,-7.8547157217592,5.797848073881864
1775711361422184000,1.155183837890625,0.8907055614203214,-7.819405923447013,5.850977606523037
1775711361432197000,1.165197021484375,0.8551526750672608,-7.783499328285456,5.90391833859384
1775711361442211000,1.175211181640625,0.8229672193206846,-7.747219223636388,5.955979949742555
1775711361452224000,1.18522412109375,0.7938880590263754,-7.711802457818388,6.005685353153944
1775711361462238000,1.195238037109375,0.7664609037227929,-7.67696203058362,6.053693889519572
1775711361472251100,1.205251220703125,0.7384140821509063,-7.6415037637114525,6.101847971835732
1775711361482265000,1.21526513671875,0.7083304940544068,-7.602773343300819,6.153577574551105
1775711361492278000,1.225278076171875,0.6773206579584627,-7.560618793660402,6.208757609981298
1775711361502292200,1.235292236328125,0.6446243300803005,-7.515495457342267,6.266750364744663
1775711361512305000,1.245304931640625,0.6174418702527881,-7.468386500164866,6.3255322240591045
1775711361522319000,1.255319091796875,0.6047988444419578,-7.42298434690535,6.3799623179048295
1775711361532332300,1.265332275390625,0.6025488370254636,-7.380341721487045,6.429453201782703
1775711361542346000,1.275345947265625,0.6032427375737577,-7.340586634203791,6.4747407887518404
1775711361552359200,1.285359130859375,0.6054973846327513,-7.304435124370455,6.5152879031956195
1775711361562373400,1.295373291015625,0.6121218808064237,-7.273087799948454,6.549646099871397
1775711361572386600,1.305386474609375,0.6246159266006202,-7.248090136814117,6.576127864083647
1775711361582400500,1.315400390625,0.642294498893246,-7.229554363170266,6.594801584893465
1775711361592413400,1.325413330078125,0.6646486617814749,-7.215780104839801,6.607658728379011
1775711361602427400,1.335427490234375,0.6918916926898062,-7.2054498494833705,6.6161278660386795
1775711361612440300,1.3454404296875,0.7222434302031994,-7.197607319289445,6.621418373662233
1775711361622453500,1.35545361328125,0.7520981049146502,-7.189954758709669,6.626408437034487
1775711361632467500,1.365467529296875,0.7792368717309087,-7.18036684615314,6.633665276294947
1775711361642480400,1.37548046875,0.8037758313123137,-7.167088846907019,6.645086249497532
1775711361652494300,1.385494384765625,0.8273392969250678,-7.149013676512241,6.661644001066684
1775711361662507500,1.395507568359375,0.8500009183272719,-7.12859457333982,6.680646807700395
1775711361672521500,1.405521484375,0.8686168445352465,-7.108130461981892,6.700028384518623
1775711361682534400,1.415534423828125,0.8835062245007603,-7.088117601522803,6.719254478514194
1775711361692548600,1.425548583984375,0.8984376900423318,-7.069431605753302,6.736937434720993
1775711361702561300,1.435561279296875,0.9153083069529384,-7.053336210998892,6.751521840390563
1775711361712575500,1.445575439453125,0.9346854267917573,-7.0402727312862865,6.76249331625998
1775711361722588400,1.45558837890625,0.955732598734647,-7.029998590031266,6.7702353086888785
1775711361732602400,1.465602294921875,0.9782234666798263,-7.021904715424776,6.775421771416068
1775711361742615600,1.475615478515625,1.0023719656389205,-7.015747361838817,6.77826956206262
1775711361752629500,1.48562939453125,1.0281076607242225,-7.012157228392362,6.778129861330986
1775711361762642400,1.495642333984375,1.0529021294366567,-7.0123565503567455,6.774115949514508
1775711361772656400,1.505656494140625,1.0741086566597222,-7.016560431787371,6.76642831762135
1775711361782669600,1.515669677734375,1.090542343457788,-7.023651851353049,6.756436500439047
1775711361792683300,1.525683349609375,1.0995058405056595,-7.0316095323592425,6.746698950278758
1775711361802696400,1.535696533203125,1.0980989693824201,-7.038788045686483,6.739438019365072
1775711361812710400,1.54571044921875,1.0866292616672812,-7.04464963119626,6.73517100957036
1775711361822723300,1.555723388671875,1.0693171845994889,-7.050355149361491,6.7319713367462155
1775711361832736500,1.565736572265625,1.0511678529899566,-7.058125783362985,6.72668492077589
1775711361842750500,1.57575048828125,1.0361144415691494,-7.068411030533909,6.718215198594331
1775711361852763400,1.585763427734375,1.0240789166647941,-7.080145891991258,6.707694389101863
1775711361862777300,1.59577734375,1.0111688739482312,-7.0922080857068295,6.696902945974469
1775711361872790500,1.60579052734375,0.998672453533858,-7.104190784445405,6.686071170836687
1775711361882804500,1.615804443359375,0.9873134396515786,-7.116572127112746,6.674579470485448
1775711361892817400,1.6258173828125,0.9742522249612957,-7.129780568253993,6.662391020041704
1775711361902831600,1.63583154296875,0.957184039651975,-7.144616318336129,6.648959876060485
1775711361912844500,1.645844482421875,0.9390328814115375,-7.160070492577552,6.634909138876199
1775711361922858500,1.6558583984375,0.925694238019362,-7.172722468879819,6.623106472879647
1775711361932871400,1.665871337890625,0.9177784233935177,-7.17958300229907,6.616772009161115
1775711361942885400,1.675885498046875,0.9145347652971744,-7.178256722131371,6.618660014864802
1775711361952898600,1.685898681640625,0.917067717840895,-7.168496960139274,6.628879211062192
1775711361962912500,1.69591259765625,0.9286479001931846,-7.152442481917142,6.644590574935078
1775711361972925400,1.705925537109375,0.9497123885970562,-7.132586273324489,6.662933456355333
1775711361982939400,1.715939453125,0.9765717539500445,-7.111562189996242,6.681494948962331
1775711361992952300,1.725952392578125,1.002024832701683,-7.0912670054644344,6.699273182237148
1775711362002966500,1.735966552734375,1.019344362423569,-7.072404484084248,6.716577368259429
1775711362012979500,1.7459794921875,1.0246054978221655,-7.054802776420116,6.734265000641345
1775711362022992400,1.755992431640625,1.0174817103568463,-7.037225034153461,6.753707367736101
1775711362033006300,1.76600634765625,1.0009502622727304,-7.020667282584309,6.773382374542951
1775711362043019500,1.77601953125,0.9813972013451159,-7.007320894277095,6.790045340052247
1775711362053033500,1.786033447265625,0.963115621658042,-6.996897115418315,6.803397573578358
1775711362063046400,1.79604638671875,0.9504773085549473,-6.9860209166169165,6.816341810825467
1775711362073060600,1.806060546875,0.9465071628149598,-6.971127883389592,6.832122148281336
1775711362083073300,1.8160732421875,0.9529892913758754,-6.949929028016329,6.852788504213095
1775711362093087500,1.82608740234375,0.9720819682501256,-6.920754371458291,6.879580649548768
1775711362103100400,1.836100341796875,1.0026651764318346,-6.884662482857704,6.911327202421426
1775711362113114400,1.8461142578125,1.040342069201544,-6.845209593391418,6.944865899407863
1775711362123127600,1.85612744140625,1.0748945463404058,-6.806733440002799,6.977346027252078
1775711362133141500,1.8661416015625,1.0978817464351653,-6.7724827953547235,7.007033894029259
1775711362143154400,1.876154541015625,1.1086236513324081,-6.743890907120704,7.0328715151190755
1775711362153168400,1.88616845703125,1.1098372649058699,-6.721602502945065,7.053983276730776
1775711362163181600,1.896181640625,1.1054071004386992,-6.704712158420682,7.070733920523524
1775711362173195300,1.9061953125,1.0990540050849318,-6.6908601586788885,7.084831419458985
1775711362183208400,1.91620849609375,1.0916047119922936,-6.677969112923741,7.098135137668252
1775711362193222400,1.926222412109375,1.0845401073683052,-6.66457946999669,7.11178956901133
1775711362203235300,1.9362353515625,1.083663543729484,-6.64932578676343,7.126186343154311
1775711362213248500,1.94624853515625,1.0896704559940844,-6.631443508592247,7.141916411727666
1775711362223262500,1.956262451171875,1.0988055832818149,-6.612191111111641,7.158349075612425
1775711362233275400,1.966275390625,1.1094930545780808,-6.593833616644144,7.173616787371039
1775711362243289300,1.976289306640625,1.1208150243856012,-6.577247223502397,7.187070143184066
1775711362253302500,1.986302490234375,1.1316010606855154,-6.562062513852119,7.199249825799464
1775711362263316500,1.99631640625,1.1425548547677695,-6.55031187030375,7.208217560631036
1775711362273329400,2.006329345703125,1.153336214892566,-6.544784631314873,7.211519524785876
1775711362283343600,2.016343505859375,1.1640068811845035,-6.5464014188617465,7.208336218574643
1775711362293356500,2.0263564453125,1.1746749901931732,-6.552617224636673,7.200954291629791
1775711362303370500,2.03637060546875,1.1819039915986358,-6.560339927843213,7.192736498382687
1775711362313383400,2.046383544921875,1.185152472000569,-6.567111613935232,7.186018003782629
1775711362323397400,2.0563974609375,1.1840045440744609,-6.570802285146713,7.182832359483838
1775711362333410600,2.06641064453125,1.1737082640528678,-6.571402589127421,7.183972761690616
1775711362343424500,2.076424560546875,1.1552383221868425,-6.570221854910254,7.188044541174173
1775711362353437400,2.0864375,1.133548030034825,-6.569082037225365,7.192538929983973
1775711362363451400,2.096451416015625,1.1006070066805929,-6.5693690374732014,7.1973916307121515
1775711362373464300,2.10646435546875,1.0508538186047225,-6.569627396148443,7.204590602305531
1775711362383478500,2.116478515625,1.0032760748717933,-6.571489098367095,7.209671851092576
1775711362393491500,2.126491455078125,0.9746572986308485,-6.57916211721301,7.206598434996605
1775711362403504400,2.13650439453125,0.9699320236746222,-6.592424918889999,7.195105565601587
1775711362413518300,2.146518310546875,0.976795114377141,-6.609086715355515,7.178872808203101
1775711362423531500,2.156531494140625,0.9852941357184201,-6.6287909482568494,7.1595175348699085
1775711362433545500,2.16654541015625,0.9977416024245321,-6.650856065070629,7.137295181667804
1775711362443558400,2.176558349609375,1.0161085223075002,-6.673671707990765,7.113368362635374
1775711362453572600,2.186572509765625,1.0375152482777834,-6.6965382043153046,7.088745962554216
1775711362463585300,2.196585205078125,1.0590069491177796,-6.717739397776127,7.065470300906896
1775711362473599500,2.206599609375,1.0780929770555348,-6.736358758050203,7.044827325850725
1775711362483612400,2.2166123046875,1.0928054660841822,-6.751687260085344,7.02786508513391
1775711362493626400,2.22662646484375,1.103379978525266,-6.762505591219663,7.015799384286999
1775711362503639600,2.2366396484375,1.1108629546917974,-6.7692100572943685,7.008150330838561
1775711362513653500,2.246653564453125,1.1142040087480098,-6.773844731357693,7.003140393722057
1775711362523666400,2.25666650390625,1.111933360402286,-6.777790838634967,6.999682362222671
1775711362533680400,2.266680419921875,1.1057175546273588,-6.781027336338162,6.9975301526248455
1775711362543693600,2.276693603515625,1.101183126068115,-6.782981977537274,6.996350002929568
1775711362553706500,2.28670654296875,1.1046005332961677,-6.783467715227603,6.9953411181479686
1775711362563720400,2.296720458984375,1.1159786172050983,-6.782798437663913,6.994184349328279
1775711362573733600,2.306733642578125,1.1304417345825581,-6.7830573808610435,6.9916112839698785
1775711362583747600,2.31674755859375,1.1443046941097825,-6.787164816179871,6.985368005666136
1775711362593760500,2.326760498046875,1.1563892457876355,-6.795341692894697,6.97542002762556
1775711362603774500,2.3367744140625,1.1685642522279172,-6.805707019564509,6.963276585367321
1775711362613787600,2.34678759765625,1.1797926254678517,-6.816028507092595,6.951276350972056
1775711362623801300,2.35680126953125,1.187357726959884,-6.8240323653280734,6.942126829832792
1775711362633814500,2.366814453125,1.1928839430354534,-6.828886235100031,6.936406698620319
1775711362643828700,2.376828857421875,1.1973079700227827,-6.83188950856924,6.932686216792463
1775711362653841400,2.38684130859375,1.2061403880368917,-6.836092220956087,6.927008171156048
1775711362663855600,2.396855712890625,1.2249573167096823,-6.843903186967968,6.915985257360338
1775711362673868500,2.40686865234375,1.2478254935346542,-6.850705268198252,6.905153482222556
1775711362683882500,2.416882568359375,1.2656558953881263,-6.8531976695358745,6.899432181966304
1775711362693895700,2.426895751953125,1.2776716196134685,-6.8547676953315735,6.895657924124598
1775711362703908600,2.43690869140625,1.2868370689742266,-6.85846479628384,6.890276231086253
1775711362713922600,2.446922607421875,1.294588267622888,-6.8632958697021005,6.884007233819365
1775711362723935500,2.456935546875,1.300681616061926,-6.867957431772351,6.878210530239343
1775711362733949700,2.46694970703125,1.3046668863058088,-6.872447728928924,6.872968537932634
1775711362743962600,2.476962646484375,1.3062319436654448,-6.8758952390342944,6.869219999054074
1775711362753976600,2.4869765625,1.3052112223155796,-6.877871507543325,6.86743603824675
1775711362763989800,2.49698974609375,1.3018278634876013,-6.878985021743178,6.866962575516104
1775711362774003500,2.50700341796875,1.2975897875264286,-6.879545578235388,6.867203983056545
1775711362784016600,2.5170166015625,1.2943676106095314,-6.879292480257153,6.868067321887612
1775711362794030600,2.527030517578125,1.292874449442327,-6.877519040843844,6.87012366989553
1775711362804043500,2.53704345703125,1.2925653834931552,-6.875063464385271,6.87264003663063
1775711362814057500,2.547057373046875,1.2926416635997593,-6.874080883088707,6.873609173923731
1775711362824070700,2.557070556640625,1.292273122548312,-6.875337020629644,6.872419671878219
1775711362834084600,2.567084716796875,1.2908682241864502,-6.8782496932059525,6.869768865108489
1775711362844097500,2.57709765625,1.2891514833964406,-6.881312003386021,6.86702628840208
1775711362854111700,2.58711181640625,1.2890225963197648,-6.883536109176278,6.864819718268513
1775711362864124400,2.59712451171875,1.2902652898572384,-6.884580649793148,6.86353903080821
1775711362874137600,2.6071376953125,1.2932163947477937,-6.884564867702126,6.86299834806025
1775711362884151800,2.61715185546875,1.2995583111204205,-6.8833917322695255,6.86297905883789
1775711362894164500,2.62716455078125,1.3098479422055185,-6.8811021600276225,6.8633186660557985
1775711362904178700,2.6371787109375,1.3236391516707837,-6.878692760798335,6.863088948953151
1775711362914191400,2.64719140625,1.3388948807306587,-6.876973097398877,6.861849762547016
1775711362924205600,2.65720556640625,1.3534608739607035,-6.875703515854478,6.860263954660296
1775711362934218800,2.66721875,1.3654502947010099,-6.87437489759922,6.859219998565316
1775711362944232400,2.677232421875,1.3738571807794273,-6.873063230478763,6.858856425949931
1775711362954245600,2.68724560546875,1.378298085836321,-6.871706555172801,6.85932404346168
1775711362964259600,2.697259521484375,1.3791549949266015,-6.86980452094376,6.861056566342711
1775711362974272500,2.7072724609375,1.3773489684179425,-6.867228532975911,6.863996711447834
1775711362984286500,2.717286376953125,1.3732697362802921,-6.864163884708285,6.867879105839133
1775711362994299600,2.727299560546875,1.3656171757005153,-6.861055397298932,6.872507350161671
1775711363004312600,2.7373125,1.354300101263821,-6.8589587172806255,6.876841579973697
1775711363014326500,2.747326416015625,1.339664403798431,-6.8588681163877245,6.879798091691732
1775711363024339700,2.757339599609375,1.3222960664987564,-6.860968888059258,6.881062997061014
1775711363034353400,2.767353515625,1.3046689321324227,-6.864767695820331,6.88064038773477
1775711363044366600,2.77736669921875,1.2894909444838762,-6.86958181810379,6.878696852451562
1775711363054380500,2.787380615234375,1.2773289436556399,-6.87504651325047,6.8755041938900945
1775711363064393500,2.7973935546875,1.2685504477858542,-6.8806170068591825,6.871556917569041
1775711363074407700,2.80740771484375,1.2612839639142155,-6.886297975105047,6.867200475925206
1775711363084420600,2.817420654296875,1.2532898964203893,-6.892571064025163,6.862371156072617
1775711363094434600,2.8274345703125,1.244273354011029,-6.8992205850422375,6.857326732164621
1775711363104447500,2.837447509765625,1.234518122063577,-6.905738588634133,6.852526053884625
1775711363114461700,2.847461669921875,1.224719124039635,-6.911806510370969,6.848165520587563
1775711363124474600,2.857474609375,1.2159614517621695,-6.9172419794231645,6.844238118010759
1775711363134488600,2.867488525390625,1.2099502286486328,-6.921953810375928,6.840538678970932
1775711363144501800,2.877501708984375,1.205363120054081,-6.926290378275513,6.836955559787154
1775711363154514400,2.887514404296875,1.2013406596049665,-6.930647988963127,6.833247937440872
1775711363164528600,2.897528564453125,1.1985236294228583,-6.93465196390748,6.8296811848700045
1775711363174541600,2.90754150390625,1.1978552286420017,-6.937478127244114,6.8269280867695805
1775711363184555500,2.917555419921875,1.198145443760231,-6.939431014877558,6.824892197027802
1775711363194568700,2.927568603515625,1.1985130349636077,-6.941826385581493,6.822389858818053
1775711363204582700,2.937582763671875,1.200387742794305,-6.945162836527824,6.818665869858861
1775711363214595600,2.947595703125,1.2046787910517305,-6.949454396241903,6.813534352189302
1775711363224609500,2.957609619140625,1.2116628777854144,-6.954482453536987,6.807161310026049
1775711363234622500,2.96762255859375,1.2208552882183343,-6.9595859141558405,6.8003007766067975
1775711363244636400,2.977636474609375,1.2313245867192744,-6.964331647378206,6.793548379737138
1775711363254649600,2.987649658203125,1.2414222023636101,-6.968634313008189,6.78729750264883
1775711363264663800,2.997663818359375,1.2507510255925356,-6.972449487382173,6.781662711632252
1775711363274676500,3.007676513671875,1.2594045799084006,-6.976025592303276,6.7763821408808225
1775711363284689700,3.017689697265625,1.2664534755066037,-6.979730876561999,6.771250623211264
1775711363294703400,3.027703369140625,1.27202236168012,-6.983464802393317,6.766355252385139
1775711363304716500,3.037716552734375,1.2760561472408474,-6.986971349209546,6.761974260821938
1775711363314730800,3.047730712890625,1.2790716956697403,-6.990138873329758,6.7581286913096905
1775711363324743400,3.057743408203125,1.2818361919470131,-6.992811307409405,6.7548395866364235
1775711363334757600,3.067757568359375,1.284601418876648,-6.995075745210051,6.751970168679952
1775711363344770600,3.0777705078125,1.2871173472203314,-6.99705435180664,6.749440357941388
1775711363354784500,3.087784423828125,1.2894251857712864,-6.998761740246414,6.747229111632705
1775711363364797700,3.097797607421875,1.291377635013312,-7.000126014336943,6.745440474650263
1775711363374811600,3.107811767578125,1.2927142904445528,-7.001048974400758,6.744224084597826
1775711363384824600,3.117824462890625,1.2929121511042116,-7.001440019544959,6.743780432483553
1775711363394838500,3.127838623046875,1.2909300373762844,-7.001190428698062,6.74442106847465
1775711363404851700,3.137851806640625,1.2854793707549572,-7.000034828922152,6.746662709921598
1775711363414864600,3.14786474609375,1.277140435346216,-6.997569315591454,6.750802293944359
1775711363424878600,3.157878662109375,1.2672872959822417,-6.993609764310717,6.756760325565934
1775711363434891500,3.1678916015625,1.2570507102586328,-6.988074926537275,6.76439593501091
1775711363444905500,3.177905517578125,1.246271688221395,-6.981068262645602,6.773616767820715
1775711363454918700,3.187918701171875,1.235402503682673,-6.9735261767029755,6.7833706845939155
1775711363464932600,3.1979326171875,1.2252418327394872,-6.966478011757135,6.792448309540748
1775711363474945500,3.207945556640625,1.217205460473895,-6.960058207842708,6.8004714569985865
1775711363484959500,3.21795947265625,1.212704934184253,-6.953859353202581,6.807611391881108
1775711363494972400,3.227972412109375,1.2113149411305784,-6.947584510716796,6.81426442002952
1775711363504986600,3.237986572265625,1.2113377374842762,-6.941247124388814,6.820715788125991
1775711363514999600,3.24799951171875,1.212084171937406,-6.9349068154513835,6.827028624534607
1775711363525012500,3.258012451171875,1.213835034192726,-6.92844083430767,6.833278332579136
1775711363535026400,3.2680263671875,1.2172566792044788,-6.92215663947165,6.839037626758217
1775711363545039600,3.27803955078125,1.2219886030972003,-6.91596421457231,6.8444555601537225
1775711363555053600,3.288053466796875,1.2264265855446457,-6.909872327437997,6.849810365185141
1775711363565066200,3.298066162109375,1.2292742300607262,-6.904173239013552,6.855048850360513
1775711363575080400,3.30808056640625,1.229300825806707,-6.8992293528705835,6.860016117379069
1775711363585093400,3.31809326171875,1.2264638488151132,-6.895517054349184,6.864256239166855
1775711363595107600,3.328107666015625,1.2216462194003164,-6.892852219054102,6.8677902585119
1775711363605120500,3.33812060546875,1.2155196262788026,-6.890737418857216,6.87099928368628
1775711363615134500,3.348134521484375,1.2084140320573002,-6.888675810152292,6.874321121585369
1775711363625147400,3.3581474609375,1.200973141466826,-6.88627400970757,6.87802991297543
1775711363635161300,3.368161376953125,1.1934675881423056,-6.883868702131509,6.881742796018719
1775711363645174500,3.378174560546875,1.1847607692692428,-6.881897694319486,6.885217194131016
1775711363655187500,3.3881875,1.1744959072992205,-6.880414762285351,6.888454276356101
1775711363665201400,3.398201416015625,1.1649274300955235,-6.878920139813423,6.891573869681358
1775711363675214600,3.408214599609375,1.157871739430353,-6.8768450871050355,6.89483257921636
1775711363685228300,3.418228271484375,1.1540679632332176,-6.873751797264814,6.898555399131775
1775711363695241500,3.428241455078125,1.15315450165011,-6.869592924019694,6.902847543367743
1775711363705255400,3.43825537109375,1.154269111828506,-6.864678263971209,6.907549437448382
1775711363715268400,3.448268310546875,1.1568505796890705,-6.85938074208498,6.912380510866641
1775711363725282300,3.4582822265625,1.1606867968510837,-6.853706788101792,6.91736297545433
1775711363735295500,3.46829541015625,1.1645450797144323,-6.847153128674626,6.92320059556663
1775711363745309400,3.478309326171875,1.1670553089696913,-6.83927435812354,6.930561479723453
1775711363755322400,3.488322265625,1.1674345906108616,-6.8293883394032715,6.940239408650994
1775711363765336600,3.498336669921875,1.1666606836289166,-6.8174372048467395,6.952109879186749
1775711363775349500,3.508349609375,1.1653921980630606,-6.80421298161447,6.965266297879815
1775711363785362400,3.518362548828125,1.1633679256938396,-6.789901547667384,6.979554350951314
1775711363795376600,3.528376708984375,1.160496681106463,-6.7733601627111435,6.996087552601098
1775711363805389300,3.538389404296875,1.1569102739870547,-6.752945151191949,7.016387413308024
1775711363815403500,3.548403564453125,1.1529852094978092,-6.726669138684868,7.042226787963509
1775711363825416400,3.55841650390625,1.1486922615442425,-6.693458943000436,7.0744947343617675
1775711363835430400,3.568430419921875,1.1441359864793716,-6.653548957416414,7.11277858004868
1775711363845443600,3.578443603515625,1.137623974236846,-6.607298662894964,7.156800677126646
1775711363855457500,3.58845751953125,1.126140018800646,-6.554385403352976,7.207095278602838
1775711363865470500,3.598470458984375,1.106901503714919,-6.494725592160225,7.263861706441641
1775711363875484400,3.608484375,1.0809518005527556,-6.4290604030728336,7.325920395469665
1775711363885497600,3.61849755859375,1.051592800403759,-6.359512235072255,7.390611186566948
1775711363895510500,3.628510498046875,1.0196424685873091,-6.288212839490175,7.455809342664479
1775711363905524500,3.6385244140625,0.9836791748024523,-6.216354640981555,7.52061820718348
1775711363915537400,3.648537353515625,0.939491584964469,-6.143547763445973,7.585812856149673
1775711363925551400,3.65855126953125,0.8874259552277624,-6.068201138299703,7.65243666113615
1775711363935564500,3.668564453125,0.8311999909412116,-5.990596505093574,7.7196017333924765
1775711363945578500,3.67857861328125,0.77679605445005,-5.912783197572827,7.78498284484148
1775711363955591400,3.68859130859375,0.7315625357557087,-5.837713051280379,7.84578247371912
1775711363965605400,3.69860546875,0.6996426721427589,-5.767607249397039,7.900354021862149
1775711363975618300,3.708618408203125,0.6844442992933094,-5.703292890396714,7.948231040802598
1775711363985632500,3.718632568359375,0.6879498962614685,-5.644537919089198,7.989763659152388
1775711363995645400,3.7286455078125,0.7094299066636711,-5.590708129224181,8.025652718657255
1775711364005658400,3.738658447265625,0.745351991655305,-5.5426674441546195,8.055662656995654
1775711364015672300,3.74867236328125,0.792258704258874,-5.501458066409826,8.079398921892047
1775711364025685500,3.758685546875,0.8475967067297547,-5.4670145295381545,8.097143837419152
1775711364035699500,3.768699462890625,0.9098268068019301,-5.43889785760045,8.109314752206206
1775711364045712400,3.77871240234375,0.9787330967023968,-5.415988691177964,8.116620691305398
1775711364055726600,3.7887265625,1.0526958662748336,-5.397134937626123,8.119924409025908
1775711364065739500,3.798739501953125,1.1295130023650823,-5.382441810885071,8.119355669227241
1775711364075753500,3.80875341796875,1.2080805623192339,-5.371058831605315,8.115581411385536
1775711364085766700,3.8187666015625,1.286767949260771,-5.361634000656008,8.10971514970064
1775711364095780400,3.8287802734375,1.3665057951033115,-5.351548075449466,8.103331001621484
1775711364105793500,3.83879345703125,1.4452524379514158,-5.3380216544002295,8.098589360052348
1775711364115806500,3.848806396484375,1.5149204329393804,-5.323949289906024,8.095120807158947
1775711364125820400,3.8588203125,1.5698998312309382,-5.313820110079646,8.091298034000395
1775711364135833600,3.86883349609375,1.611320513638854,-5.308822447922825,8.086436565443872
1775711364145847600,3.87884765625,1.6438984027691184,-5.308801989656686,8.079888751235604
1775711364155860500,3.888860595703125,1.6703079785279928,-5.313589808455109,8.071321998420357
1775711364165874400,3.89887451171875,1.692042255952209,-5.3226908142775295,8.060790667533874
1775711364175887400,3.908887451171875,1.712029689709097,-5.335493597227335,8.04809543661177
1775711364185901300,3.9189013671875,1.7347510784745215,-5.350270310598612,8.033406986045836
1775711364195914500,3.92891455078125,1.7623589241072535,-5.365881136706471,8.01697023050785
1775711364205928400,3.938928466796875,1.7937286064915359,-5.382524228471517,7.998834269836545
1775711364215941400,3.94894140625,1.8236182794511318,-5.400738515076041,7.979775933623314
1775711364225954600,3.95895458984375,1.8492855124101042,-5.421715836653113,7.959619865301251
1775711364235968300,3.96896826171875,1.8690747932463883,-5.446460401809215,7.938073803925514
1775711364245981400,3.9789814453125,1.880715692809969,-5.473296970808506,7.916836954629421
1775711364255995400,3.988995361328125,1.8832991334319114,-5.4992491581887,7.898216425311565
1775711364266008300,3.99900830078125,1.8746302354164421,-5.521214321759343,7.884944271284342
1775711364276022500,4.0090224609375,1.8523809942074119,-5.537367584180831,7.8788740114599465
1775711364286035500,4.019035400390625,1.8161583188340067,-5.548326785090565,7.87959472694993
1775711364296049400,4.02904931640625,1.7690534533098339,-5.555002025070786,7.885607119107246
1775711364306062300,4.039062255859375,1.7138799937509,-5.557741679167747,7.895856125921011
1775711364316076500,4.04907666015625,1.6490151612609625,-5.555980514714122,7.910893536055087
1775711364326089500,4.05908935546875,1.5757847976163029,-5.54895280803442,7.930728117337822
1775711364336102400,4.069102294921875,1.4966558774523435,-5.537099873155356,7.954303054192661
1775711364346116600,4.07911669921875,1.4129951590776442,-5.52261834333837,7.979630972194671
1775711364356129300,4.08912939453125,1.3258470369786024,-5.508391080543398,8.004383720657229
1775711364366143500,4.0991435546875,1.2342734996527434,-5.495853670531511,8.027610866987704
1775711364376156700,4.10915673828125,1.1372717267330734,-5.4836365785151715,8.05026167473495
1775711364386170400,4.11917041015625,1.0338397746354342,-5.470128862166405,8.07336840955615
1775711364396183600,4.12918359375,0.9195585117433219,-5.455663114440441,8.096948022586107
1775711364406197500,4.139197509765625,0.7922738287627696,-5.4403094779640435,8.120697146964073
1775711364416210400,4.14921044921875,0.6532475623231381,-5.422892479217052,8.144684171751141
1775711364426223600,4.1592236328125,0.5017693721979857,-5.4038195299565785,8.168068554469942
1775711364436237600,4.169237548828125,0.3399722883606329,-5.383226823782921,8.189974681329726
1775711364446250500,4.17925048828125,0.17338888356219975,-5.360310643097758,8.210199723234773
1775711364456264400,4.189264404296875,0.007237263485376024,-5.334481205314398,8.228829604902863
1775711364466277400,4.19927734375,-0.15387821873789653,-5.307298014834523,8.244955979317426
1775711364476291300,4.209291259765625,-0.30301600148305297,-5.280873533767461,8.25777980505526
1775711364486304500,4.219304443359375,-0.43228813195377586,-5.2559711477011435,8.26790781583786
1775711364496318500,4.229318359375,-0.5410801497798413,-5.234798595812917,8.274933768951893
1775711364506331400,4.239331298828125,-0.6335497591625898,-5.219643696779013,8.27794230311811
1775711364516345600,4.249345703125,-0.708949868061766,-5.206493707826733,8.280110294806956
1775711364526358300,4.259358154296875,-0.7655976379569619,-5.189944139564037,8.285452824878693
1775711364536371500,4.269371337890625,-0.8044458395283669,-5.168693846264481,8.295050674307346
1775711364546385400,4.279385498046875,-0.8282722669262439,-5.143193494305014,8.30854494665265
1775711364556398300,4.2893984375,-0.8426212564047425,-5.116187998479605,8.323761220484972
1775711364566412000,4.299412109375,-0.8551803667917847,-5.0901773589104415,8.338414015215635
1775711364576425000,4.309425048828125,-0.868605227162689,-5.0658448816865675,8.35183229971528
1775711364586439000,4.31943896484375,-0.8806945280808955,-5.043706699636578,8.363958206316829
1775711364596452000,4.3294521484375,-0.8860623387243598,-5.024259071844816,8.37508867214024
1775711364606466000,4.339466064453125,-0.8797473103586584,-5.008593300679326,8.385129589161277
1775711364616479000,4.34947900390625,-0.8588098093353211,-4.997480370512604,8.393928397166729
1775711364626492000,4.359491943359375,-0.8225553505841642,-4.989812027841806,8.402118717885017
1775711364636505900,4.369505859375,-0.7719245028909295,-4.983296946859359,8.410784254899621
1775711364646519000,4.37951904296875,-0.7093013849131763,-4.976594818872213,8.420261692818999
1775711364656533000,4.389532958984375,-0.6403237833421677,-4.9703749214440585,8.429457391187547
1775711364666546000,4.3995458984375,-0.5720532340619713,-4.965940738388896,8.436978434342146
1775711364676560000,4.409559814453125,-0.5095457783531397,-4.963782683572173,8.442251990830897
1775711364686573000,4.419572998046875,-0.4567369655663147,-4.963353644505143,8.445525313413142
1775711364696586800,4.429586669921875,-0.41344175799079236,-4.963119251227378,8.447893796110153
1775711364706600000,4.439599853515625,-0.3764435316676274,-4.961336459463834,8.450670859608053
1775711364716613000,4.449613037109375,-0.340532369928807,-4.957452896028757,8.454472589978575
1775711364726626800,4.459626708984375,-0.3030490269698202,-4.951523505979776,8.45937146793604
1775711364736640000,4.469639892578125,-0.2664799675778486,-4.942388013365864,8.465942663019895
1775711364746654000,4.479654052734375,-0.23315171673800794,-4.929177818658948,8.474623397603631
1775711364756667000,4.4896669921875,-0.20333156535066663,-4.911854927936196,8.48544231325984
1775711364766680800,4.499680908203125,-0.17996835328405722,-4.890197222879529,8.498470137137174
1775711364776694000,4.509694091796875,-0.1670405374487862,-4.864982117602229,8.513193659016489
1775711364786708000,4.5197080078125,-0.16613511304166168,-4.838442777983844,8.528321085521577
1775711364796721000,4.529720947265625,-0.17658006255263461,-4.813184418086707,8.542391696450114
1775711364806735000,4.539735107421875,-0.19467154476139692,-4.7901706222459675,8.554926183852553
1775711364816747800,4.549747802734375,-0.21617889982825145,-4.769898526328801,8.56573048646152
1775711364826761000,4.559760986328125,-0.23654090251857413,-4.752760052262246,8.574714003384113
1775711364836775200,4.569775146484375,-0.2527669561816379,-4.737195987905562,8.582859315916895
1775711364846787800,4.579787841796875,-0.2631244648711756,-4.72426548692286,8.589672503063083
1775711364856802000,4.589802001953125,-0.2674275140936486,-4.717484156219661,8.593265559118986
1775711364866815000,4.59981494140625,-0.26755718662161376,-4.719606555201113,8.592096515339612
1775711364876829000,4.609828857421875,-0.2646982169939205,-4.732097495722771,8.58531196976602
1775711364886842000,4.619842041015625,-0.26097623732872305,-4.756629587171972,8.571859782996773
1775711364896856000,4.62985595703125,-0.26271405743937937,-4.792983633840084,8.551531280717253
1775711364906869000,4.639868896484375,-0.26979612465482206,-4.838186757396161,8.525816993746162
1775711364916882000,4.6498818359375,-0.27642076695896683,-4.887561905939877,8.49739637042582
1775711364926895900,4.659895751953125,-0.2798729897720739,-4.937418992781639,8.468409345394372
1775711364936909000,4.669908935546875,-0.28167510729059575,-4.986394328352809,8.439604691192507
1775711364946923000,4.679923095703125,-0.28404590980885547,-5.032135504308343,8.412331484341621
1775711364956936000,4.68993603515625,-0.28730483853956684,-5.071133051222563,8.388768237924575
1775711364966950000,4.699949951171875,-0.2918988700652495,-5.102603709763288,8.369504150006174
1775711364976963000,4.709963134765625,-0.29927992022726685,-5.128245516020059,8.353557223811745
1775711364986976800,4.719976806640625,-0.3107844435274601,-5.150125339394807,8.339666061103344
1775711364996990000,4.729989990234375,-0.32459464995414017,-5.169377736875415,8.327218082940577
1775711365007003100,4.740003173828125,-0.33858291636146604,-5.188530181112885,8.314740878683327
1775711365017016800,4.750016845703125,-0.35467911483347414,-5.212068877610564,8.299332881671189
1775711365027030000,4.760030029296875,-0.37486554176118225,-5.242706007936596,8.279125375422835
1775711365037044000,4.7700439453125,-0.39722807061895726,-5.2804105924308296,8.254083288624882
1775711365047057000,4.780056884765625,-0.41787268964294344,-5.321844426581263,8.226406177148222
1775711365057070800,4.79007080078125,-0.4371591720562428,-5.362902413156628,8.198692825314403
1775711365067084000,4.800083984375,-0.4542504459802061,-5.401581395640969,8.172331472611427
1775711365077098000,4.810097900390625,-0.46563872248958793,-5.4370647969543935,8.148123498550056
1775711365087111000,4.82011083984375,-0.4675503647971898,-5.467887805241346,8.12735952746272
1775711365097123800,4.830123779296875,-0.45811154185514896,-5.495345136487484,8.109357422304154
1775711365107137800,4.8401376953125,-0.43739798578079786,-5.522752783372998,8.091864435711502
1775711365117151000,4.85015087890625,-0.4115773888910189,-5.552953275847434,8.07252728255689
1775711365127165000,4.8601650390625,-0.3869101632874459,-5.586414231422543,8.050630508047341
1775711365137177900,4.870177734375,-0.36648090404719114,-5.6229772446662185,8.026096370771526
1775711365147192000,4.880192138671875,-0.35366606533341105,-5.661991742715239,7.999197842451929
1775711365157205000,4.890205078125,-0.3521101411283016,-5.703551833593845,7.9696870858073225
1775711365167219000,4.900218994140625,-0.3629860842013731,-5.746684288355707,7.938152129858731
1775711365177232100,4.910232177734375,-0.3842174536047503,-5.789624435415863,7.905886521548032
1775711365187244800,4.920244873046875,-0.4110188416928053,-5.83166851041913,7.87356947531104
1775711365197259000,4.930259033203125,-0.43809513773210346,-5.874379524898528,7.840289136999845
1775711365207272000,4.94027197265625,-0.46100247752368445,-5.920767182064056,7.803997926434874
1775711365217286000,4.950285888671875,-0.47947417295537886,-5.973033375874161,7.762948123165964
1775711365227299000,4.960299072265625,-0.49513563327193255,-6.032148997187614,7.716113891276716
1775711365237313000,4.97031298828125,-0.5078407645335421,-6.096488490629196,7.664548539212346
1775711365247326000,4.980325927734375,-0.5161160966541618,-6.163095344480872,7.610536378517747
1775711365257340000,4.99033984375,-0.5212914899980648,-6.230566706207394,7.555043623876571
1775711365267353000,5.00035302734375,-0.5264328714745119,-6.296562150162458,7.499771818509697
1775711365277366000,5.010365966796875,-0.5331482973346486,-6.3581204884529114,7.447175954353809
1775711365287380000,5.0203798828125,-0.5412435967132448,-6.414207117334008,7.398336227861046
1775711365297393000,5.030392822265625,-0.5510725514840334,-6.464057482174039,7.35409142794311
1775711365307406800,5.04040673828125,-0.5612559822482988,-6.506320168364048,7.31595254368484
1775711365317420000,5.050419921875,-0.5673787394449115,-6.538602143287658,7.286641693526506
1775711365327434000,5.06043408203125,-0.5665616143757477,-6.560413577601313,7.2670748232692475
1775711365337447000,5.070447021484375,-0.558512273030728,-6.575759615293145,7.253816113245486
1775711365347460900,5.0804609375,-0.5441959437128157,-6.589874649885297,7.242085343441366
1775711365357473800,5.090473876953125,-0.5258713651342317,-6.606587884277105,7.228199441429973
1775711365367487000,5.100487060546875,-0.5025269856322556,-6.627870910802483,7.210352234572172
1775711365377501000,5.1105009765625,-0.47875455344393847,-6.655219520977139,7.186739888316392
1775711365387513900,5.120513916015625,-0.46185456430837507,-6.688951110187173,7.1564663306057446
1775711365397527800,5.13052783203125,-0.4521171968111768,-6.727168904900551,7.121177575081586
1775711365407541000,5.140541015625,-0.44750385779682544,-6.765248752447962,7.085303128623962
1775711365417555000,5.150554931640625,-0.4465248932294547,-6.801687847051024,7.0503937278062105
1775711365427567900,5.16056787109375,-0.44348618312068283,-6.83621730864048,7.017110466885566
1775711365437582000,5.17058203125,-0.4352352913215756,-6.867568724715709,6.986948552855849
1775711365447595000,5.180594970703125,-0.42043084969315675,-6.895231807667017,6.960560312145948
1775711365457608000,5.19060791015625,-0.39687151226624845,-6.918245018985867,6.939075041046738
1775711365467622100,5.2006220703125,-0.36554881082884966,-6.9361074234128,6.922944574978947
1775711365477634800,5.210634765625,-0.3296975625837222,-6.95111911458373,6.909677097126841
1775711365487649000,5.22064892578125,-0.29185601730421185,-6.968018226936459,6.894340996307134
1775711365497662000,5.230661865234375,-0.2558480989263393,-6.9879147675395,6.87560531617701
1775711365507676000,5.240676025390625,-0.22346533050937578,-7.009026529151201,6.8552171926647425
1775711365517689000,5.250689208984375,-0.19619628837695344,-7.028470065289735,6.836117939919233
1775711365527701800,5.26070166015625,-0.18216880420409143,-7.046839834716915,6.817569306793809
1775711365537716000,5.270716064453125,-0.18494785872967912,-7.066468079772592,6.797147281011939
1775711365547729000,5.28072900390625,-0.19978349921396002,-7.086595506522059,6.775738582280278
1775711365557743000,5.2907431640625,-0.21789443504186345,-7.104604041421413,6.7562938770979635
1775711365567756500,5.300756591796875,-0.23369260041536763,-7.118889171883463,6.74070993899703
1775711365577770800,5.310770751953125,-0.24255144977867601,-7.129151038178801,6.729545570904016
1775711365587784000,5.320783935546875,-0.23736911523733287,-7.135445169886946,6.723056793406605
1775711365597797600,5.330797607421875,-0.21393435403816402,-7.137780334836244,6.721361095404625
1775711365607810800,5.340810791015625,-0.17548686048844828,-7.136992399328947,6.723312229472398
1775711365617823500,5.350823486328125,-0.12870110738342627,-7.135501868510246,6.725950176760554
1775711365627837700,5.360837646484375,-0.08014884692938067,-7.132680965870619,6.729696962073445
1775711365637851000,5.370850830078125,-0.03509919918525265,-7.125059384950995,6.738152071207761
1775711365647864800,5.38086474609375,0.006406119024014333,-7.108689849430323,6.755508864200115
1775711365657877800,5.390877685546875,0.04749380547625478,-7.080106729024648,6.785294930654763
1775711365667891700,5.4008916015625,0.09051552530606277,-7.039378412795067,6.827104027858376
1775711365677904600,5.410904541015625,0.1347835782354232,-6.990276235973835,6.876646349662542
1775711365687917800,5.420917724609375,0.18145829958086832,-6.937366483563184,6.928956967136264
1775711365697931800,5.430931884765625,0.23502205892084166,-6.884540902304649,6.979847196418047
1775711365707944700,5.44094482421875,0.2964035062744282,-6.834848942896723,7.026191014441848
1775711365717958700,5.450958740234375,0.3669231679219752,-6.787056679630279,7.0690621879190205
1775711365727971800,5.460971923828125,0.44007272141538556,-6.737855134087801,7.111823471280932
1775711365737985500,5.470985595703125,0.5040862708382308,-6.685873017916083,7.156492634090781
1775711365747998700,5.480998779296875,0.5523492568889633,-6.631468058511614,7.203397008606791
1775711365758012700,5.4910126953125,0.5802796490069478,-6.574281943956017,7.253445526367425
1775711365768025600,5.501025634765625,0.5889538077194243,-6.516885401520133,7.304364981743693
1775711365778038800,5.511038818359375,0.5812448042446747,-6.463204664736986,7.352519648581743
1775711365788052700,5.521052734375,0.5648457138359546,-6.414616867178678,7.396218505054712
1775711365798065700,5.531065673828125,0.5444075406368821,-6.3707338863104575,7.43557319484353
1775711365808079600,5.54107958984375,0.5216829370010644,-6.3300032319933175,7.4719000612437725
1775711365818092800,5.5510927734375,0.506189672858268,-6.284483589833974,7.511286315214633
1775711365828106800,5.561106689453125,0.5020147983264178,-6.223835352125763,7.561893635901808
1775711365838119700,5.57111962890625,0.5022582516934723,-6.148652977630496,7.6231345788061615
1775711365848132600,5.581132568359375,0.49550950808562333,-6.06936433686018,7.6868503873914475
1775711365858146600,5.591146484375,0.47279663142021744,-5.997343641266227,7.744592382264137
1775711365868159700,5.60115966796875,0.4337121734075248,-5.9414902366191145,7.789799305212497
1775711365878173700,5.611173583984375,0.38196331800241023,-5.902671553403139,7.821953854364156
1775711365888186600,5.6211865234375,0.3207777585471049,-5.8737809744834895,7.846412003794312
1775711365898200800,5.631200927734375,0.25355620686318725,-5.848852869454026,7.867465897738933
1775711365908213500,5.641213623046875,0.18790901009021327,-5.822132620310783,7.889097299310564
1775711365918227700,5.651227783203125,0.13084030223605222,-5.785550902366638,7.917114018005132
1775711365928241000,5.661240966796875,0.08439991023628972,-5.739845382246375,7.950937377151846
1775711365938253600,5.671253662109375,0.04701860287967138,-5.690143485966325,7.986892487630247
1775711365948267800,5.681267822265625,0.01637630775475409,-5.638896113809943,8.02327605265379
1775711365958280700,5.69128076171875,-0.012413503929361467,-5.590667212691903,8.056964971765876
1775711365968294700,5.701294677734375,-0.04827333391481079,-5.549396460148691,8.085310191762447
1775711365978307800,5.711307861328125,-0.09784227886442094,-5.515022481381893,8.108349122044444
1775711365988321800,5.72132177734375,-0.16365639316951855,-5.48878738540709,8.125074046874046
1775711365998334700,5.731334716796875,-0.2457383361864835,-5.471814038774371,8.13444802441895
1775711366008347600,5.74134765625,-0.33893151060342785,-5.461195614126324,8.13823280365467
1775711366018361900,5.75136181640625,-0.43375330913551147,-5.450078592306375,8.141184639197588
1775711366028374800,5.761374755859375,-0.5208203653549776,-5.432703679135441,8.147691536873578
1775711366038388700,5.771388671875,-0.5955365105779841,-5.408190584647655,8.158872271579504
1775711366048401700,5.781401611328125,-0.6604583704847842,-5.3785611700594425,8.173447909420728
1775711366058415600,5.79141552734375,-0.7172760901194065,-5.347300354877114,8.189154597118497
1775711366068428800,5.8014287109375,-0.7664923217743634,-5.316038370651007,8.20503722590506
1775711366078442800,5.81144287109375,-0.8120817412342876,-5.284079051810503,8.221278751131893
1775711366088455700,5.82145556640625,-0.8571433374278247,-5.251020831817388,8.237869820448756
1775711366098468900,5.83146875,-0.9013126609567552,-5.217744585159421,8.254281441545485
1775711366108482600,5.841482666015625,-0.943344753261283,-5.18564965724051,8.269795821541548
1775711366118495700,5.851495849609375,-0.9846524037487804,-5.156588982450962,8.283141040804981
1775711366128509700,5.861509765625,-1.0258064711097628,-5.132121480670571,8.293337440648674
1775711366138522600,5.871522705078125,-1.0652714163400232,-5.113368264883756,8.299942538002133
1775711366148536600,5.88153662109375,-1.1010880681958048,-5.101196765574812,8.302757010900974
1775711366158549800,5.8915498046875,-1.132633034081757,-5.096406608688831,8.301454111608862
1775711366168562700,5.901562744140625,-1.1583927676297723,-5.097888371679186,8.296990702459215
1775711366178576600,5.91157666015625,-1.1758261329896746,-5.104641353070735,8.290383851540089
1775711366188589800,5.92158984375,-1.1847034861240535,-5.1154193521946665,8.28247293228507
1775711366198603500,5.931603515625,-1.1862286498647183,-5.129636678117514,8.273456097614766
1775711366208616700,5.94161669921875,-1.1822923333290964,-5.1460962300091975,8.263792197212576
1775711366218631000,5.951630859375,-1.1746716291923076,-5.162734061077237,8.25449713012278
1775711366228643600,5.9616435546875,-1.165112650469318,-5.178252532726526,8.246127361184358
1775711366238656800,5.97165673828125,-1.1522544110052286,-5.192780824294686,8.23879394955635
1775711366248670700,5.981670654296875,-1.1375773586161435,-5.206636331167817,8.232085976350307
1775711366258683600,5.99168359375,-1.1247826859075576,-5.218528429013491,8.226312653645872
1775711366268697900,6.00169775390625,-1.1141658686947078,-5.22667900224328,8.222581065902114
1775711366278710500,6.01171044921875,-1.1045428117595613,-5.230888728892803,8.221202763286232
1775711366288724700,6.021724853515625,-1.0975629628095775,-5.233180639222264,8.220678447151183
1775711366298737700,6.031737548828125,-1.0954920748196542,-5.237729388567805,8.218058620041608
1775711366308752000,6.041751953125,-1.1003525935281067,-5.246207878577709,8.211998297089337
1775711366318764800,6.051764892578125,-1.1103887613087893,-5.255858334976434,8.204471408715843
1775711366328777700,6.06177783203125,-1.1220871632132678,-5.263118096846342,8.198225207802652
1775711366338791700,6.071791748046875,-1.1325282585330307,-5.265896913909912,8.19500507671237
1775711366348804600,6.0818046875,-1.141212061856687,-5.264474187630415,8.194715153855086
1775711366358818800,6.09181884765625,-1.1494782242901622,-5.259257329764962,8.19690711094141
1775711366368831700,6.101831787109375,-1.1578734199307859,-5.249885690307617,8.201731170096993
1775711366378844700,6.1118447265625,-1.1643562791440636,-5.2364188904911275,8.209419971033931
1775711366388859000,6.12185888671875,-1.169069133010134,-5.219076710546016,8.219786466747522
1775711366398871600,6.13187158203125,-1.1754914942078292,-5.198523751860857,8.231886654385924
1775711366408885800,6.1418857421875,-1.1859600620564072,-5.177933968296647,8.243354973861575
1775711366418899000,6.15189892578125,-1.2034648852173238,-5.160596464526653,8.251684995311498
1775711366428912600,6.16191259765625,-1.228388971658796,-5.147702496162057,8.25606423330903
1775711366438925800,6.17192578125,-1.258779141486436,-5.139883346843719,8.256359416863322
1775711366448939800,6.181939697265625,-1.294319679814577,-5.1359366550445555,8.253319318515063
1775711366458952700,6.19195263671875,-1.3353025553271174,-5.1331058155328035,8.248550204417109
1775711366468966000,6.2019658203125,-1.3803414282321929,-5.129285380461812,8.243511041206121
1775711366478979600,6.2119794921875,-1.4266742864705622,-5.123460035309195,8.23924403141141
1775711366488992800,6.22199267578125,-1.4709600029207766,-5.113989611652493,8.23734082813859
1775711366499006700,6.2320068359375,-1.5092548083931208,-5.101291458120942,8.238287169077992
1775711366509019600,6.24201953125,-1.5445374264374374,-5.088287015119195,8.239789390334487
1775711366519033600,6.25203369140625,-1.58395875172168,-5.077674435690045,8.238851817223429
1775711366529046800,6.262046875,-1.6290613375127314,-5.071316006574034,8.233971059444546
1775711366539059700,6.272059814453125,-1.6801014966592192,-5.068989609453082,8.2251436098665
1775711366549073700,6.28207373046875,-1.735913984774053,-5.06863948084116,8.213761215108633
1775711366559086800,6.2920869140625,-1.7924759760819375,-5.069558349251746,8.201036173570156
1775711366569100300,6.302100341796875,-1.8445653520204126,-5.072679696142673,8.1875448238343
1775711366579113200,6.31211328125,-1.890023911642283,-5.0776902177810666,8.17405873479545
1775711366589127400,6.32212744140625,-1.9266801561273634,-5.082904737558961,8.162252561667561
1775711366599140400,6.332140380859375,-1.9552448640935123,-5.086267491990328,8.153361399203538
1775711366609153300,6.3421533203125,-1.977546712272614,-5.084219911810756,8.149259224581717
1775711366619167200,6.352167236328125,-1.9920039844311772,-5.073517316010594,8.15240687495768
1775711366629180400,6.362180419921875,-1.9980669377319513,-5.053477567544579,8.163362568736076
1775711366639194400,6.3721943359375,-2.001737735199183,-5.029260825654864,8.177407460701465
1775711366649207300,6.382207275390625,-2.0124739410080013,-5.007470434129238,8.188135190942884
1775711366659221500,6.392221435546875,-2.0341551730707286,-4.992222596114874,8.192089481526613
1775711366669234200,6.402234130859375,-2.0639412395253776,-4.984214646226167,8.189512324514984
1775711366679247400,6.412247314453125,-2.100016323121637,-4.977996502363681,8.184124201735854
1775711366689261300,6.42226123046875,-2.1406007008358836,-4.965964703786373,8.180916930127143
1775711366699274200,6.432274169921875,-2.1793515795126557,-4.943949855855107,8.18401898779571
1775711366709288400,6.442288330078125,-2.2116928834080696,-4.910543845337629,8.195448144304752
1775711366719301000,6.452301025390625,-2.232965973061323,-4.866927114190161,8.215673186209797
1775711366729315300,6.4623154296875,-2.241972578598559,-4.816726036216318,8.242761099621653
1775711366739328500,6.47232861328125,-2.2433625716522334,-4.765893090079724,8.27187730399072
1775711366749341200,6.482341064453125,-2.242987893120944,-4.720060436448454,8.298217613905667
1775711366759355400,6.49235546875,-2.245632708541304,-4.681428800237178,8.319359186133742
1775711366769368300,6.502368408203125,-2.252989062653482,-4.649938852474093,8.335016189470887
1775711366779382300,6.51238232421875,-2.2621973282426593,-4.6236970344975585,8.347111700934171
1775711366789395500,6.5223955078125,-2.269238478925824,-4.600225850278139,8.358162671780585
1775711366799408400,6.532408447265625,-2.271936924229562,-4.578065456396341,8.369587736636399
1775711366809422300,6.54242236328125,-2.269382709702104,-4.556218950769305,8.3821923666656
1775711366819435300,6.552435302734375,-2.2590349186889824,-4.533740576979517,8.397163141304254
1775711366829449500,6.562449462890625,-2.2404370395943523,-4.511022256954014,8.414363282430172
1775711366839462400,6.57246240234375,-2.219217872085422,-4.490866773153841,8.430752107173204
1775711366849476400,6.582476318359375,-2.2002755634672937,-4.475817964842915,8.443709203901886
1775711366859489500,6.592489501953125,-2.18366578944996,-4.466268630731106,8.453072075530887
1775711366869502200,6.602502197265625,-2.162971668728441,-4.460324919895828,8.461527769187093
1775711366879516400,6.612516357421875,-2.135780148811638,-4.457200942656398,8.470075817301868
1775711366889529300,6.622529296875,-2.1052869570009407,-4.456156402039528,8.478257370191812
1775711366899543300,6.632543212890625,-2.075061330085248,-4.455771202114224,8.48590525459647
1775711366909556500,6.642556396484375,-2.0482266607820985,-4.455377818882465,8.492629594415426
1775711366919570400,6.6525703125,-2.027945212514698,-4.455036750359833,8.497674602845311
1775711366929583400,6.662583251953125,-2.0166304761655627,-4.455960879467427,8.499883511066436
1775711366939596300,6.67259619140625,-2.017153915517777,-4.458604964235425,8.498370768415928
1775711366949610200,6.6826103515625,-2.027505213662237,-4.46137501347065,8.494453887233137
1775711366959623400,6.69262353515625,-2.041054138804227,-4.462485897321999,8.490623515290022
1775711366969637400,6.702637451171875,-2.052063316335529,-4.461780087140203,8.488342126354574
1775711366979650300,6.712650390625,-2.056240894281119,-4.459797973412275,8.488371936970948
1775711366989664300,6.722664306640625,-2.052764888733625,-4.456943168503046,8.490711778095363
1775711366999677400,6.732677490234375,-2.041809341085702,-4.4542175429314375,8.494783557578922
1775711367009690400,6.7426904296875,-2.0232906647071243,-4.452457547521591,8.500136024522781
1775711367019704300,6.752704345703125,-1.9988577958486973,-4.4520317233249544,8.506137310764194
1775711367029717500,6.762717529296875,-1.9718439705863593,-4.453063696721196,8.511900112074613
1775711367039731200,6.772731201171875,-1.9452578692167997,-4.45432334139347,8.517356039392947
1775711367049744400,6.782744384765625,-1.9216040219068526,-4.453936680163443,8.52292653300166
1775711367059758300,6.79275830078125,-1.901877284912765,-4.449701819072663,8.529560271927714
1775711367069771300,6.802771240234375,-1.8862553528890014,-4.438790256696939,8.538710962110757
1775711367079784400,6.812784423828125,-1.8744851278573273,-4.418127700157464,8.552007666057348
1775711367089798400,6.82279833984375,-1.864387658343464,-4.387452283647656,8.569989312949776
1775711367099811300,6.832811279296875,-1.8526906446784734,-4.347997348354757,8.59260504938364
1775711367109825300,6.8428251953125,-1.837369303036481,-4.302758861224353,8.618627963912486
1775711367119838200,6.852838134765625,-1.819263737503439,-4.25666112691611,8.645316064351796
1775711367129851400,6.862851318359375,-1.8003877721197903,-4.213465251529216,8.67039205341935
1775711367139865300,6.872865234375,-1.782211771699041,-4.174948766130209,8.692749431177972
1775711367149878300,6.882878173828125,-1.765707357752323,-4.140785507504642,8.712436128422617
1775711367159892200,6.892892333984375,-1.7514629976920781,-4.109459518131613,8.730125514370203
1775711367169905400,6.902905517578125,-1.739557163581997,-4.079379437166452,8.74659909478724
1775711367179919400,6.91291943359375,-1.7292372834891079,-4.050900653918087,8.761866806545854
1775711367189932300,6.922932373046875,-1.7202850384876132,-4.025529773557186,8.775311979052423
1775711367199945500,6.932945556640625,-1.7131977105751632,-4.004116983172297,8.78648920662701
1775711367209959200,6.942959228515625,-1.7079684316195547,-3.9871971202924845,8.795196829217671
1775711367219972400,6.952972412109375,-1.7037329860068857,-3.9756788241952656,8.801231433206796
1775711367229986300,6.962986328125,-1.6983029237821696,-3.970608681324124,8.804568468675017
1775711367239999200,6.972999267578125,-1.6922437698736785,-3.972884225040674,8.804709922972322
1775711367250013400,6.983013427734375,-1.687495844694227,-3.983464655765891,8.800837465453148
1775711367260026000,6.993026123046875,-1.6827713003903626,-4.00194899148345,8.79335383169949
1775711367270039300,7.003039306640625,-1.6769152678385375,-4.0262487354815,8.78337370495498
1775711367280053500,7.013053466796875,-1.6699072887726127,-4.0548599129378795,8.771538305732607
1775711367290066200,7.023066162109375,-1.6590147233583032,-4.085618039295077,8.759324720847607
1775711367300080400,7.033080322265625,-1.6439653305254875,-4.117226352740824,8.747354297068714
1775711367310093300,7.04309326171875,-1.6272390905216336,-4.14949839079231,8.735223129770159
1775711367320107300,7.053107177734375,-1.6100775278404353,-4.182164688858389,8.722817821705341
1775711367330120400,7.063120361328125,-1.5920739613771437,-4.21415937127322,8.71071529597938
1775711367340133400,7.07313330078125,-1.5739000067830085,-4.245323448082805,8.698876974147558
1775711367350147300,7.083147216796875,-1.556618032592535,-4.275411712354422,8.687242065933345
1775711367360160300,7.09316015625,-1.5418448263525961,-4.304239162909984,8.675633461204171
1775711367370174500,7.103174560546875,-1.5303678851790725,-4.3317993700087065,8.66394010080099
1775711367380187400,7.1131875,-1.5221956846393645,-4.359114370174706,8.651673324424028
1775711367390200300,7.123200439453125,-1.5173828775301574,-4.386844965404272,8.638491186767816
1775711367400214500,7.133214599609375,-1.515205533491075,-4.41542107154727,8.624303671461343
1775711367410227200,7.143227294921875,-1.5143435098342597,-4.444999340470135,8.609246387583017
1775711367420241400,7.153241455078125,-1.5138343912683427,-4.474957840882241,8.593803319257498
1775711367430254300,7.16325439453125,-1.5119729813106357,-4.50369089115262,8.579108438950776
1775711367440268300,7.173268310546875,-1.5062667324930428,-4.530039676634967,8.566230252677201
1775711367450281500,7.183281494140625,-1.495840177155286,-4.556091817258298,8.554230602803825
1775711367460294100,7.193294189453125,-1.4794797017239034,-4.584504257272184,8.541889007624983
1775711367470308400,7.203308349609375,-1.456744868955016,-4.6158705786556,8.52889450149536
1775711367480321300,7.2133212890625,-1.429764215309918,-4.6504657989576454,8.514653794696926
1775711367490335200,7.223335205078125,-1.4001162421517073,-4.688725386986136,8.498583534383773
1775711367500348400,7.233348388671875,-1.3716479802973567,-4.73069084379524,8.479950145584345
1775711367510361300,7.243361328125,-1.3483530294276773,-4.777238659958541,8.457560034599899
1775711367520375300,7.253375244140625,-1.331239251410961,-4.829184243512153,8.430727557253837
1775711367530388500,7.263388427734375,-1.31868956643939,-4.886259591169655,8.399756664928793
1775711367540402400,7.27340234375,-1.3086911733858286,-4.9460079574286935,8.366284018915891
1775711367550415400,7.283415283203125,-1.299445060004294,-5.005649648442864,8.332183596393465
1775711367560429300,7.29342919921875,-1.2913304348707197,-5.062918765106797,8.298777585875987
1775711367570442200,7.303442138671875,-1.2820603560917079,-5.115576588582992,8.267863976696134
1775711367580455200,7.313455078125,-1.2711788965933024,-5.163056717160344,8.239985205167532
1775711367590469000,7.32346923828125,-1.260906362773478,-5.206844420960545,8.213969304901362
1775711367600482300,7.333482421875,-1.2524363483309746,-5.2470788161933415,8.189625721761583
1775711367610496000,7.34349609375,-1.2490293163664639,-5.284187772881984,8.166252444958687
1775711367620509200,7.35350927734375,-1.2526536443434655,-5.320197828418016,8.14228120226264
1775711367630522000,7.363522216796875,-1.2626960226692259,-5.356421234443784,8.116942178344726
1775711367640536000,7.3735361328125,-1.2752879393473266,-5.394601619756221,8.089642083486915
1775711367650549200,7.38354931640625,-1.286198478809744,-5.434421004447341,8.061213276860117
1775711367660563200,7.393563232421875,-1.2945843221001325,-5.472763302323222,8.03388570947349
1775711367670576000,7.403576171875,-1.3038755897976457,-5.508340227138996,8.008024707508087
1775711367680590000,7.413590087890625,-1.3149487724758684,-5.5409355057954786,7.983691061240434
1775711367690603000,7.42360302734375,-1.326251672256738,-5.569410489651561,7.961979580169916
1775711367700616200,7.4336162109375,-1.3380730429537593,-5.594119983494282,7.942654117453098
1775711367710630100,7.443630126953125,-1.3473127265945075,-5.615398918366432,7.926060710048675
1775711367720643000,7.45364306640625,-1.35106623390913,-5.63464839323759,7.911748691579699
1775711367730657000,7.463656982421875,-1.3492691213592887,-5.65404399858117,7.89820648843944
1775711367740670200,7.473670166015625,-1.3406681740134954,-5.674294759449363,7.885135994464158
1775711367750683100,7.48368310546875,-1.3266289811365306,-5.697446502456069,7.870803517729043
1775711367760697000,7.493697021484375,-1.3106746022880076,-5.724229295441508,7.85402540140748
1775711367770710300,7.503710205078125,-1.2938961937054991,-5.752448258709907,7.836168842199444
1775711367780724000,7.513723876953125,-1.2807625713661313,-5.781607133176922,7.816844548526406
1775711367790737200,7.523737060546875,-1.2730899909116327,-5.813369468140602,7.794508798077702
1775711367800751000,7.533751220703125,-1.273153849928081,-5.84828471417725,7.7683368304669855
1775711367810764000,7.543763916015625,-1.2811876649104057,-5.885124206274748,7.739139377555251
1775711367820777200,7.553777099609375,-1.2917962988168001,-5.91986584931016,7.710826306262612
1775711367830791200,7.563791259765625,-1.3013364267088472,-5.950486028501391,7.685611200985312
1775711367840804000,7.57380419921875,-1.306624011722952,-5.98137333419621,7.66069829352498
1775711367850818000,7.583818115234375,-1.3066469542071222,-6.012620705375075,7.63619221329987
1775711367860831000,7.5938310546875,-1.3029035298950968,-6.0426943565994495,7.6130580059498545
1775711367870844200,7.60384423828125,-1.293803985377401,-6.069262630051374,7.593450803682208
1775711367880858000,7.613858154296875,-1.2810621388345955,-6.09252718578279,7.576962610217929
1775711367890871000,7.62387109375,-1.2668661479607224,-6.11750029899776,7.559207757818698
1775711367900885000,7.633885009765625,-1.2492445665523408,-6.145688282606005,7.53924925789535
1775711367910898200,7.643898193359375,-1.2287877617180347,-6.176008602067828,7.517804903328418
1775711367920912100,7.653912109375,-1.204068331003189,-6.2050458959817885,7.49786627714932
1775711367930925000,7.663925048828125,-1.1747052392009645,-6.229358499461412,7.48234839002192
1775711367940938200,7.673938232421875,-1.1430828972298652,-6.250038883918523,7.469991597273945
1775711367950952000,7.683951904296875,-1.1116511093948036,-6.269182560327649,7.458685190361738
1775711367960965000,7.693965087890625,-1.0842731269951909,-6.287479264518618,7.447306302735209
1775711367970979300,7.703979248046875,-1.0629985029719768,-6.306550460213423,7.434234639716148
1775711367980992000,7.713991943359375,-1.04958102218993,-6.329020650696754,7.417025146239996
1775711367991005200,7.724005126953125,-1.0431422213140875,-6.356805314201116,7.394138191649318
1775711368001019100,7.73401904296875,-1.0373745246328412,-6.3893754584163425,7.366826406353711
1775711368011032000,7.744031982421875,-1.0248553078647702,-6.4217065331786864,7.34042062998712
1775711368021046300,7.75404638671875,-1.0038158077716828,-6.4503036821097135,7.318218735051155
1775711368031059000,7.764058837890625,-0.9765510764881968,-6.4744923669487235,7.300525841972232
1775711368041072000,7.774072021484375,-0.9467613567717372,-6.492773873570561,7.288204120537638
1775711368051086000,7.784086181640625,-0.9173409087590872,-6.5049477109670635,7.281107440274954
1775711368061099000,7.79409912109375,-0.8892774283133447,-6.511998798522352,7.2782847840696565
1775711368071113200,7.80411328125,-0.8612697697080671,-6.513578761190176,7.280238840746879
1775711368081126100,7.814126220703125,-0.8336796789277344,-6.508942918083071,7.287595633250475
1775711368091140000,7.82414013671875,-0.8089737652815878,-6.499629146292805,7.298682844454049
1775711368101153000,7.834153076171875,-0.7882793522991239,-6.4884542568057775,7.310877724638581
1775711368111166200,7.844166259765625,-0.7699371284659952,-6.4762026779979465,7.323685768285393
1775711368121180200,7.85418017578125,-0.7520616453617811,-6.461994704425335,7.338080204340815
1775711368131193000,7.864193115234375,-0.7372048524916172,-6.444302980390191,7.355125447165966
1775711368141207300,7.874207275390625,-0.7248498133093119,-6.422370550045371,7.3755094790250055
1775711368151220000,7.884219970703125,-0.7108237721748649,-6.394487102341651,7.401057761779427
1775711368161233200,7.894233154296875,-0.6957405501376837,-6.358750018528103,7.433211141887306
1775711368171247000,7.9042470703125,-0.6821130798667668,-6.318460093715786,7.468747734692692
1775711368181260000,7.914260009765625,-0.6719248633295297,-6.279777604100108,7.502221549749374
1775711368191274200,7.924274169921875,-0.6631781508374959,-6.248032804793119,7.5294538400679825
1775711368201287000,7.934286865234375,-0.652049438579753,-6.225657891377806,7.548932447519898
1775711368211300000,7.944300048828125,-0.637280323993042,-6.2099476965487,7.563119962826371
1775711368221314300,7.954314208984375,-0.6183698718179017,-6.195767780026793,7.576309114745259
1775711368231327000,7.964326904296875,-0.5973865223588422,-6.179767662340402,7.591048418715595
1775711368241341200,7.974341064453125,-0.5759588631983846,-6.160856041121482,7.608055667617917
1775711368251354000,7.98435400390625,-0.5538180507998913,-6.138716105505824,7.6275687618613235
1775711368261368000,7.9943681640625,-0.5317901607239619,-6.114951199036836,7.648198292914032
1775711368271381200,8.00438134765625,-0.5116012861108407,-6.090909229192137,7.668733715942501
1775711368281394000,8.014393798828126,-0.49514746984019875,-6.0665621389210225,7.68908501457572
1775711368291408100,8.024408203125,-0.48435840133298186,-6.044138710188865,7.707409191295504
1775711368301421000,8.034421142578125,-0.4777362067142501,-6.024540275749564,7.723152119350433
1775711368311435300,8.044435302734374,-0.4688842437494546,-6.005743220821023,7.738317539778351
1775711368321448200,8.0544482421875,-0.45427101384419943,-5.98513823968768,7.7551354035884135
1775711368331461000,8.064461181640626,-0.4360257110469043,-5.96123187892139,7.774571925464272
1775711368341475000,8.07447509765625,-0.41678609998263416,-5.933213991183043,7.797027502900361
1775711368351488000,8.084488037109375,-0.3996869715457782,-5.900657290971279,7.822586307048797
1775711368361502200,8.094502197265625,-0.39101540664918716,-5.864997948569059,7.849794631969928
1775711368371515100,8.10451513671875,-0.3925502150010317,-5.829450834369659,7.876151893019676
1775711368381528000,8.114528076171876,-0.40155462858118113,-5.797224973547459,7.899450351020693
1775711368391542300,8.124542236328125,-0.41397363637778906,-5.769110055175423,7.919366180846095
1775711368401555000,8.134554931640626,-0.424921475643292,-5.741818143624067,7.938599289104342
1775711368411569200,8.144569091796875,-0.43124118018411095,-5.7128556685119865,7.9591265288263555
1775711368421582300,8.154582275390625,-0.4304570075364783,-5.683231514620781,7.980347596031427
1775711368431595000,8.164594970703124,-0.424723907244578,-5.653569951328635,8.00169608900845
1775711368441609200,8.174609130859375,-0.4168722804287448,-5.6255304362803695,8.021846312111615
1775711368451622000,8.184621826171876,-0.40769499449972063,-5.601667330133915,8.0389973533988
1775711368461636000,8.194635986328125,-0.39738508781157433,-5.581158795112371,8.053766467985511
1775711368471649300,8.204649169921876,-0.38507436269503087,-5.563882081618905,8.066306800606846
1775711368481662000,8.214661865234374,-0.3698237482016906,-5.550445676940679,8.076270560738443
1775711368491676200,8.22467626953125,-0.3507073251256719,-5.539557787701487,8.08459590601325
1775711368501689000,8.234689208984374,-0.3273040185106918,-5.5290901697009796,8.092740049502254
1775711368511703000,8.244703125,-0.3008404840748757,-5.517201578986644,8.101873204028607
1775711368521716200,8.25471630859375,-0.2739996407592669,-5.502608990010619,8.112742388567328
1775711368531729200,8.264729248046875,-0.24937378834569826,-5.484225776579976,8.125974795106053
1775711368541743000,8.2747431640625,-0.22792428267961368,-5.460860683083534,8.142323872360587
1775711368551756000,8.284756103515624,-0.20922544569484888,-5.432753363496065,8.161605495935678
1775711368561770200,8.294770263671875,-0.19313536643637344,-5.40083379214406,8.183158571574092
1775711368571783400,8.304783447265624,-0.17872770557319745,-5.364795679557323,8.207154948711395
1775711368581797400,8.31479736328125,-0.1627890174841508,-5.324633180516958,8.233600472566485
1775711368591810600,8.324810546875,-0.1443173859845381,-5.282043746590614,8.261329606491326
1775711368601823500,8.334823486328125,-0.1260454417754896,-5.23904397829771,8.288964632391929
1775711368611837400,8.34483740234375,-0.10928263262091203,-5.198882063779235,8.314450371304154
1775711368621850400,8.354850341796874,-0.09442945647994055,-5.164838924401998,8.335821660634874
1775711368631864600,8.364864501953125,-0.08146606700778938,-5.138615518864989,8.352147357013822
1775711368641877500,8.37487744140625,-0.06764226588059682,-5.119003055900335,8.364304827797412
1775711368651890400,8.384890380859375,-0.05002973086177371,-5.103878552004694,8.373667114904523
1775711368661904600,8.394904541015626,-0.02766347567695193,-5.09215596550703,8.3809058339864
1775711368671917300,8.404917236328124,-0.0013233989428568748,-5.082727042904496,8.38667097338438
1775711368681931500,8.414931640625,0.02856505274273222,-5.074573547065258,8.391559914469719
1775711368691944400,8.4249443359375,0.06266541818294208,-5.066868964037299,8.396026830750703
1775711368701957400,8.434957275390625,0.10269482432897202,-5.057730548813939,8.40114256632924
1775711368711971600,8.4449716796875,0.146551857905183,-5.045577754205465,8.407797932565211
1775711368721984500,8.454984619140625,0.19072850622404366,-5.031034265068173,8.415621758058666
1775711368731998500,8.46499853515625,0.23163891928857192,-5.015968797883391,8.423584699761866
1775711368742011600,8.47501171875,0.26594702974492684,-5.001533445295691,8.43115250466764
1775711368752024300,8.4850244140625,0.29178611213946715,-4.988202839079499,8.438191317263245
1775711368762038500,8.49503857421875,0.30877854706514624,-4.975719205081463,8.444954820048808
1775711368772051500,8.505051513671875,0.3167677557207644,-4.963094116786122,8.452086571624875
1775711368782065400,8.5150654296875,0.3152094203628599,-4.948779760229587,8.460532912930846
1775711368792078600,8.52507861328125,0.3052191375505179,-4.931937346500158,8.47072755920887
1775711368802091300,8.53509130859375,0.29024748612903056,-4.912040221375227,8.482805535015464
1775711368812105500,8.54510546875,0.2733613976546563,-4.888095866686106,8.497185942545533
1775711368822118400,8.555118408203125,0.2552680522823706,-4.861448390518128,8.513021809580922
1775711368832132400,8.56513232421875,0.23602763750050215,-4.834238604292273,8.529056414058804
1775711368842145500,8.5751455078125,0.21709378618346525,-4.806898761945963,8.544996325990557
1775711368852158500,8.585158447265625,0.20079466728419065,-4.779980067621171,8.560480895370244
1775711368862172400,8.59517236328125,0.18816314924806354,-4.754649811531603,8.574864225509762
1775711368872185300,8.605185302734375,0.18032723145801574,-4.731816632954776,8.587651810890435
1775711368882199600,8.615199462890626,0.178944161335472,-4.7115895452231165,8.59879572071731
1775711368892212500,8.62521240234375,0.18306968030026183,-4.6948108443796635,8.607881528970598
1775711368902225400,8.635225341796875,0.18995054412148893,-4.682851526516676,8.614245803305506
1775711368912239600,8.645239501953125,0.1960151231237687,-4.677041378933191,8.617264274343848
1775711368922252500,8.65525244140625,0.1971446386103518,-4.678910095414519,8.616224994423986
1775711368932266500,8.6652666015625,0.19212463675756006,-4.687762387172877,8.611523684865237
1775711368942279400,8.675279541015625,0.18335571243371812,-4.700333991715311,8.604860719844698
1775711368952292400,8.685292236328126,0.17283842833889648,-4.7135021008461715,8.597872760653495
1775711368962306600,8.695306640625,0.16215481123384087,-4.725398582606017,8.591548233807087
1775711368972319500,8.705319580078125,0.15126712292404845,-4.734715277005732,8.586614869058131
1775711368982333400,8.71533349609375,0.13998390509118325,-4.740729714989662,8.583488261470198
1775711368992346600,8.7253466796875,0.12843506772522814,-4.74380050073713,8.581972011688352
1775711369002359300,8.735359375,0.11557206075447611,-4.744141569259763,8.581966166469455
1775711369012373500,8.74537353515625,0.09987682603248395,-4.741696806456148,8.583516318520903
1775711369022386400,8.755386474609375,0.07859793682610616,-4.736554475131631,8.586575121569632
1775711369032400400,8.765400390625,0.04980005942489951,-4.7292792234316465,8.590799461266398
1775711369042413600,8.77541357421875,0.014555769805196905,-4.720459664899111,8.595781341332197
1775711369052426200,8.78542626953125,-0.025578954170609357,-4.709673774729668,8.60166864580512
1775711369062440400,8.7954404296875,-0.06879689297555014,-4.696027818953991,8.608890413752198
1775711369072453400,8.805453369140626,-0.11061281264559365,-4.678113099817931,8.618202431976794
1775711369082467600,8.815467529296875,-0.14664178294464944,-4.65610935780257,8.629573720818758
1775711369092480500,8.82548046875,-0.17474002417651935,-4.631211940172315,8.64243787856698
1775711369102493400,8.835493408203124,-0.19478485067645088,-4.60533398707211,8.65582752149403
1775711369112507400,8.84550732421875,-0.21038057054672388,-4.582098072913289,8.667785670313238
1775711369122520300,8.855520263671876,-0.22642328526582567,-4.564643372504412,8.67658564736247
1775711369132534500,8.865534423828125,-0.24516183320647103,-4.55400098245889,8.681667480671406
1775711369142547500,8.87554736328125,-0.2662368612706661,-4.550154536163807,8.683063903465866
1775711369152560400,8.885560302734374,-0.28995042114490643,-4.554413070391118,8.680072320434451
1775711369162574600,8.89557470703125,-0.31983634951114653,-4.569302596487105,8.671192263886333
1775711369172587500,8.90558740234375,-0.35746132943052794,-4.594947617614269,8.656158945405483
1775711369182601500,8.9156015625,-0.4012229489414021,-4.627083169804513,8.637101193714141
1775711369192614700,8.92561474609375,-0.4449674711870029,-4.659450192663074,8.617536077022551
1775711369202627300,8.93562744140625,-0.4843878831557929,-4.687357605764269,8.600257025441527
1775711369212641500,8.9456416015625,-0.5197856154797599,-4.709440258234739,8.58611510284245
1775711369222654500,8.955654541015624,-0.5537624116225168,-4.7255818302184345,8.575115569922328
1775711369232668400,8.96566845703125,-0.5890863115252927,-4.736856380687653,8.566537126669287
1775711369242681600,8.975681640625,-0.626860636787489,-4.744576161284744,8.559581316182017
1775711369252694300,8.9856943359375,-0.6669148531477898,-4.7495662246569985,8.553785781645775
1775711369262708500,8.99570849609375,-0.7083943530708551,-4.753463232095539,8.548284846141934
1775711369272721400,9.005721435546874,-0.7493249138742685,-4.757760052506625,8.542401048800349
1775711369282735400,9.0157353515625,-0.7867143680047244,-4.762056872917712,8.536645261752605
1775711369292748500,9.02574853515625,-0.8185562710106372,-4.763419393442571,8.532889708611368
1775711369302761500,9.035761474609375,-0.8392414047081023,-4.756804651477933,8.534569040000438
1775711369312775400,9.045775390625,-0.8458586308907717,-4.740394491685927,8.543042269313334
1775711369322788400,9.055788330078125,-0.8387790478933602,-4.719139522211253,8.555498430782556
1775711369332802600,9.065802490234375,-0.8306027557004243,-4.704776942598819,8.56420196171999
1775711369342815500,9.0758154296875,-0.8384555880926549,-4.706072535367309,8.56272487490475
1775711369352828400,9.085828369140625,-0.864259599173814,-4.726928860913217,8.548660693717002
1775711369362842600,9.095842529296876,-0.9008603871446103,-4.7652407636508345,8.523574767777323
1775711369372855600,9.10585546875,-0.9393179088979959,-4.814539047566056,8.491658703556656
1775711369382869500,9.115869384765626,-0.9714321991045027,-4.869123747451603,8.4568515940696
1775711369392882400,9.12588232421875,-0.9884952698472886,-4.925321727752685,8.422260173159838
1775711369402895400,9.135895263671875,-0.985462551087886,-4.979222829288244,8.390863748899102
1775711369412909600,9.14590966796875,-0.9621926615942269,-5.028334358459711,8.36423468517065
1775711369422922500,9.155922607421875,-0.9270904416181146,-5.072205064368248,8.341680323535204
1775711369432935400,9.165935302734376,-0.889380815622583,-5.1098710704177615,8.322776885622739
1775711369442949600,9.17594970703125,-0.8564287594176828,-5.140073316457867,8.307621402066946
1775711369452962300,9.18596240234375,-0.8334493042379617,-5.1614866913646456,8.296674476116895
1775711369462976500,9.1959765625,-0.8214858216565102,-5.17281706367433,8.290808214432001
1775711369472989400,9.205989501953125,-0.8170378292717039,-5.173723657125234,8.290683711269498
1775711369483002400,9.21600244140625,-0.8153463690534234,-5.164583488336206,8.296547050344943
1775711369493016600,9.2260166015625,-0.8130385305024683,-5.145685895642638,8.308506368207931
1775711369503029200,9.236029296875,-0.8100231282040476,-5.118040348348021,8.325857900503276
1775711369513043500,9.24604345703125,-0.8059634775497019,-5.082675020456314,8.347887946003675
1775711369523056400,9.256056396484375,-0.7998507668230682,-5.039788649410009,8.374435176667571
1775711369533069300,9.2660693359375,-0.7891117114700377,-4.991306650313735,8.404435762655735
1775711369543083500,9.27608349609375,-0.7755098140317946,-4.941490187743306,8.435083998897671
1775711369553096400,9.286096435546876,-0.7649975531719625,-4.893845223993063,8.463772917765379
1775711369563110400,9.2961103515625,-0.7630936192467809,-4.8513484367862345,8.488374859580397
1775711369573123600,9.30612353515625,-0.7715955631975084,-4.816525252947211,8.507416244658828
1775711369583136800,9.31613671875,-0.7875174280159175,-4.790732932303846,8.520509534987807
1775711369593151000,9.32615087890625,-0.80429788242504,-4.773694119219481,8.52850170278549
1775711369603163600,9.33616357421875,-0.81658592078574,-4.7638794121697545,8.532820150506495
1775711369613177900,9.346177734375,-0.8200750050105154,-4.758933480200171,8.535246500870585
1775711369623190500,9.3561904296875,-0.8135955067981034,-4.756056171198189,8.537470022138953
1775711369633203700,9.36620361328125,-0.7994434281311928,-4.752173776806891,8.540967801126838
1775711369643218000,9.376218017578125,-0.7794025836866348,-4.746092995588481,8.546199272039532
1775711369653230600,9.386230712890624,-0.7578016503185033,-4.73815898771882,8.552543088108301
1775711369663244800,9.396244873046875,-0.7405539437238127,-4.728026593022048,8.559657888549566
1775711369673257700,9.4062578125,-0.7295221890345215,-4.71449169640541,8.568064482367038
1775711369683270700,9.416270751953125,-0.7271201693940907,-4.69849216324091,8.577052090942859
1775711369693284900,9.426284912109375,-0.7385102360017597,-4.682362281695008,8.584896374702453
1775711369703297800,9.4362978515625,-0.7627092230390757,-4.668825631512701,8.590152980056404
1775711369713310700,9.446310791015625,-0.7943488084059208,-4.660271153657138,8.591930511122941
1775711369723324700,9.45632470703125,-0.8278815140429884,-4.657703348995745,8.590157071709632
1775711369733337600,9.466337646484375,-0.8618195125453174,-4.661029278548061,8.58501444812417
1775711369743351800,9.476351806640626,-0.8939166324213147,-4.668763672192394,8.577525553673505
1775711369753364700,9.48636474609375,-0.9200240834284573,-4.678126543821394,8.569660811647772
1775711369763377700,9.496377685546875,-0.9378095501616597,-4.687104215525091,8.562824243625998
1775711369773391600,9.5063916015625,-0.9505994005646556,-4.695071541142464,8.557047413790226
1775711369783404800,9.51640478515625,-0.9622139966432005,-4.7024826941818,8.551677411189674
1775711369793418800,9.526418701171876,-0.9764016580801457,-4.70979155589044,8.546044958260655
1775711369803431700,9.536431640625,-0.9954544413354247,-4.716252276337147,8.540282741472124
1775711369813444900,9.54644482421875,-1.018951344517991,-4.720207151442766,8.535324242281913
1775711369823458600,9.55645849609375,-1.0435366274591535,-4.721550675006211,8.531610190194845
1775711369833471700,9.5664716796875,-1.0673673657059668,-4.7217514582753175,8.528550802624226
1775711369843486000,9.57648583984375,-1.0894573977652937,-4.7226364244163035,8.525265789604186
1775711369853498600,9.58649853515625,-1.1094649244621395,-4.725381339210272,8.521164199504256
1775711369863511800,9.59651171875,-1.1283315374955534,-4.729840948967635,8.51621271457672
1775711369873525800,9.60652587890625,-1.1451020550325512,-4.734376546570658,8.511452368307113
1775711369883538700,9.61653857421875,-1.1599034644536674,-4.739718784381449,8.506472241806984
1775711369893553000,9.626552978515624,-1.1768680432580412,-4.749310788591206,8.498788701567053
1775711369903565600,9.636565673828125,-1.1984520985566078,-4.7641959307730195,8.487433779338001
1775711369913578800,9.646578857421876,-1.2255137815486639,-4.784404021543264,8.472188863933086
1775711369923592700,9.6565927734375,-1.2519805673874913,-4.808806933654845,8.45448311137259
1775711369933605600,9.666605712890625,-1.2724499394424258,-4.834797114957869,8.436587389197944
1775711369943618800,9.676618896484374,-1.2870619637712835,-4.8615123956650494,8.418999710059165
1775711369953632800,9.6866328125,-1.2966688732892273,-4.890025373443961,8.40099409776926
1775711369963645700,9.696645751953126,-1.3024923187457025,-4.9212283209592105,8.381851005882025
1775711369973659600,9.70665966796875,-1.3060071949988603,-4.9557203731477255,8.360954348325729
1775711369983672800,9.7166728515625,-1.308376554478705,-4.993240833246707,8.338229890820383
1775711369993685800,9.726685791015624,-1.311281920531392,-5.031982944095135,8.314449202260375
1775711370003699700,9.73669970703125,-1.31743562085554,-5.071190918889641,8.289619296908379
1775711370013712600,9.746712646484376,-1.32751117079854,-5.109429756391048,8.26449128539264
1775711370023726600,9.7567265625,-1.3393828103780745,-5.142657487732172,8.241935170191526
1775711370033739800,9.76673974609375,-1.3514698462739585,-5.169792162895202,8.222965096783637
1775711370043752700,9.776752685546874,-1.3633438239410518,-5.192472196736931,8.206699021637439
1775711370053766700,9.7867666015625,-1.3776554040186106,-5.2111897566884755,8.192434349441529
1775711370063779800,9.79677978515625,-1.393450208391249,-5.226849682635069,8.179774189832806
1775711370073793500,9.80679345703125,-1.4100699192807078,-5.241275098350644,8.167688615241646
1775711370083806700,9.816806640625,-1.4261971704781056,-5.2561085103452205,8.155347020062804
1775711370093820000,9.82681982421875,-1.437880594009161,-5.2705339260607955,8.14397690026462
1775711370103833600,9.83683349609375,-1.4454483989149332,-5.284685201010108,8.13346076694727
1775711370113846800,9.8468466796875,-1.4481754857912659,-5.300004935216903,8.122998994165659
1775711370123859700,9.856859619140625,-1.447113263387233,-5.318189411205053,8.111295696890354
1775711370133873700,9.866873779296874,-1.4460646311171352,-5.340932573410869,8.096525997781754
1775711370143886800,9.876886962890625,-1.4445831603877246,-5.36752481226027,8.079184402358532
1775711370153900800,9.88690087890625,-1.4414464697971938,-5.396081044659018,8.060701820206642
1775711370163913700,9.896913818359375,-1.4367531974144279,-5.425834377887845,8.041544699794054
1775711370173927000,9.906927001953125,-1.429973912537843,-5.4564960581332445,8.021981921190022
1775711370183940600,9.916940673828124,-1.4234896650850772,-5.487978407111764,8.001635298731923
1775711370193953800,9.926953857421875,-1.4190332701981068,-5.519706839805841,7.980575559568405
1775711370203967700,9.9369677734375,-1.4147510628342628,-5.550521080264449,7.959937260687351
1775711370213980700,9.946980712890625,-1.4098608065746723,-5.57793398784697,7.941621851795912
1775711370223993900,9.956993896484375,-1.4059174757763742,-5.602129102426767,7.925272190019488
1775711370234007800,9.9670078125,-1.4004396288871763,-5.623880915507674,7.9108216398626565
1775711370244020700,9.977020751953125,-1.3915616181656718,-5.643253724497557,7.898584674102067
1775711370254034000,9.987033935546876,-1.377984782103449,-5.661129572927951,7.888166740462183
1775711370264047900,9.9970478515625,-1.3586759782604871,-5.676930953171849,7.880155283442139
1775711370274060800,10.007060791015626,-1.3325941731512545,-5.689814400142431,7.8753148576736445
1775711370284074800,10.01707470703125,-1.300786976132542,-5.701985899451374,7.871828769123554
1775711370294087700,10.027087646484375,-1.2649955317832529,-5.717153073444962,7.866660426574945
1775711370304100900,10.037100830078124,-1.228150925119221,-5.736620574980974,7.858321052774786
1775711370314114800,10.04711474609375,-1.193105622962117,-5.760119523990154,7.846522478431463
1775711370324127700,10.057127685546876,-1.1578078073486686,-5.7850727634608745,7.833440294018387
1775711370334141700,10.0671416015625,-1.121887914314121,-5.807583285954594,7.82200295420289
1775711370344155000,10.07715478515625,-1.0832496291663498,-5.826329487478732,7.813505174970627
1775711370354167800,10.087167724609374,-1.0387823456041514,-5.838921842548251,7.810142420539259
1775711370364181800,10.097181640625,-0.9894301395446061,-5.846417166739702,7.81094380005002
1775711370374195000,10.10719482421875,-0.9358919530373067,-5.8521402205616235,7.81325499960184
1775711370384208600,10.117208740234375,-0.879929461992532,-5.858445458185672,7.815032530668377
1775711370394221800,10.127221923828126,-0.8241832440469413,-5.866624672988057,7.8149734939575195
1775711370404234800,10.13723486328125,-0.7755009731382131,-5.87663344130516,7.812437838000059
1775711370414248700,10.147248779296875,-0.7413559808216988,-5.89024870968163,7.8054943024724714
1775711370424262000,10.157261962890624,-0.724125882948935,-5.908989065986871,7.792937603238225
1775711370434274600,10.167274658203125,-0.7248908759720623,-5.930463231170177,7.776537088057398
1775711370444288800,10.177288818359376,-0.7388064424693584,-5.95328471930921,7.7577675056576725
1775711370454302000,10.187302001953125,-0.7569368501827121,-5.97379968407154,7.740228341835737
1775711370464315600,10.197315673828125,-0.7730532146599143,-5.9888487846434115,7.726995935297012
1775711370474328800,10.207328857421874,-0.7851680884107947,-5.999311726468801,7.717652937412262
1775711370484341800,10.217341796875,-0.7916906951125711,-6.00567424723804,7.712035097530483
1775711370494355700,10.227355712890626,-0.7938231040313839,-6.008232699549198,7.709823266699909
1775711370504369000,10.237368896484375,-0.7915935183484106,-6.008108780908584,7.710150014436245
1775711370514381600,10.247381591796875,-0.786926695581153,-6.008920097291469,7.709995700657367
1775711370524395800,10.257395751953124,-0.7862426588397473,-6.014171441948413,7.705967175793647
1775711370534408700,10.26740869140625,-0.7915566204041242,-6.024781683290004,7.697129789343476
1775711370544423000,10.2774228515625,-0.8013789993036537,-6.040756666535139,7.683581156462431
1775711370554435800,10.287435791015625,-0.8162544238090514,-6.061201488670706,7.665895862168073
1775711370564448800,10.29744873046875,-0.8359813799988478,-6.08350099876225,7.646080570107698
1775711370574462000,10.3074619140625,-0.8589297824531793,-6.104428635978699,7.626832848802208
1775711370584475000,10.317474853515625,-0.8808826710641383,-6.119347972691059,7.6123583332479
1775711370594488800,10.32748876953125,-0.8951656826343387,-6.1233250596284865,7.607493357560038
1775711370604501800,10.337501708984375,-0.9021374944083392,-6.113050918373466,7.61493081408441
1775711370614515000,10.347514892578126,-0.9058405867099761,-6.090014326179027,7.632926489502191
1775711370624529000,10.35752880859375,-0.9077675361845642,-6.059247431993484,7.657144984957576
1775711370634541800,10.367541748046875,-0.9099833125378936,-6.02492079949975,7.683921348202228
1775711370644554800,10.3775546875,-0.9151903796616941,-5.992014555197954,7.708994414660334
1775711370654569000,10.38756884765625,-0.9257703719954937,-5.965154605323076,7.728536150476336
1775711370664582000,10.397581787109376,-0.9420181808326393,-5.946694235002994,7.740790067371726
1775711370674595800,10.407595947265625,-0.9585144845381378,-5.937668047982454,7.745690698894858
1775711370684609000,10.417609130859375,-0.9711739865597336,-5.937139640194177,7.744519317027926
1775711370694621700,10.42762158203125,-0.9771328949641436,-5.941825752183795,7.7401751503437755
1775711370704636000,10.437635986328125,-0.9744554924484342,-5.947749881535768,7.735961916562914
1775711370714648800,10.44764892578125,-0.9618743894252926,-5.94951864477396,7.73617643609643
1775711370724661800,10.457661865234375,-0.9422507474794983,-5.942172958186268,7.744234070345759
1775711370734676000,10.467676025390626,-0.9150988289207219,-5.92338934726119,7.761857989841699
1775711370744688600,10.477688720703124,-0.8801926429733633,-5.892618361422419,7.789269728380441
1775711370754702800,10.487702880859375,-0.8406282559566199,-5.852457031425834,7.823840691024064
1775711370764716000,10.497716064453124,-0.7979590347923338,-5.806973629623651,7.862104662966728
1775711370774728700,10.507728759765625,-0.7588184261456131,-5.759041665625572,7.901140203803777
1775711370784743000,10.517742919921876,-0.7340030607756227,-5.711631679674983,7.937814860728382
1775711370794755800,10.527755859375,-0.7269422555439173,-5.665844911012053,7.971207427242398
1775711370804769800,10.537769775390625,-0.7300975777696818,-5.621246475350857,8.002432002067566
1775711370814783000,10.547782958984374,-0.7347589937094599,-5.577221455663442,8.03275115248561
1775711370824795600,10.557795654296875,-0.7353574710592627,-5.532938077300787,8.063263779649137
1775711370834809900,10.567809814453126,-0.7274122842084616,-5.488905458828807,8.094022490528225
1775711370844822800,10.57782275390625,-0.7092269314374774,-5.446593672800064,8.124162777248024
1775711370854835700,10.587835693359375,-0.6830126590549945,-5.407800708547234,8.15227477301061
1775711370864850000,10.597849853515624,-0.6566693534653634,-5.374486467966437,8.176434816277027
1775711370874862800,10.60786279296875,-0.6404347694359719,-5.347909426686168,8.195127241787313
1775711370884876800,10.617876708984374,-0.6381193321004509,-5.328740615835786,8.207784478786587
1775711370894889700,10.6278896484375,-0.6489090216621756,-5.317688475945592,8.214103744935988
1775711370904903000,10.63790283203125,-0.6682538466665894,-5.313230912014841,8.215436454844474
1775711370914916900,10.647916748046875,-0.6867023073531687,-5.310580105245113,8.215627593502402
1775711370924929800,10.6579296875,-0.6988190808001905,-5.3044911407202475,8.21854026607871
1775711370934942700,10.667942626953124,-0.7057724801346659,-5.294782816654443,8.224206036755442
1775711370944956700,10.677956787109375,-0.710469551909715,-5.283143232265115,8.231282843273878
1775711370954969900,10.687969970703126,-0.7143291499473154,-5.271145920479297,8.238638466733693
1775711370964984000,10.697984130859375,-0.7171309825602918,-5.26192801027894,8.244284363666177
1775711370974996700,10.707996826171875,-0.7173807195376605,-5.256413630771637,8.247780973610281
1775711370985010000,10.718010009765624,-0.7145804212946444,-5.2544736026197665,8.249259229469299
1775711370995023600,10.728023681640625,-0.7086454052224754,-5.255488917142152,8.249124204912782
1775711371005036800,10.738036865234376,-0.6992586412612348,-5.2575703995913265,8.248596966168284
1775711371015050000,10.748050048828125,-0.6850464299049228,-5.257386275196075,8.24990921781063
1775711371025063700,10.758063720703126,-0.6666043258938938,-5.252268201529979,8.254679500952362
1775711371035076900,10.768076904296874,-0.6470881629105657,-5.243406849682331,8.261862105932831
1775711371045090800,10.7780908203125,-0.6280134600844234,-5.234405212581158,8.269038281172513
1775711371055103700,10.788103759765624,-0.6157249833323061,-5.226461560100317,8.274985206878185
1775711371065117000,10.798116943359375,-0.6157808051727712,-5.218382298541068,8.280076977059245
1775711371075131000,10.808130859375,-0.6285485168091952,-5.209964598807693,8.284418221133947
1775711371085143800,10.818143798828125,-0.6495313182789832,-5.202649891880155,8.28739519111812
1775711371095157000,10.828156982421875,-0.6735948423683643,-5.197496162378788,8.288707442760467
1775711371105170700,10.838170654296874,-0.6994187271937727,-5.194776382026076,8.28827548108399
1775711371115183900,10.848183837890625,-0.7258049951422959,-5.19387329570651,8.286573353341222
1775711371125197800,10.85819775390625,-0.7525480406392365,-5.193875633794069,8.284184412378073
1775711371135210800,10.868210693359375,-0.7802254443768412,-5.194394104710221,8.281299796852469
1775711371145224000,10.878223876953125,-0.808810245282948,-5.193718981927633,8.278979829472302
1775711371155238000,10.88823779296875,-0.8347774110365659,-5.189608039477467,8.278979244950413
1775711371165250800,10.898250732421875,-0.8546019093167037,-5.180397728061676,8.282724276697635
1775711371175264000,10.908263916015626,-0.8666555543996394,-5.165926135116815,8.290507185658813
1775711371185278000,10.91827783203125,-0.8723836497228592,-5.14827415857017,8.3008795265913
1775711371195291000,10.928290771484376,-0.8755333459254354,-5.130561976268887,8.311507303589583
1775711371205304800,10.938304931640625,-0.8815154890749602,-5.1160903833240265,8.31979290137589
1775711371215317800,10.94831787109375,-0.8926134408682584,-5.106182152771949,8.324694117420911
1775711371225331000,10.9583310546875,-0.9056327161129564,-5.10021418427825,8.326946864783764
1775711371235345000,10.968344970703125,-0.9182860806547105,-5.09683798584342,8.327627248263358
1775711371245357800,10.97835791015625,-0.9295620193634182,-5.091936185276508,8.329374968713521
1775711371255370800,10.988370849609375,-0.9364289825234562,-5.081947875225544,8.334704639303684
1775711371265385000,10.998385009765625,-0.9378986897498368,-5.0669361840546125,8.343674127700924
1775711371275398000,11.00839794921875,-0.9342577028989791,-5.049737796494364,8.354501811185479
1775711371285411800,11.018411865234375,-0.9279946239162236,-5.0340691027194255,8.364649695712327
1775711371295425000,11.028425048828124,-0.923102541025728,-5.023670458301901,8.371438917461036
1775711371305437700,11.038437744140625,-0.9252689252793789,-5.02029776699841,8.373224631834029
1775711371315452000,11.048451904296876,-0.9357248528420925,-5.021942027074099,8.371075344845652
1775711371325464800,11.05846484375,-0.9489489299438894,-5.024284206286072,8.368180792447925
1775711371335477800,11.068477783203125,-0.9610320933822541,-5.02464427177012,8.36658680125475
1775711371345492000,11.078491943359374,-0.9694392717216164,-5.022475111037492,8.36691880968809
1775711371355504600,11.088504638671875,-0.9711828274533152,-5.017963186571002,8.369424070507288
1775711371365518800,11.098518798828126,-0.9630963324356824,-5.010875858658552,8.374600596362352
1775711371375532000,11.108531982421875,-0.9464265718594193,-5.002740482997894,8.381361761060356
1775711371385544700,11.118544677734375,-0.9249559138074517,-4.995291920557618,8.38820066716969
1775711371395559000,11.128558837890624,-0.9003731150843203,-4.988583362829685,8.394864216712117
1775711371405571800,11.13857177734375,-0.8739175812918692,-4.982983643126487,8.400982407331465
1775711371415584800,11.148584716796876,-0.8479558954309672,-4.978779177173972,8.406135552310943
1775711371425599000,11.158598876953125,-0.8270126953192055,-4.9761090811818836,8.409801089081167
1775711371435611600,11.168611572265625,-0.8163394717440009,-4.975554954430461,8.411171792912482
1775711371445625900,11.1786259765625,-0.8184775066860019,-4.978116329351067,8.409449206903576
1775711371455638800,11.188638671875,-0.828919697984308,-4.983953949463367,8.404968262097238
1775711371465651700,11.198651611328126,-0.8385210545442998,-4.991585467255115,8.399486031293868
1775711371475666000,11.208666015625,-0.8431435267131775,-4.999793323630095,8.394139409568906
1775711371485678800,11.218678955078126,-0.8436653586301952,-5.007805365172028,8.389310089716314
1775711371495691800,11.22869189453125,-0.8436980918560176,-5.0157496021747585,8.384559095796941
1775711371505705700,11.238705810546875,-0.848994517763704,-5.02270365909636,8.379860708847641
1775711371515719000,11.248718994140624,-0.8634718097969889,-5.029009481242299,8.374597089231013
1775711371525732900,11.25873291015625,-0.8891383851688355,-5.034686357834935,8.368498187834025
1775711371535745800,11.268745849609376,-0.923594343130663,-5.039176654991508,8.362062017306686
1775711371545758700,11.2787587890625,-0.9607860096666961,-5.04264111623168,8.355780160558224
1775711371555772700,11.288772705078125,-0.9967579251494258,-5.0451796947985885,8.350031972295046
1775711371565786000,11.2987861328125,-1.0273690442513674,-5.0462429401159286,8.345676699694991
1775711371575799300,11.30879931640625,-1.0497504604727028,-5.045485984268784,8.343350302574038
1775711371585813000,11.31881298828125,-1.0652565110318362,-5.04416905645132,8.342180674272775
1775711371595826200,11.328826171875,-1.0743631428774445,-5.043225638121366,8.341583877423405
1775711371605840100,11.338840087890626,-1.0777701748419553,-5.041562673345208,8.342148525568842
1775711371615853000,11.34885302734375,-1.0760371405042708,-5.038134452462196,8.344443358507752
1775711371625866200,11.3588662109375,-1.0710300529319792,-5.0330847678571935,8.348132860675454
1775711371635880200,11.368880126953124,-1.0655048597697168,-5.026256383141875,8.3529534126997
1775711371645893000,11.37889306640625,-1.06079405173026,-5.016950210136175,8.359145253077148
1775711371655906300,11.38890625,-1.059446874905005,-5.003766903436183,8.367212824198603
1775711371665920000,11.398919921875,-1.0605234180953353,-4.984502815517783,8.378568330949545
1775711371675933200,11.40893310546875,-1.0594077850036323,-4.957742818886041,8.394570786723493
1775711371685946000,11.418946044921874,-1.0527482540491968,-4.9244449449181555,8.414982875633239
1775711371695960000,11.4289599609375,-1.0390648888725786,-4.886490477316081,8.438775254631041
1775711371705973200,11.43897314453125,-1.0172073503948746,-4.844726388297975,8.465476799073814
1775711371715987200,11.4489873046875,-0.9857046892806887,-4.797723521843552,8.495918114566802
1775711371726000000,11.459000244140626,-0.9489364357884973,-4.7464749806433915,8.528826696956157
1775711371736013000,11.469012939453124,-0.9134752463068813,-4.6944142462775105,8.561450032663345
1775711371746027300,11.47902734375,-0.8833850823391228,-4.643319726595283,8.59241624881327
1775711371756040200,11.489040283203124,-0.8610659907642751,-4.593348365724086,8.62149212117195
1775711371766053000,11.49905322265625,-0.841925163899362,-4.544541080196201,8.649203134918212
1775711371776067000,11.509067138671876,-0.820079388924688,-4.496928557410836,8.676144917857647
1775711371786080000,11.519080078125,-0.7937215433530509,-4.449658564452827,8.702927710843086
1775711371796094200,11.52909423828125,-0.7622896824527532,-4.402856773528456,8.729498322382568
1775711371806107100,11.539107177734374,-0.7277787063680589,-4.357601335263252,8.755114409676194
1775711371816120000,11.5491201171875,-0.6919747678633779,-4.3153760584741825,8.77890035893321
1775711371826134300,11.55913427734375,-0.656444312537834,-4.278485128450393,8.79965965384543
1775711371836147000,11.56914697265625,-0.6238464035328477,-4.24762587980628,8.81696383986771
1775711371846160100,11.57916015625,-0.5956789512559771,-4.222621786931157,8.830912285721302
1775711371856174300,11.58917431640625,-0.5746283452469855,-4.2036794783130285,8.84133898718953
1775711371866187000,11.59918701171875,-0.5607175279900432,-4.190568360066414,8.848453203108907
1775711371876200200,11.6092001953125,-0.5497884299576282,-4.181785334151983,8.853292459833622
1775711371886214100,11.619214111328125,-0.5368930368209257,-4.1753666992813345,8.857111725860834
1775711371896227000,11.62922705078125,-0.518916139168851,-4.169751197487115,8.86082986960113
1775711371906241300,11.6392412109375,-0.49587121753748503,-4.163762478466332,8.864963023883103
1775711371916254000,11.64925390625,-0.4727627656832337,-4.158279078619182,8.868798656523227
1775711371926267100,11.65926708984375,-0.45282099769897755,-4.154353721868992,8.871679180395603
1775711371936281000,11.669281005859375,-0.4374637810260057,-4.1518814865365625,8.873606933587789
1775711371946294000,11.6792939453125,-0.42753406929448245,-4.151427020767331,8.874301345592738
1775711371956307200,11.68930712890625,-0.42420645924173295,-4.153986642122269,8.873263819238543
1775711371966321200,11.699321044921875,-0.4284194738268852,-4.16044648578614,8.870036673885583
1775711371976334000,11.709333984375,-0.4373630971305072,-4.169915448138117,8.865151239931583
1775711371986348000,11.71934814453125,-0.44629696622509507,-4.1800300149172545,8.859941396328807
1775711371996361000,11.72936083984375,-0.4534112552097067,-4.190338350702822,8.854709925416111
1775711372006374100,11.7393740234375,-0.46030645808354015,-4.201278262390196,8.849168657901883
1775711372016388000,11.74938818359375,-0.46961369053516533,-4.21423302103132,8.842517383319139
1775711372026401000,11.759401123046874,-0.4816651436610147,-4.230689942574501,8.834006160083412
1775711372036414200,11.769414306640625,-0.49604971590954805,-4.250791942621767,8.823554324173926
1775711372046428200,11.77942822265625,-0.5098397197984159,-4.27240347044915,8.812323320585488
1775711372056441000,11.789441162109375,-0.5235522380042821,-4.293884942156076,8.801070689687132
1775711372066454300,11.799454345703126,-0.5379705298593267,-4.315072691613436,8.789832087314128
1775711372076468200,11.80946826171875,-0.5543871559247374,-4.336228000105917,8.778390655845403
1775711372086481200,11.819481201171875,-0.5744170040512457,-4.357573278212547,8.766527199572325
1775711372096495000,11.8294951171875,-0.5963198064427823,-4.378334326690435,8.75471050505042
1775711372106508000,11.839508056640625,-0.6185029236130416,-4.399122555436194,8.742743003880976
1775711372116521200,11.849521240234376,-0.6383702381215989,-4.420834621028602,8.73035406242907
1775711372126535200,11.85953515625,-0.652937035069242,-4.442524182528257,8.718258550965786
1775711372136548000,11.869548095703125,-0.6626862026020884,-4.464620863524079,8.706226167866587
1775711372146561000,11.87956103515625,-0.6695959089253097,-4.488485723236203,8.693416955175996
1775711372156575200,11.8895751953125,-0.6763220023099332,-4.514468890276551,8.679432853487134
1775711372166588200,11.899588134765626,-0.6850356162499636,-4.542293009008467,8.664218917742371
1775711372176601000,11.90960107421875,-0.695249551750347,-4.570040847633779,8.648799814814328
1775711372186615300,11.919615234375,-0.7059674912501126,-4.594737481994927,8.634833833304047
1775711372196628000,11.9296279296875,-0.7200229046095162,-4.615536816656589,8.622572902145981
1775711372206642200,11.93964208984375,-0.7360862237252295,-4.632501687721907,8.61211229840815
1775711372216655000,11.949655029296874,-0.7528258346673101,-4.644991751460731,8.603933083605765
1775711372226668000,11.95966796875,-0.7705554064948111,-4.6539027876690024,8.59754718196094
1775711372236682200,11.96968212890625,-0.7874936087489127,-4.661361286981403,8.59197201217711
1775711372246695200,11.979695068359375,-0.8005239899095148,-4.669338841731846,8.586433082750439
1775711372256708000,11.9897080078125,-0.8082415785495192,-4.6798722184449435,8.579972946825624
1775711372266722300,11.999722412109374,-0.8099773893661797,-4.6942231076195835,8.571965581458807
1775711372276735000,12.00973486328125,-0.808111230168119,-4.713603807654977,8.561500301545857
1775711372286748200,12.019748046875,-0.8046814018499105,-4.738551494167745,8.548042269557714
1775711372296762000,12.02976220703125,-0.8019779881101101,-4.767585280950367,8.532136259895562
1775711372306775000,12.039775146484375,-0.8012848912794143,-4.797042553842068,8.51567320087254
1775711372316789200,12.049789306640625,-0.8034632582318038,-4.8225513813689345,8.501050216758252
1775711372326802000,12.059802001953125,-0.8098202991083264,-4.84140718074739,8.489720428970456
1775711372336815000,12.069815185546876,-0.820184748995304,-4.8533051238119596,8.481928167659044
1775711372346829000,12.0798291015625,-0.8347039074089377,-4.85995318352431,8.476704880052804
1775711372356842000,12.089842041015626,-0.8537140205662697,-4.864266955070197,8.472336747971177
1775711372366855200,12.099855224609374,-0.8768563381575047,-4.869222823911905,8.467123397237062
1775711372376869000,12.109869140625,-0.8989658055696635,-4.876696228532492,8.460503102314473
1775711372386882000,12.119882080078124,-0.9168444304790347,-4.88758324098885,8.452297584027052
1775711372396895200,12.129895263671875,-0.9306771409984678,-4.903251934763789,8.441701955732702
1775711372406909200,12.1399091796875,-0.9421484561488032,-4.924483523362874,8.428060968393087
1775711372416922000,12.149922119140625,-0.9536311694759875,-4.950580672171712,8.411464053857326
1775711372426935300,12.159935302734375,-0.9669411712955683,-4.978962132525444,8.393173194885254
1775711372436949000,12.169948974609374,-0.9826718974560499,-5.005021287411451,8.375828676852583
1775711372446962200,12.179962158203125,-1.0020946100022643,-5.026000947076082,8.360950841194391
1775711372456976100,12.18997607421875,-1.0238770374171435,-5.042552853426337,8.348337443336844
1775711372466989000,12.199989013671875,-1.0473274711094795,-5.055853649026155,8.337377073383331
1775711372477002200,12.210002197265625,-1.0719177224867045,-5.068384629297256,8.32663531461656
1775711372487016200,12.22001611328125,-1.0963042679853736,-5.081114347010851,8.315695402929187
1775711372497029000,12.230029052734375,-1.1201841791361569,-5.0943976069539785,8.304376136535405
1775711372507042000,12.2400419921875,-1.143392986092344,-5.109909648862481,8.291673891350626
1775711372517056300,12.25005615234375,-1.1680550605967641,-5.127312034562229,8.277481699869035
1775711372527069200,12.260069091796876,-1.1942972438994794,-5.144416314098239,8.263111813732982
1775711372537082000,12.27008203125,-1.2159705118514597,-5.156189754000306,8.252607370853424
1775711372547096000,12.280095947265625,-1.232677462632954,-5.159513345465064,8.248049269157647
1775711372557109000,12.29010888671875,-1.2461924855053423,-5.158978507936,8.246352986633777
1775711372567123700,12.300123779296875,-1.2602502369523048,-5.160506448155641,8.243259696793556
1775711372577136600,12.31013671875,-1.2766625887013971,-5.167465765774249,8.23637052180171
1775711372587149600,12.320149658203125,-1.2910232686176895,-5.176421810168027,8.228505779775977
1775711372597163800,12.330163818359376,-1.305538554573804,-5.187205069988965,8.21941880247891
1775711372607176400,12.340176513671874,-1.3204187283195554,-5.205615171426534,8.20539144617021
1775711372617189600,12.350189697265625,-1.334795044196397,-5.235438647282123,8.184063995981216
1775711372627203600,12.36020361328125,-1.3482728037983178,-5.277139607936143,8.155021441370248
1775711372637216500,12.370216552734375,-1.3558178123503923,-5.325210688143969,8.12245480428636
1775711372647229700,12.380229736328126,-1.3555595998056231,-5.372166500586271,8.091517814230919
1775711372657243400,12.390243408203125,-1.3479846345067024,-5.412656331884861,8.0657596881181
1775711372667256600,12.400256591796875,-1.334019091387838,-5.4410290244102475,8.04897397301197
1775711372677270500,12.4102705078125,-1.3170615268461405,-5.460559069788456,8.038533827540277
1775711372687283500,12.420283447265625,-1.3003120520971714,-5.47565668567717,8.030987065422535
1775711372697296600,12.430296630859376,-1.2864734963588416,-5.485625706505775,8.026411428070068
1775711372707310600,12.440310546875,-1.2794532423332332,-5.495166857311129,8.021004600590468
1775711372717323500,12.450323486328125,-1.279984426600486,-5.5080315995812414,8.012091226294636
1775711372727336700,12.460336669921874,-1.286748513907939,-5.526171651905774,7.99850693757832
1775711372737350400,12.470350341796875,-1.2958347605526446,-5.552379275351762,7.978865248519182
1775711372747363600,12.480363525390626,-1.3000123384982347,-5.5852457721650595,7.955211401209235
1775711372757376800,12.490376708984375,-1.2949727368958293,-5.621489051935076,7.930464497965573
1775711372767390500,12.500390380859375,-1.2775725431531666,-5.658770442581177,7.906737000897526
1775711372777403600,12.510403564453124,-1.250543520321697,-5.694282485467195,7.885534638392925
1775711372787416600,12.52041650390625,-1.2172310333065688,-5.7238820894390345,7.86930012742877
1775711372797430500,12.530430419921874,-1.1800916084144264,-5.745279097732901,7.859360332694649
1775711372807443700,12.540443603515625,-1.142204945351556,-5.755384312161803,7.857564096927643
1775711372817457700,12.550457763671876,-1.1086756737805903,-5.751298504152894,7.8653540201514955
1775711372827470600,12.560470703125,-1.086084341135621,-5.733672831091284,7.881359398534894
1775711372837483500,12.5704833984375,-1.073453846012801,-5.702370514854788,7.905761433863639
1775711372847497500,12.58049755859375,-1.0649284481212495,-5.6559156376719475,7.940210815954208
1775711372857510700,12.5905107421875,-1.0582106841735541,-5.596597771784663,7.983024706286192
1775711372867523600,12.600523681640626,-1.0518064431544392,-5.53102844428718,8.029433990761637
1775711372877537500,12.61053759765625,-1.0425776462338865,-5.46512067861557,8.075636354488134
1775711372887550700,12.62055078125,-1.029696172024682,-5.401763766470551,8.119794060644507
1775711372897563600,12.630563720703124,-1.010133539551124,-5.340080340495705,8.162937036800384
1775711372907577600,12.64057763671875,-0.9838100346405059,-5.280706360507011,8.204672484245895
1775711372917590500,12.650590576171876,-0.9503493713263421,-5.225834368112683,8.243658340722321
1775711372927603500,12.660603515625,-0.9098826286423951,-5.1761681276679035,8.279480180209875
1775711372937617700,12.67061767578125,-0.8656091140866279,-5.1329403958380215,8.311078849044442
1775711372947630600,12.680630615234374,-0.8192733332388102,-5.097497326534986,8.33754658473134
1775711372957644500,12.69064453125,-0.7719345858935266,-5.069568870645761,8.359066342622041
1775711372967657500,12.700657470703124,-0.7244972004793584,-5.0462353413313625,8.377410977607965
1775711372977670700,12.710670654296875,-0.6798434544343501,-5.023498024344444,8.394799919304251
1775711372987684600,12.7206845703125,-0.6352526906229555,-4.998054371008276,8.413460196110606
1775711372997697500,12.730697509765625,-0.5882570576269179,-4.96992308602333,8.433515142145753
1775711373007710700,12.740710693359375,-0.5411354601636529,-4.9411383055657145,8.453561904874444
1775711373017724400,12.750724365234374,-0.5010788691831752,-4.9135979722112415,8.472064360770583
1775711373027737600,12.760737548828125,-0.47027843805421143,-4.889966628994047,8.487486970829963
1775711373037750500,12.77075048828125,-0.4456807705555111,-4.8724014539480205,8.498909697598219
1775711373047764500,12.780764404296875,-0.42801330417878924,-4.8631613319158555,8.505107383194565
1775711373057777700,12.790777587890625,-0.41323922115601597,-4.861733637200295,8.506654612636567
1775711373067790600,12.80079052734375,-0.39276773020923134,-4.8619727066531775,8.507488140851258
1775711373077804500,12.810804443359375,-0.36708793002963064,-4.8591886288926,8.510224872338771
1775711373087817700,12.820817626953126,-0.33405323704257606,-4.851969199033081,8.515701257923245
1775711373097830700,12.83083056640625,-0.29276376153258604,-4.838177697306871,8.525062375986575
1775711373107844600,12.8408447265625,-0.24906331589072941,-4.817238954174519,8.538298874178528
1775711373117857800,12.85085791015625,-0.20799935623230412,-4.79179646988213,8.553701025971769
