time,seconds_elapsed,z,y,x
1775711360323203600,0.05620361328125,-0.1514502465724945,-0.6077312231063843,0.0033832797780632973
1775711360333217300,0.06621728515625,-0.12275814265012741,-0.7585005164146423,-0.00043888893560506403
1775711360343230500,0.07623046875,-0.02413489669561386,-0.8652077913284302,0.053893592208623886
1775711360353244400,0.086244384765625,0.09588950872421265,-0.9924336075782776,0.14060531556606293
1775711360363257300,0.09625732421875,0.12225586920976639,-1.2011711597442627,0.2552141845226288
1775711360373271600,0.106271484375,0.04694460704922676,-1.4054933786392212,0.3388531506061554
1775711360383284500,0.116284423828125,-0.11208365857601166,-1.4325854778289795,0.37594035267829895
1775711360393298400,0.12629833984375,-0.3270247280597687,-1.4665495157241821,0.37289953231811523
1775711360403311600,0.1363115234375,-0.48455363512039185,-1.5115386247634888,0.33485549688339233
1775711360413325600,0.14632568359375,-0.5753090977668762,-1.3887056112289429,0.2869689166545868
1775711360423338500,0.15633837890625,-0.6390265822410583,-1.2093288898468018,0.24005813896656036
1775711360433352400,0.1663525390625,-0.6016373634338379,-1.0521984100341797,0.2717321813106537
1775711360443365600,0.17636572265625,-0.4784448742866516,-1.0859979391098022,0.37975266575813293
1775711360453379300,0.18637939453125,-0.33312124013900757,-1.3374727964401245,0.5629858374595642
1775711360463392500,0.196392578125,-0.16483423113822937,-1.7239099740982056,0.7454012036323547
1775711360473406500,0.206406494140625,-0.03640913963317871,-2.18930721282959,0.9414545893669128
1775711360483419400,0.21641943359375,-0.03627225384116173,-2.512979030609131,1.1710134744644165
1775711360493433600,0.22643359375,-0.10608568787574768,-2.8298380374908447,1.366365909576416
1775711360503446500,0.236446533203125,-0.19604700803756714,-2.855825662612915,1.4827756881713867
1775711360513460500,0.24646044921875,-0.26821547746658325,-2.2711501121520996,1.5115090608596802
1775711360523473400,0.256473388671875,-0.3139006793498993,-1.701451301574707,1.4892146587371826
1775711360533487600,0.266487548828125,-0.3805052638053894,-1.1959385871887207,1.4602553844451904
1775711360543500500,0.27650048828125,-0.44064611196517944,-0.8991686701774597,1.3398916721343994
1775711360553514500,0.286514404296875,-0.4170987010002136,-0.7599825263023376,1.1428889036178589
1775711360563527200,0.296527099609375,-0.37778592109680176,-0.8598535060882568,0.8816240429878235
1775711360573541000,0.306541015625,-0.3411780893802643,-0.9815397262573242,0.6339934468269348
1775711360583554000,0.316553955078125,-0.36246153712272644,-1.206176519393921,0.45730656385421753
1775711360593568000,0.326568115234375,-0.3732558786869049,-1.2214268445968628,0.40950414538383484
1775711360603581200,0.336581298828125,-0.3139347732067108,-1.3066043853759766,0.4534873366355896
1775711360613595100,0.34659521484375,-0.05819299817085266,-1.8823741674423218,0.6150804758071899
1775711360623608000,0.356608154296875,0.0017014936311170459,-2.1742165088653564,0.5747937560081482
1775711360633621000,0.36662109375,-0.0672227144241333,-2.203545570373535,0.4856221079826355
1775711360643635000,0.376635009765625,-0.1468813270330429,-2.163665294647217,0.456036239862442
1775711360653648100,0.386648193359375,-0.012594355270266533,-2.308685541152954,0.6080875396728516
1775711360663662000,0.396662109375,0.005684517323970795,-2.3724310398101807,0.6368078589439392
1775711360673675000,0.406675048828125,-0.013683588244020939,-2.2167558670043945,0.5465149879455566
1775711360683689200,0.416689208984375,0.007134075742214918,-1.8096179962158203,0.41561371088027954
1775711360693702000,0.426701904296875,0.07057696580886841,-0.825937032699585,0.13222701847553253
1775711360703716000,0.436716064453125,0.10026615113019943,-0.06369882076978683,-0.09874894469976425
1775711360713729000,0.44672900390625,0.10776800662279129,0.07892464101314545,-0.2969728112220764
1775711360723743200,0.4567431640625,0.1050257533788681,-0.07086724787950516,-0.3267855644226074
1775711360733756200,0.466756103515625,0.11581394821405411,-0.11441472917795181,-0.24347977340221405
1775711360743770000,0.47677001953125,0.112058624625206,-0.08027327060699463,-0.15123958885669708
1775711360753783000,0.486782958984375,0.068926602602005,-0.15215490758419037,-0.1354888528585434
1775711360763797000,0.496796875,0.012341088615357876,-0.30490317940711975,-0.1684310883283615
1775711360773810200,0.50681005859375,-0.05097423493862152,-0.523166298866272,-0.17591270804405212
1775711360783824000,0.516823974609375,-0.1459854394197464,-0.8142580389976501,-0.08962948620319366
1775711360793837000,0.526837158203125,-0.2552250921726227,-1.010245442390442,0.0926513746380806
1775711360803851000,0.53685107421875,-0.32044485211372375,-1.110609769821167,0.29856619238853455
1775711360813864000,0.546864013671875,-0.37244415283203125,-1.065470814704895,0.4503956735134125
1775711360823878100,0.556878173828125,-0.4212353825569153,-0.7530500888824463,0.47780439257621765
1775711360833891000,0.56689111328125,-0.4067336618900299,-0.552686333656311,0.393273264169693
1775711360843905000,0.576905029296875,-0.3416105806827545,-0.5528826117515564,0.2858293652534485
1775711360853918000,0.58691796875,-0.2978774905204773,-0.674776017665863,0.2533363997936249
1775711360863932200,0.59693212890625,-0.25907522439956665,-0.8019126653671265,0.2195483297109604
1775711360873945000,0.606945068359375,-0.1720825433731079,-0.8435543775558472,0.13894563913345337
1775711360883959000,0.616958984375,-0.021386248990893364,-0.7161293625831604,0.017478592693805695
1775711360893972200,0.62697216796875,0.16277852654457092,-0.6263299584388733,-0.08840736001729965
1775711360903986000,0.63698583984375,0.24354101717472076,-0.590791642665863,-0.14769385755062103
1775711360913999000,0.6469990234375,0.20172886550426483,-0.5869916081428528,-0.12537416815757751
1775711360924013000,0.657012939453125,0.12484525889158249,-0.7294787168502808,0.0035353463608771563
1775711360934026000,0.66702587890625,0.05796876177191734,-0.9251397848129272,0.2000686377286911
1775711360944040000,0.6770400390625,-0.016168849542737007,-1.0725183486938477,0.40505000948905945
1775711360954053000,0.68705322265625,-0.07367608696222305,-1.0616891384124756,0.5412227511405945
1775711360964066000,0.697066162109375,-0.13923192024230957,-0.9681000709533691,0.554851770401001
1775711360974080000,0.707080078125,-0.1680625081062317,-0.9738389253616333,0.45945069193840027
1775711360984093200,0.71709326171875,-0.13004694879055023,-0.7687781453132629,0.3394257426261902
1775711360994107000,0.72710693359375,-0.06346872448921204,-0.48158925771713257,0.16946785151958466
1775711361004120000,0.7371201171875,-0.0057042245753109455,-0.3139752447605133,0.00705711031332612
1775711361014134300,0.74713427734375,0.056406017392873764,-0.1325383335351944,-0.07203983515501022
1775711361024147000,0.75714697265625,0.13363182544708252,0.1434844583272934,-0.10796801000833511
1775711361034161200,0.7671611328125,0.20219038426876068,0.4255475699901581,-0.08552955090999603
1775711361044174000,0.777174072265625,0.2606600821018219,0.5649914741516113,-0.03340935707092285
1775711361054188000,0.78718798828125,0.28457847237586975,0.5811027884483337,0.0235868189483881
1775711361064201200,0.797201171875,0.2536245584487915,0.5339630246162415,0.056531451642513275
1775711361074215200,0.807215087890625,0.20188331604003906,0.487263947725296,0.03178402781486511
1775711361084228000,0.81722802734375,0.09348227828741074,0.47815752029418945,-0.027846811339259148
1775711361094242000,0.827241943359375,-0.024956215173006058,0.5844642519950867,-0.1092979907989502
1775711361104255200,0.837255126953125,-0.07961679995059967,0.7382828593254089,-0.20675398409366608
1775711361114269000,0.84726904296875,-0.05823560804128647,0.8692512512207031,-0.2805594801902771
1775711361124282000,0.8572822265625,0.07358819991350174,0.8998496532440186,-0.34663093090057373
1775711361134296000,0.867296142578125,0.2181653529405594,0.8492482304573059,-0.48899951577186584
1775711361144309000,0.87730908203125,0.32746148109436035,0.8282119631767273,-0.6869949102401733
1775711361154323200,0.8873232421875,0.3788977861404419,0.8876196146011353,-0.8608148694038391
1775711361164335900,0.8973359375,0.3239453136920929,0.9708955883979797,-0.9491727352142334
1775711361174350000,0.90735009765625,0.2098214030265808,1.1391615867614746,-0.9256396889686584
1775711361184363000,0.917363037109375,0.07510273903608322,1.1732971668243408,-0.8192181587219238
1775711361194377200,0.927377197265625,0.018821092322468758,1.054116129875183,-0.6996337175369263
1775711361204390100,0.93739013671875,0.07914808392524719,0.8190911412239075,-0.6019103527069092
1775711361214404000,0.947404052734375,0.11829042434692383,0.44413110613822937,-0.5534166097640991
1775711361224417000,0.9574169921875,0.1372649073600769,0.1448991298675537,-0.4617953300476074
1775711361234431000,0.967430908203125,0.15255598723888397,-0.02508431486785412,-0.3115712106227875
1775711361244444200,0.977444091796875,0.12564155459403992,-0.1558748185634613,-0.18474188446998596
1775711361254458000,0.9874580078125,0.05771788954734802,-0.30835437774658203,-0.1313881129026413
1775711361264471000,0.997470947265625,-0.010555172339081764,-0.39875510334968567,-0.135592982172966
1775711361274484200,1.007484130859375,-0.05530133843421936,-0.41031455993652344,-0.1267337054014206
1775711361284498000,1.017497802734375,-0.1439387947320938,-0.31698301434516907,-0.1310696005821228
1775711361294511000,1.027510986328125,-0.19347146153450012,-0.31091952323913574,-0.12915238738059998
1775711361304525000,1.037525146484375,-0.16277267038822174,-0.3086768686771393,-0.04760213941335678
1775711361314538000,1.0475380859375,-0.0935339480638504,-0.34995028376579285,0.061562430113554
1775711361324552000,1.057552001953125,-0.05880392715334892,-0.4884788691997528,0.1863938421010971
1775711361334565000,1.067565185546875,-0.07255063205957413,-0.6449156403541565,0.30550825595855713
1775711361344579000,1.0775791015625,-0.09099222719669342,-0.8157193064689636,0.3863069713115692
1775711361354592000,1.087592041015625,-0.10886763036251068,-0.9381919503211975,0.4280261695384979
1775711361364606200,1.097606201171875,-0.17375154793262482,-0.9498441219329834,0.43408405780792236
1775711361374619000,1.107618896484375,-0.28504478931427,-0.947115957736969,0.43504494428634644
1775711361384633000,1.117633056640625,-0.39608022570610046,-1.0095257759094238,0.47233930230140686
1775711361394646300,1.127646240234375,-0.48912230134010315,-1.048356294631958,0.4964800775051117
1775711361404660000,1.137659912109375,-0.5493624806404114,-1.0367707014083862,0.4563329219818115
1775711361414673200,1.147673095703125,-0.5493440628051758,-1.0768954753875732,0.3468892574310303
1775711361424687000,1.15768701171875,-0.5630210041999817,-1.0030447244644165,0.28579285740852356
1775711361434700000,1.167699951171875,-0.572490394115448,-0.9072766304016113,0.26708468794822693
1775711361444714000,1.1777138671875,-0.5568840503692627,-0.8588473200798035,0.2773780822753906
1775711361454727200,1.18772705078125,-0.5335198640823364,-0.8646532893180847,0.3208584487438202
1775711361464740900,1.197740966796875,-0.5261415839195251,-0.9401139616966248,0.3845290243625641
1775711361474754000,1.207754150390625,-0.5588480830192566,-1.0413910150527954,0.4444091320037842
1775711361484768300,1.217768310546875,-0.6132224202156067,-1.1169021129608154,0.5053742527961731
1775711361494781000,1.227781005859375,-0.6459324359893799,-1.1987500190734863,0.5569897294044495
1775711361504795100,1.237795166015625,-0.6868532299995422,-1.2452647686004639,0.6283240914344788
1775711361514808000,1.24780810546875,-0.6427792310714722,-1.231116533279419,0.833624005317688
1775711361524821000,1.257821044921875,-0.587212085723877,-1.1284769773483276,0.9243469834327698
1775711361534835200,1.267835205078125,-0.5427069664001465,-1.006527304649353,0.887869119644165
1775711361544848000,1.277847900390625,-0.49896878004074097,-0.8370131254196167,0.7610259652137756
1775711361554862000,1.287862060546875,-0.44811731576919556,-0.5411146283149719,0.5529220104217529
1775711361564875300,1.297875244140625,-0.37230750918388367,-0.20625010132789612,0.34088489413261414
1775711361574889500,1.307889404296875,-0.2840985655784607,0.054541006684303284,0.1778072863817215
1775711361584902400,1.31790234375,-0.21200813353061676,0.2354830950498581,0.07750917226076126
1775711361594916400,1.327916259765625,-0.16262726485729218,0.3613659143447876,0.030044184997677803
1775711361604929500,1.337929443359375,-0.1177268996834755,0.4261992573738098,0.027708327397704124
1775711361614943500,1.347943603515625,-0.10252610594034195,0.40612566471099854,0.04781945422291756
1775711361624956400,1.357956298828125,-0.12033573538064957,0.3289496600627899,0.08357185870409012
1775711361634970400,1.367970458984375,-0.16353540122509003,0.23864932358264923,0.1274205446243286
1775711361644983600,1.377983642578125,-0.2323693186044693,0.1589267998933792,0.18012955784797668
1775711361654997200,1.387997314453125,-0.27473968267440796,0.11548957973718643,0.22089296579360962
1775711361665010400,1.398010498046875,-0.2771008312702179,0.06615451723337173,0.21851636469364166
1775711361675024400,1.4080244140625,-0.27232739329338074,0.01961364783346653,0.19521956145763397
1775711361685037300,1.418037353515625,-0.2601471543312073,0.0347321480512619,0.17300480604171753
1775711361695051500,1.428051513671875,-0.22698521614074707,0.08646751195192337,0.14599262177944183
1775711361705064400,1.438064453125,-0.18482230603694916,0.1489463448524475,0.12533022463321686
1775711361715078400,1.448078369140625,-0.1407533884048462,0.1833977848291397,0.11743874847888947
1775711361725091600,1.458091552734375,-0.10716933012008667,0.19404298067092896,0.12815476953983307
1775711361735104500,1.4681044921875,-0.07375518232584,0.18912358582019806,0.15313655138015747
1775711361745118500,1.478118408203125,-0.03720622509717941,0.18993638455867767,0.18241055309772491
1775711361755131400,1.48813134765625,0.021278390660881996,0.16178198158740997,0.2089920938014984
1775711361765145600,1.4981455078125,0.08635140210390091,0.09545408189296722,0.2250155359506607
1775711361775158500,1.508158447265625,0.13951635360717773,0.022707443684339523,0.2338756024837494
1775711361785172500,1.51817236328125,0.154347226023674,-0.04923705384135246,0.20877771079540253
1775711361795185700,1.528185546875,0.1347692608833313,-0.11541793495416641,0.12974414229393005
1775711361805199400,1.538199462890625,0.09851698577404022,-0.1821780651807785,0.040534377098083496
1775711361815212500,1.548212646484375,0.07771609723567963,-0.21033327281475067,-0.03670741245150566
1775711361825226500,1.5582265625,0.09293819963932037,-0.17798730731010437,-0.09085587412118912
1775711361835239400,1.568239501953125,0.131709024310112,-0.12115918099880219,-0.11412284523248672
1775711361845253400,1.57825341796875,0.1565171778202057,-0.05817968398332596,-0.11463523656129837
1775711361855266600,1.5882666015625,0.1661873757839203,-0.06541602313518524,-0.11633007228374481
1775711361865280500,1.598280517578125,0.16533596813678741,-0.0873386338353157,-0.1002882570028305
1775711361875293400,1.60829345703125,0.18015804886817932,-0.12497042864561081,-0.04000946879386902
1775711361885307600,1.6183076171875,0.20004840195178986,-0.2167634665966034,0.03518674895167351
1775711361895320300,1.6283203125,0.23654969036579132,-0.371308833360672,0.12120658904314041
1775711361905334500,1.63833447265625,0.27532824873924255,-0.544619083404541,0.24114097654819489
1775711361915347500,1.648347412109375,0.2635616064071655,-0.6298445463180542,0.3751200735569
1775711361925360400,1.6583603515625,0.20019088685512543,-0.6460525393486023,0.46982821822166443
1775711361935374600,1.66837451171875,0.0880691409111023,-0.6291603446006775,0.5180615186691284
1775711361945387300,1.67838720703125,-0.04140496253967285,-0.5908907055854797,0.5526581406593323
1775711361955401500,1.6884013671875,-0.13765080273151398,-0.5126180052757263,0.6013036966323853
1775711361965414400,1.698414306640625,-0.19553008675575256,-0.42376405000686646,0.6592218279838562
1775711361975428400,1.708428466796875,-0.21243849396705627,-0.362301230430603,0.7106693387031555
1775711361985441500,1.718441650390625,-0.1962517946958542,-0.3832959830760956,0.7422810196876526
1775711361995455500,1.72845556640625,-0.17156589031219482,-0.49909475445747375,0.7530588507652283
1775711362005468400,1.738468505859375,-0.14529168605804443,-0.6579957008361816,0.749116837978363
1775711362015482400,1.748482421875,-0.15104837715625763,-0.7963269948959351,0.7004063129425049
1775711362025495600,1.75849560546875,-0.16169755160808563,-0.8465664386749268,0.5994860529899597
1775711362035509200,1.76850927734375,-0.1340177208185196,-0.8111144304275513,0.5035073757171631
1775711362045522400,1.7785224609375,-0.09242234379053116,-0.7375576496124268,0.44275373220443726
1775711362055536400,1.788536376953125,-0.092509426176548,-0.6082228422164917,0.3831966519355774
1775711362065549300,1.79854931640625,-0.15224972367286682,-0.411995530128479,0.31347721815109253
1775711362075563500,1.8085634765625,-0.2489728033542633,-0.1705549657344818,0.21756906807422638
1775711362085576400,1.818576416015625,-0.3786327838897705,0.1239248737692833,0.1069999560713768
1775711362095590400,1.82859033203125,-0.5029664635658264,0.41039952635765076,-0.0027832696214318275
1775711362105603600,1.838603515625,-0.5773599743843079,0.6219770312309265,-0.08268901705741882
1775711362115616500,1.848616455078125,-0.5796897411346436,0.6481148600578308,-0.11929896473884583
1775711362125630500,1.85863037109375,-0.5321126580238342,0.5424555540084839,-0.16944734752178192
1775711362135643400,1.868643310546875,-0.4602048993110657,0.4019192159175873,-0.2214146852493286
1775711362145657600,1.87865771484375,-0.37653103470802307,0.2827717661857605,-0.24977920949459076
1775711362155670500,1.88867041015625,-0.28723469376564026,0.17324821650981903,-0.2359163910150528
1775711362165684500,1.8986845703125,-0.22713860869407654,0.08436574786901474,-0.18042756617069244
1775711362175697700,1.90869775390625,-0.19606031477451324,0.0076001291163265705,-0.11266076564788818
1775711362185711400,1.91871142578125,-0.19115930795669556,-0.059654008597135544,-0.0607893131673336
1775711362195724500,1.928724609375,-0.20166467130184174,-0.04066460579633713,-0.000290018244413659
1775711362205738500,1.938738525390625,-0.22738735377788544,-0.0007984156836755574,0.07356636226177216
1775711362215751400,1.94875146484375,-0.24900369346141815,0.01380982156842947,0.11829947680234909
1775711362225765400,1.958765380859375,-0.24239932000637054,0.03471510484814644,0.1195429116487503
1775711362235778600,1.968778564453125,-0.2178037017583847,0.07031410932540894,0.094844751060009
1775711362245792500,1.97879248046875,-0.20752735435962677,0.10964687168598175,0.04757710546255112
1775711362255805400,1.988805419921875,-0.1784275323152542,0.14455558359622955,0.0065324679017066956
1775711362265819600,1.998819580078125,-0.10104432702064514,0.16159608960151672,-0.010063286870718002
1775711362275832300,2.008832275390625,0.003436276689171791,0.15106754004955292,-0.006382265593856573
1775711362285846500,2.018846435546875,0.08100190758705139,0.15290778875350952,0.001541171339340508
1775711362295859500,2.028859375,0.10793312638998032,0.11721663922071457,0.00011851066665258259
1775711362305872400,2.038872314453125,0.10421188920736313,0.06662163883447647,-0.012507535517215729
1775711362315886600,2.048886474609375,0.057135190814733505,0.057315487414598465,-0.05306161940097809
1775711362325899300,2.058899169921875,-0.001740109408274293,0.013159478083252907,-0.12704983353614807
1775711362335913500,2.06891357421875,-0.04700319468975067,-0.04219965264201164,-0.2212788611650467
1775711362345926400,2.078926513671875,-0.06317710131406784,-0.03236300125718117,-0.2793442904949188
1775711362355940400,2.0889404296875,-0.04351392015814781,-0.0719735249876976,-0.3089810013771057
1775711362365953500,2.09895361328125,-0.03130572289228439,-0.4419254660606384,-0.2501866817474365
1775711362375967500,2.108967529296875,-0.01871536485850811,-0.5105758905410767,-0.21703271567821503
1775711362385980400,2.11898046875,0.05421503633260727,-0.2894142270088196,-0.21558821201324463
1775711362395994400,2.128994384765625,0.15445668995380402,-0.0010655306978151202,-0.14157897233963013
1775711362406007600,2.139007568359375,0.21946097910404205,0.12015090882778168,-0.03346901014447212
1775711362416021200,2.149021240234375,0.2748081386089325,0.06376247107982635,0.05468907952308655
1775711362426034400,2.159034423828125,0.3199455142021179,0.05998770147562027,0.09691029787063599
1775711362436048400,2.16904833984375,0.33906275033950806,0.12872682511806488,0.12135039269924164
1775711362446061300,2.179061279296875,0.3514845371246338,0.13576209545135498,0.1708066314458847
1775711362456075500,2.189075439453125,0.34147343039512634,0.11445121467113495,0.20613425970077515
1775711362466088400,2.19908837890625,0.3074963092803955,0.08371061086654663,0.21140944957733154
1775711362476101400,2.209101318359375,0.2677675187587738,0.021153222769498825,0.2142297327518463
1775711362486115300,2.219115234375,0.20782296359539032,-0.04465322196483612,0.21428753435611725
1775711362496128500,2.22912841796875,0.13531281054019928,-0.05710429698228836,0.18204250931739807
1775711362506142500,2.239142578125,0.09401144832372665,-0.06202688440680504,0.1354832649230957
1775711362516155400,2.2491552734375,0.07945993542671204,-0.12436722218990326,0.11467757821083069
1775711362526169600,2.259169677734375,0.07196393609046936,-0.19918900728225708,0.12032561004161835
1775711362536182500,2.2691826171875,0.057382866740226746,-0.22225171327590942,0.13992993533611298
1775711362546196500,2.279196533203125,0.03987977281212807,-0.1365692913532257,0.15819522738456726
1775711362556209700,2.289209716796875,0.023731695488095284,-0.03086230903863907,0.18178683519363403
1775711362566223600,2.2992236328125,0.02821406163275242,0.003065032185986638,0.20865094661712646
1775711362576236500,2.309236572265625,0.07707161456346512,0.015237010084092617,0.19611118733882904
1775711362586250500,2.31925048828125,0.13363581895828247,0.03086310811340809,0.15012958645820618
1775711362596263700,2.329263671875,0.1643093079328537,0.07871611416339874,0.09508416801691055
1775711362606277400,2.33927734375,0.16617059707641602,0.11779427528381348,0.058230817317962646
1775711362616290600,2.34929052734375,0.13576075434684753,0.08960045874118805,0.031154191121459007
1775711362626303700,2.3593037109375,0.08364029973745346,0.07040039449930191,0.015202122740447521
1775711362636317400,2.3693173828125,0.04890256002545357,0.06520190834999084,0.0005408879951573908
1775711362646330600,2.37933056640625,0.046689473092556,0.0767858549952507,0.008311193436384201
1775711362656344600,2.389344482421875,0.1118285283446312,0.2381952553987503,0.002654372714459896
1775711362666357500,2.399357421875,0.12823785841464996,0.28728237748146057,0.05517004430294037
1775711362676371500,2.409371337890625,0.07323985546827316,0.16389386355876923,0.12354137748479843
1775711362686384600,2.419384521484375,0.044728588312864304,0.04779495298862457,0.14104793965816498
1775711362696398600,2.429398681640625,0.07013967633247375,0.019948940724134445,0.11773062497377396
1775711362706411500,2.43941162109375,0.08894691616296768,0.034817636013031006,0.08222909271717072
1775711362716425700,2.44942578125,0.07840985059738159,0.054308779537677765,0.043120041489601135
1775711362726438400,2.4594384765625,0.06980624794960022,0.06688209623098373,0.0003992078418377787
1775711362736452600,2.46945263671875,0.05213484168052673,0.06897933036088943,-0.03836789354681969
1775711362746465800,2.4794658203125,0.021877069026231766,0.07056551426649094,-0.07539036124944687
1775711362756479500,2.4894794921875,0.00024101608141791075,0.06102234125137329,-0.10384197533130646
1775711362766492700,2.49949267578125,-0.01005130261182785,0.05354178696870804,-0.11787949502468109
1775711362776506600,2.509506591796875,-0.017962489277124405,0.06210571527481079,-0.1151934340596199
1775711362786519600,2.51951953125,-0.03851410374045372,0.08414337038993835,-0.11020133644342422
1775711362796532700,2.52953271484375,-0.054428622126579285,0.09582053869962692,-0.10179933160543442
1775711362806546700,2.539546630859375,-0.03442934527993202,0.0774117037653923,-0.0751594677567482
1775711362816559600,2.5495595703125,0.008275773376226425,0.029027923941612244,-0.03062928095459938
1775711362826573600,2.559573486328125,0.04812571778893471,-0.03664802759885788,0.02040114626288414
1775711362836586500,2.56958642578125,0.06430522352457047,-0.1104934886097908,0.08105224370956421
1775711362846600400,2.579600341796875,0.06622695922851562,-0.15396666526794434,0.14451590180397034
1775711362856613600,2.589613525390625,0.05720869451761246,-0.16795571148395538,0.18431071937084198
1775711362866627600,2.599627685546875,0.04345186799764633,-0.1657934933900833,0.19932907819747925
1775711362876640500,2.609640625,0.030353644862771034,-0.13012444972991943,0.2065553069114685
1775711362886654700,2.61965478515625,0.010211625136435032,-0.06748583167791367,0.202409029006958
1775711362896667400,2.62966748046875,0.0032519858796149492,-0.0056986319832503796,0.19605259597301483
1775711362906681600,2.639681640625,0.012321913614869118,0.03226659446954727,0.19039390981197357
1775711362916694500,2.649694580078125,0.020497817546129227,0.037637922912836075,0.18124541640281677
1775711362926707500,2.65970751953125,0.015245531685650349,0.03013712912797928,0.15801893174648285
1775711362936721700,2.6697216796875,0.010364224202930927,-0.0027811392210423946,0.13953925669193268
1775711362946734600,2.679734619140625,0.011079016141593456,-0.050328683108091354,0.12954413890838623
1775711362956748500,2.68974853515625,0.003768905531615019,-0.10293357074260712,0.1274929791688919
1775711362966761500,2.699761474609375,-0.004227501805871725,-0.1533203125,0.13391491770744324
1775711362976775700,2.709775634765625,-0.01004863902926445,-0.2051433026790619,0.15694834291934967
1775711362986788600,2.71978857421875,-0.010697118937969208,-0.2664697766304016,0.17229773104190826
1775711362996802600,2.729802490234375,-0.003584881080314517,-0.31042179465293884,0.16013933718204498
1775711363006815700,2.739815673828125,0.01774171181023121,-0.33002689480781555,0.12969568371772766
1775711363016829400,2.749829345703125,0.043055325746536255,-0.33161866664886475,0.08755514770746231
1775711363026842600,2.759842529296875,0.06186789646744728,-0.307271808385849,0.04502659663558006
1775711363036856600,2.769856689453125,0.07052449882030487,-0.23960274457931519,0.008044610731303692
1775711363046869500,2.779869384765625,0.07463562488555908,-0.15808391571044922,-0.029327794909477234
1775711363056883500,2.789883544921875,0.07115460187196732,-0.06962648034095764,-0.06661684066057205
1775711363066896600,2.799896728515625,0.06523758918046951,0.0013765880139544606,-0.1053067147731781
1775711363076909600,2.80990966796875,0.06290919333696365,0.0338306687772274,-0.14602911472320557
1775711363086923500,2.819923583984375,0.06664560735225677,0.05254310369491577,-0.1798429936170578
1775711363096936400,2.8299365234375,0.06234140321612358,0.06314568221569061,-0.20238985121250153
1775711363106950400,2.839950439453125,0.055149007588624954,0.07012315839529037,-0.21053779125213623
1775711363116963600,2.849963623046875,0.04864077270030975,0.06728290021419525,-0.20106972754001617
1775711363126977800,2.859977783203125,0.04580051079392433,0.06695239990949631,-0.1623833179473877
1775711363136990500,2.869990478515625,0.045884668827056885,0.04848258197307587,-0.11350632458925247
1775711363147004700,2.880004638671875,0.054477889090776443,0.005030977539718151,-0.06598354130983353
1775711363157017300,2.890017333984375,0.06274247914552689,-0.03436862677335739,-0.013818876817822456
1775711363167031600,2.900031494140625,0.05510719493031502,-0.051467716693878174,0.03441576287150383
1775711363177044700,2.910044677734375,0.04440395161509514,-0.06607169657945633,0.06902939826250076
1775711363187058700,2.92005859375,0.05142777040600777,-0.09368441253900528,0.09529829025268555
1775711363197071600,2.930071533203125,0.06768743693828583,-0.09623438864946365,0.11168844997882843
1775711363207084500,2.94008447265625,0.08519665151834488,-0.07321535795927048,0.12342126667499542
1775711363217098500,2.950098388671875,0.09867943823337555,-0.036498889327049255,0.12969887256622314
1775711363227111700,2.960111572265625,0.10156603902578354,-0.006985205225646496,0.13143205642700195
1775711363237125600,2.970125732421875,0.09832603484392166,0.01926370896399021,0.13282115757465363
1775711363247138600,2.980138671875,0.09142738580703735,0.01986371912062168,0.1283574402332306
1775711363257152500,2.990152587890625,0.08367891609668732,0.012381302192807198,0.12280075252056122
1775711363267165700,3.000165771484375,0.07545454055070877,0.01973695307970047,0.1103731095790863
1775711363277179400,3.010179443359375,0.07340656965970993,0.013030847534537315,0.09477604180574417
1775711363287192600,3.020192626953125,0.075614333152771,-0.0010218549286946654,0.08539372682571411
1775711363297206500,3.03020654296875,0.06983554363250732,-0.01595180295407772,0.0779736265540123
1775711363307219500,3.040219482421875,0.06539658457040787,-0.029758160933852196,0.0752183198928833
1775711363317233700,3.050233642578125,0.05867290124297142,-0.0432012677192688,0.08054890483617783
1775711363327246600,3.06024658203125,0.0548427440226078,-0.0538504496216774,0.0932907983660698
1775711363337259500,3.070259521484375,0.052563875913619995,-0.06712843477725983,0.10277138650417328
1775711363347273500,3.0802734375,0.04960004240274429,-0.0753197893500328,0.1056332215666771
1775711363357286700,3.09028662109375,0.04390780255198479,-0.07332401722669601,0.09974177181720734
1775711363367300600,3.100300537109375,0.03688717633485794,-0.0667172446846962,0.08826035261154175
1775711363377313500,3.1103134765625,0.024655545130372047,-0.0683891773223877,0.07437489926815033
1775711363387327700,3.12032763671875,0.014597584493458271,-0.08265599608421326,0.0641195997595787
1775711363397340400,3.13034033203125,-0.0008783105295151472,-0.11979617178440094,0.05011909455060959
1775711363407354600,3.140354736328125,-0.021644042804837227,-0.15088911354541779,0.033669814467430115
1775711363417367800,3.150367919921875,-0.04652595520019531,-0.1618935614824295,0.01847274973988533
1775711363427381500,3.160381591796875,-0.07018601149320602,-0.16008047759532928,0.009311743080615997
1775711363437394700,3.170394775390625,-0.09650416672229767,-0.16686195135116577,0.010261958464980125
1775711363447408600,3.18040869140625,-0.104977548122406,-0.172093465924263,0.012289423495531082
1775711363457421600,3.190421630859375,-0.10068745911121368,-0.17684827744960785,0.020830446854233742
1775711363467434800,3.200434814453125,-0.08508773148059845,-0.17826960980892181,0.04616882652044296
1775711363477448400,3.210448486328125,-0.07328726351261139,-0.16607658565044403,0.08353856950998306
1775711363487461600,3.220461669921875,-0.06784269958734512,-0.1508297324180603,0.12148701399564743
1775711363497475600,3.2304755859375,-0.0642455667257309,-0.14518702030181885,0.14143729209899902
1775711363507488500,3.240488525390625,-0.06562241911888123,-0.1280173510313034,0.13546834886074066
1775711363517502500,3.25050244140625,-0.07139109075069427,-0.10046935081481934,0.11818096786737442
1775711363527515600,3.260515625,-0.07411124557256699,-0.05114946886897087,0.093285471200943
1775711363537529300,3.270529296875,-0.0784711092710495,0.013137106783688068,0.054298657923936844
1775711363547542500,3.28054248046875,-0.0850595012307167,0.05921591818332672,0.010103766806423664
1775711363557556700,3.290556640625,-0.08812959492206573,0.08459664136171341,-0.03325862064957619
1775711363567569400,3.3005693359375,-0.0861830860376358,0.08501369506120682,-0.07196047902107239
1775711363577583600,3.31058349609375,-0.07255569100379944,0.06648422032594681,-0.0978192389011383
1775711363587596500,3.320596435546875,-0.05774878337979317,0.039371639490127563,-0.1032068133354187
1775711363597609500,3.330609375,-0.04488784447312355,0.009317335672676563,-0.09209983050823212
1775711363607623400,3.34062353515625,-0.040643300861120224,-0.021495705470442772,-0.07918563485145569
1775711363617636400,3.35063623046875,-0.04244439676403999,-0.04241510108113289,-0.06577581912279129
1775711363627650600,3.360650634765625,-0.04267129674553871,-0.046414103358983994,-0.059719257056713104
1775711363637663500,3.37066357421875,-0.04057485610246658,-0.049976613372564316,-0.06880303472280502
1775711363647677400,3.380677490234375,-0.03423679992556572,-0.06048198416829109,-0.08616471290588379
1775711363657690600,3.390690673828125,-0.033964358270168304,-0.05404139682650566,-0.09262847155332565
1775711363667704300,3.400704345703125,-0.03982890397310257,-0.024754615500569344,-0.08947981148958206
1775711363677717500,3.410717529296875,-0.04981416091322899,0.0111647704616189,-0.07606919854879379
1775711363687731500,3.4207314453125,-0.06558353453874588,0.0477595329284668,-0.06874364614486694
1775711363697744400,3.430744384765625,-0.07751742750406265,0.07325050979852676,-0.06328736245632172
1775711363707757600,3.440757568359375,-0.08171989768743515,0.08344242721796036,-0.051237888634204865
1775711363717771500,3.450771484375,-0.08189726620912552,0.08030522614717484,-0.027338147163391113
1775711363727784400,3.460784423828125,-0.08854930847883224,0.07212745398283005,-0.01251286268234253
1775711363737798400,3.47079833984375,-0.10507208853960037,0.045406896620988846,-0.0002561961009632796
1775711363747811600,3.4808115234375,-0.12807753682136536,-0.003817108692601323,0.01642930693924427
1775711363757825300,3.4908251953125,-0.15626497566699982,-0.05079314112663269,0.042338669300079346
1775711363767838500,3.50083837890625,-0.1719784140586853,-0.08558174967765808,0.0709892213344574
1775711363777852400,3.510852294921875,-0.18075087666511536,-0.12040497362613678,0.09886985272169113
1775711363787865300,3.520865234375,-0.1973002851009369,-0.18805645406246185,0.15198233723640442
1775711363797879600,3.530879638671875,-0.2293493002653122,-0.2868293821811676,0.24606835842132568
1775711363807892500,3.540892578125,-0.2880363166332245,-0.3989516496658325,0.3596116900444031
1775711363817906400,3.550906494140625,-0.36531752347946167,-0.5133522748947144,0.4766935706138611
1775711363827919400,3.56091943359375,-0.44286423921585083,-0.6131851077079773,0.584891140460968
1775711363837932300,3.570932373046875,-0.5137762427330017,-0.7128883004188538,0.6815476417541504
1775711363847946500,3.580946533203125,-0.5901477336883545,-0.8338117599487305,0.7599777579307556
1775711363857959400,3.59095947265625,-0.6722404360771179,-0.9795899987220764,0.817851722240448
1775711363867973600,3.6009736328125,-0.7496726512908936,-1.122477412223816,0.8781286478042603
1775711363877986300,3.610986328125,-0.7973967790603638,-1.217886209487915,0.9463444352149963
1775711363888000500,3.62100048828125,-0.8155155777931213,-1.2818400859832764,1.0043866634368896
1775711363898013400,3.631013427734375,-0.8141453862190247,-1.343782901763916,1.0552959442138672
1775711363908027400,3.64102734375,-0.8141677379608154,-1.4509894847869873,1.0916235446929932
1775711363918040600,3.65104052734375,-0.8434798121452332,-1.5536940097808838,1.103718638420105
1775711363928054500,3.661054443359375,-0.8788055777549744,-1.5856010913848877,1.090275764465332
1775711363938067500,3.6710673828125,-0.8974887132644653,-1.5257889032363892,1.037835955619812
1775711363948080600,3.68108056640625,-0.8796615600585938,-1.3374181985855103,0.9524353742599487
1775711363958094300,3.69109423828125,-0.8308892250061035,-1.0651824474334717,0.8253772854804993
1775711363968107500,3.701107421875,-0.7686164975166321,-0.744185745716095,0.6803265810012817
1775711363978121500,3.71112158203125,-0.7037014365196228,-0.4023069739341736,0.5411519408226013
1775711363988134400,3.721134521484375,-0.6481660008430481,-0.07560714334249496,0.41757646203041077
1775711363998148400,3.7311484375,-0.5879393815994263,0.19588108360767365,0.308838814496994
1775711364008161500,3.74116162109375,-0.5088685750961304,0.3996160924434662,0.22400620579719543
1775711364018175500,3.751175537109375,-0.42645010352134705,0.5446896553039551,0.1731632649898529
1775711364028188400,3.7611884765625,-0.34376776218414307,0.631651759147644,0.1736125349998474
1775711364038202600,3.77120263671875,-0.2699854075908661,0.6978014707565308,0.19769816100597382
1775711364048215300,3.78121533203125,-0.21195672452449799,0.7333240509033203,0.24941276013851166
1775711364058228500,3.791228515625,-0.14800624549388885,0.7242591977119446,0.32094019651412964
1775711364068242400,3.801242431640625,-0.08438652008771896,0.6896543502807617,0.41744890809059143
1775711364078255400,3.81125537109375,-0.041791655123233795,0.6423424482345581,0.49456071853637695
1775711364088269600,3.82126953125,-0.02346697635948658,0.6196911931037903,0.5418451428413391
1775711364098282500,3.831282470703125,-0.053099438548088074,0.5992205739021301,0.5938209891319275
1775711364108296400,3.84129638671875,-0.05885985493659973,0.45910874009132385,0.6698837876319885
1775711364118309400,3.851309326171875,-0.004310059826821089,0.2628209888935089,0.7112903594970703
1775711364128323600,3.861323486328125,0.05432608723640442,0.11010892689228058,0.6592945456504822
1775711364138336500,3.87133642578125,0.09848369657993317,0.061758704483509064,0.5529915690422058
1775711364148350500,3.8813505859375,0.13738076388835907,0.053518086671829224,0.441316157579422
1775711364158363400,3.89136328125,0.1735997498035431,0.05331914871931076,0.34321701526641846
1775711364168376300,3.901376220703125,0.2130851149559021,0.05588270723819733,0.2856173813343048
1775711364178390500,3.911390625,0.24411146342754364,0.07898402959108353,0.28449857234954834
1775711364188403500,3.921403564453125,0.2716003656387329,0.09088969230651855,0.35523584485054016
1775711364198417400,3.93141748046875,0.3059876263141632,0.08626005053520203,0.45427802205085754
1775711364208430600,3.9414306640625,0.34796249866485596,0.014879879541695118,0.5523853898048401
1775711364218444300,3.9514443359375,0.3917214274406433,-0.07155594229698181,0.6036803126335144
1775711364228457500,3.96145751953125,0.4423537254333496,-0.13471201062202454,0.5976455807685852
1775711364238471400,3.971471435546875,0.4750051498413086,-0.21579301357269287,0.5677326917648315
1775711364248484400,3.981484375,0.46618926525115967,-0.305254727602005,0.5356916785240173
1775711364258498300,3.991498291015625,0.41812774538993835,-0.4158952236175537,0.4999235272407532
1775711364268511500,4.001511474609375,0.3324466645717621,-0.547967255115509,0.4468153119087219
1775711364278524400,4.0115244140625,0.23876890540122986,-0.6662882566452026,0.356253981590271
1775711364288538400,4.021538330078125,0.1614549458026886,-0.7632758021354675,0.27155348658561707
1775711364298551600,4.031551513671875,0.10410536080598831,-0.8388086557388306,0.24066586792469025
1775711364308565500,4.0415654296875,0.04718988388776779,-0.9535075426101685,0.2339472472667694
1775711364318578400,4.051578369140625,-0.024952488020062447,-1.052830696105957,0.21666891872882843
1775711364328592600,4.061592529296875,-0.09995855391025543,-1.1032754182815552,0.1770501434803009
1775711364338605300,4.071605224609375,-0.15345826745033264,-1.119931936264038,0.12112323194742203
1775711364348619500,4.08161962890625,-0.17021673917770386,-1.1225261688232422,0.06424769759178162
1775711364358632400,4.091632568359375,-0.15834888815879822,-1.116264820098877,-0.009426524862647057
1775711364368645400,4.101645263671875,-0.1596037745475769,-1.1216826438903809,-0.09597526490688324
1775711364378659600,4.11165966796875,-0.1860678791999817,-1.1271296739578247,-0.1892855018377304
1775711364388672300,4.12167236328125,-0.20924456417560577,-1.1885427236557007,-0.26759201288223267
1775711364398686500,4.1316865234375,-0.21621325612068176,-1.3203608989715576,-0.3119427263736725
1775711364408699400,4.141699462890625,-0.23445910215377808,-1.4636226892471313,-0.3095434606075287
1775711364418713600,4.151713623046875,-0.24621111154556274,-1.640184998512268,-0.26663994789123535
1775711364428726500,4.1617265625,-0.25538063049316406,-1.801647424697876,-0.2312297523021698
1775711364438740500,4.171740478515625,-0.27663078904151917,-1.8832212686538696,-0.21766042709350586
1775711364448753400,4.18175341796875,-0.3083184063434601,-1.8676775693893433,-0.24582095444202423
1775711364458767400,4.191767333984375,-0.32795682549476624,-1.7694973945617676,-0.32292959094047546
1775711364468780500,4.201780517578125,-0.31187134981155396,-1.607028841972351,-0.3940940499305725
1775711364478793500,4.21179345703125,-0.28626132011413574,-1.348783254623413,-0.4395776391029358
1775711364488807400,4.221807373046875,-0.24548593163490295,-1.056347131729126,-0.48484551906585693
1775711364498820600,4.231820556640625,-0.15832892060279846,-0.827724039554596,-0.5277690291404724
1775711364508834300,4.241834228515625,-0.10390855371952057,-0.5971449017524719,-0.5865500569343567
1775711364518847500,4.251847412109375,-0.12499599903821945,-0.3253008723258972,-0.6581035852432251
1775711364528861400,4.261861328125,-0.1725318282842636,-0.06748290359973907,-0.7166380286216736
1775711364538874400,4.271874267578125,-0.22418463230133057,0.13293194770812988,-0.7369230389595032
1775711364548888300,4.281888427734375,-0.2543145716190338,0.2494013011455536,-0.6986299753189087
1775711364558901500,4.291901611328125,-0.2531947195529938,0.21989162266254425,-0.5988117456436157
1775711364568915000,4.3019150390625,-0.24917520582675934,0.11456306278705597,-0.4492800533771515
1775711364578927900,4.311927978515625,-0.24521055817604065,-0.0016522251535207033,-0.2586840093135834
1775711364588940800,4.32194091796875,-0.2347496598958969,-0.07394985854625702,-0.03250494599342346
1775711364598955000,4.331955078125,-0.22012224793434143,-0.08204879611730576,0.19521476328372955
1775711364608968000,4.341968017578125,-0.18277940154075623,-0.02750113233923912,0.3899781405925751
1775711364618982000,4.35198193359375,-0.15106168389320374,0.06879637390375137,0.5348410606384277
1775711364628994800,4.361994873046875,-0.13380466401576996,0.19714981317520142,0.6175079345703125
1775711364639009000,4.372009033203125,-0.13297216594219208,0.34809964895248413,0.6221399903297424
1775711364649022000,4.38202197265625,-0.12379704415798187,0.46880024671554565,0.5838442444801331
1775711364659036000,4.392035888671875,-0.0961718037724495,0.5051582455635071,0.5379918217658997
1775711364669049000,4.402049072265625,-0.061529140919446945,0.4783594012260437,0.4897949993610382
1775711364679062000,4.41206201171875,-0.029742183163762093,0.4141726791858673,0.4122608006000519
1775711364689076000,4.422075927734375,-0.013130449689924717,0.35331785678863525,0.31182608008384705
1775711364699089200,4.432089111328125,-0.022890668362379074,0.3068784475326538,0.23816116154193878
1775711364709102800,4.442102783203125,-0.04761891812086105,0.2718176543712616,0.2500913441181183
1775711364719116000,4.452115966796875,-0.07412455976009369,0.2332841157913208,0.35688382387161255
1775711364729130000,4.4621298828125,-0.11095021665096283,0.13930489122867584,0.5129759311676025
1775711364739143000,4.472142822265625,-0.1619897037744522,0.010238522663712502,0.6779547929763794
1775711364749156900,4.482156982421875,-0.21117961406707764,-0.11318061500787735,0.8211103677749634
1775711364759170000,4.492170166015625,-0.26111388206481934,-0.2279530018568039,0.9221640229225159
1775711364769183000,4.502182861328125,-0.3072688579559326,-0.35178521275520325,0.9385051727294922
1775711364779197000,4.512197021484375,-0.3282015919685364,-0.4462469816207886,0.8680517673492432
1775711364789209900,4.5222099609375,-0.31475555896759033,-0.5187776684761047,0.7472728490829468
1775711364799223800,4.532223876953125,-0.28736039996147156,-0.5373715758323669,0.6098702549934387
1775711364809237000,4.542237060546875,-0.25486478209495544,-0.5068461298942566,0.45774945616722107
1775711364819251000,4.5522509765625,-0.21114632487297058,-0.4225856065750122,0.32031649351119995
1775711364829264000,4.562263916015625,-0.18860560655593872,-0.322556734085083,0.21258816123008728
1775711364839278000,4.572278076171875,-0.16689391434192657,-0.21898427605628967,0.14939934015274048
1775711364849290800,4.582290771484375,-0.10573042184114456,-0.1397368609905243,0.13421745598316193
1775711364859304000,4.592303955078125,-0.007389472797513008,-0.09827090799808502,0.16804440319538116
1775711364869318000,4.60231787109375,0.10637730360031128,-0.106285959482193,0.23398026823997498
1775711364879330800,4.612330810546875,0.24228321015834808,-0.1206292137503624,0.31901445984840393
1775711364889345000,4.622344970703125,0.3840203583240509,-0.19061149656772614,0.35083019733428955
1775711364899358000,4.63235791015625,0.5028862953186035,-0.2592989504337311,0.3230513036251068
1775711364909372000,4.642371826171875,0.5690677165985107,-0.22753648459911346,0.24991875886917114
1775711364919384800,4.652384765625,0.5858219265937805,-0.12053094059228897,0.1249464601278305
1775711364929399000,4.66239892578125,0.5854195356369019,0.0008689894457347691,-0.03514067828655243
1775711364939412000,4.672411865234375,0.5687196254730225,0.08384110778570175,-0.18449580669403076
1775711364949425000,4.6824248046875,0.4991930425167084,0.1417989432811737,-0.29322388768196106
1775711364959439000,4.692439208984375,0.41089245676994324,0.17269986867904663,-0.3627699315547943
1775711364969452000,4.7024521484375,0.33485814929008484,0.15753716230392456,-0.38206881284713745
1775711364979466000,4.712466064453125,0.2861798405647278,0.09672041982412338,-0.35991397500038147
1775711364989479200,4.722479248046875,0.2502623200416565,0.03346501663327217,-0.32075831294059753
1775711364999492900,4.732492919921875,0.2336689531803131,-0.005307147279381752,-0.2570352554321289
1775711365009506000,4.742506103515625,0.27133244276046753,-0.07036231458187103,-0.17656917870044708
1775711365019520000,4.75252001953125,0.3525242209434509,-0.1561105102300644,-0.11509835720062256
1775711365029533000,4.762532958984375,0.44512075185775757,-0.214962899684906,-0.0908268392086029
1775711365039547000,4.772546875,0.5059321522712708,-0.19532981514930725,-0.09204204380512238
1775711365049560000,4.78256005859375,0.5138960480690002,-0.16526378691196442,-0.11139070987701416
1775711365059573000,4.792572998046875,0.4897097945213318,-0.11605416983366013,-0.15730680525302887
1775711365069587000,4.8025869140625,0.4612882733345032,-0.03419259190559387,-0.20076878368854523
1775711365079599900,4.812599853515625,0.4076559245586395,0.10220253467559814,-0.2349240928888321
1775711365089613800,4.82261376953125,0.3593829274177551,0.24404142796993256,-0.24539723992347717
1775711365099627000,4.832626953125,0.3455672562122345,0.38921141624450684,-0.23547802865505219
1775711365109641000,4.842640869140625,0.37599706649780273,0.46540603041648865,-0.21390509605407715
1775711365119654000,4.85265380859375,0.4190009832382202,0.4677219092845917,-0.21979601681232452
1775711365129667000,4.8626669921875,0.45889726281166077,0.42251715064048767,-0.21499672532081604
1775711365139680800,4.8726806640625,0.48889830708503723,0.32520630955696106,-0.1895691305398941
1775711365149694000,4.88269384765625,0.5204573273658752,0.16767022013664246,-0.15092960000038147
1775711365159708000,4.8927080078125,0.5473118424415588,-0.0220847949385643,-0.10508434474468231
1775711365169720800,4.902720947265625,0.5482292771339417,-0.2030244916677475,-0.05676048621535301
1775711365179735000,4.912735107421875,0.5362653136253357,-0.33301684260368347,0.0057646785862743855
1775711365189748000,4.922748046875,0.5328130722045898,-0.3985157012939453,0.060501426458358765
1775711365199762000,4.932761962890625,0.5702581405639648,-0.3922356963157654,0.11269751936197281
1775711365209774800,4.94277490234375,0.6413294076919556,-0.3621765971183777,0.14907017350196838
1775711365219789000,4.9527890625,0.7321655750274658,-0.32752248644828796,0.1560892015695572
1775711365229802000,4.962802001953125,0.8173137307167053,-0.2821427285671234,0.1336374282836914
1775711365239815000,4.97281494140625,0.8602052927017212,-0.2033456563949585,0.1032281145453453
1775711365249829000,4.9828291015625,0.8836418986320496,-0.12187317758798599,0.06227775663137436
1775711365259841800,4.992841796875,0.88779217004776,-0.06259173899888992,0.0007368966471403837
1775711365269856000,5.00285595703125,0.8462817668914795,-0.03507942333817482,-0.058217234909534454
1775711365279869000,5.012868896484375,0.7821294069290161,-0.028248149901628494,-0.08734795451164246
1775711365289883000,5.0228828125,0.7068541049957275,-0.039800409227609634,-0.0994834452867508
1775711365299896000,5.03289599609375,0.6160488128662109,-0.051368650048971176,-0.10660846531391144
1775711365309909000,5.042908935546875,0.4910709261894226,-0.008436894044280052,-0.11034195125102997
1775711365319923000,5.0529228515625,0.33782756328582764,0.07655949145555496,-0.09977240115404129
1775711365329936100,5.06293603515625,0.23055784404277802,0.16025066375732422,-0.08204879611730576
1775711365339949800,5.07294970703125,0.19454924762248993,0.23036663234233856,-0.052430715411901474
1775711365349963000,5.082962890625,0.217988520860672,0.2316574603319168,0.007472297176718712
1775711365359977000,5.09297705078125,0.2722645401954651,0.23652198910713196,0.07679890841245651
1775711365369990000,5.102989990234375,0.34729084372520447,0.20242340862751007,0.1601361483335495
1775711365380003800,5.11300390625,0.43670088052749634,0.08232124149799347,0.19848193228244781
1775711365390017000,5.12301708984375,0.5195033550262451,-0.006902647204697132,0.17291133105754852
1775711365400030000,5.133030029296875,0.5371039509773254,-0.012857475318014622,0.10246565192937851
1775711365410044000,5.1430439453125,0.5187216997146606,0.0032408006954938173,0.014802115969359875
1775711365420057000,5.15305712890625,0.5051845908164978,0.0827188491821289,-0.0608937107026577
1775711365430070800,5.16307080078125,0.469187468290329,0.22216196358203888,-0.12542103230953217
1775711365440084000,5.173083984375,0.42431506514549255,0.3626444935798645,-0.18333014845848083
1775711365450098000,5.183097900390625,0.3649236261844635,0.5267924070358276,-0.2219153493642807
1775711365460110800,5.19311083984375,0.2894081175327301,0.6772224307060242,-0.24840927124023438
1775711365470125000,5.203125,0.23052749037742615,0.7643525004386902,-0.25323307514190674
1775711365480138000,5.213137939453125,0.24341292679309845,0.7722048759460449,-0.2263716161251068
1775711365490151000,5.22315087890625,0.28930026292800903,0.7311756610870361,-0.1893446296453476
1775711365500164900,5.233164794921875,0.3170647621154785,0.6280215978622437,-0.1457902193069458
1775711365510177800,5.243177734375,0.2968769371509552,0.49800658226013184,-0.062482018023729324
1775711365520192000,5.25319189453125,0.26627829670906067,0.2605453133583069,0.01050537172704935
1775711365530205000,5.263204833984375,0.28254222869873047,-0.029096100479364395,0.04302949085831642
1775711365540219100,5.27321923828125,0.30145519971847534,-0.2630161941051483,0.06775427609682083
1775711365550231800,5.283231689453125,0.27742600440979004,-0.3830168843269348,0.10458260029554367
1775711365560246000,5.29324609375,0.22500887513160706,-0.4045591950416565,0.14656227827072144
1775711365570259700,5.303259765625,0.16094253957271576,-0.36661502718925476,0.18494588136672974
1775711365580272600,5.313272705078125,0.10061715543270111,-0.24332210421562195,0.23954467475414276
1775711365590286800,5.323286865234375,0.04212907701730728,-0.06497660279273987,0.32562923431396484
1775711365600299500,5.333299560546875,-0.016576314345002174,0.07046644389629364,0.43535199761390686
1775711365610313700,5.343313720703125,-0.03274942561984062,0.08269807696342468,0.5609338879585266
1775711365620326700,5.35332666015625,-0.03918095678091049,-0.013341638259589672,0.7023312449455261
1775711365630340900,5.3633408203125,-0.0926620289683342,-0.19917595386505127,0.8330714106559753
1775711365640353800,5.373353759765625,-0.20136107504367828,-0.3765624463558197,0.9457334876060486
1775711365650366700,5.38336669921875,-0.3690803050994873,-0.4859001338481903,1.033545970916748
1775711365660380700,5.393380615234375,-0.5488812327384949,-0.5005787014961243,1.0835366249084473
1775711365670393600,5.4033935546875,-0.6786535978317261,-0.4750986099243164,1.0876541137695312
1775711365680407800,5.41340771484375,-0.7365515232086182,-0.4150714874267578,1.0615344047546387
1775711365690420700,5.423420654296875,-0.7378724217414856,-0.300471693277359,1.0431703329086304
1775711365700434700,5.4334345703125,-0.6813377737998962,-0.1916581094264984,1.0586028099060059
1775711365710447900,5.44344775390625,-0.6264159679412842,-0.07054154574871063,1.0737255811691284
1775711365720461600,5.453461669921875,-0.6222736835479736,0.012065717950463295,1.0921170711517334
1775711365730474800,5.463474853515625,-0.6501021385192871,-0.052568670362234116,1.0546234846115112
1775711365740488000,5.473488037109375,-0.6750588417053223,-0.17333875596523285,0.9843394756317139
1775711365750501600,5.483501708984375,-0.7129694819450378,-0.3442409932613373,0.8733735680580139
1775711365760514800,5.493514892578125,-0.7358929514884949,-0.4874708652496338,0.7396594285964966
1775711365770528800,5.50352880859375,-0.6993535757064819,-0.5849028825759888,0.5914028286933899
1775711365780541700,5.513541748046875,-0.6360502243041992,-0.6214478611946106,0.47024980187416077
1775711365790555600,5.5235556640625,-0.5705447196960449,-0.635094940662384,0.4322395622730255
1775711365800568800,5.53356884765625,-0.5130054950714111,-0.690762460231781,0.4434935450553894
1775711365810581800,5.543581787109375,-0.5278441309928894,-0.6609268188476562,0.4842185974121094
1775711365820595700,5.553595703125,-0.7064746022224426,-0.534306526184082,0.5480489730834961
1775711365830608600,5.563608642578125,-0.9229416251182556,-0.44130656123161316,0.5485067963600159
1775711365840622600,5.57362255859375,-1.0141717195510864,-0.40962374210357666,0.463096022605896
1775711365850635800,5.5836357421875,-0.9611151218414307,-0.4296927750110626,0.2457413226366043
1775711365860649700,5.593649658203125,-0.7819461822509766,-0.417147696018219,-0.049362488090991974
1775711365870662700,5.60366259765625,-0.5544200539588928,-0.3694462180137634,-0.3406691551208496
1775711365880676900,5.6136767578125,-0.4091065526008606,-0.3135960102081299,-0.5839768648147583
1775711365890689500,5.623689453125,-0.35021498799324036,-0.2855851352214813,-0.7526665925979614
1775711365900702700,5.63370263671875,-0.3365021049976349,-0.23712679743766785,-0.8313954472541809
1775711365910716700,5.643716552734375,-0.4410940408706665,-0.1547831892967224,-0.813524067401886
1775711365920729600,5.6537294921875,-0.569341778755188,-0.09244418144226074,-0.7174153923988342
1775711365930743800,5.663743896484375,-0.6188499331474304,-0.06654014438390732,-0.5932457447052002
1775711365940756700,5.6737568359375,-0.6417136788368225,-0.05903375893831253,-0.47582805156707764
1775711365950770700,5.683770751953125,-0.619633674621582,-0.09866585582494736,-0.3531191647052765
1775711365960783600,5.69378369140625,-0.5277924537658691,-0.2227632999420166,-0.2642633318901062
1775711365970796800,5.703796875,-0.4408964216709137,-0.4064963757991791,-0.22688135504722595
1775711365980810800,5.713810791015625,-0.3462037444114685,-0.603184700012207,-0.2260696142911911
1775711365990823700,5.72382373046875,-0.22775620222091675,-0.7830258011817932,-0.2664649784564972
1775711366000838000,5.733837890625,-0.12419118732213974,-0.9011098146438599,-0.33822280168533325
1775711366010850600,5.7438505859375,-0.10043472796678543,-0.9097493886947632,-0.3965774476528168
1775711366020864800,5.75386474609375,-0.1652584671974182,-0.834667444229126,-0.4058838486671448
1775711366030877700,5.763877685546875,-0.2543601095676422,-0.7033746838569641,-0.3676067888736725
1775711366040890600,5.773890625,-0.32838985323905945,-0.6188246011734009,-0.2995595335960388
1775711366050904800,5.78390478515625,-0.3630319833755493,-0.575623095035553,-0.21716932952404022
1775711366060917500,5.79391748046875,-0.3652879595756531,-0.5241657495498657,-0.13976483047008514
1775711366070931700,5.803931640625,-0.3742460310459137,-0.49848541617393494,-0.08988168835639954
1775711366080945000,5.81394482421875,-0.3913760185241699,-0.5137432217597961,-0.05138968676328659
1775711366090958600,5.82395849609375,-0.39894604682922363,-0.5259508490562439,-0.02431998774409294
1775711366100971800,5.8339716796875,-0.39304688572883606,-0.5150753259658813,0.005907157436013222
1775711366110985700,5.84398583984375,-0.365554541349411,-0.5223899483680725,0.04024782031774521
1775711366120998700,5.85399853515625,-0.31484130024909973,-0.5316798686981201,0.05498255789279938
1775711366131011800,5.86401171875,-0.25123780965805054,-0.5330833792686462,0.07852836698293686
1775711366141025800,5.87402587890625,-0.18203584849834442,-0.5197781920433044,0.12695714831352234
1775711366151038700,5.884038818359375,-0.0979611873626709,-0.4917643964290619,0.16292206943035126
1775711366161052700,5.894052734375,-0.02106853388249874,-0.4409233331680298,0.17574332654476166
1775711366171065900,5.90406591796875,0.046367231756448746,-0.34351876378059387,0.17521363496780396
1775711366181079600,5.91407958984375,0.10019078105688095,-0.2247132658958435,0.1522049754858017
1775711366191092700,5.9240927734375,0.1490374207496643,-0.10587316751480103,0.11556840687990189
1775711366201105700,5.934105712890625,0.18962505459785461,0.0009661948424763978,0.05299637094140053
1775711366211119600,5.94411962890625,0.21252503991127014,0.11591248959302902,-0.04646363854408264
1775711366221132800,5.9541328125,0.21743884682655334,0.21609900891780853,-0.17001700401306152
1775711366231146800,5.964146728515625,0.21631525456905365,0.3097703754901886,-0.26046222448349
1775711366241159700,5.97415966796875,0.2162894308567047,0.37485218048095703,-0.30477428436279297
1775711366251173600,5.984173583984375,0.2019491046667099,0.3734758496284485,-0.32734936475753784
1775711366261186600,5.9941865234375,0.15933719277381897,0.34373846650123596,-0.3368786871433258
1775711366271199700,6.00419970703125,0.11020400375127792,0.3391578197479248,-0.33793967962265015
1775711366281213700,6.014213623046875,0.07245289534330368,0.31231075525283813,-0.33859509229660034
1775711366291226600,6.0242265625,0.0852310061454773,0.24684014916419983,-0.3162088394165039
1775711366301240600,6.034240478515625,0.13897839188575745,0.16146612167358398,-0.3115618824958801
1775711366311253800,6.044253662109375,0.16461078822612762,0.08020801842212677,-0.299878865480423
1775711366321267700,6.054267822265625,0.13961835205554962,0.031988292932510376,-0.2742992043495178
1775711366331280600,6.06428076171875,0.0834280475974083,0.025547437369823456,-0.2438664585351944
1775711366341293800,6.0742939453125,0.026196449995040894,0.029474802315235138,-0.21445104479789734
1775711366351307500,6.0843076171875,-0.020626714453101158,0.034084200859069824,-0.20349985361099243
1775711366361320700,6.09432080078125,-0.06753483414649963,0.03759877383708954,-0.22051213681697845
1775711366371335000,6.1043349609375,-0.11668320745229721,0.06717264652252197,-0.24078518152236938
1775711366381347600,6.11434765625,-0.15916435420513153,0.11112039536237717,-0.2634236514568329
1775711366391361800,6.12436181640625,-0.20061220228672028,0.11610956490039825,-0.29000839591026306
1775711366401374700,6.134374755859375,-0.2114856094121933,0.08512581139802933,-0.3066323697566986
1775711366411388700,6.144388671875,-0.1753193587064743,0.0076003954745829105,-0.30881696939468384
1775711366421401900,6.15440185546875,-0.1272498369216919,-0.10162569582462311,-0.29275622963905334
1775711366431414500,6.16441455078125,-0.06739901751279831,-0.18454082310199738,-0.26479917764663696
1775711366441428700,6.1744287109375,-0.013548566028475761,-0.2597239911556244,-0.24782365560531616
1775711366451441700,6.184441650390625,0.00569889834150672,-0.3358733355998993,-0.22933971881866455
1775711366461456000,6.194455810546875,-0.00580702256411314,-0.40763649344444275,-0.2083345651626587
1775711366471468800,6.20446875,-0.026740267872810364,-0.44555723667144775,-0.1848396211862564
1775711366481482800,6.214482666015625,-0.07549475878477097,-0.46099185943603516,-0.14659716188907623
1775711366491495700,6.22449560546875,-0.12974680960178375,-0.42213019728660583,-0.09661468863487244
1775711366501508600,6.234508544921875,-0.14941318333148956,-0.38450345396995544,-0.05639909207820892
1775711366511522800,6.244522705078125,-0.13185976445674896,-0.4360335171222687,-0.034940674901008606
1775711366521535700,6.25453564453125,-0.0792229175567627,-0.49509549140930176,-0.053714361041784286
1775711366531549700,6.2645498046875,-0.010666492395102978,-0.5278939008712769,-0.11782383918762207
1775711366541563000,6.27456298828125,0.039806000888347626,-0.5340256094932556,-0.21759358048439026
1775711366551576600,6.28457666015625,0.06980358064174652,-0.517200767993927,-0.2918073534965515
1775711366561589800,6.29458984375,0.10303930193185806,-0.4562474191188812,-0.31704241037368774
1775711366571602400,6.3046025390625,0.13660551607608795,-0.37149578332901,-0.3306117355823517
1775711366581616400,6.314616455078125,0.153860941529274,-0.24757064878940582,-0.36764299869537354
1775711366591629300,6.32462939453125,0.16210713982582092,-0.08554951846599579,-0.4523219168186188
1775711366601643300,6.334643310546875,0.13887719810009003,0.06524664908647537,-0.5733503699302673
1775711366611656400,6.344656494140625,0.07082277536392212,0.2313714325428009,-0.6967071890830994
1775711366621670100,6.354670166015625,-0.026142921298742294,0.4008105397224426,-0.7949562668800354
1775711366631683300,6.364683349609375,-0.10226165503263474,0.45610228180885315,-0.7880179286003113
1775711366641696300,6.3746962890625,-0.11110095679759979,0.32860636711120605,-0.6903350353240967
1775711366651710200,6.384710205078125,-0.07465559244155884,0.09695557504892349,-0.5423935055732727
1775711366661723400,6.394723388671875,-0.01643037237226963,-0.11280404776334763,-0.3778218626976013
1775711366671737300,6.4047373046875,0.016162192448973656,-0.2289961725473404,-0.31417977809906006
1775711366681750300,6.414750244140625,-0.022222215309739113,-0.26968392729759216,-0.3662427067756653
1775711366691764500,6.424764404296875,-0.11061199754476547,-0.20788848400115967,-0.46304914355278015
1775711366701777200,6.434777099609375,-0.22375400364398956,-0.08503073453903198,-0.5547329783439636
1775711366711790300,6.444790283203125,-0.343774676322937,0.05067436397075653,-0.5864325761795044
1775711366721804300,6.45480419921875,-0.45075440406799316,0.181247279047966,-0.5380014181137085
1775711366731817200,6.464817138671875,-0.5127698183059692,0.21109360456466675,-0.41119953989982605
1775711366741831400,6.47483154296875,-0.5234259366989136,0.11586029082536697,-0.18349845707416534
1775711366751844400,6.48484423828125,-0.5084600448608398,-0.06422266364097595,0.09043322503566742
1775711366761858300,6.4948583984375,-0.4868335723876953,-0.26824450492858887,0.3396773934364319
1775711366771871200,6.504871337890625,-0.4585649073123932,-0.3925773799419403,0.5027691125869751
1775711366781884400,6.514884521484375,-0.43963757157325745,-0.4157719016075134,0.576445460319519
1775711366791898400,6.5248984375,-0.42478272318840027,-0.3685058653354645,0.5893314480781555
1775711366801911300,6.534911376953125,-0.4088101387023926,-0.29368168115615845,0.5610347986221313
1775711366811925500,6.544925537109375,-0.39338618516921997,-0.16839860379695892,0.4874679446220398
1775711366821938200,6.554938232421875,-0.37229686975479126,0.003278883872553706,0.37534645199775696
1775711366831952400,6.564952392578125,-0.31829833984375,0.11622487753629684,0.25900545716285706
1775711366841965300,6.57496533203125,-0.24012738466262817,0.1451880782842636,0.1720156967639923
1775711366851978200,6.584978271484375,-0.1530795693397522,0.13500149548053741,0.11420300602912903
1775711366861992400,6.594992431640625,-0.10307871550321579,0.16878396272659302,0.1015109121799469
1775711366872005000,6.605005126953125,-0.07628811150789261,0.23622505366802216,0.13609179854393005
1775711366882019300,6.615019287109375,-0.06187508627772331,0.25871676206588745,0.19052627682685852
1775711366892032500,6.625032470703125,-0.062187474220991135,0.2349613755941391,0.23913109302520752
1775711366902045200,6.635045166015625,-0.06335952877998352,0.20354433357715607,0.250861257314682
1775711366912059400,6.645059326171875,-0.05060671642422676,0.156513974070549,0.2009565383195877
1775711366922072300,6.655072265625,-0.019403524696826935,0.10945698618888855,0.10970785468816757
1775711366932086300,6.665086181640625,0.03230121359229088,0.0309230275452137,-0.0008143946761265397
1775711366942099500,6.675099365234375,0.0698363408446312,-0.03243304044008255,-0.13361185789108276
1775711366952113400,6.685113525390625,0.08332977443933487,-0.026379410177469254,-0.2573833465576172
1775711366962126300,6.695126220703125,0.08319661766290665,0.041977278888225555,-0.3558201491832733
1775711366972139300,6.70513916015625,0.0835508182644844,0.1480770856142044,-0.41817593574523926
1775711366982153500,6.715153564453125,0.0820530578494072,0.26440155506134033,-0.4631149172782898
1775711366992166400,6.72516650390625,0.08268821984529495,0.3547378480434418,-0.4739076495170593
1775711367002180400,6.735180419921875,0.08287438005208969,0.426300972700119,-0.4326068162918091
1775711367012193500,6.745193603515625,0.06952554732561111,0.44571277499198914,-0.32320550084114075
1775711367022207200,6.755207275390625,0.04706018790602684,0.3988659083843231,-0.15594592690467834
1775711367032220400,6.765220458984375,0.015253787860274315,0.3084244132041931,0.0204597357660532
1775711367042233300,6.7752333984375,-0.028448952361941338,0.21028107404708862,0.15624207258224487
1775711367052247300,6.785247314453125,-0.08344988524913788,0.12138474732637405,0.2314651757478714
1775711367062260500,6.795260498046875,-0.15325400233268738,0.0689295306801796,0.2452949732542038
1775711367072274400,6.8052744140625,-0.25595054030418396,0.03575479984283447,0.21398764848709106
1775711367082287400,6.815287353515625,-0.36746108531951904,0.028079304844141006,0.17281252145767212
1775711367092301300,6.82530126953125,-0.4704572558403015,0.044313136488199234,0.16338972747325897
1775711367102314200,6.835314208984375,-0.561721682548523,0.057984206825494766,0.21899093687534332
1775711367112327400,6.845327392578125,-0.6085700988769531,0.04229312762618065,0.3300231695175171
1775711367122341400,6.85534130859375,-0.6087589263916016,-0.008871255442500114,0.46725213527679443
1775711367132354300,6.865354248046875,-0.5759458541870117,-0.07178018242120743,0.5881391763687134
1775711367142368300,6.8753681640625,-0.5395287275314331,-0.1267816424369812,0.6775936484336853
1775711367152381400,6.88538134765625,-0.5058080554008484,-0.16851657629013062,0.717069149017334
1775711367162394400,6.895394287109375,-0.48316532373428345,-0.18127311766147614,0.6912439465522766
1775711367172408300,6.905408203125,-0.4534873366355896,-0.16602438688278198,0.6181692481040955
1775711367182421500,6.91542138671875,-0.40416398644447327,-0.1406865417957306,0.5394334197044373
1775711367192435200,6.925435302734375,-0.3417554795742035,-0.12118208408355713,0.45417308807373047
1775711367202448400,6.935448486328125,-0.27319663763046265,-0.09593984484672546,0.3543442189693451
1775711367212462300,6.94546240234375,-0.19458280503749847,-0.06601949781179428,0.2553739845752716
1775711367222475300,6.955475341796875,-0.10971424728631973,-0.024540230631828308,0.18510593473911285
1775711367232488400,6.965488525390625,-0.024754881858825684,0.004461593925952911,0.15485243499279022
1775711367242502100,6.975502197265625,0.07010984420776367,-0.005510346498340368,0.1397499144077301
1775711367252515300,6.985515380859375,0.17114165425300598,0.00166580721270293,0.11151747405529022
1775711367262529300,6.995529296875,0.2518916130065918,0.03461496904492378,0.06489351391792297
1775711367272542200,7.005542236328125,0.31986507773399353,0.07594003528356552,-0.005309277679771185
1775711367282556400,7.015556396484375,0.3666565716266632,0.15018071234226227,-0.08424164354801178
1775711367292569300,7.0255693359375,0.3855285048484802,0.22715379297733307,-0.13234658539295197
1775711367302582300,7.035582275390625,0.39650020003318787,0.2627123296260834,-0.1485724300146103
1775711367312596200,7.04559619140625,0.40308353304862976,0.2638761103153229,-0.1430698037147522
1775711367322609400,7.055609375,0.3940546214580536,0.26436081528663635,-0.12450198084115982
1775711367332623400,7.065623291015625,0.3793467879295349,0.25868508219718933,-0.10020516067743301
1775711367342636300,7.07563623046875,0.3601837456226349,0.23195067048072815,-0.05678604915738106
1775711367352649500,7.0856494140625,0.33721503615379333,0.17752471566200256,0.006650179624557495
1775711367362663200,7.0956630859375,0.3097197711467743,0.10786042362451553,0.07118922472000122
1775711367372676400,7.10567626953125,0.29374054074287415,0.04250378534197807,0.12462075799703598
1775711367382690300,7.115690185546875,0.2926526367664337,-0.013216735795140266,0.1582101434469223
1775711367392703200,7.125703125,0.3032786548137665,-0.04610810801386833,0.15175996720790863
1775711367402717400,7.135717529296875,0.32158735394477844,-0.049247972667217255,0.12253443896770477
1775711367412730000,7.145730224609375,0.3352251350879669,-0.03874606266617775,0.08488693088293076
1775711367422743300,7.155743408203125,0.3364720344543457,-0.009924269281327724,0.04554431512951851
1775711367432757500,7.165757568359375,0.30919352173805237,0.038840338587760925,0.027416976168751717
1775711367442770200,7.175770263671875,0.2942310869693756,0.0872504860162735,0.03780730068683624
1775711367452784400,7.185784423828125,0.3110803961753845,0.13051193952560425,0.07940267771482468
1775711367462797300,7.19579736328125,0.33672982454299927,0.17935697734355927,0.13419295847415924
1775711367472811300,7.205811279296875,0.36449193954467773,0.20562240481376648,0.18881572782993317
1775711367482824400,7.215824462890625,0.3971042037010193,0.20758141577243805,0.2549968659877777
1775711367492837400,7.22583740234375,0.4289247393608093,0.16105200350284576,0.3353146016597748
1775711367502851300,7.235851318359375,0.47149375081062317,0.07558796554803848,0.39435237646102905
1775711367512864300,7.2458642578125,0.5286108255386353,-0.02845587581396103,0.4339751601219177
1775711367522878500,7.25587841796875,0.5964503288269043,-0.10171597450971603,0.4556221067905426
1775711367532891400,7.265891357421875,0.6417733430862427,-0.1376822292804718,0.44437238574028015
1775711367542904300,7.275904296875,0.657965362071991,-0.12090937793254852,0.3988025188446045
1775711367552918500,7.28591845703125,0.6479412317276001,-0.10134819149971008,0.3303067982196808
1775711367562931200,7.29593115234375,0.6164419054985046,-0.043901942670345306,0.2437620609998703
1775711367572945200,7.305945068359375,0.5650780200958252,0.03802567720413208,0.15199725329875946
1775711367582958300,7.315958251953125,0.5323264598846436,0.08353377878665924,0.07477623969316483
1775711367592972000,7.325971923828125,0.4999043643474579,0.09537046402692795,0.028961077332496643
1775711367602985200,7.335985107421875,0.45865893363952637,0.05808913707733154,0.010046775452792645
1775711367612998000,7.345997802734375,0.441949725151062,-0.024416659027338028,0.004933505784720182
1775711367623012000,7.35601220703125,0.4399278461933136,-0.12442102283239365,0.023540746420621872
1775711367633025300,7.366025390625,0.4529522955417633,-0.19844171404838562,0.06207695230841637
1775711367643039200,7.376039306640625,0.47930455207824707,-0.21570992469787598,0.1105978861451149
1775711367653052200,7.38605224609375,0.4619300663471222,-0.2111005187034607,0.15516908466815948
1775711367663065000,7.396065185546875,0.4245275855064392,-0.22285491228103638,0.17067347466945648
1775711367673079000,7.4060791015625,0.3977138102054596,-0.233902245759964,0.14272280037403107
1775711367683092200,7.41609228515625,0.360135555267334,-0.19151777029037476,0.07530434429645538
1775711367693106200,7.426106201171875,0.3213506042957306,-0.15097565948963165,0.002590989461168647
1775711367703119000,7.436119140625,0.2881114184856415,-0.09594570100307465,-0.051950015127658844
1775711367713132000,7.446132080078125,0.2578912079334259,-0.007559116464108229,-0.07944422215223312
1775711367723146200,7.456146240234375,0.26124146580696106,0.0683383122086525,-0.08916955441236496
1775711367733159200,7.4661591796875,0.2677251994609833,0.1460307091474533,-0.0851641595363617
1775711367743173000,7.476173095703125,0.2896778881549835,0.20552679896354675,-0.047319311648607254
1775711367753186300,7.486186279296875,0.3309352993965149,0.1894596815109253,0.015017831698060036
1775711367763200000,7.496199951171875,0.3501391112804413,0.17758889496326447,0.05895892530679703
1775711367773213200,7.506213134765625,0.35356393456459045,0.13201981782913208,0.07678798586130142
1775711367783226000,7.51622607421875,0.3813428282737732,0.0550970733165741,0.08656125515699387
1775711367793240000,7.526239990234375,0.424466609954834,-0.04650651663541794,0.10493360459804535
1775711367803253200,7.536253173828125,0.4566541016101837,-0.17321279644966125,0.1158488392829895
1775711367813267200,7.54626708984375,0.45222020149230957,-0.21540099382400513,0.10182277113199234
1775711367823280000,7.556280029296875,0.3909560441970825,-0.18232107162475586,0.06565731018781662
1775711367833294000,7.566294189453125,0.39328497648239136,-0.11504882574081421,0.03558222949504852
1775711367843307000,7.57630712890625,0.41028526425361633,-0.02095108851790428,0.015222095884382725
1775711367853320200,7.5863203125,0.40552860498428345,0.04231496527791023,-0.014364824630320072
1775711367863334100,7.596334228515625,0.3735525608062744,0.13020195066928864,-0.035292476415634155
1775711367873347000,7.60634716796875,0.3145941495895386,0.19549919664859772,-0.03616013377904892
1775711367883361000,7.616361083984375,0.319225937128067,0.18566493690013885,-0.009643838740885258
1775711367893374200,7.626374267578125,0.3582436442375183,0.18546919524669647,0.045755770057439804
1775711367903387100,7.63638720703125,0.3891916871070862,0.19711174070835114,0.08064877241849899
1775711367913401000,7.646401123046875,0.39225539565086365,0.2561708092689514,0.06380853801965714
1775711367923414300,7.656414306640625,0.3406316041946411,0.3762388825416565,0.008199873380362988
1775711367933428000,7.666427978515625,0.2937251031398773,0.46670618653297424,-0.057970624417066574
1775711367943441200,7.676441162109375,0.27654343843460083,0.5116116404533386,-0.09801311790943146
1775711367953454000,7.6864541015625,0.2612672746181488,0.460036039352417,-0.08826833963394165
1775711367963468000,7.696468017578125,0.2540682256221771,0.3427613377571106,-0.03513748198747635
1775711367973481200,7.706481201171875,0.2792105972766876,0.15483911335468292,0.06400854140520096
1775711367983495200,7.7164951171875,0.33040639758110046,-0.05570507422089577,0.18350458145141602
1775711367993508000,7.726508056640625,0.39293476939201355,-0.20203112065792084,0.30711787939071655
1775711368003522000,7.73652197265625,0.39696067571640015,-0.20665811002254486,0.3977694809436798
1775711368013535000,7.746534912109375,0.3466074764728546,-0.11775965988636017,0.43219295144081116
1775711368023548200,7.756548095703125,0.292743980884552,-0.010012154467403889,0.4184023141860962
1775711368033562000,7.76656201171875,0.22693967819213867,0.07793287932872772,0.3713200092315674
1775711368043575000,7.776574951171875,0.14884141087532043,0.1401112973690033,0.3024360239505768
1775711368053589000,7.786589111328125,0.08396494388580322,0.16351009905338287,0.2504247725009918
1775711368063602200,7.796602294921875,0.017844244837760925,0.17821873724460602,0.22993625700473785
1775711368073615000,7.806614990234375,-0.06766106933355331,0.18323320150375366,0.22573699057102203
1775711368083629000,7.816629150390625,-0.14034885168075562,0.1628677397966385,0.21519780158996582
1775711368093642200,7.826642333984375,-0.17069530487060547,0.1078801304101944,0.21041475236415863
1775711368103656000,7.836656005859375,-0.18527638912200928,0.048643436282873154,0.22953492403030396
1775711368113669000,7.846669189453125,-0.20836465060710907,0.02130449004471302,0.2587053179740906
1775711368123682000,7.85668212890625,-0.25052621960639954,-0.016768593341112137,0.2658471167087555
1775711368133696000,7.866696044921875,-0.3062573969364166,-0.05432582274079323,0.25338858366012573
1775711368143709200,7.876709228515625,-0.36898815631866455,-0.017764350399374962,0.2306172251701355
1775711368153723100,7.88672314453125,-0.47392868995666504,0.037394776940345764,0.19417187571525574
1775711368163736000,7.896736083984375,-0.5489233136177063,0.07376609742641449,0.14168016612529755
1775711368173750300,7.906750244140625,-0.5412297248840332,0.05300196632742882,0.1118578240275383
1775711368183763000,7.916762939453125,-0.4626792371273041,0.017361147329211235,0.11318860948085785
1775711368193776000,7.926776123046875,-0.33352789282798767,0.03125139698386192,0.12819792330265045
1775711368203790000,7.9367900390625,-0.22929124534130096,0.0671505406498909,0.13756798207759857
1775711368213803000,7.946802978515625,-0.19201284646987915,0.11787177622318268,0.1477886587381363
1775711368223817200,7.956817138671875,-0.21197962760925293,0.15195943415164948,0.15191149711608887
1775711368233830100,7.966830078125,-0.24662043154239655,0.17033632099628448,0.13480441272258759
1775711368243843000,7.976843017578125,-0.28791141510009766,0.20096905529499054,0.10851901769638062
1775711368253857000,7.98685693359375,-0.3150029480457306,0.21443507075309753,0.09667407721281052
1775711368263870200,7.9968701171875,-0.31593480706214905,0.19827154278755188,0.09564369916915894
1775711368273884200,8.00688427734375,-0.32240575551986694,0.16090765595436096,0.08791574090719223
1775711368283897000,8.01689697265625,-0.3044975697994232,0.10080677270889282,0.07827509939670563
1775711368293910000,8.026909912109375,-0.2622222900390625,0.03436809405684471,0.06564079225063324
1775711368303924000,8.036924072265625,-0.24069862067699432,0.05625634640455246,0.05344085395336151
1775711368313937200,8.046937255859374,-0.25717586278915405,0.12613849341869354,0.058817509561777115
1775711368323951000,8.056951171875,-0.29928603768348694,0.15959233045578003,0.09282474219799042
1775711368333964000,8.066964111328126,-0.3492621183395386,0.15751878917217255,0.11747442930936813
1775711368343977200,8.076977294921875,-0.4073110520839691,0.14545387029647827,0.12162097543478012
1775711368353991000,8.086990966796876,-0.4554074704647064,0.04776619002223015,0.13120542466640472
1775711368364004000,8.097004150390624,-0.4638526141643524,-0.11250817030668259,0.16441477835178375
1775711368374018300,8.107018310546875,-0.43087443709373474,-0.24776186048984528,0.20514196157455444
1775711368384031000,8.117031005859374,-0.3727903664112091,-0.3084883391857147,0.20980516076087952
1775711368394045200,8.127045166015625,-0.34487855434417725,-0.2758784592151642,0.17663203179836273
1775711368404058000,8.13705810546875,-0.3646048605442047,-0.1872148960828781,0.12025610357522964
1775711368414071000,8.147071044921875,-0.37210938334465027,-0.045215949416160583,0.05002108961343765
1775711368424085200,8.157085205078126,-0.36766722798347473,0.07882583886384964,-0.02280384860932827
1775711368434098000,8.167097900390624,-0.3541804552078247,0.1591435819864273,-0.0900968685746193
1775711368444112100,8.177112060546875,-0.30053186416625977,0.20829860866069794,-0.13801752030849457
1775711368454125000,8.187125,-0.25278350710868835,0.24022671580314636,-0.16562597453594208
1775711368464138000,8.197137939453125,-0.21705801784992218,0.25666242837905884,-0.16026610136032104
1775711368474152200,8.207152099609376,-0.16838261485099792,0.27566805481910706,-0.13803403079509735
1775711368484165000,8.2171650390625,-0.13091647624969482,0.297863632440567,-0.11012943089008331
1775711368494179000,8.227178955078125,-0.12190060317516327,0.329282283782959,-0.07395278662443161
1775711368504192000,8.23719189453125,-0.13569098711013794,0.34833961725234985,-0.038303714245557785
1775711368514205200,8.247205078125,-0.16580148041248322,0.3520456552505493,-0.024279240518808365
1775711368524219100,8.25721923828125,-0.20706556737422943,0.35021552443504333,-0.05356522276997566
1775711368534232000,8.267232177734375,-0.26485830545425415,0.35095828771591187,-0.11385519802570343
1775711368544246300,8.277246337890626,-0.3252872824668884,0.35180598497390747,-0.17305247485637665
1775711368554259000,8.287259033203124,-0.37201988697052,0.3586899936199188,-0.22930695116519928
1775711368564272000,8.297272216796875,-0.41630399227142334,0.35844042897224426,-0.274471253156662
1775711368574286300,8.307286376953124,-0.4703930616378784,0.36366769671440125,-0.2770718038082123
1775711368584299500,8.317299560546875,-0.5064170956611633,0.3603736162185669,-0.21118947863578796
1775711368594313500,8.3273134765625,-0.519362211227417,0.295429527759552,-0.11119389533996582
1775711368604326400,8.337326416015625,-0.49564942717552185,0.20639418065547943,0.0013720606220886111
1775711368614339300,8.34733935546875,-0.43115273118019104,0.11876313388347626,0.10997869819402695
1775711368624353500,8.357353515625,-0.3359771966934204,0.05871284753084183,0.16062776744365692
1775711368634366500,8.367366455078125,-0.2487775981426239,0.0549284964799881,0.1648091971874237
1775711368644380700,8.377380615234374,-0.19067993760108948,0.10336021333932877,0.1529615819454193
1775711368654393300,8.387393310546875,-0.14876577258110046,0.1817580759525299,0.11909549683332443
1775711368664406500,8.397406494140625,-0.11295797675848007,0.2678799033164978,0.059305667877197266
1775711368674420500,8.40742041015625,-0.09734998643398285,0.3665846586227417,-0.034621093422174454
1775711368684433400,8.417433349609375,-0.08862840384244919,0.4782448709011078,-0.14693404734134674
1775711368694447600,8.427447509765624,-0.10016068816184998,0.6001862287521362,-0.23027341067790985
1775711368704460300,8.437460205078125,-0.13438311219215393,0.6763665080070496,-0.2621573209762573
1775711368714473500,8.447473388671876,-0.17162156105041504,0.6800496578216553,-0.25238192081451416
1775711368724487400,8.4574873046875,-0.18262973427772522,0.6382449269294739,-0.22485361993312836
1775711368734500400,8.467500244140625,-0.17835135757923126,0.5447384119033813,-0.1926986128091812
1775711368744514600,8.4775146484375,-0.16349491477012634,0.42425408959388733,-0.15136289596557617
1775711368754527500,8.487527587890625,-0.14892369508743286,0.2802359163761139,-0.08896848559379578
1775711368764540400,8.49754052734375,-0.1440993845462799,0.12916676700115204,-0.007129015866667032
1775711368774554400,8.507554443359375,-0.15658880770206451,-0.03170653060078621,0.07109308242797852
1775711368784567300,8.5175673828125,-0.1831972450017929,-0.17228442430496216,0.12889645993709564
1775711368794581500,8.52758154296875,-0.21486543118953705,-0.25151291489601135,0.14281733334064484
1775711368804594400,8.537594482421875,-0.26374855637550354,-0.2688863277435303,0.1289300173521042
1775711368814607400,8.547607421875,-0.30406561493873596,-0.26968899369239807,0.10798052698373795
1775711368824621300,8.557621337890625,-0.3138290345668793,-0.2717300355434418,0.08586670458316803
1775711368834634500,8.567634521484376,-0.31561973690986633,-0.2599402368068695,0.060628458857536316
1775711368844648400,8.5776484375,-0.31439414620399475,-0.21873153746128082,0.03437848016619682
1775711368854661400,8.587661376953125,-0.2993590235710144,-0.16356682777404785,0.0073500582948327065
1775711368864675600,8.597675537109374,-0.27158278226852417,-0.09569456428289413,-0.017910290509462357
1775711368874688500,8.6076884765625,-0.24131248891353607,-0.013020993210375309,-0.03726614639163017
1775711368884701400,8.617701416015626,-0.20689459145069122,0.05752880498766899,-0.03484693169593811
1775711368894715600,8.627715576171875,-0.1537642627954483,0.09549643099308014,-0.033302031457424164
1775711368904728300,8.637728271484375,-0.0865362212061882,0.10606491565704346,-0.046066027134656906
1775711368914742500,8.647742431640625,-0.0008455536444671452,0.06812126189470291,-0.06239333748817444
1775711368924755500,8.65775537109375,0.08911363035440445,0.00293400464579463,-0.08482647687196732
1775711368934768400,8.667768310546874,0.14227378368377686,-0.022896526381373405,-0.12754011154174805
1775711368944782600,8.677782470703125,0.15261298418045044,-0.01785968989133835,-0.18893423676490784
1775711368954795300,8.687795166015626,0.1422668695449829,0.009778860956430435,-0.2421433925628662
1775711368964808400,8.697808349609375,0.11327063292264938,0.03311347961425781,-0.28608235716819763
1775711368974822400,8.707822509765625,0.07645323127508163,0.04370300471782684,-0.3154143989086151
1775711368984835300,8.71783544921875,0.040406011044979095,0.05077396333217621,-0.33097633719444275
1775711368994849500,8.727849609375,0.009738913737237453,0.034882884472608566,-0.3200640380382538
1775711369004862500,8.737862548828126,-0.021219534799456596,-0.01261086668819189,-0.28371667861938477
1775711369014876400,8.74787646484375,-0.05234469845890999,-0.09138983488082886,-0.23984003067016602
1775711369024889300,8.757889404296876,-0.07835978269577026,-0.20349852740764618,-0.19833119213581085
1775711369034902500,8.767902587890624,-0.09558537602424622,-0.31396380066871643,-0.14588317275047302
1775711369044916500,8.77791650390625,-0.11744753271341324,-0.40418848395347595,-0.08501555770635605
1775711369054929400,8.787929443359374,-0.14481763541698456,-0.4792550206184387,-0.036858148872852325
1775711369064943600,8.797943603515625,-0.1914173662662506,-0.4947687089443207,-0.005372128449380398
1775711369074956500,8.80795654296875,-0.2432509958744049,-0.44954851269721985,0.021273063495755196
1775711369084969500,8.817969482421875,-0.2813917398452759,-0.36821770668029785,0.03285754844546318
1775711369094983400,8.8279833984375,-0.30065569281578064,-0.2757178544998169,0.05122910067439079
1775711369104996400,8.837996337890624,-0.2824881672859192,-0.2231433391571045,0.0807981789112091
1775711369115010600,8.848010498046875,-0.22135049104690552,-0.23401010036468506,0.11050999909639359
1775711369125023500,8.8580234375,-0.14368818700313568,-0.27224138379096985,0.127356618642807
1775711369135036400,8.868036376953125,-0.06449776887893677,-0.2971392571926117,0.11594977229833603
1775711369145050600,8.878050537109376,0.020295683294534683,-0.30742865800857544,0.09488309919834137
1775711369155063300,8.888063232421874,0.13763029873371124,-0.3566438853740692,0.0684530958533287
1775711369165077500,8.898077392578125,0.271860271692276,-0.42766690254211426,0.03466343879699707
1775711369175090400,8.90809033203125,0.36758387088775635,-0.4766443073749542,-0.03274303302168846
1775711369185103400,8.918103271484375,0.3941398561000824,-0.4510079324245453,-0.12164254486560822
1775711369195117600,8.92811767578125,0.3529857397079468,-0.35720208287239075,-0.20872125029563904
1775711369205130200,8.938130126953125,0.29265981912612915,-0.2679060101509094,-0.273131400346756
1775711369215143400,8.948143310546875,0.226131409406662,-0.22037763893604279,-0.3154304027557373
1775711369225157400,8.958157470703124,0.16655515134334564,-0.2192324846982956,-0.33182933926582336
1775711369235170300,8.96817041015625,0.1222982183098793,-0.258594274520874,-0.3166634440422058
1775711369245184500,8.9781845703125,0.08671199530363083,-0.3186570703983307,-0.25536251068115234
1775711369255197400,8.988197509765625,0.05868568271398544,-0.3952421247959137,-0.15710866451263428
1775711369265210400,8.99821044921875,0.05404166504740715,-0.45665648579597473,-0.04783836379647255
1775711369275224300,9.008224365234375,0.05218144506216049,-0.47521790862083435,0.039560459554195404
1775711369285237500,9.018237548828125,0.03026709146797657,-0.43756961822509766,0.07980641722679138
1775711369295251500,9.02825146484375,-0.050761714577674866,-0.31840914487838745,0.053649645298719406
1775711369305264400,9.038264404296875,-0.15949751436710358,-0.08864757418632507,-0.043965328484773636
1775711369315277300,9.04827734375,-0.2346937358379364,0.14688850939273834,-0.17496462166309357
1775711369325291500,9.05829150390625,-0.17812898755073547,0.28855830430984497,-0.2760704755783081
1775711369335304400,9.068304443359375,-0.0028791434597223997,0.16460412740707397,-0.3576321601867676
1775711369345318700,9.078318603515624,0.23134906589984894,-0.0231159720569849,-0.42607513070106506
1775711369355331300,9.088331298828125,0.4578104317188263,-0.15438398718833923,-0.4666785001754761
1775711369365344500,9.098344482421876,0.6150160431861877,-0.17195312678813934,-0.5113152265548706
1775711369375358500,9.1083583984375,0.6975021362304688,-0.1076819896697998,-0.5398866534233093
1775711369385371400,9.118371337890625,0.7285274267196655,0.04372484236955643,-0.519140362739563
1775711369395385600,9.128385498046875,0.7093398571014404,0.23580613732337952,-0.45469027757644653
1775711369405398300,9.138398193359375,0.6441299915313721,0.44395479559898376,-0.3591959774494171
1775711369415411500,9.148411376953124,0.5710885524749756,0.5499800443649292,-0.24235378205776215
1775711369425425400,9.15842529296875,0.48759737610816956,0.5301631689071655,-0.11156514286994934
1775711369435438300,9.168438232421876,0.3870851397514343,0.4086330235004425,0.02208106778562069
1775711369445452500,9.17845263671875,0.27379587292671204,0.21821995079517365,0.1515197455883026
1775711369455465500,9.188465576171875,0.1435326635837555,0.0019406455103307962,0.2760763168334961
1775711369465478400,9.198478515625,0.005112736485898495,-0.17893646657466888,0.3963143229484558
1775711369475492400,9.208492431640625,-0.12699469923973083,-0.2901058495044708,0.49965640902519226
1775711369485505300,9.21850537109375,-0.25204822421073914,-0.31977614760398865,0.5544363260269165
1775711369495519500,9.22851953125,-0.3599267601966858,-0.3041612207889557,0.5486234426498413
1775711369505532400,9.238532470703126,-0.44617560505867004,-0.2500508427619934,0.4852236807346344
1775711369515545300,9.24854541015625,-0.5268912315368652,-0.17798730731010437,0.3950660824775696
1775711369525559600,9.2585595703125,-0.5988365411758423,-0.09117358922958374,0.3407330811023712
1775711369535572500,9.268572509765624,-0.621876060962677,-0.02859089896082878,0.3295145034790039
1775711369545586400,9.27858642578125,-0.603348970413208,-0.048830121755599976,0.3329683840274811
1775711369555599400,9.288599365234376,-0.5486122369766235,-0.14218670129776,0.3426678776741028
1775711369565612500,9.298612548828125,-0.4637375771999359,-0.2650841176509857,0.3443126380443573
1775711369575626800,9.308626708984375,-0.3560401201248169,-0.3554699420928955,0.31589457392692566
1775711369585639700,9.3186396484375,-0.24247469007968903,-0.34421011805534363,0.25014618039131165
1775711369595652900,9.32865283203125,-0.1448192298412323,-0.24848730862140656,0.14955167472362518
1775711369605666600,9.33866650390625,-0.06830209493637085,-0.080116406083107,0.019402459263801575
1775711369615679700,9.3486796875,-0.018204303458333015,0.12979447841644287,-0.13904337584972382
1775711369625693700,9.358693603515626,-0.008763664402067661,0.3177662491798401,-0.3034192621707916
1775711369635706600,9.36870654296875,-0.024535968899726868,0.4582749009132385,-0.4246154725551605
1775711369645719800,9.3787197265625,-0.04446759819984436,0.5207249522209167,-0.46391281485557556
1775711369655733800,9.388733642578124,-0.06925603747367859,0.46363502740859985,-0.43750303983688354
1775711369665746700,9.39874658203125,-0.11664805561304092,0.338168203830719,-0.3420521318912506
1775711369675760600,9.4087607421875,-0.16423608362674713,0.1763840913772583,-0.19732666015625
1775711369685773800,9.41877392578125,-0.18697068095207214,-0.06805121898651123,-0.03952903300523758
1775711369695786800,9.428786865234375,-0.17771966755390167,-0.3064691126346588,0.10579061508178711
1775711369705800700,9.43880078125,-0.13585583865642548,-0.47970882058143616,0.22654232382774353
1775711369715813600,9.448813720703125,-0.07399965822696686,-0.5535534620285034,0.30696552991867065
1775711369725827600,9.45882763671875,-0.006792392116039991,-0.5730395317077637,0.3285347521305084
1775711369735840800,9.4688408203125,0.05543582886457443,-0.5349952578544617,0.2802351117134094
1775711369745853700,9.478853759765625,0.09350864589214325,-0.4244074821472168,0.17362186312675476
1775711369755867600,9.48886767578125,0.10515651106834412,-0.24441000819206238,0.03545652702450752
1775711369765880800,9.498880859375,0.11088257282972336,-0.09258745610713959,-0.11311376839876175
1775711369775894500,9.50889453125,0.11847364902496338,0.009096026420593262,-0.2513488829135895
1775711369785907700,9.51890771484375,0.1266476958990097,0.03732873126864433,-0.34695184230804443
1775711369795921000,9.5289208984375,0.12881949543952942,0.02160835638642311,-0.4092937707901001
1775711369805934600,9.5389345703125,0.1066175252199173,-0.028923526406288147,-0.4330310523509979
1775711369815947800,9.54894775390625,0.07114022225141525,-0.07068774849176407,-0.3927302360534668
1775711369825961700,9.558961669921874,0.04253600910305977,-0.10808918625116348,-0.3129810690879822
1775711369835974700,9.568974609375,0.0353153795003891,-0.13922420144081116,-0.22128018736839294
1775711369845987800,9.57898779296875,0.04384468495845795,-0.16376496851444244,-0.13729767501354218
1775711369856001800,9.589001708984375,0.062120627611875534,-0.18022915720939636,-0.07549875229597092
1775711369866014700,9.5990146484375,0.06525223702192307,-0.17567861080169678,-0.05675675719976425
1775711369876028000,9.60902783203125,0.0645957738161087,-0.1304245889186859,-0.07111332565546036
1775711369886041600,9.61904150390625,0.10907508432865143,-0.14514361321926117,-0.07158363610506058
1775711369896054800,9.6290546875,0.17165431380271912,-0.19318224489688873,-0.07308565825223923
1775711369906068700,9.63906884765625,0.23779071867465973,-0.2574256658554077,-0.08985718339681625
1775711369916081700,9.64908154296875,0.2966178059577942,-0.27258437871932983,-0.09602932631969452
1775711369926094800,9.6590947265625,0.31919369101524353,-0.2121860235929489,-0.08397027105093002
1775711369936108800,9.66910888671875,0.3257772922515869,-0.15062172710895538,-0.0633813664317131
1775711369946121700,9.679121826171874,0.33723554015159607,-0.11125994473695755,-0.027393540367484093
1775711369956135700,9.6891357421875,0.36069852113723755,-0.08541503548622131,0.017170997336506844
1775711369966148900,9.69914892578125,0.3963516056537628,-0.07232026755809784,0.04529424384236336
1775711369976161800,9.709161865234375,0.4368945062160492,-0.05986786261200905,0.052147090435028076
1775711369986175700,9.71917578125,0.45709192752838135,-0.05669230595231056,0.04868098720908165
1775711369996188700,9.729188720703124,0.4641117453575134,-0.09153711050748825,0.05526139214634895
1775711370006202600,9.73920263671875,0.4676015377044678,-0.13584305346012115,0.03790104389190674
1775711370016215800,9.7492158203125,0.42906826734542847,-0.12968076765537262,-0.017241571098566055
1775711370026228700,9.759228759765625,0.358418345451355,-0.09336323291063309,-0.08853305876255035
1775711370036242700,9.76924267578125,0.31885653734207153,-0.03358539193868637,-0.16825105249881744
1775711370046255900,9.779255859375,0.281907320022583,-0.006933539640158415,-0.24718129634857178
1775711370056268800,9.789268798828125,0.24946841597557068,-0.008082693442702293,-0.2864557206630707
1775711370066282800,9.79928271484375,0.22387756407260895,-0.02251249924302101,-0.27469494938850403
1775711370076296000,9.8092958984375,0.22187088429927826,-0.05634529888629913,-0.23661813139915466
1775711370086309600,9.8193095703125,0.21776267886161804,-0.023842215538024902,-0.20400425791740417
1775711370096322800,9.82932275390625,0.2051672637462616,0.015487080439925194,-0.18136580288410187
1775711370106335700,9.839335693359375,0.213114932179451,0.058099254965782166,-0.16609416902065277
1775711370116349700,9.849349609375,0.2378048300743103,0.10747186839580536,-0.14500698447227478
1775711370126363000,9.85936279296875,0.29054927825927734,0.10003525763750076,-0.12791748344898224
1775711370136376800,9.869376953125,0.3427768051624298,0.08957196027040482,-0.11461499333381653
1775711370146389800,9.8793896484375,0.3712635636329651,0.11481686681509018,-0.1156696081161499
1775711370156403000,9.88940283203125,0.39026814699172974,0.1380622684955597,-0.12733983993530273
1775711370166416600,9.899416748046875,0.40521833300590515,0.17325034737586975,-0.13252049684524536
1775711370176429800,9.909429931640625,0.4102998971939087,0.16045358777046204,-0.10531070828437805
1775711370186442800,9.91944287109375,0.4070364832878113,0.09591294825077057,-0.048716139048337936
1775711370196456700,9.929456787109375,0.39129239320755005,0.0316292978823185,0.02533811330795288
1775711370206470000,9.939469970703126,0.3412388265132904,-0.004746285732835531,0.10221851617097855
1775711370216483800,9.94948388671875,0.28039249777793884,-0.07747987657785416,0.18620076775550842
1775711370226496800,9.959496826171875,0.23899446427822113,-0.12450837343931198,0.2585391402244568
1775711370236509700,9.969509765625,0.19806088507175446,-0.11265198141336441,0.3024056553840637
1775711370246524000,9.97952392578125,0.1768759787082672,-0.07096844911575317,0.31581735610961914
1775711370256536800,9.989536865234374,0.16112551093101501,0.01312059536576271,0.2945820987224579
1775711370266550800,9.99955078125,0.12380556762218475,0.10626571625471115,0.28300613164901733
1775711370276563700,10.009563720703126,0.09929462522268295,0.17573241889476776,0.29925835132598877
1775711370286576600,10.01957666015625,0.12423034012317657,0.1938464343547821,0.34435391426086426
1775711370296590800,10.0295908203125,0.16873441636562347,0.17377792298793793,0.4173213243484497
1775711370306603800,10.039603759765624,0.2125743180513382,0.08850083500146866,0.4933292865753174
1775711370316616700,10.04961669921875,0.24230077862739563,0.04669053852558136,0.5446009635925293
1775711370326631000,10.059630859375,0.21607770025730133,0.037881068885326385,0.5615589618682861
1775711370336643600,10.0696435546875,0.17905524373054504,0.06070169806480408,0.5606947541236877
1775711370346657800,10.07965771484375,0.11411885172128677,0.1702718734741211,0.5116965770721436
1775711370356671000,10.0896708984375,0.05023360997438431,0.2854839563369751,0.4448072910308838
1775711370366683600,10.09968359375,0.027906998991966248,0.3886539936065674,0.3784724771976471
1775711370376697900,10.10969775390625,0.039137281477451324,0.4754573404788971,0.32115140557289124
1775711370386710500,10.11971044921875,0.06856228411197662,0.5097572803497314,0.28166231513023376
1775711370396724700,10.129724853515626,0.09851618856191635,0.4833959639072418,0.24183286726474762
1775711370406738000,10.139738037109375,0.13742470741271973,0.33720359206199646,0.20115281641483307
1775711370416750600,10.14975048828125,0.2142758071422577,0.15368250012397766,0.16889208555221558
1775711370426764800,10.159764892578124,0.2610244154930115,-0.04332217201590538,0.11726244539022446
1775711370436777700,10.16977783203125,0.29129868745803833,-0.19509652256965637,0.052317000925540924
1775711370446790700,10.179790771484376,0.28730687499046326,-0.2238709181547165,-0.016019713133573532
1775711370456804900,10.189804931640625,0.22211162745952606,-0.14967471361160278,-0.08968701213598251
1775711370466817800,10.19981787109375,0.1652992069721222,-0.05892084166407585,-0.1473814696073532
1775711370476831700,10.209831787109374,0.11710771173238754,0.0419842004776001,-0.18395012617111206
1775711370486844700,10.2198447265625,0.06727464497089386,0.1280117630958557,-0.21428513526916504
1775711370496857600,10.229857666015626,0.028777319937944412,0.1989234834909439,-0.23792573809623718
1775711370506871800,10.239871826171875,0.022604644298553467,0.23521597683429718,-0.21617491543293
1775711370516884700,10.249884765625,0.07094288617372513,0.16813494265079498,-0.17559312283992767
1775711370526899000,10.25989892578125,0.13799461722373962,0.06124445050954819,-0.14479446411132812
1775711370536911600,10.26991162109375,0.20488789677619934,-0.024768995121121407,-0.11252627521753311
1775711370546924800,10.2799248046875,0.26777204871177673,-0.09389746934175491,-0.10045044124126434
1775711370556938800,10.289938720703125,0.3061490058898926,-0.1513863205909729,-0.11748775094747543
1775711370566951700,10.29995166015625,0.3038261830806732,-0.18587373197078705,-0.13317909836769104
1775711370576963800,10.3099638671875,0.2424784153699875,-0.20778967440128326,-0.12313125282526016
1775711370586977800,10.319977783203125,0.11152919381856918,-0.14155234396457672,-0.09489375352859497
1775711370596990700,10.32999072265625,-0.07475306838750839,-0.043407928198575974,-0.07744898647069931
1775711370607005000,10.3400048828125,-0.25986674427986145,-0.002615224104374647,-0.06663654744625092
1775711370617017900,10.350017822265626,-0.37948209047317505,-0.0022921827621757984,-0.030480144545435905
1775711370627030800,10.36003076171875,-0.44691118597984314,-0.04250005632638931,0.026921363547444344
1775711370637045000,10.370044921875,-0.45280715823173523,-0.13211515545845032,0.10003712028265
1775711370647057700,10.3800576171875,-0.39409270882606506,-0.26003795862197876,0.18912385404109955
1775711370657070800,10.39007080078125,-0.3003230690956116,-0.4159652590751648,0.2809528410434723
1775711370667085000,10.4000849609375,-0.19153746962547302,-0.5080506801605225,0.3721623718738556
1775711370677097700,10.41009765625,-0.07849986851215363,-0.5058408379554749,0.4247952401638031
1775711370687112000,10.42011181640625,0.0023371900897473097,-0.4117787778377533,0.40251097083091736
1775711370697124600,10.43012451171875,0.04549477994441986,-0.23769085109233856,0.31537312269210815
1775711370707137800,10.4401376953125,0.02870115265250206,0.0025891251862049103,0.1726849526166916
1775711370717152000,10.450152099609374,-0.05855492129921913,0.225290909409523,0.01082601584494114
1775711370727164700,10.46016455078125,-0.1839996576309204,0.4139540195465088,-0.12007740885019302
1775711370737179000,10.470178955078126,-0.33700039982795715,0.5608124732971191,-0.16877730190753937
1775711370747191800,10.48019189453125,-0.4791572690010071,0.5904331803321838,-0.12442022562026978
1775711370757204700,10.490204833984375,-0.5659539699554443,0.5391183495521545,0.0015390408225357533
1775711370767219000,10.500218994140624,-0.6193907856941223,0.4183996617794037,0.15427452325820923
1775711370777232000,10.51023193359375,-0.6274082660675049,0.1879989355802536,0.25766563415527344
1775711370787244800,10.520244873046876,-0.6028645634651184,-0.06016533449292183,0.2723281979560852
1775711370797258800,10.5302587890625,-0.577499270439148,-0.17317365109920502,0.20950768887996674
1775711370807271700,10.540271728515625,-0.5546698570251465,-0.13165736198425293,0.09419786930084229
1775711370817286000,10.550285888671874,-0.5422340035438538,0.004664526786655188,-0.04563086852431297
1775711370827298800,10.560298828125,-0.5307056903839111,0.1808382272720337,-0.1660717874765396
1775711370837311700,10.570311767578126,-0.5066248774528503,0.35500043630599976,-0.23661519587039948
1775711370847325700,10.58032568359375,-0.4668492078781128,0.475163072347641,-0.25350603461265564
1775711370857339000,10.5903388671875,-0.40688174962997437,0.49009114503860474,-0.21427075564861298
1775711370867351800,10.600351806640624,-0.3327678442001343,0.32899200916290283,-0.13614052534103394
1775711370877365800,10.61036572265625,-0.25352999567985535,0.09759633243083954,-0.039016641676425934
1775711370887379000,10.62037890625,-0.16072256863117218,-0.12796275317668915,0.04944824427366257
1775711370897392600,10.630392578125,-0.07241720706224442,-0.28521257638931274,0.09274698048830032
1775711370907405800,10.64040576171875,-0.031074296683073044,-0.31077972054481506,0.10626731812953949
1775711370917418800,10.650418701171875,-0.06555557250976562,-0.2267734855413437,0.09421864151954651
1775711370927432700,10.6604326171875,-0.11255264282226562,-0.1267118752002716,0.05332260951399803
1775711370937446000,10.67044580078125,-0.1356201469898224,-0.06468045711517334,0.010100571438670158
1775711370947459800,10.6804599609375,-0.14918042719364166,-0.048336371779441833,0.00022983079543337226
1775711370957472800,10.69047265625,-0.12427268177270889,-0.05819752439856529,0.03069053404033184
1775711370967486000,10.70048583984375,-0.08048099279403687,-0.05263365060091019,0.0625762939453125
1775711370977499600,10.710499755859376,-0.038364432752132416,-0.013653228059411049,0.060862552374601364
1775711370987512800,10.720512939453124,0.005404619034379721,0.042455848306417465,0.03099972754716873
1775711370997526000,10.730526123046875,0.03248417377471924,0.11289592832326889,-0.016512397676706314
1775711371007539700,10.740539794921874,0.02177879773080349,0.20621176064014435,-0.07784286886453629
1775711371017553000,10.750552978515625,-0.03256566449999809,0.3066241145133972,-0.1383695900440216
1775711371027566800,10.76056689453125,-0.08629707247018814,0.345039427280426,-0.17220158874988556
1775711371037579800,10.770579833984375,-0.10034764558076859,0.332906574010849,-0.14444665610790253
1775711371047593000,10.780593017578125,-0.08913306891918182,0.23757873475551605,-0.08362378925085068
1775711371057607000,10.79060693359375,-0.09069634974002838,0.0669500082731247,-0.03940093517303467
1775711371067619800,10.800619873046875,-0.10157669335603714,-0.12553103268146515,0.006307963281869888
1775711371077633000,10.810633056640626,-0.09569936245679855,-0.27838316559791565,0.06398111581802368
1775711371087646700,10.820646728515625,-0.07722421735525131,-0.35981595516204834,0.12187770009040833
1775711371097660000,10.830659912109375,-0.04953213408589363,-0.39841023087501526,0.14730475842952728
1775711371107673900,10.840673828125,-0.02232501283288002,-0.39301759004592896,0.12188409268856049
1775711371117686800,10.850686767578125,-0.004727643448859453,-0.3550321161746979,0.05715037137269974
1775711371127700000,10.860699951171876,0.011063570156693459,-0.3156279921531677,-0.02064642310142517
1775711371137714000,10.8707138671875,0.009890713728964329,-0.29622554779052734,-0.07966819405555725
1775711371147726800,10.880726806640626,-0.023868048563599586,-0.26042598485946655,-0.1057080551981926
1775711371157739800,10.89073974609375,-0.07847776263952255,-0.1888926923274994,-0.11548611521720886
1775711371167754000,10.90075390625,-0.14705708622932434,-0.09329426288604736,-0.11506427079439163
1775711371177767000,10.910766845703124,-0.19434258341789246,-0.013563745655119419,-0.10876935720443726
1775711371187780900,10.92078076171875,-0.20705758035182953,0.028425250202417374,-0.10059504956007004
1775711371197793800,10.930793701171876,-0.17806294560432434,-0.0010008158860728145,-0.08736792951822281
1775711371207806700,10.940806640625,-0.12051363289356232,-0.0641893744468689,-0.08892081677913666
1775711371217821000,10.950821044921875,-0.070868581533432,-0.10251358896493912,-0.088333860039711
1775711371227833900,10.960833740234374,-0.026315227150917053,-0.07319165766239166,-0.1282607614994049
1775711371237846800,10.9708466796875,-0.020918065682053566,-0.025488847866654396,-0.19185705482959747
1775711371247861000,10.980861083984376,-0.07323852926492691,0.04544684290885925,-0.23542077839374542
1775711371257873700,10.990873779296875,-0.13872165977954865,0.11594311147928238,-0.2436313033103943
1775711371267887900,11.000887939453126,-0.1787889152765274,0.17138053476810455,-0.22676976025104523
1775711371277901000,11.010901123046875,-0.17659100890159607,0.1859714686870575,-0.18421991169452667
1775711371287913700,11.020913818359375,-0.1318536400794983,0.13120196759700775,-0.09459095448255539
1775711371297928000,11.030927978515624,-0.05724571272730827,0.011952267028391361,-0.011635617353022099
1775711371307940600,11.040940673828125,0.01335894875228405,-0.12438692897558212,0.024277376011013985
1775711371317953800,11.050953857421876,0.03202344477176666,-0.17541815340518951,0.030349649488925934
1775711371327968000,11.060968017578125,0.015307583846151829,-0.14958523213863373,-0.00242187874391675
1775711371337980700,11.070980712890625,-0.009906958788633347,-0.0792069360613823,-0.05829180032014847
1775711371347995000,11.080994873046874,-0.03212331607937813,0.014282799325883389,-0.10762366652488708
1775711371358007800,11.0910078125,-0.060693707317113876,0.14352786540985107,-0.1260996162891388
1775711371368020700,11.101020751953126,-0.08559133112430573,0.23927836120128632,-0.0965971127152443
1775711371378035000,11.111034912109375,-0.08701878786087036,0.261545866727829,-0.02660471200942993
1775711371388048000,11.1210478515625,-0.08616817742586136,0.2522144019603729,0.05372368171811104
1775711371398060800,11.131060791015624,-0.0812024474143982,0.23862828314304352,0.12703731656074524
1775711371408074800,11.14107470703125,-0.07134049385786057,0.2056833803653717,0.1885366290807724
1775711371418087700,11.151087646484376,-0.057128001004457474,0.1408465951681137,0.22787976264953613
1775711371428100900,11.161100830078125,-0.035042937844991684,0.02839568816125393,0.23234215378761292
1775711371438114800,11.17111474609375,0.004311125259846449,-0.09809008240699768,0.18514828383922577
1775711371448127700,11.181127685546874,0.05765796825289726,-0.1575467437505722,0.06910263746976852
1775711371458141700,11.1911416015625,0.0965435802936554,-0.0901687741279602,-0.06571909040212631
1775711371468155000,11.20115478515625,0.11904197186231613,0.044135235249996185,-0.18689318001270294
1775711371478167800,11.211167724609375,0.1251765638589859,0.15105316042900085,-0.2744978666305542
1775711371488181800,11.221181640625,0.13181422650814056,0.20827198028564453,-0.3297363519668579
1775711371498195000,11.23119482421875,0.12566684186458588,0.18675176799297333,-0.3750857412815094
1775711371508207900,11.241207763671875,0.12007154524326324,0.10188881307840347,-0.4006587266921997
1775711371518221800,11.251221923828124,0.12069099396467209,-0.0025326660834252834,-0.4497423768043518
1775711371528234800,11.26123486328125,0.11511993408203125,-0.07990787923336029,-0.5247995853424072
1775711371538248700,11.271248779296876,0.11100774258375168,-0.09182446449995041,-0.5835334658622742
1775711371548262000,11.281261962890625,0.1072220578789711,-0.07061637938022614,-0.6094897389411926
1775711371558274800,11.29127490234375,0.09218079596757889,-0.035055723041296005,-0.5892009735107422
1775711371568288800,11.301288818359374,0.06250172853469849,0.03827868029475212,-0.5432648658752441
1775711371578302200,11.31130224609375,0.04664979502558708,0.08619027584791183,-0.4786912202835083
1775711371588315100,11.321315185546876,0.039855003356933594,0.10560738295316696,-0.38282808661460876
1775711371598329000,11.3313291015625,0.02251329831779003,0.10926763713359833,-0.27183523774147034
1775711371608342300,11.34134228515625,-0.011757856234908104,0.11047777533531189,-0.17154273390769958
1775711371618356200,11.351356201171875,-0.041600972414016724,0.11759054660797119,-0.09951566904783249
1775711371628369200,11.361369140625,-0.06610338389873505,0.09797289967536926,-0.050285276025533676
1775711371638382000,11.371382080078124,-0.09765411913394928,0.07026217877864838,-0.01040656864643097
1775711371648396000,11.38139599609375,-0.13839809596538544,0.039747145026922226,-0.017106281593441963
1775711371658409200,11.3914091796875,-0.19432313740253448,0.04104384034872055,-0.09100367873907089
1775711371668422100,11.401422119140625,-0.2729548215866089,0.10273516923189163,-0.17276804149150848
1775711371678436000,11.41143603515625,-0.34747114777565,0.19819538295269012,-0.23325508832931519
1775711371688449000,11.421448974609374,-0.4052577614784241,0.29114314913749695,-0.25703391432762146
1775711371698463200,11.431463134765625,-0.44870829582214355,0.3741064965724945,-0.2484034150838852
1775711371708476200,11.44147607421875,-0.505917489528656,0.47869494557380676,-0.2320987433195114
1775711371718489000,11.451489013671875,-0.5717937350273132,0.541624128818512,-0.1979176104068756
1775711371728503300,11.46150341796875,-0.5941797494888306,0.5057854056358337,-0.1390385776758194
1775711371738516000,11.471515869140624,-0.592062771320343,0.402349054813385,-0.04977847635746002
1775711371748529200,11.481529052734375,-0.5867692232131958,0.2520010769367218,0.05072709172964096
1775711371758543000,11.491543212890624,-0.5812479257583618,0.13808409869670868,0.14829573035240173
1775711371768556000,11.50155615234375,-0.5714038610458374,0.11292575299739838,0.24430161714553833
1775711371778569200,11.5115693359375,-0.5730462074279785,0.11760839074850082,0.3306410312652588
1775711371788583200,11.521583251953125,-0.5760827660560608,0.13916268944740295,0.41422274708747864
1775711371798596000,11.53159619140625,-0.5619885325431824,0.14860332012176514,0.4821333587169647
1775711371808610300,11.5416103515625,-0.5359068512916565,0.154291033744812,0.5078613758087158
1775711371818623000,11.551623046875,-0.47413161396980286,0.16262805461883545,0.5070704221725464
1775711371828636200,11.56163623046875,-0.40074875950813293,0.1470610797405243,0.4852151572704315
1775711371838650000,11.571650146484375,-0.3293512761592865,0.12274376302957535,0.4472760260105133
1775711371848663000,11.5816630859375,-0.25446557998657227,0.07010771334171295,0.40186700224876404
1775711371858676200,11.59167626953125,-0.1832084357738495,0.0017480988753959537,0.36007189750671387
1775711371868690000,11.60168994140625,-0.12702132761478424,-0.02779754251241684,0.32171037793159485
1775711371878703000,11.611703125,-0.09320371598005295,-0.00569996377453208,0.29775312542915344
1775711371888717000,11.621717041015625,-0.07940161228179932,0.04990710690617561,0.29361483454704285
1775711371898730000,11.63172998046875,-0.0821545273065567,0.11654871702194214,0.29252853989601135
1775711371908743200,11.6417431640625,-0.07987086474895477,0.14479020237922668,0.26795926690101624
1775711371918757000,11.651757080078125,-0.05931072682142258,0.12894360721111298,0.23367400467395782
1775711371928770000,11.66177001953125,-0.0412137508392334,0.09446605294942856,0.20533904433250427
1775711371938783200,11.671783203125,-0.019336946308612823,0.040644630789756775,0.1905694156885147
1775711371948797200,11.681797119140626,0.012350409291684628,-0.02755652740597725,0.1858185976743698
1775711371958810000,11.69181005859375,0.05561346188187599,-0.10740209370851517,0.17425276339054108
1775711371968823300,11.7018232421875,0.09888769686222076,-0.16572211682796478,0.1467851847410202
1775711371978837000,11.7118369140625,0.11006525158882141,-0.1595960557460785,0.11803369224071503
1775711371988850200,11.72185009765625,0.11361365020275116,-0.12143748253583908,0.08007752150297165
1775711371998864100,11.731864013671874,0.12056449800729752,-0.09158584475517273,0.04447372630238533
1775711372008877000,11.741876953125,0.13956375420093536,-0.10416821390390396,0.015978166833519936
1775711372018890200,11.75189013671875,0.1761380136013031,-0.12258344143629074,-0.0037891454994678497
1775711372028904200,11.761904296875,0.2244994193315506,-0.14722274243831635,-0.029936326667666435
1775711372038917000,11.771917236328125,0.24985776841640472,-0.1353895217180252,-0.043589554727077484
1775711372048930000,11.781929931640626,0.24887746572494507,-0.127579003572464,-0.05325203761458397
1775711372058944300,11.7919443359375,0.24747610092163086,-0.12243004143238068,-0.07263505458831787
1775711372068957200,11.801957275390626,0.24771764874458313,-0.12333791702985764,-0.1055394783616066
1775711372078970000,11.81197021484375,0.25566691160202026,-0.14579609036445618,-0.14748266339302063
1775711372088984000,11.821984130859375,0.2534828782081604,-0.14539209008216858,-0.205287367105484
1775711372098997000,11.8319970703125,0.25383812189102173,-0.12764397263526917,-0.25203198194503784
1775711372109011200,11.84201123046875,0.2699207067489624,-0.10196897387504578,-0.2709833085536957
1775711372119024000,11.852024169921876,0.27053189277648926,-0.05065944790840149,-0.2590115964412689
1775711372129037000,11.862037109375,0.2691774070262909,0.0015664712991565466,-0.23767779767513275
1775711372139051300,11.87205126953125,0.28827494382858276,0.02941940724849701,-0.21874353289604187
1775711372149064200,11.882064208984374,0.30753543972969055,0.027535486966371536,-0.19093666970729828
1775711372159077000,11.8920771484375,0.33276596665382385,-0.0029414615128189325,-0.1708737462759018
1775711372169091300,11.90209130859375,0.3420018255710602,-0.02895228937268257,-0.16400864720344543
1775711372179104000,11.91210400390625,0.3122745454311371,-0.0318324975669384,-0.16330663859844208
1775711372189118200,11.9221181640625,0.2663262188434601,-0.06618780642747879,-0.1558724194765091
1775711372199131100,11.932131103515625,0.22348688542842865,-0.10434291511774063,-0.14569967985153198
1775711372209144000,11.94214404296875,0.1698034107685089,-0.12260740995407104,-0.1254545897245407
1775711372219158300,11.952158203125,0.1203562393784523,-0.14812129735946655,-0.09587353467941284
1775711372229171000,11.9621708984375,0.09560082107782364,-0.16633091866970062,-0.06985178589820862
1775711372239184100,11.97218408203125,0.09367989003658295,-0.1401757448911667,-0.04121854156255722
1775711372249198000,11.982197998046875,0.11539556831121445,-0.0980629175901413,-0.015513446182012558
1775711372259211000,11.9922109375,0.1545504331588745,-0.0370621457695961,0.008792160078883171
1775711372269224200,12.00222412109375,0.20813561975955963,-0.0017686053179204464,0.032467663288116455
1775711372279238100,12.012238037109375,0.27317801117897034,0.006636597216129303,0.06436248123645782
1775711372289251000,12.0222509765625,0.3255871534347534,-0.014899320900440216,0.095283642411232
1775711372299264300,12.03226416015625,0.34446844458580017,-0.04625191539525986,0.11284586042165756
1775711372309278000,12.04227783203125,0.30900976061820984,-0.08144905418157578,0.12025929987430573
1775711372319291100,12.052291015625,0.2355470061302185,-0.12123774737119675,0.10372079908847809
1775711372329305000,12.06230517578125,0.152180477976799,-0.15380847454071045,0.07872064411640167
1775711372339318000,12.072318115234374,0.08440329879522324,-0.19809363782405853,0.06804509460926056
1775711372349331200,12.082331298828125,0.04754355177283287,-0.24266085028648376,0.06109105050563812
1775711372359345200,12.09234521484375,0.047449007630348206,-0.29940134286880493,0.05594475939869881
1775711372369358000,12.102358154296875,0.07568331062793732,-0.3071037530899048,0.061099305748939514
1775711372379371300,12.112371337890625,0.11034781485795975,-0.2673121392726898,0.07546546310186386
1775711372389385200,12.12238525390625,0.16255828738212585,-0.22124797105789185,0.0826735720038414
1775711372399398100,12.132398193359375,0.22755646705627441,-0.19140005111694336,0.09387296438217163
1775711372409411000,12.1424111328125,0.29013195633888245,-0.17984379827976227,0.08634793758392334
1775711372419425000,12.152425048828125,0.3328242897987366,-0.18786044418811798,0.06085269898176193
1775711372429438200,12.162438232421875,0.3265554904937744,-0.17882007360458374,0.0060323262587189674
1775711372439452200,12.1724521484375,0.2753426134586334,-0.17800754308700562,-0.07104940712451935
1775711372449465000,12.182465087890625,0.2257114201784134,-0.18370644748210907,-0.11810346692800522
1775711372459478000,12.19247802734375,0.1828393191099167,-0.1958422064781189,-0.12849272787570953
1775711372469492200,12.2024921875,0.16352421045303345,-0.2274342179298401,-0.10775868594646454
1775711372479505200,12.212505126953126,0.16327308118343353,-0.25840118527412415,-0.059606339782476425
1775711372489518000,12.22251806640625,0.1579403579235077,-0.2797333896160126,-0.011700598523020744
1775711372499532300,12.2325322265625,0.17723417282104492,-0.2899327576160431,0.020491160452365875
1775711372509545000,12.242544921875,0.2085321694612503,-0.289825439453125,0.005535912699997425
1775711372519558100,12.25255810546875,0.2207627296447754,-0.30299636721611023,-0.031016772612929344
1775711372529572000,12.262572021484376,0.1828947216272354,-0.23869167268276215,-0.06721659004688263
1775711372539585000,12.2725849609375,0.07909854501485825,-0.13771365582942963,-0.1169670969247818
1775711372549599200,12.28259912109375,0.018978217616677284,-0.07288512587547302,-0.15293176472187042
1775711372559612200,12.292612060546874,0.026744795963168144,-0.06591802835464478,-0.1464051455259323
1775711372569625600,12.30262548828125,0.08674554526805878,-0.14487382769584656,-0.09141167253255844
1775711372579639600,12.3126396484375,0.1143963485956192,-0.16827236115932465,-0.015560850501060486
1775711372589652500,12.322652587890625,0.11198033392429352,-0.1929691880941391,0.03694843128323555
