time,seconds_elapsed,z,y,x
1774656626147328000,0.064327880859375,0.014966187067329884,-0.005345067009329796,-0.028405211865901947
1774656626164117000,0.081116943359375,-0.003359756199643016,-0.00045814859913662076,-0.04001164436340332
1774656626180906200,0.09790625,-0.003970621153712273,0.0001527161948615685,-0.018631376326084137
1774656626197695700,0.11469580078125,-0.010079269297420979,0.0001527161948615685,-0.008857538923621178
1774656626214485000,0.131485107421875,-0.013133592903614044,0.0032070400193333626,-0.022296564653515816
1774656626231274200,0.148274169921875,-0.003359756199643016,0.0007635809597559273,-0.01740964688360691
1774656626248063500,0.1650634765625,-0.006414080038666725,-0.00045814859913662076,-0.025350889191031456
1774656626264853000,0.18185302734375,0.000305432389723137,-0.002290742937475443,-0.014966187067329884
1774656626281642200,0.198642333984375,-0.0015271619195118546,-0.00045814859913662076,-0.02107483521103859
1774656626298431500,0.215431396484375,0.000305432389723137,-0.002290742937475443,-0.007024944759905338
1774656626315221000,0.232220947265625,-0.003359756199643016,-0.0010690133785828948,0.006414080038666725
1774656626332010200,0.24901025390625,0.004581485874950886,-0.003512472379952669,0.006414080038666725
1774656626348799500,0.265799560546875,0.010690134018659592,-0.005955931730568409,0.005192350596189499
1774656626365588700,0.282588623046875,0.0027488914784044027,-0.003512472379952669,0.003970621153712273
1774656626382378200,0.299378173828125,0.008246674202382565,-0.004123337101191282,0.008246674202382565
1774656626399167500,0.31616748046875,0.0021380267571657896,-0.004123337101191282,0.01802051067352295
1774656626415956700,0.332956787109375,0.004581485874950886,-0.005345067009329796,0.016187917441129684
1774656626432746200,0.349746337890625,0.006414080038666725,-0.003512472379952669,0.008246674202382565
1774656626449535500,0.366535400390625,0.007635809946805239,-0.002901607658714056,0.02718348242342472
1774656626466324700,0.38332470703125,0.005192350596189499,0.0007635809597559273,0.02412915788590908
1774656626483114000,0.400114013671875,0.008246674202382565,-0.0010690133785828948,0.0204639695584774
1774656626499903500,0.416903564453125,0.0027488914784044027,-0.0010690133785828948,0.021685699000954628
1774656626516692700,0.433692626953125,-0.007635809946805239,0.0013744457392022014,0.010690134018659592
1774656626533482000,0.45048193359375,0.008857538923621178,-0.0010690133785828948,0.019242240116000175
1774656626550271200,0.467271240234375,-0.0021380267571657896,0.0013744457392022014,0.01802051067352295
1774656626567060700,0.484060791015625,0.006414080038666725,-0.001679878099821508,0.028405211865901947
1774656626583850000,0.50085009765625,0.0027488914784044027,0.0013744457392022014,0.013133592903614044
1774656626600639200,0.51763916015625,-0.007635809946805239,0.0019853105768561363,0.02718348242342472
1774656626617428700,0.5344287109375,0.008857538923621178,0.0001527161948615685,0.0009162971982732415
1774656626634218000,0.551218017578125,-0.006414080038666725,0.0013744457392022014,0.01802051067352295
1774656626651007200,0.56800732421875,-0.004581485874950886,0.0025961752980947495,0.0009162971982732415
1774656626667796500,0.58479638671875,0.004581485874950886,-0.003512472379952669,0.010079269297420979
1774656626684586000,0.6015859375,-0.010079269297420979,-0.00045814859913662076,0.0015271619195118546
1774656626701375200,0.618375244140625,0.005192350596189499,-0.001679878099821508,0.006414080038666725
1774656626718164500,0.63516455078125,-0.007635809946805239,0.0032070400193333626,0.0021380267571657896
1774656626734954000,0.6519541015625,-0.0015271619195118546,0.0007635809597559273,0.021685699000954628
1774656626751743200,0.6687431640625,0.0027488914784044027,-0.00045814859913662076,-0.003970621153712273
1774656626768532500,0.685532470703125,-0.0015271619195118546,-0.0010690133785828948,0.00946840364485979
1774656626785321700,0.70232177734375,0.003359756199643016,0.0001527161948615685,0.0027488914784044027
1774656626802111200,0.719111328125,0.0009162971982732415,0.0001527161948615685,0.013133592903614044
1774656626818900500,0.735900390625,-0.004581485874950886,0.0007635809597559273,0.02412915788590908
1774656626835689700,0.752689697265625,0.0027488914784044027,0.0001527161948615685,0.010079269297420979
1774656626852479200,0.769479248046875,0.0009162971982732415,-0.00045814859913662076,0.022296564653515816
1774656626869268500,0.7862685546875,-0.0021380267571657896,0.0013744457392022014,0.01802051067352295
1774656626886057700,0.8030576171875,0.005803215317428112,-0.002290742937475443,0.04428769648075104
1774656626902847000,0.819846923828125,-0.0027488914784044027,0.0025961752980947495,0.0204639695584774
1774656626919636500,0.836636474609375,0.007024944759905338,-0.003512472379952669,0.028405211865901947
1774656626936425700,0.85342578125,0.0027488914784044027,0.0013744457392022014,0.032681263983249664
1774656626953215000,0.870215087890625,-0.012522728182375431,0.0038179049734026194,0.02718348242342472
1774656626970004200,0.887004150390625,0.016187917441129684,-0.001679878099821508,0.02107483521103859
1774656626986793700,0.903793701171875,-0.005192350596189499,0.0007635809597559273,0.035124726593494415
1774656627003583000,0.9205830078125,0.010690134018659592,-0.0010690133785828948,0.029626941308379173
1774656627020372200,0.937372314453125,0.003359756199643016,0.0007635809597559273,0.02779434807598591
1774656627037161500,0.954161376953125,-0.004581485874950886,0.0001527161948615685,0.03451386094093323
1774656627053951000,0.970950927734375,0.00946840364485979,-0.002290742937475443,-0.008246674202382565
1774656627070740200,0.987740234375,-0.003359756199643016,-0.00045814859913662076,0.003970621153712273
1774656627087529500,1.004529541015625,0.0015271619195118546,-0.0010690133785828948,-0.006414080038666725
1774656627104319000,1.021319091796875,0.005192350596189499,-0.002901607658714056,-0.01435532234609127
1774656627121108200,1.038108154296875,-0.004581485874950886,-0.002901607658714056,-0.015577051788568497
1774656627137897500,1.0548974609375,0.008246674202382565,-0.002290742937475443,-0.06627883017063141
1774656627154686700,1.071686767578125,-0.007024944759905338,-0.004734201822429895,-0.05406153202056885
1774656627171476200,1.088476318359375,-0.010079269297420979,0.0001527161948615685,-0.06444623321294785
1774656627188265500,1.105265380859375,0.01435532234609127,0.0001527161948615685,-0.05833758786320686
1774656627205054700,1.1220546875,-0.019853105768561363,-0.00045814859913662076,-0.04001164436340332
1774656627221844200,1.13884423828125,0.010690134018659592,-0.005345067009329796,-0.06627883017063141
1774656627238633500,1.155633544921875,-0.003970621153712273,-0.002290742937475443,-0.06994401663541794
1774656627255422700,1.172422607421875,-0.0027488914784044027,-0.0010690133785828948,-0.08826996386051178
1774656627272212000,1.1892119140625,0.019242240116000175,-0.0102319847792387,-0.018631376326084137
1774656627289001500,1.20600146484375,-0.02107483521103859,0.008093958720564842,-0.0565049909055233
1774656627305790700,1.222790771484375,0.022296564653515816,-0.0010690133785828948,0.05039634555578232
1774656627322580000,1.239580078125,0.007635809946805239,0.004428769461810589,0.05039634555578232
1774656627339369200,1.256369140625,-0.008857538923621178,-0.003512472379952669,0.19822561740875244
1774656627356158700,1.27315869140625,0.00946840364485979,-0.002290742937475443,0.14996729791164398
1774656627372948000,1.289947998046875,0.005803215317428112,0.007483093533664942,-0.013744457624852657
1774656627389737200,1.3067373046875,0.019853105768561363,-0.008399390615522861,0.061391908675432205
1774656627406526700,1.323526611328125,0.008246674202382565,-0.005345067009329796,0.05222893878817558
1774656627423316000,1.34031591796875,-0.005192350596189499,0.0007635809597559273,0.04245510324835777
1774656627440105200,1.357105224609375,0.004581485874950886,0.0007635809597559273,0.0668896958231926
1774656627456894500,1.37389453125,0.007024944759905338,-0.002901607658714056,0.10048725455999374
1774656627473684000,1.39068408203125,0.007024944759905338,-0.0010690133785828948,0.09926552325487137
1774656627490473200,1.40747314453125,0.005192350596189499,0.0007635809597559273,0.13652828335762024
1774656627507262500,1.424262451171875,0.000305432389723137,0.0038179049734026194,0.14019346237182617
1774656627524051700,1.4410517578125,0.003359756199643016,0.0025961752980947495,0.16829325258731842
1774656627540841200,1.45784130859375,0.007635809946805239,0.0007635809597559273,0.14508038759231567
1774656627557630500,1.47463037109375,0.011911863461136818,0.005650499369949102,0.11698060482740402
1774656627574419700,1.491419677734375,-0.006414080038666725,-0.005345067009329796,0.23304490745067596
1774656627591209200,1.508209228515625,0.019853105768561363,0.0007635809597559273,0.19394956529140472
1774656627607998500,1.52499853515625,0.016798781231045723,0.0025961752980947495,0.27519458532333374
1774656627624787700,1.54178759765625,-0.0009162971982732415,0.008093958720564842,0.24831652641296387
1774656627641577000,1.558576904296875,0.016798781231045723,0.0001527161948615685,0.2214384824037552
1774656627658366500,1.575366455078125,-0.000305432389723137,0.0019853105768561363,0.16646064817905426
1774656627675155700,1.59215576171875,0.016798781231045723,-0.005345067009329796,0.23243404924869537
1774656627691945000,1.608945068359375,0.019853105768561363,0.0032070400193333626,0.22449280321598053
1774656627708734200,1.625734130859375,-0.012522728182375431,0.011759147047996521,0.2770271897315979
1774656627725523700,1.642523681640625,0.003970621153712273,0.0062613640911877155,0.24709481000900269
1774656627742313000,1.65931298828125,0.008857538923621178,-0.001679878099821508,0.20372340083122253
1774656627759102200,1.676102294921875,-0.0015271619195118546,0.0001527161948615685,0.20677772164344788
1774656627775891500,1.692891357421875,0.010079269297420979,0.005039634648710489,0.20861032605171204
1774656627792681000,1.709680908203125,-0.005192350596189499,0.008704823441803455,0.20433427393436432
1774656627809470200,1.72647021484375,0.000305432389723137,0.0007635809597559273,0.2006690800189972
1774656627826259500,1.743259521484375,0.011300998739898205,-0.004734201822429895,0.129197895526886
1774656627843049000,1.760049072265625,-0.0015271619195118546,-0.0010690133785828948,0.06322450190782547
1774656627859838200,1.776838134765625,0.005192350596189499,0.004428769461810589,0.06200277432799339
1774656627876627500,1.79362744140625,0.008857538923621178,0.0007635809597559273,0.1853974610567093
1774656627893416700,1.810416748046875,0.007635809946805239,0.0001527161948615685,0.26969680190086365
1774656627910206200,1.827206298828125,0.007024944759905338,0.009926552884280682,0.22388194501399994
1774656627926995500,1.843995361328125,-0.003359756199643016,0.0062613640911877155,0.272751122713089
1774656627943784700,1.86078466796875,0.008857538923621178,0.0038179049734026194,0.21349723637104034
1774656627960574000,1.877573974609375,0.013133592903614044,-0.0010690133785828948,0.13713914155960083
1774656627977363500,1.894363525390625,0.0027488914784044027,-0.003512472379952669,0.06627883017063141
1774656627994152700,1.911152587890625,0.007635809946805239,-0.007788525894284248,0.13530655205249786
1774656628010942000,1.92794189453125,-0.000305432389723137,0.0038179049734026194,0.16096286475658417
1774656628027731200,1.944731201171875,0.016798781231045723,0.0032070400193333626,0.21777328848838806
1774656628044520700,1.961520751953125,0.018631376326084137,0.0007635809597559273,0.17562362551689148
1774656628061310000,1.97831005859375,0.0204639695584774,-0.008399390615522861,0.15118902921676636
1774656628078099200,1.99509912109375,0.01740964688360691,-0.009010255336761475,0.15179990231990814
1774656628094888400,2.011888427734375,0.008246674202382565,0.0001527161948615685,0.1744018942117691
1774656628111678000,2.028677978515625,0.02107483521103859,0.0025961752980947495,0.19883649051189423
1774656628128467200,2.04546728515625,0.003359756199643016,0.005650499369949102,0.12736530601978302
1774656628145256400,2.06225634765625,-0.0027488914784044027,-0.002901607658714056,0.051618073135614395
1774656628162046000,2.0790458984375,0.008857538923621178,-0.005345067009329796,0.05711585655808449
1774656628178835200,2.095835205078125,0.011911863461136818,0.009315688163042068,0.08277218043804169
1774656628195624400,2.11262451171875,-0.00946840364485979,0.014813470654189587,0.08032871782779694
1774656628212413700,2.12941357421875,-0.008857538923621178,-0.003512472379952669,-0.04550942778587341
1774656628229203200,2.146203125,0.04001164436340332,0.0007635809597559273,-0.08643736690282822
1774656628245992400,2.162992431640625,0.003970621153712273,0.014813470654189587,0.11453714966773987
1774656628262781700,2.17978173828125,-0.03451386094093323,0.0154243353754282,0.08582650125026703
1774656628279571000,2.196571044921875,0.02779434807598591,0.0013744457392022014,-0.019242240116000175
1774656628296360400,2.2133603515625,0.016187917441129684,0.01359174121171236,-0.03756818547844887
1774656628313149700,2.230149658203125,-0.00946840364485979,0.025809036567807198,-0.13958260416984558
1774656628329939000,2.24693896484375,0.041844237595796585,0.0001527161948615685,0.006414080038666725
1774656628346728400,2.263728515625,0.029016077518463135,0.009315688163042068,0.010690134018659592
1774656628363517700,2.280517578125,0.018631376326084137,0.023365577682852745,-0.04428769648075104
1774656628380307000,2.297306884765625,0.007024944759905338,0.026419902220368385,-0.02412915788590908
1774656628397096200,2.31409619140625,-0.0027488914784044027,0.01908952370285988,-0.016187917441129684
1774656628413885700,2.3308857421875,0.0870482325553894,-0.002290742937475443,-0.03390299528837204
1774656628430675000,2.347675048828125,0.07055488228797913,0.0154243353754282,-0.06933315098285675
1774656628447464200,2.364464111328125,-0.007024944759905338,0.03436114266514778,-0.025350889191031456
1774656628464253400,2.38125341796875,0.035124726593494415,0.020922118797898293,0.010690134018659592
1774656628481043000,2.39804296875,0.0461202897131443,0.023365577682852745,-0.03451386094093323
1774656628497832200,2.414832275390625,0.0461202897131443,0.01908952370285988,-0.047952886670827866
1774656628514621400,2.431621337890625,0.05589412897825241,0.020311253145337105,-0.07605266571044922
1774656628531410700,2.44841064453125,0.023518294095993042,0.01847865991294384,0.08582650125026703
1774656628548200200,2.4652001953125,0.021685699000954628,0.049021899700164795,-0.10415244847536087
1774656628564989400,2.481989501953125,0.012522728182375431,0.03497200831770897,0.17806708812713623
1774656628581778700,2.49877880859375,0.032070402055978775,0.04230238497257233,0.026572618633508682
1774656628598568200,2.515568115234375,0.04734202101826668,0.03497200831770897,-0.07299833744764328
1774656628615357400,2.532357421875,-0.025350889191031456,0.049632761627435684,0.07483093440532684
1774656628632146700,2.549146728515625,-0.01802051067352295,0.055741410702466965,0.07788526266813278
1774656628648936000,2.56593603515625,0.025961752980947495,0.03497200831770897,0.05222893878817558
1774656628665725400,2.582725341796875,-0.03940077871084213,0.05085449293255806,-0.014966187067329884
1774656628682514700,2.5995146484375,-0.0461202897131443,0.05635227635502815,0.015577051788568497
1774656628699304000,2.616303955078125,-0.03145953640341759,0.049632761627435684,-0.006414080038666725
1774656628716093200,2.63309326171875,-0.06444623321294785,0.04657844081521034,0.05406153202056885
1774656628732882400,2.64988232421875,-0.07544180005788803,0.05451968312263489,0.09437860548496246
1774656628749672000,2.666671875,-0.08888082206249237,0.04718930274248123,-0.03756818547844887
1774656628766461200,2.683461181640625,-0.06017018109560013,0.028863361105322838,-0.015577051788568497
1774656628783250400,2.70025048828125,-0.06444623321294785,0.03252854943275452,0.029016077518463135
1774656628800040000,2.7170400390625,-0.1230892539024353,0.058795735239982605,0.05100720748305321
1774656628816829200,2.7338291015625,-0.11636973917484283,0.05451968312263489,0.12064579129219055
1774656628833618400,2.750618408203125,-0.10659590363502502,0.04169152304530144,0.022296564653515816
1774656628850407700,2.76740771484375,-0.07055488228797913,0.03191768378019333,-0.007635809946805239
1774656628867197200,2.784197265625,-0.08093958348035812,0.04046979174017906,0.015577051788568497
1774656628883986400,2.800986328125,-0.12431098520755768,0.05513054504990578,0.11209368705749512
1774656628900775700,2.817775634765625,-0.09682206809520721,0.052076224237680435,0.14752385020256042
1774656628917565000,2.83456494140625,-0.048563748598098755,0.03436114266514778,0.09621120244264603
1774656628934354400,2.8513544921875,-0.07116574794054031,0.029474224895238876,0.10720676928758621
1774656628951143700,2.868143798828125,-0.05833758786320686,0.02458730712532997,0.05222893878817558
1774656628967933000,2.884932861328125,-0.025961752980947495,0.0062613640911877155,0.07299833744764328
1774656628984722200,2.90172216796875,-0.044898562133312225,0.010537417605519295,0.05955931544303894
1774656629001511700,2.91851171875,-0.025350889191031456,0.0013744457392022014,0.1127045527100563
1774656629018301000,2.935301025390625,-0.010079269297420979,-0.0010690133785828948,0.09804379940032959
1774656629035090200,2.952090087890625,-0.011300998739898205,-0.007177661173045635,0.15729768574237823
1774656629051879700,2.968879638671875,0.005192350596189499,-0.010842849500477314,0.22266021370887756
1774656629068669000,2.9856689453125,-0.010690134018659592,-0.015729768201708794,0.29474225640296936
1774656629085458200,3.002458251953125,0.011300998739898205,-0.01695149764418602,0.37232208251953125
1774656629102247400,3.019247314453125,0.021685699000954628,-0.015729768201708794,0.7040216326713562
1774656629119037000,3.036036865234375,-0.0015271619195118546,-0.017562363296747208,0.9343177080154419
1774656629135826200,3.052826171875,-0.0015271619195118546,-0.027336198836565018,0.6814196705818176
1774656629152615400,3.069615478515625,0.028405211865901947,-0.030390523374080658,0.24770566821098328
1774656629169404700,3.08640478515625,-0.003359756199643016,-0.01511890348047018,0.11148282140493393
1774656629186194200,3.103194091796875,-0.04245510324835777,-0.024281874299049377,0.23732095956802368
1774656629202983400,3.1199833984375,-0.0027488914784044027,-0.025503603741526604,0.12247838824987411
1774656629219772700,3.136772705078125,0.015577051788568497,-0.02916879393160343,0.189673513174057
1774656629236562200,3.153562255859375,-0.03695731982588768,-0.02000582218170166,0.19150610268115997
1774656629253351400,3.170351318359375,-0.005803215317428112,-0.018173227086663246,0.14569124579429626
1774656629270140700,3.187140625,-0.0204639695584774,-0.027336198836565018,0.2788597643375397
1774656629286930200,3.20393017578125,-0.026572618633508682,-0.01695149764418602,0.08949168771505356
1774656629303719400,3.220719482421875,-0.004581485874950886,-0.027947064489126205,0.17684535682201385
1774656629320508700,3.2375087890625,-0.02779434807598591,-0.01695149764418602,0.1432477980852127
1774656629337298000,3.2542978515625,-0.03329212963581085,-0.021838415414094925,0.008246674202382565
1774656629354087400,3.27108740234375,-0.014966187067329884,-0.02672533318400383,-0.13775001466274261
1774656629370876700,3.287876708984375,-0.014966187067329884,-0.015729768201708794,-0.08888082206249237
1774656629387666000,3.304666015625,-0.008857538923621178,-0.022449281066656113,0.2623664140701294
1774656629404455400,3.321455322265625,-0.022296564653515816,-0.007788525894284248,0.14691297709941864
1774656629421244700,3.33824462890625,-0.011911863461136818,-0.01511890348047018,0.08155044913291931
1774656629438034000,3.355033935546875,0.003970621153712273,-0.02916879393160343,0.08765909820795059
1774656629454823400,3.371823486328125,0.01435532234609127,-0.025503603741526604,0.016798781231045723
1774656629471612700,3.38861279296875,-0.008246674202382565,-0.018784092739224434,0.06872228533029556
1774656629488402000,3.40540185546875,-0.008246674202382565,-0.016340631991624832,0.07238747924566269
1774656629505191400,3.42219140625,0.035735588520765305,-0.03283398225903511,0.038789913058280945
1774656629521980700,3.438980712890625,0.0461202897131443,-0.04016435891389847,0.03023780696094036
1774656629538770000,3.45577001953125,0.025961752980947495,-0.031612250953912735,-0.006414080038666725
1774656629555559400,3.472559326171875,0.032681263983249664,-0.034666575491428375,0.03145953640341759
1774656629572348700,3.4893486328125,0.02107483521103859,-0.0383317656815052,0.03145953640341759
1774656629589138000,3.506137939453125,0.022907428443431854,-0.034666575491428375,-0.021685699000954628
1774656629605927200,3.52292724609375,0.05100720748305321,-0.041386090219020844,-0.02718348242342472
1774656629622716700,3.539716552734375,0.04673115536570549,-0.037720900028944016,-0.016187917441129684
1774656629639506000,3.556505859375,0.032681263983249664,-0.02977965772151947,-0.016798781231045723
1774656629656295200,3.573295166015625,0.026572618633508682,-0.030390523374080658,0.029016077518463135
1774656629673084700,3.590084716796875,0.006414080038666725,-0.0206166859716177,-0.01740964688360691
1774656629689874000,3.6068740234375,0.018631376326084137,-0.021838415414094925,-0.008246674202382565
1774656629706663200,3.6236630859375,0.013133592903614044,-0.018784092739224434,-0.06322450190782547
1774656629723452700,3.64045263671875,-0.0021380267571657896,-0.019394956529140472,-0.06200277432799339
1774656629740242000,3.657241943359375,0.003970621153712273,-0.019394956529140472,-0.06994401663541794
1774656629757031200,3.67403125,-0.010690134018659592,-0.01206457894295454,-0.06627883017063141
1774656629773820700,3.690820556640625,-0.02107483521103859,-0.007788525894284248,-0.03940077871084213
1774656629790610000,3.70760986328125,0.0009162971982732415,-0.008399390615522861,-0.08888082206249237
1774656629807399200,3.724399169921875,-0.0015271619195118546,-0.008399390615522861,-0.06933315098285675
1774656629824188700,3.741188720703125,-0.019853105768561363,-0.004734201822429895,-0.08338304609060287
1774656629840978000,3.75797802734375,-0.005192350596189499,-0.008399390615522861,-0.11759147047996521
1774656629857767200,3.77476708984375,0.018631376326084137,-0.0102319847792387,-0.12247838824987411
1774656629874556700,3.791556640625,0.003359756199643016,-0.00045814859913662076,-0.1750127524137497
1774656629891346000,3.808345947265625,-0.016187917441129684,0.005650499369949102,-0.1847866028547287
1774656629908135200,3.82513525390625,0.0015271619195118546,0.0001527161948615685,-0.19944734871387482
1774656629924924400,3.84192431640625,0.008857538923621178,-0.004734201822429895,-0.23732095956802368
1774656629941714000,3.8587138671875,0.0015271619195118546,-0.002290742937475443,-0.324063777923584
1774656629958503200,3.875503173828125,0.01740964688360691,0.0013744457392022014,-0.31062474846839905
1774656629975292700,3.892292724609375,-0.0015271619195118546,0.0019853105768561363,-0.17867794632911682
1774656629992082000,3.90908203125,0.008246674202382565,0.0019853105768561363,-0.210442915558815
1774656630008871200,3.92587109375,0.05283980444073677,-0.00045814859913662076,-0.16523891687393188
1774656630025660400,3.942660400390625,-0.01435532234609127,0.02764163166284561,-0.1536324918270111
1774656630042450000,3.959449951171875,-0.057726722210645676,0.02519817277789116,-0.13530655205249786
1774656630059239200,3.9762392578125,-0.013133592903614044,0.010537417605519295,-0.24220788478851318
1774656630076028400,3.9930283203125,0.04917461425065994,0.0019853105768561363,-0.2886336147785187
1774656630092818000,4.00981787109375,0.014966187067329884,0.007483093533664942,-0.26969680190086365
1774656630109607200,4.026607177734375,-0.04306596517562866,0.02519817277789116,-0.2110537886619568
1774656630126396400,4.043396484375,-0.006414080038666725,0.016646064817905426,-0.18600831925868988
1774656630143186000,4.06018603515625,0.028405211865901947,0.014202605932950974,-0.26358816027641296
1774656630159975200,4.07697509765625,-0.019242240116000175,0.02153298258781433,-0.2678641974925995
1774656630176764400,4.093764404296875,-0.025350889191031456,0.029474224895238876,-0.22204934060573578
1774656630193554000,4.110553955078125,-0.02718348242342472,0.025809036567807198,-0.19639302790164948
1774656630210343200,4.12734326171875,0.006414080038666725,0.009926552884280682,-0.24709481000900269
1774656630227132400,4.14413232421875,0.012522728182375431,0.005650499369949102,-0.2929096519947052
1774656630243922000,4.160921875,-0.03940077871084213,0.020922118797898293,-0.272751122713089
1774656630260711200,4.177711181640625,-0.04367683082818985,0.019700389355421066,-0.2257145345211029
1774656630277500400,4.19450048828125,0.008246674202382565,0.005039634648710489,-0.24892739951610565
1774656630294290000,4.2112900390625,-0.000305432389723137,0.004428769461810589,-0.21838416159152985
1774656630311079200,4.2280791015625,-0.03023780696094036,0.008093958720564842,-0.24770566821098328
1774656630327868400,4.244868408203125,-0.008246674202382565,-0.002901607658714056,-0.24953825771808624
1774656630344658000,4.261657958984375,-0.018631376326084137,-0.004123337101191282,-0.23304490745067596
1774656630361447200,4.278447265625,0.0009162971982732415,-0.002901607658714056,-0.28924447298049927
1774656630378236400,4.295236328125,0.008857538923621178,-0.013286309316754341,-0.2861901521682739
1774656630395026000,4.31202587890625,-0.02779434807598591,-0.0102319847792387,-0.2929096519947052
1774656630411815200,4.328815185546875,-0.003970621153712273,-0.013286309316754341,-0.2935205399990082
1774656630428604400,4.3456044921875,0.010690134018659592,-0.02000582218170166,-0.24892739951610565
1774656630445394000,4.362393798828125,-0.03390299528837204,-0.002901607658714056,-0.26480987668037415
1774656630462183200,4.37918310546875,-0.03145953640341759,0.0025961752980947495,-0.24831652641296387
1774656630478972400,4.395972412109375,-0.005192350596189499,-0.002290742937475443,-0.27030766010284424
1774656630495762000,4.412761962890625,-0.03023780696094036,0.0007635809597559273,-0.18723005056381226
1774656630512551200,4.42955126953125,-0.057726722210645676,0.0038179049734026194,-0.24465134739875793
1774656630529340400,4.44634033203125,-0.006414080038666725,-0.017562363296747208,-0.3539961278438568
1774656630546130000,4.4631298828125,-0.0009162971982732415,-0.016340631991624832,-0.2605338394641876
1774656630562919200,4.479919189453125,-0.06811141967773438,0.019700389355421066,-0.2507599890232086
1774656630579708400,4.49670849609375,-0.05283980444073677,-0.00045814859913662076,-0.23976442217826843
1774656630596498000,4.513497802734375,0.032681263983249664,-0.028557928279042244,-0.23548837006092072
1774656630613287200,4.530287109375,-0.021685699000954628,0.0019853105768561363,-0.2409861534833908
1774656630630076400,4.547076416015625,-0.07849612087011337,0.02519817277789116,-0.15668681263923645
1774656630646866000,4.563865966796875,-0.010690134018659592,-0.015729768201708794,-0.05955931544303894
1774656630663655200,4.5806552734375,0.0565049909055233,-0.027336198836565018,-0.19700388610363007
1774656630680444400,4.5974443359375,-0.00946840364485979,-0.003512472379952669,-0.1847866028547287
1774656630697234000,4.61423388671875,-0.05283980444073677,0.005650499369949102,-0.21471896767616272
1774656630714023200,4.631023193359375,0.04306596517562866,-0.02611446939408779,-0.15179990231990814
1774656630730812400,4.6478125,0.05589412897825241,-0.025503603741526604,-0.13591741025447845
1774656630747602000,4.664601806640625,-0.019853105768561363,-0.0010690133785828948,-0.1493564397096634
1774656630764391200,4.68139111328125,0.013133592903614044,-0.013897174037992954,-0.08338304609060287
1774656630781180400,4.698180419921875,0.05406153202056885,-0.027947064489126205,-0.04978547990322113
1774656630797970000,4.714969970703125,0.015577051788568497,-0.006566796451807022,-0.07605266571044922
1774656630814759200,4.73175927734375,0.011300998739898205,-0.005955931730568409,0.010079269297420979
1774656630831548400,4.74854833984375,0.03695731982588768,-0.021227551624178886,0.10476330667734146
1774656630848338000,4.765337890625,0.03390299528837204,-0.014508038759231567,-0.07116574794054031
1774656630865127200,4.782127197265625,0.04001164436340332,-0.012675444595515728,-0.09987638890743256
1774656630881916400,4.79891650390625,0.013744457624852657,-0.012675444595515728,-0.03329212963581085
1774656630898706000,4.815705810546875,0.01435532234609127,-0.011453714221715927,-0.08888082206249237
1774656630915495200,4.8324951171875,0.025350889191031456,-0.011453714221715927,-0.05406153202056885
1774656630932284400,4.849284423828125,0.00946840364485979,0.0013744457392022014,-0.018631376326084137
1774656630949074000,4.866073974609375,0.021685699000954628,-0.001679878099821508,-0.0308486707508564
1774656630965863200,4.88286328125,0.008857538923621178,0.0001527161948615685,0.03695731982588768
1774656630982652400,4.89965234375,-0.004581485874950886,0.0019853105768561363,0.04306596517562866
1774656630999442000,4.91644189453125,0.024740023538470268,-0.00045814859913662076,-0.04001164436340332
1774656631016231200,4.933231201171875,0.010079269297420979,0.008093958720564842,0.02779434807598591
1774656631033020400,4.9500205078125,-0.003970621153712273,0.014202605932950974,0.018631376326084137
1774656631049810000,4.966809814453125,0.012522728182375431,-0.001679878099821508,0.01435532234609127
1774656631066599200,4.98359912109375,0.019242240116000175,-0.004123337101191282,0.048563748598098755
1774656631083388400,5.000388427734375,0.014966187067329884,0.011759147047996521,0.04367683082818985
1774656631100178000,5.017177978515625,0.003359756199643016,0.012370011769235134,0.09437860548496246
1774656631116967200,5.03396728515625,0.0027488914784044027,-0.004123337101191282,0.07299833744764328
1774656631133756400,5.05075634765625,0.0204639695584774,-0.00045814859913662076,0.035124726593494415
1774656631150546000,5.0675458984375,-0.010690134018659592,0.011759147047996521,0.0870482325553894
1774656631167335200,5.084335205078125,-0.007024944759905338,0.0013744457392022014,0.010690134018659592
1774656631184124400,5.10112451171875,0.047952886670827866,-0.017562363296747208,0.024740023538470268
1774656631200914000,5.117913818359375,0.013744457624852657,-0.00045814859913662076,0.11209368705749512
1774656631217703200,5.134703125,-0.016187917441129684,0.010537417605519295,0.05833758786320686
1774656631234492400,5.151492431640625,0.026572618633508682,-0.010842849500477314,0.04673115536570549
1774656631251282000,5.168281982421875,0.03756818547844887,-0.009010255336761475,0.12125665694475174
1774656631268071200,5.1850712890625,-0.0009162971982732415,0.017256930470466614,0.07360920310020447
1774656631284860400,5.2018603515625,0.003970621153712273,0.0013744457392022014,0.1029307171702385
1774656631301650000,5.21864990234375,0.05345066636800766,-0.015729768201708794,0.11453714966773987
1774656631318439200,5.235439208984375,0.004581485874950886,0.012980876490473747,0.06017018109560013
1774656631335228400,5.252228515625,-0.0308486707508564,0.02214384824037552,0.11759147047996521
1774656631352018000,5.269017822265625,0.032070402055978775,-0.002901607658714056,0.0772743970155716
1774656631368807200,5.28580712890625,0.047952886670827866,0.0019853105768561363,0.04062250629067421
1774656631385596400,5.302596435546875,-0.019242240116000175,0.026419902220368385,0.10537417232990265
1774656631402386000,5.319385986328125,0.025350889191031456,0.025809036567807198,0.16035200655460358
1774656631419175200,5.336175048828125,0.19333870708942413,-0.02916879393160343,0.010690134018659592
1774656631435964400,5.35296435546875,0.08155044913291931,-0.027336198836565018,0.05955931544303894
1774656631452754000,5.36975390625,-0.060781046748161316,0.04535670951008797,0.03390299528837204
1774656631469543200,5.386543212890625,0.06750056147575378,-0.0010690133785828948,-0.026572618633508682
1774656631486332400,5.40333251953125,0.09071341902017593,-0.0206166859716177,0.1285870373249054
1774656631503121700,5.42012158203125,-0.057726722210645676,0.03741546720266342,0.04917461425065994
1774656631519911200,5.4369111328125,-0.03390299528837204,0.04169152304530144,0.06872228533029556
1774656631536700400,5.453700439453125,-0.023518294095993042,0.02214384824037552,0.12736530601978302
1774656631553489700,5.47048974609375,-0.04428769648075104,0.025809036567807198,0.013133592903614044
1774656631570279200,5.487279052734375,-0.03451386094093323,0.026419902220368385,0.09010255336761475
1774656631587068400,5.504068359375,-0.016798781231045723,0.027030766010284424,0.0766635313630104
1774656631603857700,5.520857666015625,0.08460476994514465,0.005039634648710489,-0.04550942778587341
1774656631620647200,5.537647216796875,0.038789913058280945,0.0025961752980947495,0.013744457624852657
1774656631637436400,5.5544365234375,-0.06383536756038666,0.05085449293255806,0.07788526266813278
1774656631654225700,5.5712255859375,0.011911863461136818,0.026419902220368385,0.11514800786972046
1774656631671015200,5.58801513671875,0.044898562133312225,0.017867794260382652,-0.0021380267571657896
1774656631687804400,5.604804443359375,-0.0204639695584774,0.030695954337716103,0.16646064817905426
1774656631704593700,5.62159375,-0.0308486707508564,0.052687086164951324,0.17684535682201385
1774656631721383200,5.638383056640625,0.014966187067329884,0.020922118797898293,0.20922118425369263
1774656631738172400,5.65517236328125,0.02412915788590908,0.02825249545276165,0.1285870373249054
1774656631754961700,5.671961669921875,-0.04062250629067421,0.042913250625133514,0.19700388610363007
1774656631771751200,5.688751220703125,-0.051618073135614395,0.04413498193025589,0.061391908675432205
1774656631788540400,5.70554052734375,0.007024944759905338,0.017256930470466614,0.09071341902017593
1774656631805329700,5.72232958984375,-0.032070402055978775,0.033139415085315704,0.22204934060573578
1774656631822119000,5.739118896484375,-0.08888082206249237,0.06673697382211685,0.2360992431640625
1774656631838908400,5.755908447265625,-0.05345066636800766,0.0386371985077858,0.23976442217826843
1774656631855697700,5.77269775390625,-0.03451386094093323,0.027030766010284424,0.03940077871084213
1774656631872487000,5.78948681640625,-0.06444623321294785,0.03497200831770897,0.2257145345211029
1774656631889276400,5.8062763671875,-0.12736530601978302,0.05757400393486023,0.20433427393436432
1774656631906065700,5.823065673828125,-0.08888082206249237,0.039248060435056686,0.09804379940032959
1774656631922855000,5.83985498046875,-0.035735588520765305,0.026419902220368385,0.19822561740875244
1774656631939644400,5.85664453125,-0.12980876863002777,0.052076224237680435,0.21227550506591797
1774656631956433700,5.87343359375,-0.1444695144891739,0.055741410702466965,0.1792888194322586
1774656631973223000,5.890222900390625,-0.08093958348035812,0.02764163166284561,0.22999058663845062
1774656631990012400,5.907012451171875,-0.10170898586511612,0.04108065739274025,0.12553271651268005
1774656632006801700,5.9238017578125,-0.14080433547496796,0.049632761627435684,0.1945604383945465
1774656632023591000,5.9405908203125,-0.11148282140493393,0.04535670951008797,0.1542433500289917
1774656632040380400,5.95738037109375,-0.08643736690282822,0.026419902220368385,0.16523891687393188
1774656632057169700,5.974169677734375,-0.12247838824987411,0.039248060435056686,0.1853974610567093
1774656632073959000,5.990958984375,-0.14141519367694855,0.049021899700164795,0.1230892539024353
1774656632090748400,6.00774853515625,-0.07849612087011337,0.02153298258781433,0.13713914155960083
1774656632107537700,6.02453759765625,-0.09376774728298187,0.022754713892936707,0.13225223124027252
1774656632124327000,6.041326904296875,-0.12370011955499649,0.03191768378019333,0.08093958348035812
1774656632141116400,6.058116455078125,-0.10170898586511612,0.01908952370285988,0.007635809946805239
1774656632157905700,6.07490576171875,-0.0870482325553894,0.011148282326757908,-0.08093958348035812
1774656632174695000,6.09169482421875,-0.06566796451807022,0.017256930470466614,-0.1444695144891739
1774656632191484400,6.108484375,-0.07544180005788803,0.01908952370285988,0.09315688163042068
1774656632208273700,6.125273681640625,-0.09193515032529831,0.017867794260382652,0.2006690800189972
1774656632225063000,6.14206298828125,-0.04673115536570549,0.009315688163042068,0.04306596517562866
1774656632241852400,6.158852294921875,-0.01740964688360691,0.0038179049734026194,0.041844237595796585
1774656632258641700,6.1756416015625,-0.0717766135931015,0.016035201027989388,0.0461202897131443
1774656632275431200,6.19243115234375,-0.06017018109560013,0.016646064817905426,0.08521563559770584
1774656632292220400,6.209220458984375,-0.05345066636800766,0.014202605932950974,0.06200277432799339
1774656632309009700,6.226009765625,-0.03756818547844887,0.009315688163042068,-0.032070402055978775
1774656632325799200,6.242799072265625,-0.019242240116000175,0.0013744457392022014,-0.003970621153712273
1774656632342588400,6.25958837890625,-0.04001164436340332,0.009926552884280682,-0.02779434807598591
1774656632359377700,6.276377685546875,-0.018631376326084137,0.0038179049734026194,0.018631376326084137
1774656632376167200,6.293167236328125,-0.003359756199643016,-0.011453714221715927,0.08093958348035812
1774656632392956400,6.309956298828125,-0.01802051067352295,-0.002901607658714056,-0.04245510324835777
1774656632409745700,6.32674560546875,-0.011911863461136818,-0.009621120058000088,0.004581485874950886
1774656632426535200,6.34353515625,-0.012522728182375431,-0.014508038759231567,-0.015577051788568497
1774656632443324400,6.360324462890625,0.01802051067352295,-0.025503603741526604,-0.06994401663541794
1774656632460113700,6.37711376953125,0.021685699000954628,-0.022449281066656113,-0.051618073135614395
1774656632476903200,6.393903076171875,-0.011300998739898205,-0.02000582218170166,-0.07544180005788803
1774656632493692400,6.4106923828125,0.03145953640341759,-0.024281874299049377,-0.05894844979047775
1774656632510481700,6.427481689453125,0.01435532234609127,-0.017562363296747208,0.007024944759905338
1774656632527271200,6.444271240234375,0.003359756199643016,-0.011453714221715927,-0.035124726593494415
1774656632544060400,6.461060302734375,0.044898562133312225,-0.031612250953912735,-0.018631376326084137
1774656632560850000,6.477849853515625,0.035735588520765305,-0.02611446939408779,-0.06383536756038666
1774656632577639200,6.49463916015625,0.029016077518463135,-0.025503603741526604,-0.010079269297420979
1774656632594428400,6.511428466796875,0.0204639695584774,-0.02000582218170166,0.011911863461136818
1774656632611218000,6.528218017578125,0.035124726593494415,-0.021227551624178886,-0.029016077518463135
1774656632628007200,6.545007080078125,0.05955931544303894,-0.03283398225903511,0.0021380267571657896
1774656632644796400,6.56179638671875,0.044898562133312225,-0.03283398225903511,-0.07544180005788803
1774656632661585700,6.578585693359375,0.0974329337477684,-0.04993819445371628,-0.024740023538470268
1774656632678375200,6.595375244140625,0.038789913058280945,-0.018784092739224434,-0.04367683082818985
1774656632695164400,6.612164306640625,-0.01435532234609127,-0.008399390615522861,0.05039634555578232
1774656632711954000,6.628953857421875,0.06811141967773438,-0.028557928279042244,0.08399390429258347
1774656632728743200,6.6457431640625,0.06811141967773438,-0.022449281066656113,-0.022907428443431854
1774656632745532400,6.662532470703125,0.03940077871084213,-0.018784092739224434,0.03756818547844887
1774656632762322000,6.679322021484375,0.057726722210645676,-0.02000582218170166,0.04978547990322113
1774656632779111200,6.696111083984375,0.03390299528837204,-0.006566796451807022,0.0717766135931015
1774656632795900400,6.712900390625,0.018631376326084137,-0.00045814859913662076,0.1230892539024353
1774656632812690000,6.72968994140625,0.03451386094093323,-0.009010255336761475,0.03451386094093323
1774656632829479200,6.746479248046875,0.06994401663541794,-0.022449281066656113,-0.05100720748305321
1774656632846268400,6.763268310546875,0.06933315098285675,-0.02367101050913334,0.00946840364485979
1774656632863058000,6.780057861328125,0.013744457624852657,0.014813470654189587,-0.015577051788568497
1774656632879847200,6.79684716796875,0.03329212963581085,0.009315688163042068,0.08155044913291931
1774656632896636700,6.81363671875,0.021685699000954628,0.0007635809597559273,0.07238747924566269
1774656632913426000,6.830426025390625,-0.0009162971982732415,0.016035201027989388,-0.05955931544303894
1774656632930215200,6.847215087890625,0.05955931544303894,0.0032070400193333626,0.025961752980947495
1774656632947004400,6.86400439453125,0.035124726593494415,0.020311253145337105,0.044898562133312225
1774656632963794000,6.8807939453125,-0.008857538923621178,0.03252854943275452,0.06872228533029556
1774656632980583200,6.897583251953125,0.011300998739898205,0.025809036567807198,0.12675444781780243
1774656632997372700,6.91437255859375,0.022296564653515816,0.02519817277789116,0.0461202897131443
1774656633014162000,6.931161865234375,0.0461202897131443,0.01359174121171236,0.01802051067352295
1774656633030951200,6.947951171875,0.019242240116000175,0.017256930470466614,0.038789913058280945
1774656633047740700,6.96474072265625,0.011300998739898205,0.023365577682852745,0.09132428467273712
1774656633064530000,6.981530029296875,0.025961752980947495,0.022754713892936707,0.07360920310020447
1774656633081319200,6.998319091796875,-0.004581485874950886,0.025809036567807198,0.08093958348035812
1774656633098108700,7.015108642578125,0.003970621153712273,0.020922118797898293,0.04734202101826668
1774656633114898000,7.03189794921875,0.035735588520765305,0.016035201027989388,0.0668896958231926
1774656633131687200,7.048687255859375,0.01435532234609127,0.02214384824037552,0.11026109009981155
1774656633148476700,7.0654765625,0.005803215317428112,0.02764163166284561,0.048563748598098755
1774656633165266000,7.082265869140625,-0.025961752980947495,0.02764163166284561,0.1285870373249054
1774656633182055200,7.09905517578125,-0.0308486707508564,0.03130681812763214,0.057726722210645676
1774656633198844700,7.1158447265625,0.010690134018659592,0.01359174121171236,-0.015577051788568497
1774656633215634000,7.132634033203125,-0.026572618633508682,0.008704823441803455,0.0027488914784044027
1774656633232423200,7.149423095703125,0.022907428443431854,0.009926552884280682,-0.05528326332569122
1774656633249212700,7.166212646484375,0.03145953640341759,0.005039634648710489,-0.04062250629067421
1774656633266002000,7.183001953125,-0.038789913058280945,0.006872228812426329,0.02718348242342472
1774656633282791200,7.199791259765625,0.005192350596189499,0.0025961752980947495,0.07483093440532684
1774656633299580700,7.21658056640625,-0.010079269297420979,0.004428769461810589,0.026572618633508682
1774656633316370000,7.233369873046875,-0.022907428443431854,-0.011453714221715927,-0.032070402055978775
1774656633333159200,7.2501591796875,0.05955931544303894,-0.03283398225903511,-0.14019346237182617
1774656633349948400,7.266948486328125,0.022907428443431854,-0.007788525894284248,-0.3594939112663269
1774656633366738000,7.283738037109375,-0.032681263983249664,-0.002290742937475443,-0.06566796451807022
1774656633383527200,7.300527099609375,-0.032681263983249664,-0.022449281066656113,0.15241076052188873
1774656633400316700,7.317316650390625,0.05100720748305321,-0.031612250953912735,-0.12431098520755768
1774656633417106000,7.33410595703125,0.04978547990322113,-0.027336198836565018,-0.1328630894422531
1774656633433895200,7.350895263671875,-0.05406153202056885,-0.012675444595515728,0.0668896958231926
1774656633450684700,7.3676845703125,-0.003359756199643016,-0.02672533318400383,-0.004581485874950886
1774656633467474000,7.384473876953125,0.06811141967773438,-0.04627300798892975,-0.0766635313630104
1774656633484263200,7.40126318359375,-0.016187917441129684,-0.0383317656815052,-0.12003492563962936
1774656633501052700,7.418052734375,0.025350889191031456,-0.057268574833869934,-0.09376774728298187
1774656633517842000,7.434842041015625,0.0412333719432354,-0.047494735568761826,-0.03023780696094036
1774656633534631200,7.451631103515625,-0.0308486707508564,-0.03588830679655075,-0.06444623321294785
1774656633551420700,7.468420654296875,0.04062250629067421,-0.06154462695121765,-0.1182023361325264
1774656633568210000,7.4852099609375,0.026572618633508682,-0.05543597787618637,-0.038789913058280945
1774656633584999200,7.501999267578125,-0.03940077871084213,-0.027947064489126205,-0.11026109009981155
1774656633601788700,7.51878857421875,0.04673115536570549,-0.06520981341600418,-0.10048725455999374
1774656633618578000,7.535577880859375,0.03940077871084213,-0.0591011680662632,-0.08765909820795059
1774656633635367200,7.5523671875,-0.06017018109560013,-0.017562363296747208,-0.13103049993515015
1774656633652156700,7.56915673828125,0.0021380267571657896,-0.037720900028944016,-0.06261363625526428
1774656633668946000,7.58594580078125,0.054672397673130035,-0.05543597787618637,-0.07360920310020447
1774656633685735200,7.602735107421875,-0.012522728182375431,-0.0206166859716177,-0.07055488228797913
1774656633702524700,7.619524658203125,-0.0461202897131443,-0.01206457894295454,-0.04245510324835777
1774656633719314000,7.63631396484375,0.012522728182375431,-0.030390523374080658,-0.1640172004699707
1774656633736103200,7.653103271484375,0.03451386094093323,-0.040775224566459656,-0.12980876863002777
1774656633752892700,7.669892578125,-0.008857538923621178,-0.013897174037992954,-0.04306596517562866
1774656633769682000,7.686681884765625,-0.02107483521103859,-0.005955931730568409,-0.09804379940032959
1774656633786471200,7.70347119140625,0.01435532234609127,-0.02916879393160343,-0.12736530601978302
1774656633803260400,7.720260498046875,0.04978547990322113,-0.027336198836565018,-0.1750127524137497
1774656633820050000,7.7370498046875,0.03390299528837204,-0.0102319847792387,-0.02779434807598591
1774656633836839200,7.753839111328125,-0.013744457624852657,0.005039634648710489,-0.03390299528837204
1774656633853628400,7.77062841796875,0.03634645417332649,-0.018784092739224434,-0.051618073135614395
1774656633870418000,7.78741796875,0.048563748598098755,-0.015729768201708794,-0.15302163362503052
1774656633887207200,7.804207275390625,0.03756818547844887,-0.009621120058000088,-0.07788526266813278
1774656633903996400,7.820996337890625,0.022907428443431854,-0.003512472379952669,-0.05589412897825241
1774656633920786000,7.837785888671875,0.025961752980947495,-0.0010690133785828948,-0.12431098520755768
1774656633937575200,7.8545751953125,0.04917461425065994,-0.009621120058000088,-0.10965022444725037
1774656633954364400,7.871364501953125,0.035735588520765305,0.0013744457392022014,-0.07971785217523575
1774656633971154000,7.88815380859375,0.01740964688360691,0.008093958720564842,-0.08582650125026703
1774656633987943200,7.904943115234375,0.044898562133312225,-0.002290742937475443,-0.05955931544303894
1774656634004732400,7.921732421875,0.0461202897131443,0.007483093533664942,-0.08582650125026703
1774656634021521700,7.938521728515625,0.021685699000954628,0.025809036567807198,-0.07422006875276566
1774656634038311200,7.955311279296875,0.02718348242342472,0.023365577682852745,-0.010690134018659592
1774656634055100400,7.972100341796875,0.04550942778587341,0.01908952370285988,-0.047952886670827866
1774656634071889700,7.9888896484375,0.03145953640341759,0.029474224895238876,-0.06872228533029556
1774656634088679200,8.00567919921875,0.013744457624852657,0.03497200831770897,-0.08277218043804169
1774656634105468400,8.022468505859376,0.04001164436340332,0.027030766010284424,-0.09926552325487137
1774656634122257700,8.039257568359375,0.0412333719432354,0.03375028073787689,-0.02779434807598591
1774656634139047200,8.056047119140626,-0.013133592903614044,0.05696314200758934,-0.05711585655808449
1774656634155836400,8.07283642578125,0.012522728182375431,0.049632761627435684,-0.05406153202056885
1774656634172625700,8.089625732421876,0.04978547990322113,0.03802633285522461,-0.05100720748305321
1774656634189415200,8.106415283203125,0.01435532234609127,0.0539088174700737,-0.06994401663541794
1774656634206204400,8.123204345703124,0.013133592903614044,0.049632761627435684,-0.029016077518463135
1774656634222993700,8.13999365234375,0.03390299528837204,0.04535670951008797,-0.11087195575237274
1774656634239783000,8.156782958984374,0.025961752980947495,0.05329795181751251,-0.11026109009981155
1774656634256572400,8.173572509765625,0.013133592903614044,0.05146535858511925,-0.04367683082818985
1774656634273361700,8.190361572265624,0.05406153202056885,0.04535670951008797,-0.013133592903614044
1774656634290151200,8.207151123046875,0.19272783398628235,0.011759147047996521,-0.11575887352228165
1774656634306940400,8.2239404296875,0.10048725455999374,0.007483093533664942,-0.19089524447917938
1774656634323729700,8.240729736328126,-0.005192350596189499,0.0642935186624527,-0.06505709886550903
1774656634340519000,8.257518798828125,0.061391908675432205,0.03375028073787689,-0.10537417232990265
1774656634357308400,8.274308349609376,0.08093958348035812,0.020922118797898293,-0.11698060482740402
1774656634374097700,8.29109765625,-0.04062250629067421,0.05757400393486023,-0.04673115536570549
1774656634390887000,8.307886962890626,-0.029626941308379173,0.07040216773748398,-0.09926552325487137
1774656634407676400,8.324676513671875,-0.019242240116000175,0.04046979174017906,-0.08826996386051178
1774656634424465700,8.341465576171874,-0.05222893878817558,0.045967575162649155,-0.13103049993515015
1774656634441255000,8.3582548828125,-0.032070402055978775,0.052076224237680435,-0.022296564653515816
1774656634458044200,8.375044189453124,0.08949168771505356,0.04780016839504242,0.035124726593494415
1774656634474833700,8.391833740234375,0.03634645417332649,0.023976443335413933,-0.035124726593494415
1774656634491623000,8.408622802734374,-0.04550942778587341,0.06123919412493706,0.10537417232990265
1774656634508412200,8.425412109375,0.01802051067352295,0.06490438431501389,0.035735588520765305
1774656634525201400,8.442201416015624,0.05406153202056885,0.030695954337716103,0.05222893878817558
1774656634541991000,8.458990966796875,-0.04001164436340332,0.05024362727999687,0.17073670029640198
1774656634558780200,8.4757802734375,-0.029016077518463135,0.06795870512723923,0.10659590363502502
1774656634575569400,8.4925693359375,0.03756818547844887,0.036193739622831345,0.27091851830482483
1774656634592359000,8.50935888671875,0.007635809946805239,0.04657844081521034,0.34055712819099426
1774656634609148200,8.526148193359376,-0.016187917441129684,0.07040216773748398,0.33567020297050476
1774656634625937400,8.5429375,-0.025350889191031456,0.06734783947467804,0.5812378525733948
1774656634642726700,8.5597265625,-0.02412915788590908,0.042913250625133514,0.6288852691650391
1774656634659516200,8.57651611328125,0.0021380267571657896,0.042913250625133514,0.1127045527100563
1774656634676305400,8.593305419921874,-0.014966187067329884,0.04780016839504242,0.044898562133312225
1774656634693094700,8.6100947265625,-0.06322450190782547,0.04046979174017906,0.22327107191085815
1774656634709884200,8.62688427734375,-0.007024944759905338,0.022754713892936707,0.19394956529140472
1774656634726673400,8.64367333984375,-0.003970621153712273,0.03375028073787689,0.23854269087314606
1774656634743462700,8.660462646484374,-0.08521563559770584,0.04780016839504242,0.324063777923584
1774656634760252200,8.677252197265625,-0.02718348242342472,0.017867794260382652,0.291687935590744
1774656634777041400,8.69404150390625,-0.005192350596189499,0.010537417605519295,0.168904110789299
1774656634793830700,8.71083056640625,-0.06261363625526428,0.02764163166284561,0.1847866028547287
1774656634810620000,8.727619873046875,-0.04245510324835777,0.01908952370285988,0.2782489061355591
1774656634827409400,8.744409423828126,-0.035124726593494415,0.011759147047996521,0.2153298407793045
1774656634844198700,8.76119873046875,-0.04001164436340332,0.008093958720564842,0.16829325258731842
1774656634860988000,8.77798779296875,-0.016798781231045723,-0.005955931730568409,0.19822561740875244
1774656634877777400,8.79477734375,-0.023518294095993042,-0.002901607658714056,0.16707152128219604
1774656634894566700,8.811566650390626,-0.028405211865901947,-0.004734201822429895,0.19333870708942413
1774656634911356000,8.82835595703125,-0.029626941308379173,-0.008399390615522861,0.15729768574237823
1774656634928145200,8.845145263671874,-0.00946840364485979,-0.01695149764418602,0.1438586562871933
1774656634944934700,8.8619345703125,-0.005803215317428112,-0.01695149764418602,0.16035200655460358
1774656634961724000,8.878723876953124,-0.03023780696094036,-0.012675444595515728,0.11575887352228165
1774656634978513200,8.89551318359375,0.000305432389723137,-0.028557928279042244,0.11331541836261749
1774656634995302400,8.912302490234374,-0.00946840364485979,-0.031001387163996696,0.04428769648075104
1774656635012092000,8.929091796875,0.000305432389723137,-0.030390523374080658,-0.08277218043804169
1774656635028881200,8.945881103515624,-0.000305432389723137,-0.02916879393160343,-0.1432477980852127
1774656635045670400,8.96267041015625,-0.057726722210645676,-0.02000582218170166,-0.168904110789299
1774656635062460000,8.9794599609375,-0.010690134018659592,-0.04199695214629173,-0.23548837006092072
1774656635079249200,8.996249267578126,0.025350889191031456,-0.041386090219020844,-0.3796524703502655
1774656635096038400,9.013038330078125,-0.03023780696094036,-0.01511890348047018,-0.15179990231990814
1774656635112827600,9.02982763671875,-0.02779434807598591,-0.04016435891389847,0.231212317943573
1774656635129617200,9.0466171875,0.016798781231045723,-0.047494735568761826,-0.06444623321294785
1774656635146406400,9.063406494140626,0.0204639695584774,-0.031612250953912735,-0.11759147047996521
1774656635163195600,9.080195556640625,-0.03390299528837204,-0.024281874299049377,0.10537417232990265
1774656635179985000,9.09698486328125,-0.01802051067352295,-0.027947064489126205,0.05345066636800766
1774656635196774400,9.1137744140625,0.018631376326084137,-0.0383317656815052,0.10109812021255493
1774656635213563600,9.130563720703124,-0.041844237595796585,-0.013286309316754341,0.04978547990322113
1774656635230353000,9.147352783203125,-0.02779434807598591,-0.0334448479115963,0.023518294095993042
1774656635247142100,9.16414208984375,0.0204639695584774,-0.05177079141139984,0.0027488914784044027
1774656635263931600,9.180931640625,-0.01435532234609127,-0.03283398225903511,0.023518294095993042
1774656635280721000,9.197720947265625,-0.05222893878817558,-0.02000582218170166,-0.0021380267571657896
1774656635297510100,9.21451025390625,-0.029016077518463135,-0.0383317656815052,0.029626941308379173
1774656635314299600,9.231299560546875,0.007024944759905338,-0.04199695214629173,-0.021685699000954628
1774656635331089000,9.2480888671875,-0.00946840364485979,-0.030390523374080658,0.00946840364485979
1774656635347878100,9.264878173828125,-0.044898562133312225,-0.021838415414094925,0.04734202101826668
1774656635364667400,9.28166748046875,-0.024740023538470268,-0.02977965772151947,0.04062250629067421
1774656635381457000,9.298456787109375,-0.0009162971982732415,-0.03527744114398956,-0.02779434807598591
1774656635398246100,9.31524609375,0.0009162971982732415,-0.028557928279042244,-0.0412333719432354
1774656635415035400,9.332035400390625,-0.04306596517562866,-0.010842849500477314,0.03390299528837204
1774656635431824600,9.34882470703125,-0.05100720748305321,-0.004123337101191282,0.04673115536570549
1774656635448614100,9.3656142578125,-0.010690134018659592,-0.027336198836565018,0.029626941308379173
1774656635465403400,9.3824033203125,0.016187917441129684,-0.030390523374080658,-0.04978547990322113
1774656635482192600,9.399192626953125,0.022296564653515816,-0.025503603741526604,0.008857538923621178
1774656635498982100,9.415982177734374,-0.008246674202382565,-0.012675444595515728,0.041844237595796585
1774656635515771400,9.432771484375,-0.003359756199643016,-0.021227551624178886,0.10720676928758621
1774656635532560600,9.449560546875,-0.007635809946805239,-0.017562363296747208,0.05039634555578232
1774656635549350000,9.466349853515625,0.006414080038666725,-0.03405570983886719,-0.06811141967773438
1774656635566139400,9.483139404296875,0.12125665694475174,-0.0639880821108818,-0.12980876863002777
1774656635582928600,9.4999287109375,0.09926552325487137,-0.04199695214629173,-0.048563748598098755
1774656635599718000,9.5167177734375,0.014966187067329884,-0.012675444595515728,-0.005803215317428112
1774656635616507100,9.533507080078126,0.025961752980947495,-0.022449281066656113,0.04673115536570549
1774656635633296600,9.550296630859375,0.07422006875276566,-0.03283398225903511,-0.0009162971982732415
1774656635650086000,9.5670859375,0.07360920310020447,-0.043829549103975296,-0.19761475920677185
1774656635666875100,9.583875244140625,0.0870482325553894,-0.06215549260377884,-0.40897396206855774
1774656635683664400,9.600664306640626,0.025350889191031456,-0.017562363296747208,-0.6520981788635254
1774656635700454000,9.617453857421875,0.007024944759905338,-0.002901607658714056,-0.24709481000900269
1774656635717243100,9.6342431640625,-0.006414080038666725,-0.02367101050913334,0.20616686344146729
1774656635734032400,9.651032470703125,-0.041844237595796585,0.012370011769235134,-0.19761475920677185
1774656635750822000,9.66782177734375,0.0412333719432354,-0.005955931730568409,-0.07422006875276566
1774656635767611100,9.684611083984375,0.010079269297420979,-0.005345067009329796,0.012522728182375431
1774656635784400400,9.701400390625,-0.07422006875276566,0.019700389355421066,-0.09621120244264603
1774656635801189600,9.718189697265625,-0.018631376326084137,-0.0102319847792387,0.08032871782779694
1774656635817979100,9.734979248046875,-0.04062250629067421,0.009926552884280682,-0.18845178186893463
1774656635834768400,9.751768310546876,-0.03817904740571976,-0.003512472379952669,-0.13041962683200836
1774656635851557600,9.7685576171875,-0.004581485874950886,-0.002901607658714056,-0.06017018109560013
1774656635868347000,9.785346923828126,-0.08032871782779694,0.023365577682852745,-0.07422006875276566
1774656635885136400,9.802136474609375,-0.05528326332569122,0.012370011769235134,-0.006414080038666725
1774656635901925600,9.818925537109376,-0.005192350596189499,-0.013897174037992954,-0.07116574794054031
1774656635918715000,9.83571484375,-0.03634645417332649,-0.004123337101191282,-0.14019346237182617
1774656635935504400,9.85250439453125,-0.03329212963581085,-0.002901607658714056,-0.09987638890743256
1774656635952293600,9.869293701171875,-0.014966187067329884,-0.003512472379952669,-0.10476330667734146
1774656635969083000,9.886082763671874,-0.03756818547844887,-0.005345067009329796,-0.035124726593494415
1774656635985872100,9.9028720703125,0.000305432389723137,-0.010842849500477314,-0.1279761642217636
1774656636002661600,9.91966162109375,0.02779434807598591,-0.017562363296747208,-0.1493564397096634
1774656636019451000,9.936450927734375,-0.044898562133312225,0.010537417605519295,-0.041844237595796585
1774656636036240100,9.953240234375,-0.09560033679008484,0.016646064817905426,-0.03817904740571976
1774656636053029400,9.970029296875,0.02779434807598591,-0.027947064489126205,-0.12370011955499649
1774656636069819000,9.98681884765625,0.08093958348035812,-0.03527744114398956,-0.14508038759231567
1774656636086608100,10.003608154296876,-0.09010255336761475,0.019700389355421066,-0.08399390429258347
1774656636103397400,10.0203974609375,-0.09315688163042068,0.012980876490473747,-0.09560033679008484
1774656636120186600,10.0371865234375,0.08582650125026703,-0.04627300798892975,-0.0668896958231926
1774656636136976100,10.05397607421875,0.019853105768561363,-0.005955931730568409,-0.13041962683200836
1774656636153765400,10.070765380859376,-0.12064579129219055,0.020311253145337105,-0.11514800786972046
1774656636170554600,10.0875546875,0.003359756199643016,-0.027947064489126205,-0.060781046748161316
1774656636187344000,10.10434375,0.0870482325553894,-0.043829549103975296,-0.15790854394435883
1774656636204133400,10.12113330078125,-0.022296564653515816,-0.005345067009329796,-0.05955931544303894
1774656636220922600,10.137922607421874,-0.08949168771505356,0.014813470654189587,0.07910698652267456
1774656636237712000,10.1547119140625,0.010690134018659592,-0.02672533318400383,-0.13591741025447845
1774656636254501400,10.17150146484375,0.10415244847536087,-0.050549060106277466,-0.23304490745067596
1774656636271290600,10.18829052734375,-0.015577051788568497,-0.01511890348047018,-0.12064579129219055
1774656636288080000,10.205079833984374,-0.0565049909055233,0.005039634648710489,-0.08460476994514465
1774656636304869000,10.221869140625,0.04978547990322113,-0.037720900028944016,-0.016798781231045723
1774656636321658400,10.238658447265625,0.04428769648075104,-0.03527744114398956,-0.2110537886619568
1774656636338448000,10.25544775390625,-0.0027488914784044027,-0.022449281066656113,-0.15546508133411407
1774656636355237000,10.272237060546875,-0.0027488914784044027,-0.009010255336761475,-0.07055488228797913
1774656636372026400,10.2890263671875,0.024740023538470268,-0.018784092739224434,-0.047952886670827866
1774656636388815600,10.305815673828125,0.016798781231045723,-0.02367101050913334,-0.08338304609060287
1774656636405605000,10.322605224609376,-0.003359756199643016,-0.008399390615522861,-0.1078176349401474
1774656636422394400,10.339394287109375,0.007024944759905338,-0.0102319847792387,-0.13530655205249786
1774656636439183600,10.35618359375,0.025961752980947495,-0.013286309316754341,-0.06933315098285675
1774656636455972900,10.372972900390625,-0.015577051788568497,0.009315688163042068,-0.03451386094093323
1774656636472762400,10.389762451171874,-0.006414080038666725,0.008704823441803455,-0.05100720748305321
1774656636489551600,10.406551513671875,0.014966187067329884,-0.001679878099821508,-0.09560033679008484
1774656636506340900,10.4233408203125,0.0009162971982732415,0.0032070400193333626,-0.05528326332569122
1774656636523130000,10.440130126953125,-0.0009162971982732415,0.01908952370285988,-0.016187917441129684
1774656636539919600,10.456919677734374,-0.008857538923621178,0.01908952370285988,0.05894844979047775
1774656636556708900,10.473708984375,-0.00946840364485979,0.008093958720564842,-0.0204639695584774
1774656636573498000,10.490498046875,0.03451386094093323,0.0038179049734026194,-0.13775001466274261
1774656636590287400,10.507287353515625,-0.0015271619195118546,0.011759147047996521,0.0412333719432354
1774656636607076900,10.524076904296875,-0.03634645417332649,0.029474224895238876,-0.015577051788568497
1774656636623866000,10.5408662109375,0.02779434807598591,-0.001679878099821508,-0.028405211865901947
1774656636640655400,10.5576552734375,0.03329212963581085,0.0001527161948615685,-0.10415244847536087
1774656636657444600,10.574444580078126,-0.013133592903614044,0.01908952370285988,-0.048563748598098755
1774656636674234000,10.591234130859375,-0.011300998739898205,0.0154243353754282,0.038789913058280945
1774656636691023400,10.6080234375,0.014966187067329884,0.0025961752980947495,-0.05528326332569122
1774656636707812600,10.6248125,0.03756818547844887,-0.002290742937475443,-0.038789913058280945
1774656636724601900,10.641601806640624,-0.0021380267571657896,0.01908952370285988,-0.014966187067329884
1774656636741391400,10.658391357421875,-0.014966187067329884,0.0154243353754282,0.00946840364485979
1774656636758180600,10.6751806640625,0.041844237595796585,-0.004734201822429895,-0.00946840364485979
1774656636774969900,10.691969970703125,0.021685699000954628,0.009926552884280682,-0.05894844979047775
1774656636791759000,10.708759033203124,-0.022907428443431854,0.02214384824037552,-0.0308486707508564
1774656636808548600,10.725548583984375,0.03695731982588768,0.0001527161948615685,-0.019853105768561363
1774656636825337900,10.742337890625,0.05955931544303894,-0.008399390615522861,-0.01435532234609127
1774656636842127000,10.759127197265625,0.0027488914784044027,0.019700389355421066,-0.04245510324835777
1774656636858916400,10.775916259765625,0.008857538923621178,0.017256930470466614,0.02718348242342472
1774656636875705900,10.792705810546876,0.04306596517562866,0.005039634648710489,0.003359756199643016
1774656636892495000,10.8094951171875,0.03390299528837204,0.006872228812426329,-0.04001164436340332
1774656636909284400,10.826284423828126,0.028405211865901947,0.004428769461810589,0.023518294095993042
1774656636926073900,10.843073974609375,0.035124726593494415,0.009315688163042068,-0.01740964688360691
1774656636942863000,10.859863037109376,0.04367683082818985,0.0038179049734026194,-0.012522728182375431
1774656636959652400,10.87665234375,0.048563748598098755,-0.002901607658714056,-0.03940077871084213
1774656636976441600,10.893441650390624,0.06872228533029556,-0.0010690133785828948,-0.04978547990322113
1774656636993231000,10.910231201171875,0.15790854394435883,-0.02000582218170166,-0.028405211865901947
1774656637010020400,10.927020263671874,0.1279761642217636,-0.034666575491428375,-0.20922118425369263
1774656637026809600,10.9438095703125,0.05711585655808449,0.0025961752980947495,-0.2367101013660431
1774656637043598800,10.960598876953124,0.09987638890743256,-0.021838415414094925,0.08460476994514465
1774656637060388400,10.977388427734375,0.08888082206249237,-0.01695149764418602,-0.11331541836261749
1774656637077177600,10.994177490234375,0.04245510324835777,-0.005955931730568409,-0.0974329337477684
1774656637093966800,11.010966796875,0.05833758786320686,-0.00045814859913662076,0.018631376326084137
1774656637110756400,11.02775634765625,0.016187917441129684,0.017867794260382652,-0.08521563559770584
1774656637127545600,11.044545654296876,0.000305432389723137,0.010537417605519295,-0.03145953640341759
1774656637144334800,11.0613349609375,-0.0027488914784044027,0.009315688163042068,-0.13958260416984558
1774656637161124000,11.0781240234375,0.0009162971982732415,0.0062613640911877155,-0.14263692498207092
1774656637177913600,11.09491357421875,0.02779434807598591,-0.003512472379952669,-0.0021380267571657896
1774656637194702800,11.111702880859376,0.06322450190782547,0.0062613640911877155,-0.11392628401517868
1774656637211492000,11.1284921875,0.03390299528837204,0.0001527161948615685,-0.06505709886550903
1774656637228281600,11.145281494140624,-0.025350889191031456,0.020922118797898293,0.054672397673130035
1774656637245070800,11.16207080078125,-0.000305432389723137,0.02764163166284561,0.12431098520755768
1774656637261860000,11.178860107421874,0.02412915788590908,0.029474224895238876,0.1597411334514618
1774656637278649300,11.1956494140625,-0.05589412897825241,0.03741546720266342,0.1798996776342392
1774656637295438800,11.21243896484375,-0.014966187067329884,0.03802633285522461,0.26419901847839355
1774656637312228000,11.22922802734375,-0.008246674202382565,0.04657844081521034,0.4572322964668274
1774656637329017300,11.246017333984375,-0.0717766135931015,0.04474584385752678,0.5574141144752502
1774656637345806800,11.262806884765626,-0.0668896958231926,0.04780016839504242,0.09376774728298187
1774656637362596000,11.27959619140625,-0.035124726593494415,0.052076224237680435,-0.14019346237182617
1774656637379385300,11.29638525390625,-0.0821613147854805,0.0435241162776947,0.19700388610363007
1774656637396174600,11.313174560546875,-0.10109812021255493,0.05696314200758934,0.03940077871084213
1774656637412964000,11.329964111328126,-0.07116574794054031,0.05024362727999687,0.014966187067329884
1774656637429753300,11.34675341796875,-0.1029307171702385,0.05146535858511925,0.1078176349401474
1774656637446542600,11.36354248046875,-0.11148282140493393,0.05696314200758934,0.05283980444073677
1774656637463332000,11.38033203125,-0.10415244847536087,0.052687086164951324,0.08582650125026703
1774656637480121300,11.397121337890624,-0.11698060482740402,0.045967575162649155,0.03390299528837204
1774656637496910600,11.41391064453125,-0.1029307171702385,0.04169152304530144,0.06261363625526428
1774656637513699800,11.430699951171874,-0.13225223124027252,0.049021899700164795,0.10354158282279968
1774656637530489300,11.4474892578125,-0.11148282140493393,0.04718930274248123,0.007635809946805239
1774656637547278600,11.464278564453124,-0.09804379940032959,0.030085090547800064,0.1328630894422531
1774656637564067800,11.48106787109375,-0.14691297709941864,0.05085449293255806,0.14691297709941864
1774656637580857000,11.497857177734375,-0.11636973917484283,0.04413498193025589,0.15118902921676636
1774656637597646600,11.514646484375,-0.09804379940032959,0.023976443335413933,0.10170898586511612
1774656637614435800,11.531435791015625,-0.11698060482740402,0.02764163166284561,0.021685699000954628
1774656637631225000,11.54822509765625,-0.1029307171702385,0.020922118797898293,0.024740023538470268
1774656637648014300,11.565014404296875,-0.0821613147854805,0.012980876490473747,0.000305432389723137
1774656637664803800,11.581803955078126,-0.09010255336761475,0.011148282326757908,0.013744457624852657
1774656637681593000,11.598593017578125,-0.11026109009981155,0.011148282326757908,-0.01740964688360691
1774656637698382300,11.61538232421875,-0.05955931544303894,-0.014508038759231567,-0.09132428467273712
1774656637715171800,11.632171875,-0.032681263983249664,-0.02306014485657215,-0.022907428443431854
1774656637731961000,11.648961181640624,-0.07483093440532684,-0.012675444595515728,0.09315688163042068
1774656637748750300,11.665750244140625,-0.05894844979047775,-0.013286309316754341,0.0027488914784044027
1774656637765539600,11.68253955078125,-0.02718348242342472,-0.028557928279042244,0.01740964688360691
1774656637782329000,11.6993291015625,-0.04062250629067421,-0.02000582218170166,0.016187917441129684
1774656637799118300,11.716118408203124,-0.035124726593494415,-0.025503603741526604,-0.006414080038666725
1774656637815907600,11.732907470703125,-0.01435532234609127,-0.03588830679655075,-0.016187917441129684
1774656637832697000,11.749697021484375,-0.005192350596189499,-0.03527744114398956,0.03817904740571976
1774656637849486300,11.766486328125,-0.00946840364485979,-0.027947064489126205,-0.004581485874950886
1774656637866275600,11.783275634765625,-0.0021380267571657896,-0.046883873641490936,0.09682206809520721
1774656637883064800,11.80006494140625,0.025350889191031456,-0.05238165333867073,0.028405211865901947
1774656637899854300,11.816854248046875,0.03329212963581085,-0.04932733252644539,-0.008857538923621178
1774656637916643600,11.8336435546875,0.019853105768561363,-0.04932733252644539,0.016187917441129684
1774656637933432800,11.850432861328125,0.041844237595796585,-0.05543597787618637,0.06750056147575378
1774656637950222000,11.86722216796875,0.0412333719432354,-0.046883873641490936,0.08643736690282822
1774656637967011600,11.884011474609375,0.02412915788590908,-0.046883873641490936,0.008857538923621178
1774656637983800800,11.90080078125,0.07116574794054031,-0.06704241037368774,0.01435532234609127
1774656638000590000,11.917590087890625,0.0766635313630104,-0.06154462695121765,0.008857538923621178
1774656638017379300,11.93437939453125,0.05955931544303894,-0.05299251899123192,0.03451386094093323
1774656638034168800,11.9511689453125,0.06261363625526428,-0.05604684352874756,0.041844237595796585
1774656638050958000,11.9679580078125,0.07422006875276566,-0.06154462695121765,0.1029307171702385
1774656638067747300,11.984747314453125,0.05100720748305321,-0.040775224566459656,-0.026572618633508682
1774656638084536800,12.001536865234375,0.08032871782779694,-0.05849030241370201,0.016187917441129684
1774656638101326000,12.018326171875,0.10720676928758621,-0.07131846249103546,0.0015271619195118546
1774656638118115300,12.035115234375,0.08093958348035812,-0.054214250296354294,-0.06994401663541794
1774656638134904600,12.051904541015626,0.07910698652267456,-0.051159925758838654,0.026572618633508682
1774656638151694000,12.068694091796875,0.0974329337477684,-0.060933761298656464,0.010079269297420979
1774656638168483300,12.0854833984375,0.12736530601978302,-0.06276635825634003,-0.03756818547844887
1774656638185272600,12.1022724609375,0.09926552325487137,-0.05238165333867073,0.01802051067352295
1774656638202061800,12.119061767578126,0.08460476994514465,-0.04993819445371628,0.013133592903614044
1774656638218851000,12.13585107421875,0.11698060482740402,-0.06520981341600418,-0.0308486707508564
1774656638235640600,12.152640625,0.10048725455999374,-0.05299251899123192,-0.0925460159778595
1774656638252429800,12.169429931640625,0.10720676928758621,-0.05543597787618637,-0.048563748598098755
1774656638269219000,12.186218994140624,0.10598503798246384,-0.05299251899123192,-0.07544180005788803
1774656638286008600,12.203008544921875,0.06872228533029556,-0.03711003437638283,-0.03451386094093323
1774656638302797800,12.2197978515625,0.07971785217523575,-0.03405570983886719,-0.021685699000954628
1774656638319587000,12.236587158203125,0.08521563559770584,-0.0383317656815052,-0.02718348242342472
1774656638336376300,12.253376220703124,0.061391908675432205,-0.031612250953912735,-0.018631376326084137
1774656638353165800,12.270165771484375,0.10720676928758621,-0.04016435891389847,-0.060781046748161316
1774656638369955000,12.286955078125,0.08155044913291931,-0.0334448479115963,-0.022296564653515816
1774656638386744300,12.303744384765626,0.016187917441129684,-0.01695149764418602,0.013744457624852657
1774656638403533800,12.320533935546875,0.07605266571044922,-0.031001387163996696,0.004581485874950886
1774656638420323000,12.337322998046876,0.10415244847536087,-0.0383317656815052,0.016187917441129684
1774656638437112300,12.3541123046875,0.04734202101826668,-0.01695149764418602,-0.02718348242342472
1774656638453901600,12.370901611328126,0.04306596517562866,-0.018784092739224434,0.029016077518463135
1774656638470690800,12.38769091796875,0.05528326332569122,-0.01511890348047018,0.0565049909055233
1774656638487480300,12.404480224609374,0.032070402055978775,-0.002290742937475443,0.05345066636800766
1774656638504269600,12.42126953125,0.025961752980947495,-0.004123337101191282,0.018631376326084137
1774656638521058800,12.438058837890624,0.04245510324835777,-0.006566796451807022,0.03634645417332649
1774656638537848000,12.45484814453125,0.0204639695584774,0.008704823441803455,0.03940077871084213
1774656638554637600,12.471637451171874,0.008857538923621178,0.01359174121171236,0.03817904740571976
1774656638571426800,12.4884267578125,0.000305432389723137,0.0154243353754282,0.08765909820795059
1774656638588216000,12.505216064453125,-0.006414080038666725,0.02458730712532997,0.0974329337477684
1774656638605005300,12.52200537109375,0.003970621153712273,0.017256930470466614,0.05100720748305321
1774656638621794800,12.538794921875,0.006414080038666725,0.0019853105768561363,-0.018631376326084137
1774656638638584000,12.555583984375,0.013744457624852657,0.006872228812426329,-0.04734202101826668
1774656638655373300,12.572373291015625,-0.02718348242342472,0.04046979174017906,-0.0015271619195118546
1774656638672162600,12.58916259765625,-0.03817904740571976,0.04413498193025589,0.10048725455999374
1774656638688951800,12.605951904296875,-0.029626941308379173,0.03802633285522461,0.08338304609060287
1774656638705741300,12.6227412109375,-0.029016077518463135,0.036193739622831345,0.007635809946805239
1774656638722530600,12.639530517578125,0.035735588520765305,0.020311253145337105,-0.01740964688360691
1774656638739319800,12.65631982421875,-0.005803215317428112,0.03558287397027016,0.022907428443431854
1774656638756109000,12.673109130859375,-0.060781046748161316,0.05940660089254379,0.03756818547844887
1774656638772898600,12.689898681640624,0.000305432389723137,0.0386371985077858,0.048563748598098755
1774656638789687800,12.706687744140625,0.006414080038666725,0.04108065739274025,0.011911863461136818
1774656638806477000,12.72347705078125,-0.016187917441129684,0.04718930274248123,0.032681263983249664
1774656638823266300,12.740266357421875,-0.005803215317428112,0.039858926087617874,0.0027488914784044027
1774656638840055800,12.757055908203125,0.018631376326084137,0.022754713892936707,0.006414080038666725
1774656638856845000,12.773844970703125,0.016187917441129684,0.027030766010284424,-0.02779434807598591
1774656638873634300,12.79063427734375,-0.03634645417332649,0.04474584385752678,-0.029016077518463135
1774656638890423600,12.807423583984376,-0.02779434807598591,0.04046979174017906,0.000305432389723137
1774656638907213000,12.824213134765625,0.019853105768561363,0.03191768378019333,-0.05894844979047775
1774656638924002300,12.841002197265626,-0.019853105768561363,0.03497200831770897,-0.03023780696094036
1774656638940791600,12.85779150390625,-0.04062250629067421,0.042913250625133514,-0.03145953640341759
1774656638957580800,12.874580810546876,-0.00946840364485979,0.04108065739274025,-0.03023780696094036
1774656638974370000,12.8913701171875,-0.04062250629067421,0.045967575162649155,-0.0308486707508564
1774656638991159600,12.90815966796875,-0.06505709886550903,0.039858926087617874,-0.06200277432799339
1774656639007948800,12.92494873046875,-0.00946840364485979,0.020922118797898293,-0.0870482325553894
1774656639024738000,12.941738037109374,-0.016187917441129684,0.029474224895238876,-0.057726722210645676
1774656639041527300,12.95852734375,-0.0717766135931015,0.04657844081521034,-0.07055488228797913
1774656639058316800,12.97531689453125,-0.06933315098285675,0.033139415085315704,-0.1078176349401474
1774656639075106000,12.99210595703125,0.007024944759905338,0.0007635809597559273,-0.08399390429258347
1774656639091895300,13.008895263671874,0.010690134018659592,0.006872228812426329,-0.20372340083122253
1774656639108684500,13.0256845703125,-0.07849612087011337,0.03130681812763214,-0.231212317943573
1774656639125474000,13.04247412109375,-0.0772743970155716,0.026419902220368385,-0.22937972843647003
1774656639142263300,13.05926318359375,-0.01802051067352295,0.0062613640911877155,-0.15302163362503052
1774656639159052500,13.076052490234375,-0.03145953640341759,0.007483093533664942,-0.10842850059270859
1774656639175841800,13.092841796875,-0.04734202101826668,0.0154243353754282,-0.15179990231990814
1774656639192631000,13.109631103515625,-0.051618073135614395,0.005650499369949102,-0.11942406743764877
1774656639209420500,13.126420654296876,-0.012522728182375431,-0.009010255336761475,-0.1542433500289917
1774656639226209800,13.143209716796875,-0.035124726593494415,-0.003512472379952669,-0.21349723637104034
1774656639242999000,13.1599990234375,-0.0668896958231926,0.0062613640911877155,-0.20799945294857025
1774656639259788300,13.176788330078125,-0.03451386094093323,-0.005345067009329796,-0.1945604383945465
1774656639276577800,13.193577880859374,-0.02412915788590908,-0.01511890348047018,-0.1432477980852127
1774656639293367000,13.210366943359375,-0.04062250629067421,-0.011453714221715927,-0.11636973917484283
1774656639310156300,13.22715625,-0.03940077871084213,-0.02306014485657215,-0.21227550506591797
1774656639326945500,13.243945556640625,0.013744457624852657,-0.051159925758838654,-0.23976442217826843
1774656639343735000,13.260735107421874,-0.019242240116000175,-0.034666575491428375,-0.20189081132411957
1774656639360524300,13.277524169921875,-0.0565049909055233,-0.01695149764418602,-0.20372340083122253
1774656639377313500,13.2943134765625,-0.01435532234609127,-0.03955349326133728,-0.18845178186893463
1774656639394103000,13.31110302734375,-0.00946840364485979,-0.044440411031246185,-0.2098320573568344
1774656639410892300,13.327892333984375,-0.025350889191031456,-0.0334448479115963,-0.2409861534833908
1774656639427681500,13.344681640625,-0.03145953640341759,-0.03649916872382164,-0.20922118425369263
1774656639444470800,13.361470703125,-0.02779434807598591,-0.04199695214629173,-0.2055560052394867
1774656639461260000,13.378260009765626,0.008246674202382565,-0.04260781779885292,-0.19089524447917938
1774656639478049500,13.395049560546875,-0.026572618633508682,-0.027336198836565018,-0.20677772164344788
1774656639494838800,13.4118388671875,-0.02107483521103859,-0.0383317656815052,-0.189673513174057
1774656639511628000,13.4286279296875,0.007635809946805239,-0.041386090219020844,-0.129197895526886
1774656639528417300,13.445417236328124,-0.022907428443431854,-0.027336198836565018,-0.15607595443725586
1774656639545206800,13.462206787109375,-0.011300998739898205,-0.034666575491428375,-0.2098320573568344
1774656639561996000,13.47899609375,0.00946840364485979,-0.04260781779885292,-0.09071341902017593
1774656639578785300,13.495785400390625,-0.02107483521103859,-0.02977965772151947,-0.11148282140493393
1774656639595574500,13.512574462890624,0.015577051788568497,-0.04260781779885292,-0.1078176349401474
1774656639612364000,13.529364013671875,0.022296564653515816,-0.04505127668380737,-0.1438586562871933
1774656639629153300,13.5461533203125,-0.010079269297420979,-0.02977965772151947,-0.17134757339954376
1774656639645942500,13.562942626953125,0.02107483521103859,-0.03405570983886719,-0.07238747924566269
1774656639662732000,13.57973193359375,0.019853105768561363,-0.027336198836565018,-0.061391908675432205
1774656639679521300,13.596521240234376,0.01435532234609127,-0.01695149764418602,-0.024740023538470268
1774656639696310500,13.613310546875,0.016798781231045723,-0.015729768201708794,0.06994401663541794
1774656639713099800,13.630099853515626,0.01740964688360691,-0.02306014485657215,0.041844237595796585
1774656639729889300,13.64688916015625,0.0461202897131443,-0.024281874299049377,0.0308486707508564
1774656639746678500,13.663678466796876,0.016798781231045723,-0.004734201822429895,0.035735588520765305
1774656639763467800,13.6804677734375,0.0009162971982732415,0.0025961752980947495,0.011911863461136818
1774656639780257000,13.697257080078124,0.029626941308379173,-0.011453714221715927,0.01740964688360691
1774656639797046500,13.714046630859375,0.013133592903614044,0.006872228812426329,-0.061391908675432205
1774656639813835800,13.730835693359374,0.0015271619195118546,0.005650499369949102,-0.016187917441129684
1774656639830625000,13.747625,0.038789913058280945,-0.002901607658714056,-0.000305432389723137
1774656639847414300,13.764414306640624,0.008857538923621178,0.017256930470466614,0.035124726593494415
1774656639864203800,13.781203857421875,-0.013744457624852657,0.02764163166284561,0.07910698652267456
1774656639880993000,13.797992919921874,0.021685699000954628,0.017867794260382652,0.04062250629067421
1774656639897782300,13.8147822265625,0.022296564653515816,0.01908952370285988,0.03390299528837204
1774656639914571500,13.831571533203125,-0.0027488914784044027,0.03252854943275452,0.04550942778587341
1774656639931361000,13.848361083984376,0.023518294095993042,0.02519817277789116,0.04550942778587341
1774656639948150300,13.865150390625,0.03329212963581085,0.02519817277789116,0.02779434807598591
1774656639964939500,13.881939453125,-0.013744457624852657,0.0435241162776947,0.024740023538470268
1774656639981728800,13.898728759765625,0.0027488914784044027,0.03741546720266342,-0.005192350596189499
1774656639998518300,13.915518310546876,0.026572618633508682,0.023365577682852745,0.05100720748305321
1774656640015307500,13.9323076171875,-0.000305432389723137,0.04108065739274025,0.022907428443431854
1774656640032096800,13.9490966796875,0.0009162971982732415,0.04230238497257233,0.04428769648075104
1774656640048886300,13.96588623046875,0.026572618633508682,0.03802633285522461,0.047952886670827866
1774656640065675500,13.982675537109374,0.12553271651268005,0.01847865991294384,0.05894844979047775
1774656640082464800,13.99946484375,0.10598503798246384,0.009926552884280682,0.04367683082818985
1774656640099254000,14.01625390625,-0.006414080038666725,0.04169152304530144,0.15546508133411407
1774656640116043300,14.033043212890625,0.06261363625526428,0.027030766010284424,-0.023518294095993042
1774656640132832800,14.049832763671875,0.12614357471466064,0.004428769461810589,0.0204639695584774
1774656640149622000,14.0666220703125,0.010690134018659592,0.036804601550102234,0.10598503798246384
1774656640166411300,14.083411376953125,-0.018631376326084137,0.0691804364323616,0.026572618633508682
1774656640183200500,14.100200439453126,-0.000305432389723137,0.05818486958742142,0.06811141967773438
1774656640199990000,14.116989990234375,-0.032681263983249664,0.05451968312263489,0.0204639695584774
1774656640216779300,14.133779296875,-0.019242240116000175,0.05024362727999687,0.10965022444725037
1774656640233568500,14.150568603515625,-0.032681263983249664,0.061850059777498245,0.07788526266813278
1774656640250357800,14.167357666015626,0.010690134018659592,0.03741546720266342,0.07971785217523575
1774656640267147300,14.184147216796875,0.09926552325487137,0.017867794260382652,0.21716243028640747
1774656640283936500,14.2009365234375,0.023518294095993042,0.05024362727999687,0.04673115536570549
1774656640300725800,14.217725830078125,-0.03756818547844887,0.0435241162776947,0.2263254076242447
1774656640317515000,14.234514892578124,0.060781046748161316,0.03741546720266342,0.36621344089508057
1774656640334304500,14.251304443359375,0.07238747924566269,0.012980876490473747,0.5445859432220459
1774656640351093800,14.26809375,-0.025961752980947495,0.04230238497257233,0.13713914155960083
1774656640367883000,14.284883056640625,-0.0021380267571657896,0.03741546720266342,0.0766635313630104
1774656640384672300,14.30167236328125,0.05283980444073677,0.008704823441803455,0.19333870708942413
1774656640401461800,14.318461669921875,0.0027488914784044027,0.026419902220368385,0.03756818547844887
1774656640418251000,14.3352509765625,-0.03145953640341759,0.036804601550102234,0.16646064817905426
1774656640435040300,14.352040283203126,0.000305432389723137,0.03130681812763214,0.21288637816905975
1774656640451829500,14.36882958984375,0.02107483521103859,0.020311253145337105,0.14202606678009033
1774656640468619000,14.385618896484376,-0.022907428443431854,0.02214384824037552,0.18845178186893463
1774656640485408300,14.402408203125,-0.0461202897131443,0.03558287397027016,0.1792888194322586
1774656640502197500,14.419197509765626,-0.0021380267571657896,0.023976443335413933,0.24281874299049377
1774656640518986800,14.43598681640625,-0.03329212963581085,0.023365577682852745,0.23732095956802368
1774656640535776300,14.4527763671875,-0.05345066636800766,0.029474224895238876,0.18661919236183167
1774656640552565500,14.4695654296875,-0.023518294095993042,0.02458730712532997,0.17318016290664673
1774656640569354800,14.486354736328124,-0.03817904740571976,0.022754713892936707,0.19333870708942413
1774656640586144000,14.50314404296875,-0.048563748598098755,0.023365577682852745,0.18661919236183167
1774656640602933200,14.519933349609374,-0.04673115536570549,0.025809036567807198,0.1640172004699707
1774656640619722800,14.53672265625,-0.0772743970155716,0.03130681812763214,0.17073670029640198
1774656640636512000,14.553511962890624,-0.05039634555578232,0.017867794260382652,0.15057817101478577
1774656640653301200,14.57030126953125,-0.008246674202382565,0.006872228812426329,0.10231985151767731
1774656640670090500,14.587090576171875,-0.04673115536570549,0.017256930470466614,0.09498947113752365
1774656640686880000,14.6038798828125,-0.06200277432799339,0.020922118797898293,0.1847866028547287
1774656640703669200,14.620669189453125,-0.022296564653515816,0.0007635809597559273,0.19944734871387482
1774656640720458500,14.63745849609375,0.013133592903614044,-0.009621120058000088,0.05955931544303894
1774656640737247700,14.654247802734375,-0.0308486707508564,-0.004123337101191282,0.09865466505289078
1774656640754037200,14.671037353515626,-0.05222893878817558,0.004428769461810589,0.05100720748305321
1774656640770826500,14.687826416015625,0.0308486707508564,-0.021838415414094925,-0.05711585655808449
1774656640787615700,14.70461572265625,0.038789913058280945,-0.018173227086663246,-0.016798781231045723
1774656640804405000,14.721405029296875,-0.06750056147575378,0.008093958720564842,0.14569124579429626
1774656640821194500,14.738194580078124,-0.005803215317428112,-0.011453714221715927,0.0412333719432354
1774656640837983700,14.754983642578125,0.09560033679008484,-0.044440411031246185,-0.05283980444073677
1774656640854773000,14.77177294921875,0.013744457624852657,-0.014508038759231567,-0.007635809946805239
1774656640871562200,14.788562255859375,-0.0204639695584774,-0.00045814859913662076,0.044898562133312225
1774656640888351500,14.8053515625,0.054672397673130035,-0.03527744114398956,0.04062250629067421
1774656640905141000,14.82214111328125,0.06627883017063141,-0.04260781779885292,-0.09071341902017593
1774656640921930200,14.83893017578125,0.03023780696094036,-0.021838415414094925,-0.08155044913291931
1774656640938719500,14.855719482421875,0.006414080038666725,-0.006566796451807022,-0.03023780696094036
1774656640955508700,14.8725087890625,0.044898562133312225,-0.02672533318400383,0.028405211865901947
1774656640972298000,14.889298095703126,0.05039634555578232,-0.031001387163996696,-0.04673115536570549
1774656640989087500,14.90608740234375,0.0412333719432354,-0.024281874299049377,-0.09498947113752365
1774656641005876700,14.922876708984376,0.06017018109560013,-0.02611446939408779,0.008857538923621178
1774656641022666000,14.939666015625,0.0015271619195118546,-0.01206457894295454,-0.007024944759905338
1774656641039455200,14.956455322265626,0.016798781231045723,-0.024281874299049377,-0.06017018109560013
1774656641056244500,14.973244384765625,0.09132428467273712,-0.047494735568761826,-0.1340848207473755
1774656641073034000,14.990033935546874,0.028405211865901947,-0.02916879393160343,-0.129197895526886
1774656641089823200,15.0068232421875,-0.0412333719432354,-0.005345067009329796,-0.07422006875276566
1774656641106612500,15.023612548828124,0.029016077518463135,-0.0334448479115963,-0.04734202101826668
1774656641123401700,15.040401611328125,0.06750056147575378,-0.04321868345141411,-0.11148282140493393
1774656641140191200,15.057191162109374,0.003359756199643016,-0.021838415414094925,-0.07055488228797913
1774656641156980500,15.07398046875,-0.014966187067329884,-0.014508038759231567,-0.0717766135931015
1774656641173769700,15.090769775390624,0.016798781231045723,-0.03527744114398956,-0.05833758786320686
1774656641190559000,15.10755908203125,0.005803215317428112,-0.031001387163996696,-0.04306596517562866
1774656641207348200,15.12434814453125,0.0009162971982732415,-0.01695149764418602,-0.032070402055978775
1774656641224137700,15.1411376953125,-0.007635809946805239,-0.01511890348047018,0.010690134018659592
1774656641240927000,15.157927001953125,-0.008246674202382565,-0.03222311660647392,0.08460476994514465
1774656641257716200,15.17471630859375,0.018631376326084137,-0.03283398225903511,-0.026572618633508682
1774656641274505500,15.19150537109375,-0.010079269297420979,-0.016340631991624832,-0.05589412897825241
1774656641291294700,15.208294677734376,-0.03451386094093323,-0.018173227086663246,0.04367683082818985
1774656641308084200,15.225084228515625,0.000305432389723137,-0.027947064489126205,-0.0015271619195118546
1774656641324873500,15.24187353515625,0.0021380267571657896,-0.028557928279042244,-0.04367683082818985
1774656641341662700,15.258662841796875,-0.003359756199643016,-0.028557928279042244,-0.03940077871084213
1774656641358452000,15.275451904296874,-0.015577051788568497,-0.02306014485657215,0.028405211865901947
1774656641375241500,15.292241455078125,-0.03329212963581085,-0.011453714221715927,0.012522728182375431
1774656641392030700,15.30903076171875,-0.008246674202382565,-0.025503603741526604,-0.010079269297420979
1774656641408820000,15.325820068359375,0.01435532234609127,-0.0334448479115963,-0.01740964688360691
1774656641425609200,15.342609130859374,-0.005192350596189499,-0.02367101050913334,0.008246674202382565
1774656641442398500,15.3593984375,-0.012522728182375431,-0.017562363296747208,-0.054672397673130035
1774656641459187700,15.376187744140625,-0.007024944759905338,-0.021227551624178886,-0.022296564653515816
1774656641475977200,15.392977294921875,-0.007635809946805239,-0.012675444595515728,0.0027488914784044027
1774656641492766500,15.409766357421875,-0.000305432389723137,-0.006566796451807022,-0.00946840364485979
1774656641509555700,15.4265556640625,0.000305432389723137,-0.007177661173045635,0.03756818547844887
1774656641526345000,15.443344970703125,-0.005803215317428112,-0.01511890348047018,-0.023518294095993042
1774656641543134200,15.46013427734375,0.03940077871084213,-0.024892739951610565,-0.04306596517562866
1774656641559923700,15.476923828125,-0.0009162971982732415,-0.002290742937475443,-0.01435532234609127
1774656641576713000,15.493712890625,-0.035735588520765305,0.006872228812426329,-0.06566796451807022
1774656641593502200,15.510502197265625,0.029626941308379173,-0.012675444595515728,-0.011911863461136818
1774656641610291500,15.52729150390625,-0.0308486707508564,0.0154243353754282,-0.008246674202382565
1774656641627080700,15.544080810546875,-0.047952886670827866,0.020311253145337105,-0.01740964688360691
1774656641643870200,15.5608701171875,0.03023780696094036,-0.007177661173045635,0.011300998739898205
1774656641660659500,15.577659423828125,-0.013744457624852657,0.014202605932950974,-0.025961752980947495
1774656641677448700,15.59444873046875,-0.024740023538470268,0.020922118797898293,0.0021380267571657896
1774656641694238000,15.611238037109375,0.015577051788568497,0.007483093533664942,0.0021380267571657896
1774656641711027200,15.628027099609374,-0.028405211865901947,0.01359174121171236,-0.005192350596189499
1774656641727816700,15.644816650390625,-0.0021380267571657896,0.005650499369949102,-0.03756818547844887
1774656641744606000,15.66160595703125,0.01802051067352295,-0.0010690133785828948,-0.04428769648075104
1774656641761395200,15.678395263671876,-0.0308486707508564,0.0154243353754282,-0.008246674202382565
1774656641778184400,15.695184326171875,-0.0027488914784044027,0.008093958720564842,-0.03329212963581085
1774656641794973700,15.7119736328125,0.02779434807598591,-0.005345067009329796,-0.0461202897131443
1774656641811763200,15.72876318359375,-0.024740023538470268,0.012370011769235134,-0.004581485874950886
1774656641828552400,15.745552490234376,-0.029016077518463135,0.020922118797898293,-0.03817904740571976
1774656641845341700,15.762341796875,0.0015271619195118546,0.0019853105768561363,-0.04367683082818985
1774656641862131000,15.779130859375,-0.013744457624852657,0.008093958720564842,-0.044898562133312225
1774656641878920200,15.795920166015625,-0.019853105768561363,0.01908952370285988,-0.035124726593494415
1774656641895709700,15.812709716796874,-0.022296564653515816,0.014202605932950974,-0.022296564653515816
1774656641912499000,15.8294990234375,-0.008246674202382565,0.0025961752980947495,-0.024740023538470268
1774656641929288200,15.8462880859375,-0.0021380267571657896,0.009926552884280682,-0.04306596517562866
1774656641946077400,15.863077392578125,-0.041844237595796585,0.022754713892936707,-0.0412333719432354
1774656641962867000,15.879866943359374,-0.035735588520765305,0.012980876490473747,-0.019242240116000175
1774656641979656200,15.89665625,-0.007024944759905338,0.005039634648710489,-0.038789913058280945
1774656641996445400,15.913445556640625,-0.016798781231045723,0.011148282326757908,-0.048563748598098755
1774656642013234700,15.930234619140625,-0.025961752980947495,0.012370011769235134,0.003359756199643016
1774656642030024200,15.947024169921875,-0.035124726593494415,0.01359174121171236,-0.022296564653515816
1774656642046813400,15.9638134765625,-0.032070402055978775,0.0038179049734026194,-0.04367683082818985
1774656642063602700,15.980602783203125,-0.01740964688360691,-0.002290742937475443,-0.044898562133312225
1774656642080392000,15.997391845703126,-0.04062250629067421,0.007483093533664942,-0.035735588520765305
1774656642097181200,16.01418115234375,-0.026572618633508682,0.0013744457392022014,-0.047952886670827866
1774656642113970700,16.030970703125,-0.013744457624852657,-0.0102319847792387,-0.05039634555578232
1774656642130760000,16.047760009765625,-0.013744457624852657,-0.008399390615522861,-0.03023780696094036
1774656642147549200,16.064549072265624,-0.03023780696094036,-0.0010690133785828948,-0.06383536756038666
1774656642164338400,16.08133837890625,-0.0412333719432354,-0.011453714221715927,-0.07055488228797913
1774656642181128000,16.0981279296875,-0.0009162971982732415,-0.02672533318400383,-0.10537417232990265
1774656642197917200,16.114917236328125,0.013744457624852657,-0.024892739951610565,-0.09560033679008484
1774656642214706400,16.13170654296875,-0.03390299528837204,-0.013897174037992954,-0.13530655205249786
1774656642231495700,16.14849560546875,-0.013744457624852657,-0.024892739951610565,-0.13103049993515015
1774656642248285000,16.165284912109374,0.000305432389723137,-0.03527744114398956,-0.09132428467273712
1774656642265074400,16.182074462890625,-0.008246674202382565,-0.0334448479115963,-0.13713914155960083
1774656642281863700,16.19886376953125,-0.0009162971982732415,-0.04016435891389847,-0.2153298407793045
1774656642298653000,16.21565283203125,0.02412915788590908,-0.054214250296354294,-0.21655155718326569
1774656642315442200,16.232442138671875,0.0204639695584774,-0.05604684352874756,-0.1432477980852127
1774656642332231700,16.249231689453126,-0.018631376326084137,-0.04566214233636856,-0.18173226714134216
1774656642349021000,16.26602099609375,-0.013133592903614044,-0.06215549260377884,-0.32162031531333923
1774656642365810200,16.28281005859375,0.05711585655808449,-0.07070759683847427,-0.4211912751197815
1774656642382599400,16.299599365234375,0.02107483521103859,-0.05238165333867073,-0.168904110789299
1774656642399388700,16.316388671875,-0.0668896958231926,-0.03283398225903511,-0.17073670029640198
1774656642416178200,16.33317822265625,0.022907428443431854,-0.07376192510128021,-0.27519458532333374
1774656642432967400,16.349967529296876,0.05894844979047775,-0.08231402933597565,-0.3552178740501404
1774656642449756700,16.366756591796875,-0.03634645417332649,-0.041386090219020844,-0.4175260663032532
1774656642466546000,16.3835458984375,-0.019242240116000175,-0.04505127668380737,-0.2971857190132141
1774656642483335400,16.40033544921875,0.02412915788590908,-0.06276635825634003,-0.15485422313213348
1774656642500124700,16.417124755859376,-0.016798781231045723,-0.047494735568761826,-0.23365578055381775
1774656642516914000,16.433913818359375,-0.01802051067352295,-0.054214250296354294,-0.2519817352294922
1774656642533703200,16.450703125,0.03940077871084213,-0.0847574844956398,-0.20616686344146729
1774656642550492400,16.467492431640625,0.03756818547844887,-0.0743727833032608,-0.24404047429561615
1774656642567282000,16.484281982421876,-0.022296564653515816,-0.050549060106277466,-0.19822561740875244
1774656642584071200,16.5010712890625,0.0009162971982732415,-0.06154462695121765,-0.20677772164344788
1774656642600860400,16.5178603515625,0.04550942778587341,-0.0792597085237503,-0.19700388610363007
1774656642617649700,16.534649658203126,0.003970621153712273,-0.05787943676114082,-0.231212317943573
1774656642634439000,16.55143896484375,-0.011300998739898205,-0.05787943676114082,-0.16523891687393188
1774656642651228400,16.568228515625,0.035124726593494415,-0.07192932814359665,-0.13103049993515015
1774656642668017700,16.585017578125,0.021685699000954628,-0.057268574833869934,-0.11148282140493393
1774656642684807000,16.601806884765626,-0.0021380267571657896,-0.05604684352874756,-0.04673115536570549
1774656642701596200,16.61859619140625,0.021685699000954628,-0.0591011680662632,-0.08399390429258347
1774656642718385400,16.635385498046876,0.01740964688360691,-0.056657709181308746,-0.047952886670827866
1774656642735175000,16.6521748046875,0.013133592903614044,-0.056657709181308746,-0.05100720748305321
1774656642751964200,16.668964111328126,0.032070402055978775,-0.060933761298656464,-0.035124726593494415
1774656642768753400,16.68575341796875,0.008246674202382565,-0.044440411031246185,-0.04062250629067421
1774656642785542700,16.702542724609376,0.007024944759905338,-0.04627300798892975,-0.02779434807598591
1774656642802332200,16.719332275390624,0.02718348242342472,-0.05849030241370201,-0.04062250629067421
1774656642819121400,16.736121337890626,0.014966187067329884,-0.0487164668738842,-0.025350889191031456
1774656642835910700,16.75291064453125,-0.010690134018659592,-0.028557928279042244,-0.03695731982588768
1774656642852700000,16.769699951171877,0.007024944759905338,-0.041386090219020844,-0.007024944759905338
1774656642869489200,16.7864892578125,0.03451386094093323,-0.04321868345141411,0.015577051788568497
1774656642886278700,16.803278564453127,-0.0009162971982732415,-0.01695149764418602,0.03634645417332649
1774656642903068000,16.82006787109375,-0.007024944759905338,-0.016340631991624832,0.04550942778587341
1774656642919857200,16.836857177734377,0.008246674202382565,-0.028557928279042244,-0.02779434807598591
1774656642936646400,16.853646484375,0.008857538923621178,-0.0206166859716177,-0.010690134018659592
1774656642953436000,16.870435791015623,0.006414080038666725,-0.007788525894284248,0.015577051788568497
1774656642970225200,16.88722509765625,-0.0021380267571657896,-0.005345067009329796,-0.0021380267571657896
1774656642987014400,16.904014404296873,-0.0027488914784044027,-0.002290742937475443,0.016798781231045723
1774656643003803600,16.9208037109375,0.005192350596189499,0.004428769461810589,0.00946840364485979
1774656643020593000,16.937593017578124,0.0009162971982732415,0.004428769461810589,0.021685699000954628
1774656643037382100,16.954382080078126,0.019242240116000175,0.0032070400193333626,0.05283980444073677
1774656643054171400,16.97117138671875,-0.005192350596189499,0.016035201027989388,0.04062250629067421
1774656643070961000,16.9879609375,-0.016187917441129684,0.01847865991294384,-0.003359756199643016
1774656643087750100,17.004750244140624,0.014966187067329884,0.008093958720564842,0.022296564653515816
1774656643104539400,17.021539306640626,-0.005192350596189499,0.025809036567807198,0.0015271619195118546
1774656643121328600,17.03832861328125,-0.016798781231045723,0.033139415085315704,0.04245510324835777
1774656643138118100,17.0551181640625,0.0009162971982732415,0.02458730712532997,0.02718348242342472
1774656643154907400,17.071907470703124,0.018631376326084137,0.01359174121171236,0.03634645417332649
1774656643171696600,17.088696533203127,0.04245510324835777,0.014813470654189587,0.09987638890743256
1774656643188486000,17.10548583984375,0.18356487154960632,-0.014508038759231567,-0.005192350596189499
1774656643205275100,17.122275146484377,0.07849612087011337,-0.03283398225903511,0.09926552325487137
1774656643222064600,17.139064697265624,-0.03390299528837204,0.04046979174017906,0.0766635313630104
1774656643238854000,17.15585400390625,0.08399390429258347,-0.0010690133785828948,-0.025350889191031456
1774656643255643100,17.17264306640625,0.08093958348035812,0.0025961752980947495,0.09560033679008484
1774656643272432400,17.189432373046873,-0.08277218043804169,0.06307178735733032,0.13775001466274261
1774656643289221600,17.2062216796875,-0.038789913058280945,0.06856957077980042,0.05345066636800766
1774656643306011000,17.223010986328124,-0.03145953640341759,0.036804601550102234,0.019853105768561363
1774656643322800400,17.23980029296875,-0.06750056147575378,0.04108065739274025,-0.05406153202056885
1774656643339589600,17.256589599609374,-0.04062250629067421,0.025809036567807198,0.07055488228797913
1774656643356379000,17.27337890625,0.003359756199643016,0.03252854943275452,0.06933315098285675
1774656643373168000,17.290168212890624,0.09926552325487137,0.027030766010284424,0.054672397673130035
1774656643389957400,17.306957275390626,0.01740964688360691,0.02214384824037552,0.1279761642217636
1774656643406747000,17.323746826171874,-0.041844237595796585,0.055741410702466965,0.2513708472251892
1774656643423536000,17.3405361328125,0.07544180005788803,0.05329795181751251,0.425467312335968
1774656643440325400,17.357325439453124,0.04917461425065994,0.03375028073787689,0.8646790981292725
1774656643457114600,17.374114501953127,-0.06261363625526428,0.04657844081521034,0.5952877402305603
1774656643473903900,17.39090380859375,0.032070402055978775,0.05451968312263489,-0.06505709886550903
1774656643490693000,17.407693115234373,0.07360920310020447,0.014202605932950974,0.08032871782779694
1774656643507482600,17.424482666015624,-0.035735588520765305,0.03191768378019333,0.21960589289665222
1774656643524271900,17.44127197265625,-0.00946840364485979,0.039858926087617874,0.057726722210645676
1774656643541061000,17.45806103515625,0.05955931544303894,0.016035201027989388,0.22754712402820587
1774656643557850400,17.474850341796873,-0.010690134018659592,0.03436114266514778,0.210442915558815
1774656643574639600,17.4916396484375,-0.0009162971982732415,0.029474224895238876,0.20127993822097778
1774656643591429000,17.50842919921875,0.025350889191031456,0.0154243353754282,0.15546508133411407
1774656643608218400,17.52521826171875,0.014966187067329884,0.017256930470466614,0.09376774728298187
1774656643625007600,17.542007568359374,0.0015271619195118546,0.02458730712532997,0.1383608728647232
1774656643641796900,17.558796875,-0.00946840364485979,0.033139415085315704,0.09926552325487137
1774656643658586000,17.575586181640624,0.023518294095993042,0.008704823441803455,0.10170898586511612
1774656643675375400,17.592375244140626,0.01802051067352295,0.009926552884280682,0.09071341902017593
1774656643692164900,17.609164794921874,-0.01740964688360691,0.023365577682852745,0.10354158282279968
1774656643708954000,17.6259541015625,0.01740964688360691,0.01359174121171236,0.09987638890743256
1774656643725743400,17.642743408203124,0.03817904740571976,-0.002290742937475443,0.10415244847536087
1774656643742532600,17.65953271484375,0.007024944759905338,0.011759147047996521,0.1487455666065216
1774656643759321900,17.67632177734375,0.008857538923621178,0.0154243353754282,0.19700388610363007
1774656643776111000,17.693111083984373,0.016798781231045723,0.005650499369949102,0.10720676928758621
1774656643792900400,17.709900390625,0.01740964688360691,0.0038179049734026194,0.11759147047996521
1774656643809689900,17.72668994140625,0.0204639695584774,0.016035201027989388,0.10842850059270859
1774656643826479000,17.74347900390625,0.0009162971982732415,0.012980876490473747,0.10109812021255493
1774656643843268400,17.760268310546873,0.004581485874950886,0.0038179049734026194,0.13713914155960083
1774656643860057600,17.7770576171875,0.03329212963581085,0.0007635809597559273,0.10170898586511612
1774656643876846800,17.793846923828124,0.03451386094093323,0.005039634648710489,0.08582650125026703
1774656643893636000,17.810635986328126,-0.013744457624852657,0.0062613640911877155,0.15118902921676636
1774656643910425300,17.82742529296875,0.016187917441129684,0.005650499369949102,0.10720676928758621
1774656643927214800,17.84421484375,0.048563748598098755,-0.001679878099821508,0.16096286475658417
1774656643944004000,17.861004150390624,-0.013133592903614044,0.01847865991294384,0.11636973917484283
1774656643960793300,17.87779345703125,0.005192350596189499,0.011148282326757908,0.18356487154960632
1774656643977582600,17.89458251953125,0.04245510324835777,-0.003512472379952669,0.12980876863002777
1774656643994371800,17.911371826171877,0.016187917441129684,-0.001679878099821508,0.09498947113752365
1774656644011161000,17.9281611328125,0.013133592903614044,0.006872228812426329,0.210442915558815
1774656644027950600,17.94495068359375,0.003970621153712273,0.022754713892936707,0.19944734871387482
1774656644044739800,17.96173974609375,0.008857538923621178,0.007483093533664942,0.21899501979351044
1774656644061529000,17.978529052734373,0.032681263983249664,-0.004123337101191282,0.1340848207473755
1774656644078318300,17.995318359375,0.018631376326084137,0.011759147047996521,0.1744018942117691
1774656644095107600,18.012107666015623,0.006414080038666725,0.020311253145337105,0.19639302790164948
1774656644111896800,18.028896728515626,0.006414080038666725,0.008093958720564842,0.11698060482740402
1774656644128686000,18.04568603515625,0.029626941308379173,-0.003512472379952669,0.05711585655808449
1774656644145475600,18.0624755859375,0.038789913058280945,0.0038179049734026194,0.09315688163042068
1774656644162264800,18.079264892578124,-0.00946840364485979,0.023365577682852745,0.129197895526886
1774656644179054000,18.09605419921875,0.02107483521103859,0.007483093533664942,0.19761475920677185
1774656644195843300,18.11284326171875,0.057726722210645676,-0.005345067009329796,0.15729768574237823
1774656644212632800,18.1296328125,0.023518294095993042,0.0038179049734026194,0.11453714966773987
1774656644229422000,18.146422119140624,0.04673115536570549,-0.007788525894284248,0.14019346237182617
1774656644246211300,18.16321142578125,0.05406153202056885,-0.009621120058000088,0.11331541836261749
1774656644263000600,18.18000048828125,0.008246674202382565,0.008704823441803455,0.1744018942117691
1774656644279789800,18.196789794921877,0.025350889191031456,0.008093958720564842,0.1591302752494812
1774656644296579000,18.2135791015625,0.041844237595796585,-0.011453714221715927,0.13775001466274261
1774656644313368300,18.230368408203127,0.05345066636800766,-0.0206166859716177,0.05894844979047775
1774656644330157800,18.24715771484375,0.07422006875276566,-0.021227551624178886,0.13103049993515015
1774656644346947000,18.263947021484373,-0.013744457624852657,0.017867794260382652,0.15241076052188873
1774656644363736300,18.280736328125,-0.011911863461136818,0.014813470654189587,0.22266021370887756
1774656644380525600,18.297525634765623,0.03329212963581085,-0.004123337101191282,0.250149130821228
1774656644397314800,18.314314697265626,0.0412333719432354,-0.013286309316754341,0.06872228533029556
1774656644414104000,18.33110400390625,0.07483093440532684,-0.0206166859716177,0.11209368705749512
1774656644430893600,18.3478935546875,0.035124726593494415,-0.007177661173045635,0.23243404924869537
1774656644447682800,18.364682861328124,-0.010690134018659592,0.010537417605519295,0.08277218043804169
1774656644464472000,18.38147216796875,0.023518294095993042,-0.013897174037992954,0.2110537886619568
1774656644481261300,18.39826123046875,0.019853105768561363,0.0007635809597559273,0.025350889191031456
1774656644498050600,18.415050537109376,0.01740964688360691,-0.017562363296747208,-0.003359756199643016
1774656644514840000,18.431840087890624,0.04245510324835777,-0.017562363296747208,0.0009162971982732415
1774656644531629300,18.44862939453125,0.016798781231045723,0.0013744457392022014,-0.060781046748161316
1774656644548418600,18.46541845703125,0.010079269297420979,0.0038179049734026194,-0.07055488228797913
1774656644565207800,18.482207763671877,-0.003359756199643016,-0.003512472379952669,0.09804379940032959
1774656644581997000,18.4989970703125,-0.04428769648075104,0.014813470654189587,0.08643736690282822
1774656644598786300,18.515786376953123,0.005192350596189499,0.0001527161948615685,-0.013744457624852657
1774656644615575800,18.532575927734374,0.032070402055978775,-0.01695149764418602,-0.025350889191031456
1774656644632365000,18.549364990234373,-0.006414080038666725,-0.002290742937475443,-0.06383536756038666
1774656644649154300,18.566154296875,0.03390299528837204,0.0025961752980947495,-0.035124726593494415
1774656644665943600,18.582943603515623,0.016187917441129684,-0.008399390615522861,0.11514800786972046
1774656644682732800,18.59973291015625,-0.01740964688360691,0.0007635809597559273,0.024740023538470268
1774656644699522300,18.616522216796874,0.0308486707508564,-0.009010255336761475,0.013744457624852657
1774656644716311600,18.6333115234375,0.008857538923621178,-0.002290742937475443,-0.0412333719432354
1774656644733100800,18.650100830078124,-0.022296564653515816,-0.009010255336761475,-0.09498947113752365
1774656644749890000,18.66689013671875,0.03695731982588768,-0.019394956529140472,-0.12736530601978302
1774656644766679300,18.68367919921875,0.010690134018659592,-0.002901607658714056,-0.20127993822097778
1774656644783468800,18.70046875,-0.015577051788568497,-0.00045814859913662076,-0.2306014597415924
1774656644800258000,18.717258056640624,0.018631376326084137,-0.011453714221715927,-0.2110537886619568
1774656644817047300,18.73404736328125,-0.007635809946805239,0.0013744457392022014,-0.11575887352228165
1774656644833836500,18.75083642578125,-0.019853105768561363,0.0038179049734026194,-0.12736530601978302
1774656644850625800,18.767625732421877,0.021685699000954628,-0.014508038759231567,-0.15118902921676636
1774656644867415000,18.7844150390625,0.013744457624852657,-0.005345067009329796,-0.13713914155960083
1774656644884204500,18.80120458984375,-0.010079269297420979,0.009315688163042068,-0.11759147047996521
1774656644900993800,18.817993896484374,-0.007635809946805239,0.0007635809597559273,-0.09804379940032959
1774656644917783000,18.834782958984373,-0.0027488914784044027,-0.001679878099821508,-0.10048725455999374
1774656644934572300,18.851572265625,-0.006414080038666725,0.0038179049734026194,-0.14569124579429626
1774656644951361500,18.868361572265623,-0.01435532234609127,0.004428769461810589,-0.15485422313213348
1774656644968150800,18.88515087890625,0.000305432389723137,-0.001679878099821508,-0.1750127524137497
1774656644984940300,18.901940185546874,-0.016798781231045723,0.005650499369949102,-0.21288637816905975
1774656645001729500,18.9187294921875,-0.023518294095993042,0.006872228812426329,-0.17318016290664673
1774656645018518800,18.935518798828124,-0.008857538923621178,0.006872228812426329,-0.14080433547496796
1774656645035308000,18.95230810546875,-0.021685699000954628,0.0154243353754282,-0.16707152128219604
1774656645052097300,18.96909716796875,-0.008857538923621178,0.008704823441803455,-0.17806708812713623
1774656645068886800,18.98588671875,-0.011300998739898205,0.005039634648710489,-0.1792888194322586
1774656645085676000,19.002676025390624,-0.028405211865901947,0.011148282326757908,-0.20861032605171204
1774656645102465300,19.01946533203125,-0.012522728182375431,0.005039634648710489,-0.210442915558815
1774656645119254500,19.036254638671874,0.005192350596189499,0.0019853105768561363,-0.2110537886619568
1774656645136043800,19.053043701171877,-0.02779434807598591,0.0154243353754282,-0.21716243028640747
1774656645152833000,19.0698330078125,-0.044898562133312225,0.019700389355421066,-0.23243404924869537
1774656645169622300,19.086622314453123,-0.018631376326084137,-0.002290742937475443,-0.19700388610363007
1774656645186411800,19.103411865234374,0.000305432389723137,0.0007635809597559273,-0.2672533392906189
1774656645203201000,19.120200927734373,-0.01740964688360691,0.011759147047996521,-0.2000582218170166
1774656645219990300,19.136990234375,-0.057726722210645676,0.023976443335413933,-0.21716243028640747
1774656645236779500,19.153779541015624,-0.05283980444073677,0.005039634648710489,-0.22510367631912231
1774656645253568800,19.17056884765625,-0.005192350596189499,-0.01206457894295454,-0.2666424810886383
1774656645270358000,19.18735791015625,0.0027488914784044027,0.0001527161948615685,-0.23304490745067596
1774656645287147500,19.2041474609375,-0.07422006875276566,0.02519817277789116,-0.20433427393436432
1774656645303936800,19.220936767578124,-0.06322450190782547,0.0007635809597559273,-0.1744018942117691
1774656645320726000,19.23772607421875,0.010690134018659592,-0.02672533318400383,-0.24342961609363556
1774656645337515300,19.254515380859374,-0.004581485874950886,-0.010842849500477314,-0.2519817352294922
1774656645354304500,19.271304443359377,-0.07849612087011337,0.012370011769235134,-0.15546508133411407
1774656645371093800,19.28809375,-0.06261363625526428,0.0032070400193333626,-0.11453714966773987
1774656645387883000,19.304883056640627,0.010079269297420979,-0.031612250953912735,-0.07483093440532684
1774656645404672500,19.321672607421874,-0.011300998739898205,-0.0206166859716177,-0.2562577724456787
1774656645421461800,19.338461669921877,-0.04245510324835777,-0.013897174037992954,-0.09682206809520721
1774656645438251000,19.3552509765625,-0.05833758786320686,-0.012675444595515728,-0.07238747924566269
1774656645455040300,19.372040283203123,-0.023518294095993042,-0.03894263133406639,-0.21227550506591797
1774656645471829800,19.388829833984374,0.019242240116000175,-0.05177079141139984,-0.19089524447917938
1774656645488619000,19.405618896484373,-0.04550942778587341,-0.028557928279042244,-0.10354158282279968
1774656645505408300,19.422408203125,-0.06322450190782547,-0.018173227086663246,-0.13652828335762024
1774656645522197500,19.439197509765624,0.011911863461136818,-0.04566214233636856,-0.03451386094093323
1774656645538986800,19.45598681640625,-0.03390299528837204,-0.03588830679655075,-0.07422006875276566
1774656645555776000,19.47277587890625,-0.048563748598098755,-0.034666575491428375,-0.0925460159778595
1774656645572565200,19.489565185546876,-0.004581485874950886,-0.040775224566459656,-0.0925460159778595
1774656645589354800,19.506354736328124,-0.03451386094093323,-0.03222311660647392,-0.11636973917484283
1774656645606143700,19.523143798828126,-0.03756818547844887,-0.03283398225903511,-0.05894844979047775
1774656645622933200,19.539933349609374,-0.03329212963581085,-0.024892739951610565,-0.04001164436340332
1774656645639722500,19.556722412109377,-0.04550942778587341,-0.027947064489126205,-0.09071341902017593
1774656645656511700,19.57351171875,-0.01435532234609127,-0.037720900028944016,-0.0821613147854805
1774656645673301000,19.590301025390627,-0.029016077518463135,-0.02672533318400383,-0.04367683082818985
1774656645690090200,19.60709033203125,-0.05528326332569122,-0.010842849500477314,-0.08826996386051178
1774656645706879500,19.62387939453125,-0.018631376326084137,-0.021838415414094925,0.008857538923621178
1774656645723669000,19.6406689453125,-0.04001164436340332,-0.002901607658714056,-0.05406153202056885
1774656645740458200,19.657458251953123,-0.03329212963581085,-0.001679878099821508,-0.061391908675432205
1774656645757247500,19.67424755859375,-0.01435532234609127,-0.008399390615522861,0.000305432389723137
1774656645774036700,19.69103662109375,-0.044898562133312225,0.014813470654189587,0.0015271619195118546
1774656645790826000,19.707825927734376,-0.048563748598098755,0.01908952370285988,0.041844237595796585
1774656645807615200,19.724615234375,-0.019242240116000175,0.014813470654189587,-0.022296564653515816
1774656645824404500,19.741404541015626,-0.01740964688360691,0.017867794260382652,-0.013133592903614044
1774656645841194000,19.758194091796874,-0.044898562133312225,0.03191768378019333,0.029016077518463135
1774656645857983200,19.774983154296876,-0.025961752980947495,0.033139415085315704,0.06505709886550903
1774656645874772500,19.7917724609375,0.000305432389723137,0.01908952370285988,-0.01435532234609127
1774656645891561700,19.808561767578126,-0.003359756199643016,0.0154243353754282,-0.03329212963581085
1774656645908351000,19.82535107421875,-0.022907428443431854,0.036193739622831345,0.000305432389723137
1774656645925140200,19.84214013671875,-0.000305432389723137,0.03130681812763214,0.041844237595796585
1774656645941929500,19.858929443359376,0.02718348242342472,0.020922118797898293,-0.005803215317428112
1774656645958719000,19.875718994140627,0.0027488914784044027,0.03191768378019333,0.01435532234609127
1774656645975508200,19.89250830078125,-0.003970621153712273,0.03802633285522461,-0.01740964688360691
1774656645992297500,19.90929736328125,0.018631376326084137,0.023976443335413933,-0.011911863461136818
1774656646009086700,19.926086669921876,0.029626941308379173,0.019700389355421066,0.03390299528837204
1774656646025876000,19.9428759765625,0.025350889191031456,0.039248060435056686,0.014966187067329884
1774656646042665200,19.959665283203126,0.005192350596189499,0.04046979174017906,0.003359756199643016
1774656646059454500,19.976454345703125,0.022907428443431854,0.027030766010284424,-0.005803215317428112
1774656646076243700,19.99324365234375,0.0308486707508564,0.033139415085315704,0.005192350596189499
1774656646093033000,20.010032958984375,0.014966187067329884,0.04474584385752678,-0.006414080038666725
1774656646109822500,20.026822509765626,0.04306596517562866,0.02825249545276165,-0.007024944759905338
1774656646126611700,20.04361181640625,0.11148282140493393,0.0007635809597559273,0.038789913058280945
1774656646143401000,20.06040087890625,0.20922118425369263,-0.03283398225903511,-0.1957821547985077
1774656646160190200,20.077190185546876,0.04734202101826668,0.014813470654189587,-0.14630211889743805
