time,seconds_elapsed,z,y,x
1774656626152271000,0.06927099609375,5.149354457855225,8.295916557312012,-0.2799602448940277
1774656626169060400,0.086060302734375,5.584847927093506,8.159524917602539,-0.4259224236011505
1774656626185849600,0.102849609375,5.4795637130737305,8.176275253295898,-0.4019941985607147
1774656626202638800,0.119638916015625,5.2043890953063965,8.319844245910645,-0.31824541091918945
1774656626219428400,0.136428466796875,5.395814895629883,8.193024635314941,-0.5335994362831116
1774656626236217600,0.153217529296875,5.300102233886719,8.324629783630371,-0.38285163044929504
1774656626253006800,0.1700068359375,5.4556355476379395,8.207381248474121,-0.5024927258491516
1774656626269796400,0.18679638671875,5.328815937042236,8.303094863891602,-0.4091726839542389
1774656626286585600,0.203585693359375,5.436492919921875,8.14516830444336,-0.5120640397071838
1774656626303374800,0.220374755859375,5.558526992797852,8.154739379882812,-0.42831525206565857
1774656626320164000,0.2371640625,5.383851051330566,8.202595710754395,-0.5144568681716919
1774656626336953600,0.25395361328125,5.383851051330566,8.202595710754395,-0.5814558863639832
1774656626353744000,0.270743896484375,5.3455657958984375,8.226524353027344,-0.3565305769443512
1774656626370532000,0.287531982421875,5.431707382202148,8.200202941894531,-0.5240281820297241
1774656626387321300,0.3043212890625,5.407779216766357,8.23130989074707,-0.397208571434021
1774656626404110800,0.32111083984375,5.400600910186768,8.214560508728027,-0.4785645306110382
1774656626420900000,0.337900146484375,5.19242525100708,8.324629783630371,-0.44745782017707825
1774656626437689300,0.354689453125,5.577669620513916,8.161917686462402,-0.41156548261642456
1774656626454478800,0.371478759765625,5.328815937042236,8.204988479614258,-0.36610186100006104
1774656626471268000,0.38826806640625,5.335994720458984,8.276773452758789,-0.4498506486415863
1774656626488057300,0.405057373046875,5.355136871337891,8.166703224182129,-0.39960137009620667
1774656626504846800,0.421846923828125,5.295316696166992,8.293522834777832,-0.28235307335853577
1774656626521636000,0.438635986328125,5.367101192474365,8.2695951461792,-0.6699903607368469
1774656626538425300,0.45542529296875,5.352744102478027,8.23130989074707,-0.33020952343940735
1774656626555214600,0.472214599609375,5.484349727630615,8.166703224182129,-0.5335994362831116
1774656626572004000,0.489004150390625,5.1182475090026855,8.240880966186523,-0.41874396800994873
1774656626588793300,0.50579345703125,5.489135265350342,8.126026153564453,-0.17946170270442963
1774656626605582600,0.52258251953125,5.0225348472595215,8.324629783630371,-0.5886343717575073
1774656626622372000,0.5393720703125,5.5034918785095215,8.11406135559082,-0.2584248483181
1774656626639161300,0.556161376953125,5.103890895843506,8.334200859069824,-0.38763725757598877
1774656626655950600,0.57295068359375,5.5106706619262695,8.183453559875488,-0.5575276613235474
1774656626672739800,0.58973974609375,5.26181697845459,8.288737297058105,-0.17706887423992157
1774656626689529300,0.606529296875,5.371886730194092,8.190631866455078,-0.5527420043945312
1774656626706318600,0.623318603515625,5.247459888458252,8.276773452758789,-0.2847459018230438
1774656626723107800,0.64010791015625,5.575276851654053,8.164310455322266,-0.48095735907554626
1774656626739897000,0.65689697265625,5.032105922698975,8.408378601074219,-0.5312066078186035
1774656626756686600,0.6736865234375,5.429314613342285,8.22413158416748,-0.37088751792907715
1774656626773475800,0.690475830078125,5.216353416442871,8.2695951461792,-0.5312066078186035
1774656626790265000,0.70726513671875,5.391029357910156,8.209774017333984,-0.44745782017707825
1774656626807054600,0.7240546875,5.491528034210205,8.161917686462402,-0.380458801984787
1774656626823843800,0.74084375,5.190032482147217,8.331808090209961,-0.5048855543136597
1774656626840633000,0.757633056640625,5.496313571929932,8.171489715576172,-0.4546363055706024
1774656626857422300,0.77442236328125,5.1565327644348145,8.2695951461792,-0.4091726839542389
1774656626874211800,0.7912119140625,5.656632900238037,8.09970474243164,-0.5072783827781677
1774656626891001000,0.8080009765625,4.9531426429748535,8.396414756774902,-0.24646073579788208
1774656626907790300,0.824790283203125,5.469992637634277,8.221738815307617,-0.550349235534668
1774656626924579600,0.84157958984375,5.240281581878662,8.183453559875488,-0.47617170214653015
1774656626941369000,0.858369140625,5.328815937042236,8.343772888183594,-0.13878370821475983
1774656626958158300,0.875158447265625,5.158925533294678,8.37009334564209,-0.8087740540504456
1774656626974947600,0.891947509765625,5.469992637634277,8.188239097595215,-0.21296121180057526
1774656626991736800,0.90873681640625,5.197210788726807,8.286344528198242,-0.607776939868927
1774656627008526300,0.9255263671875,5.26899528503418,8.315058708190918,-0.42831525206565857
1774656627025315600,0.942315673828125,5.446064472198486,8.21695327758789,-0.275174617767334
1774656627042104800,0.959104736328125,4.800002098083496,8.504091262817383,-0.6436693072319031
1774656627058894300,0.975894287109375,5.3455657958984375,8.24566650390625,-0.2967100143432617
1774656627075683600,0.99268359375,5.161318302154541,8.307880401611328,-0.4618147611618042
1774656627092472800,1.009472900390625,5.082355499267578,8.322237014770508,-0.46420758962631226
1774656627109262000,1.026261962890625,5.443671703338623,8.264809608459473,-0.30149564146995544
1774656627126051600,1.043051513671875,4.625326156616211,8.702695846557617,-0.5479564070701599
1774656627142840800,1.0598408203125,5.546562671661377,8.116454124450684,-0.40677985548973083
1774656627159630300,1.07663037109375,5.008177757263184,8.37727165222168,-0.2512463629245758
1774656627176419600,1.093419677734375,5.364708423614502,8.396414756774902,-0.9858429431915283
1774656627193208800,1.110208740234375,5.714060306549072,8.257631301879883,-0.20578274130821228
1774656627209998000,1.126998046875,4.993820667266846,8.504091262817383,-0.8374879360198975
1774656627226787300,1.143787353515625,5.362315654754639,8.271987915039062,-0.43549370765686035
1774656627243576800,1.160576904296875,5.041677474975586,8.468199729919434,-0.26560330390930176
1774656627260366000,1.177365966796875,6.128018856048584,7.795815944671631,-0.9092726111412048
1774656627277155300,1.1941552734375,4.811966419219971,8.504091262817383,0.1698904037475586
1774656627293944600,1.210944580078125,6.398407936096191,7.901100158691406,-0.8709874153137207
1774656627310734000,1.227734130859375,5.280959606170654,8.23848819732666,-0.3732803463935852
1774656627327523300,1.2445234375,6.786045074462891,7.496713161468506,-0.1986042857170105
1774656627344312600,1.2613125,5.20678186416626,8.2695951461792,-0.6604190468788147
1774656627361101800,1.278101806640625,3.4576287269592285,9.140582084655762,-0.26081767678260803
1774656627377891300,1.294891357421875,6.003592014312744,7.960920810699463,-0.6532405614852905
1774656627394680600,1.3116806640625,5.3694939613342285,8.25523853302002,-0.34695929288864136
1774656627411469800,1.3284697265625,5.0943193435668945,8.310273170471191,-0.275174617767334
1774656627428259300,1.34525927734375,5.398207664489746,8.248059272766113,-0.5599204897880554
1774656627445048600,1.362048583984375,5.678168296813965,8.183453559875488,-0.4498506486415863
1774656627461837800,1.378837890625,5.19960355758667,8.298309326171875,-0.4163511395454407
1774656627478627000,1.395626953125,5.580062389373779,8.039883613586426,-0.42831525206565857
1774656627495416600,1.41241650390625,5.2737812995910645,8.23130989074707,-0.2991028428077698
1774656627512205800,1.429205810546875,5.434100151062012,8.23848819732666,-0.4259224236011505
1774656627528995000,1.4459951171875,5.115854740142822,8.449056625366211,-0.4546363055706024
1774656627545784300,1.462784423828125,4.402793884277344,8.571090698242188,-0.35413774847984314
1774656627562573800,1.47957373046875,6.6592254638671875,7.6666035652160645,-0.34217363595962524
1774656627579363000,1.496363037109375,4.3549370765686035,8.669196128845215,-0.7178468108177185
1774656627596152300,1.51315234375,6.156732559204102,8.018348693847656,-0.397208571434021
1774656627612941800,1.52994189453125,4.6995038986206055,8.528019905090332,-0.11724831163883209
1774656627629731000,1.54673095703125,4.876572608947754,8.551948547363281,-0.6436693072319031
1774656627646520300,1.563520263671875,4.230510234832764,8.7505521774292,-0.19381862878799438
1774656627663309600,1.5803095703125,5.697310924530029,8.219346046447754,-0.6125625967979431
1774656627680099000,1.59709912109375,4.776073932647705,8.513663291931152,-0.48813581466674805
1774656627696888300,1.613888427734375,5.3934221267700195,8.176275253295898,0.04546362906694412
1774656627713677600,1.630677490234375,4.701896667480469,8.583054542541504,-0.605384111404419
1774656627730466800,1.647466796875,4.285545349121094,8.781659126281738,-0.5407779216766357
1774656627747256300,1.66425634765625,4.840680122375488,8.578269004821777,-0.27038896083831787
1774656627764045600,1.681045654296875,4.811966419219971,8.695517539978027,-0.5455635786056519
1774656627780834800,1.697834716796875,4.632504463195801,8.659625053405762,-0.21774685382843018
1774656627797624300,1.714624267578125,4.756931304931641,8.61894702911377,-0.4737788736820221
1774656627814413600,1.73141357421875,3.94097900390625,8.997013092041016,-0.6149554252624512
1774656627831202800,1.748202880859375,3.972085475921631,8.927620887756348,-0.2273181527853012
1774656627847992000,1.764991943359375,4.457828521728516,8.719446182250977,-0.4043870270252228
1774656627864781600,1.781781494140625,5.726024627685547,8.283951759338379,-0.42831525206565857
1774656627881570800,1.79857080078125,5.776273727416992,8.15234661102295,-0.4211367964744568
1774656627898360000,1.815360107421875,3.8811583518981934,8.96829891204834,-0.2967100143432617
1774656627915149300,1.8321494140625,5.242674350738525,8.38684368133545,-0.2871387302875519
1774656627931938800,1.848938720703125,3.7902309894561768,9.040083885192871,-0.48574298620224
1774656627948728000,1.86572802734375,3.869194269180298,9.016156196594238,-0.5670989751815796
1774656627965517300,1.882517333984375,3.6083765029907227,9.157332420349121,-0.2799602448940277
1774656627982306600,1.899306640625,5.089533805847168,8.477770805358887,-0.5431707501411438
1774656627999096000,1.916095947265625,4.505684852600098,8.781659126281738,-0.16510476171970367
1774656628015885300,1.93288525390625,5.106283664703369,8.585447311401367,-0.6149554252624512
1774656628032674600,1.949674560546875,3.9696927070617676,9.011369705200195,-0.4570291340351105
1774656628049464000,1.966464111328125,4.110869407653809,8.930013656616211,-0.4498506486415863
1774656628066253300,1.98325341796875,4.275974273681641,8.762516975402832,-0.40677985548973083
1774656628083042600,2.00004248046875,4.4410786628723145,8.767302513122559,-0.24646073579788208
1774656628099831800,2.016831787109375,4.4650068283081055,8.784051895141602,-0.6029912829399109
1774656628116621300,2.033621337890625,3.6538400650024414,9.104690551757812,-0.37806597352027893
1774656628133410600,2.05041064453125,3.603590965270996,9.430113792419434,-0.3517449200153351
1774656628150199800,2.06719970703125,4.589433670043945,9.198010444641113,-0.849452018737793
1774656628166989000,2.083989013671875,4.4243292808532715,9.181260108947754,-0.6340979933738708
1774656628183778600,2.100778564453125,4.876572608947754,8.963513374328613,-0.46899324655532837
1774656628200567800,2.11756787109375,3.9290146827697754,9.889535903930664,-0.6149554252624512
1774656628217357000,2.134357177734375,4.024727821350098,10.006784439086914,-1.1485549211502075
1774656628234146300,2.151146240234375,6.625725746154785,8.525627136230469,-0.14356936514377594
1774656628250935800,2.167935791015625,5.309673309326172,9.169296264648438,0.031106693670153618
1774656628267725000,2.18472509765625,3.759124279022217,10.202995300292969,-1.129412293434143
1774656628284514300,2.201514404296875,4.986642360687256,9.367900848388672,-0.34695929288864136
1774656628301303800,2.2183037109375,3.6394832134246826,9.564111709594727,0.12921242415905
1774656628318093000,2.235093017578125,6.4319071769714355,8.630910873413086,-1.1198409795761108
1774656628334882300,2.25188232421875,5.252245903015137,8.975478172302246,-0.26560330390930176
1774656628351671600,2.268671630859375,3.9840497970581055,9.083154678344727,-0.05742774158716202
1774656628368461000,2.2854609375,4.673182487487793,8.394021987915039,-0.031106693670153618
1774656628385250300,2.302250244140625,5.0464630126953125,8.35573673248291,0.062213387340307236
1774656628402039600,2.31903955078125,4.527220249176025,8.884550094604492,-1.1413763761520386
1774656628418828800,2.335828857421875,4.024727821350098,8.360522270202637,-0.05024927482008934
1774656628435618300,2.352618408203125,4.9435715675354,7.692924976348877,0.9834501147270203
1774656628452407600,2.369407470703125,5.0464630126953125,8.104490280151367,-0.5886343717575073
1774656628469196800,2.38619677734375,4.06540584564209,8.606983184814453,-0.3445664644241333
1774656628485986300,2.402986328125,4.54636287689209,8.214560508728027,-0.16031911969184875
1774656628502775600,2.419775634765625,3.9912281036376953,8.417949676513672,-0.2847459018230438
1774656628519564800,2.436564697265625,5.836094379425049,7.6737823486328125,0.43549370765686035
1774656628536354000,2.45335400390625,1.8855443000793457,9.394221305847168,0.363709032535553
1774656628553143600,2.4701435546875,8.085348129272461,7.080362319946289,-0.29431718587875366
1774656628569932800,2.486932861328125,2.864208698272705,9.600004196166992,-0.3684946894645691
1774656628586722000,2.50372216796875,3.4241292476654053,9.200403213500977,-0.6939185857772827
1774656628603511300,2.52051123046875,5.711667537689209,8.094919204711914,0.41156548261642456
1774656628620300800,2.53730078125,4.311866283416748,9.075976371765137,-0.5168496966362
1774656628637090000,2.554090087890625,4.077369689941406,9.45882797241211,-1.3208380937576294
1774656628653879300,2.57087939453125,3.4265220165252686,9.293723106384277,0.009571290574967861
1774656628670668500,2.58766845703125,3.871587038040161,9.174081802368164,-0.5000999569892883
1774656628687457800,2.604457763671875,3.838087558746338,9.535398483276367,-0.9427721500396729
1774656628704247300,2.621247314453125,4.244867324829102,9.174081802368164,-0.16031911969184875
1774656628721036500,2.63803662109375,4.046263217926025,8.975478172302246,-0.38285163044929504
1774656628737825800,2.65482568359375,2.5435705184936523,9.772287368774414,-0.37806597352027893
1774656628754615300,2.671615234375,3.972085475921631,9.439684867858887,-0.8231309652328491
1774656628771404500,2.688404541015625,4.374079704284668,8.930013656616211,-0.41874396800994873
1774656628788193800,2.70519384765625,3.601198196411133,8.831908226013184,0.5575276613235474
1774656628804983300,2.7219833984375,4.768895626068115,8.427521705627441,-0.2991028428077698
1774656628821772500,2.7387724609375,3.1130621433258057,9.128618240356445,-0.42352959513664246
1774656628838561800,2.755561767578125,3.4504501819610596,8.97787094116211,-0.6436693072319031
1774656628855351000,2.77235107421875,4.048655986785889,8.243273735046387,-0.11006984114646912
1774656628872140500,2.789140625,4.565505504608154,7.623532772064209,0.39960137009620667
1774656628888929800,2.8059296875,4.295116424560547,8.181060791015625,-0.4211367964744568
1774656628905719000,2.822718994140625,3.3068809509277344,8.623732566833496,-0.8733802437782288
1774656628922508300,2.83950830078125,3.675375461578369,8.13081169128418,0.0023928226437419653
1774656628939297500,2.856297607421875,2.9838497638702393,8.599804878234863,-0.30628129839897156
1774656628956087000,2.873087158203125,3.90987229347229,8.61176872253418,-0.7537391185760498
1774656628972876300,2.889876220703125,3.328416347503662,8.889336585998535,-0.019142581149935722
1774656628989665500,2.90666552734375,4.338187217712402,8.764909744262695,-0.5670989751815796
1774656629006455000,2.923455078125,3.538984775543213,9.272188186645508,-0.6628118753433228
1774656629023244300,2.940244384765625,4.271188259124756,9.1716890335083,-0.48574298620224
1774656629040033500,2.957033447265625,4.302295207977295,9.123832702636719,-0.7920243144035339
1774656629056823000,2.973822998046875,4.4961137771606445,9.056833267211914,-0.4570291340351105
1774656629073612300,2.9906123046875,4.216153621673584,9.123832702636719,-0.8925228714942932
1774656629090401500,3.007401611328125,6.240481376647949,7.9968132972717285,-0.8183453679084778
1774656629107190800,3.024190673828125,6.003592014312744,7.728816986083984,-0.4546363055706024
1774656629123980000,3.04097998046875,1.2658032178878784,9.891928672790527,-0.672383189201355
1774656629140769500,3.05776953125,-0.8422735929489136,10.798809051513672,-1.124626636505127
1774656629157558800,3.074558837890625,0.8733802437782288,9.556933403015137,-0.4450650215148926
1774656629174348000,3.09134814453125,4.752145767211914,7.776673793792725,-0.4426721930503845
1774656629191137500,3.108137451171875,1.7802600860595703,9.394221305847168,-1.1581261157989502
1774656629207926800,3.1249267578125,3.541377544403076,8.590232849121094,-1.2059825658798218
1774656629224716000,3.141716064453125,3.3092737197875977,8.477770805358887,-0.15314064919948578
1774656629241505500,3.158505615234375,2.021935224533081,9.243474006652832,-0.9882357716560364
1774656629258294800,3.175294677734375,4.718646049499512,8.482556343078613,-0.6005984544754028
1774656629275084000,3.192083984375,1.2251251935958862,10.1216402053833,-0.3684946894645691
1774656629291873300,3.208873291015625,3.7806596755981445,9.09990406036377,-1.0121639966964722
1774656629308662800,3.225662841796875,2.902493953704834,9.604789733886719,-0.48095735907554626
1774656629325452000,3.2424521484375,1.789831280708313,10.293923377990723,-0.5934200286865234
1774656629342241300,3.2592412109375,1.9070796966552734,10.411170959472656,-1.0528420209884644
1774656629359030800,3.27603076171875,2.974278450012207,10.021141052246094,-0.6293123364448547
1774656629375820000,3.292820068359375,6.783652305603027,8.243273735046387,-0.9332008361816406
1774656629392609300,3.309609375,2.273181438446045,10.078569412231445,-0.5790630578994751
1774656629409398500,3.3263984375,2.2947168350219727,9.985248565673828,-0.885344386100769
1774656629426188000,3.34318798828125,3.28773832321167,9.600004196166992,-1.0193424224853516
1774656629442977300,3.359977294921875,2.0195422172546387,9.817750930786133,-0.9116654396057129
1774656629459766800,3.376766845703125,3.328416347503662,8.740981101989746,-0.6532405614852905
1774656629476556000,3.39355615234375,2.833101987838745,8.965906143188477,-0.8159525394439697
1774656629493345300,3.41034521484375,2.5435705184936523,9.363115310668945,-1.2873386144638062
1774656629510134500,3.427134521484375,2.857030153274536,8.937192916870117,-1.0049854516983032
1774656629526924000,3.443924072265625,2.1894326210021973,9.09990406036377,-0.31345975399017334
1774656629543713300,3.46071337890625,3.2518460750579834,8.786444664001465,-0.760917603969574
1774656629560502500,3.47750244140625,3.091526746749878,8.963513374328613,-0.42831525206565857
1774656629577292000,3.4942919921875,2.438286304473877,9.379864692687988,-0.4618147611618042
1774656629594081300,3.511081298828125,3.0484559535980225,9.4061861038208,-0.7393822073936462
1774656629610870500,3.52787060546875,3.2829527854919434,9.31047248840332,-0.45224347710609436
1774656629627660000,3.544659912109375,3.0723843574523926,9.521040916442871,-0.23688943684101105
1774656629644449300,3.56144921875,3.7567315101623535,9.336793899536133,-0.5479564070701599
1774656629661238500,3.578238525390625,2.7589244842529297,9.846465110778809,-0.32542386651039124
1774656629678028000,3.595028076171875,3.326023578643799,9.779465675354004,-0.7561319470405579
1774656629694817300,3.6118173828125,2.7349963188171387,9.877572059631348,-0.5359922647476196
1774656629711606500,3.6286064453125,3.177668571472168,9.595218658447266,-0.3613162338733673
1774656629728395800,3.645395751953125,3.2518460750579834,9.492327690124512,-0.6125625967979431
1774656629745185300,3.662185302734375,3.06999135017395,9.291330337524414,-0.33738797903060913
1774656629761974500,3.678974609375,3.565305709838867,8.925228118896484,-0.31824541091918945
1774656629778764000,3.695763916015625,2.7086751461029053,9.372686386108398,-0.6317051649093628
1774656629795553300,3.71255322265625,3.2542388439178467,8.848658561706543,-0.4019941985607147
1774656629812342500,3.729342529296875,3.1441688537597656,8.671588897705078,-0.10049854964017868
1774656629829132000,3.746132080078125,2.7565317153930664,8.980263710021973,-0.4498506486415863
1774656629845921300,3.76292138671875,3.2518460750579834,8.93958568572998,-0.6484549641609192
1774656629862710500,3.77971044921875,2.68953275680542,8.898907661437988,-0.16271193325519562
1774656629879499800,3.796499755859375,3.115455150604248,8.700303077697754,-0.016749758273363113
1774656629896289300,3.813289306640625,3.184846878051758,8.874979019165039,-0.4139583110809326
1774656629913078500,3.83007861328125,3.1657042503356934,8.72901725769043,-0.31345975399017334
1774656629929867800,3.84686767578125,2.6153552532196045,8.805587768554688,-0.04785645380616188
1774656629946657300,3.8636572265625,3.16331148147583,8.417949676513672,-0.4163511395454407
1774656629963446500,3.880446533203125,5.00578498840332,7.475177764892578,-0.23210379481315613
1774656629980235800,3.89723583984375,3.4025938510894775,8.614161491394043,-0.39960137009620667
1774656629997025300,3.914025390625,3.9625144004821777,8.439485549926758,-1.0408778190612793
1774656630013814500,3.930814453125,3.579662561416626,7.8628153800964355,0.2105683982372284
1774656630030603800,3.947603759765625,3.7974095344543457,7.444071292877197,-0.062213387340307236
1774656630047393300,3.964393310546875,2.56510591506958,8.425128936767578,-1.074377417564392
1774656630064182500,3.9811826171875,3.16331148147583,8.403593063354492,-1.2681959867477417
1774656630080971800,3.9979716796875,3.2925238609313965,7.410571575164795,-0.2512463629245758
1774656630097761300,4.01476123046875,4.063013076782227,7.255038261413574,0.15314064919948578
1774656630114550500,4.031550537109375,3.9146578311920166,8.228917121887207,-1.0408778190612793
1774656630131339800,4.04833984375,3.2614171504974365,8.772088050842285,-1.1892328262329102
1774656630148129300,4.06512939453125,3.8500516414642334,8.350951194763184,-0.07896314561367035
1774656630164918500,4.08191845703125,3.926621913909912,8.334200859069824,-0.44027936458587646
1774656630181707800,4.098707763671875,4.405186653137207,8.60459041595459,-0.5551348328590393
1774656630198497300,4.115497314453125,3.634697675704956,9.291330337524414,-0.8901300430297852
1774656630215286500,4.13228662109375,3.5509488582611084,9.265008926391602,-0.6125625967979431
1774656630232075800,4.14907568359375,4.194618225097656,8.597412109375,0.13160525262355804
1774656630248865300,4.165865234375,4.503292083740234,8.83669376373291,-0.2919243574142456
1774656630265654500,4.182654541015625,3.950550079345703,9.432506561279297,-1.0791629552841187
1774656630282443800,4.19944384765625,4.40757942199707,8.915657043457031,-0.3206382393836975
1774656630299233300,4.2162333984375,3.6466617584228516,8.927620887756348,0.07417750358581543
1774656630316022500,4.2330224609375,4.034298896789551,8.82233715057373,-0.8135597109794617
1774656630332811800,4.249811767578125,4.218546390533447,8.73619556427002,-0.5240281820297241
1774656630349601300,4.266601318359375,3.139383316040039,9.322437286376953,-0.7178468108177185
1774656630366390500,4.283390625,4.225724697113037,8.874979019165039,-0.760917603969574
1774656630383179800,4.3001796875,4.07258415222168,8.846264839172363,-0.16031911969184875
1774656630399969300,4.31696923828125,4.019941806793213,9.32722282409668,-0.7992027401924133
1774656630416758500,4.333758544921875,4.996213912963867,9.042476654052734,-0.97148597240448
1774656630433547800,4.3505478515625,4.1347975730896,9.097511291503906,-0.16510476171970367
1774656630450337000,4.3673369140625,4.773681163787842,9.104690551757812,-0.7082754969596863
1774656630467126500,4.38412646484375,4.295116424560547,9.470791816711426,-1.0719845294952393
1774656630483915800,4.400915771484375,5.175675392150879,8.61176872253418,-0.49292147159576416
1774656630500705300,4.417705322265625,4.153940200805664,8.896514892578125,-0.4666004180908203
1774656630517494500,4.43449462890625,3.3379876613616943,9.80817985534668,-1.4165509939193726
1774656630534283800,4.45128369140625,5.443671703338623,8.449056625366211,-1.155733346939087
1774656630551073300,4.4680732421875,4.240081787109375,8.34855842590332,0.26560330390930176
1774656630567862500,4.484862548828125,5.044070243835449,8.685946464538574,-0.7154539823532104
1774656630584651800,4.50165185546875,4.989035129547119,9.21715259552002,-1.6319050788879395
1774656630601441300,4.518441162109375,4.362115859985352,8.147561073303223,0.06939185410737991
1774656630618230500,4.53523046875,5.056034088134766,7.747959613800049,0.6269195079803467
1774656630635019800,4.552019775390625,6.577869415283203,8.193024635314941,-1.0815558433532715
1774656630651809300,4.568809326171875,3.436093330383301,9.391828536987305,-1.2251251935958862
1774656630668598500,4.5855986328125,4.618147850036621,7.829315662384033,0.31345975399017334
1774656630685387800,4.6023876953125,4.644468784332275,8.044670104980469,0.3038884699344635
1774656630702177300,4.61917724609375,5.60399055480957,8.800801277160645,-1.5649060010910034
1774656630718966500,4.635966552734375,5.414957523345947,8.257631301879883,-0.9260223507881165
1774656630735755800,4.652755859375,4.3788652420043945,7.977670669555664,0.397208571434021
1774656630752545300,4.669545166015625,5.637490272521973,8.202595710754395,-0.8111668825149536
1774656630769334500,4.68633447265625,5.742774486541748,8.398807525634766,-1.337587833404541
1774656630786123800,4.703123779296875,4.316651821136475,8.190631866455078,-0.37088751792907715
1774656630802913300,4.719913330078125,5.608776092529297,7.865208148956299,-0.760917603969574
1774656630819702500,4.73670263671875,6.259624004364014,7.922635555267334,-1.2897313833236694
1774656630836491800,4.75349169921875,3.5581271648406982,9.181260108947754,-0.8015955686569214
1774656630853281000,4.770281005859375,4.326223373413086,8.676374435424805,-1.0360921621322632
1774656630870070500,4.787070556640625,5.974878311157227,8.183453559875488,-0.6532405614852905
1774656630886859800,4.80385986328125,4.689932346343994,9.001798629760742,-0.8949156403541565
1774656630903649300,4.820649169921875,5.5968122482299805,8.719446182250977,-1.0480563640594482
1774656630920438500,4.8374384765625,5.678168296813965,8.664410591125488,-0.7417750358581543
1774656630937227800,4.854227783203125,5.280959606170654,8.925228118896484,-1.007378339767456
1774656630954017000,4.87101708984375,5.931807518005371,8.532805442810059,-0.794417142868042
1774656630970806500,4.887806640625,5.819344520568848,8.669196128845215,-0.5623133182525635
1774656630987595800,4.904595703125,4.388436794281006,9.29611587524414,-1.1198409795761108
1774656631004385300,4.92138525390625,5.804987907409668,8.449056625366211,-0.6340979933738708
1774656631021174500,4.938174560546875,5.19242525100708,8.506484031677246,-0.3924229145050049
1774656631037963800,4.9549638671875,5.242674350738525,8.595019340515137,-0.729810893535614
1774656631054753300,4.971753173828125,5.398207664489746,8.468199729919434,-0.5072783827781677
1774656631071542500,4.98854248046875,4.689932346343994,8.482556343078613,-0.2153540402650833
1774656631088331800,5.005331787109375,5.398207664489746,8.219346046447754,-0.08135596662759781
1774656631105121000,5.02212109375,5.352744102478027,8.441878318786621,-0.23210379481315613
1774656631121910500,5.03891064453125,4.048655986785889,8.774480819702148,-0.42831525206565857
1774656631138699800,5.05569970703125,5.304887771606445,7.817351341247559,-0.007178467698395252
1774656631155489300,5.0724892578125,4.182653903961182,8.535198211669922,-0.4019941985607147
1774656631172278500,5.089278564453125,5.00578498840332,8.499305725097656,-1.179661512374878
1774656631189067800,5.10606787109375,5.5728840827941895,7.762316703796387,-0.062213387340307236
1774656631205857000,5.12285693359375,4.333401679992676,8.12123966217041,0.06699903309345245
1774656631222646500,5.139646484375,4.713860511779785,8.58784008026123,-0.9332008361816406
1774656631239435800,5.156435791015625,5.821737289428711,8.09252643585205,-0.6101697683334351
1774656631256225300,5.173225341796875,4.146761417388916,8.233702659606934,0.06939185410737991
1774656631273014500,5.1900146484375,5.26899528503418,8.429914474487305,-0.42831525206565857
1774656631289803800,5.2068037109375,5.651846885681152,8.525627136230469,-1.2059825658798218
1774656631306593000,5.223593017578125,3.94815731048584,8.432307243347168,0.08614161610603333
1774656631323382500,5.240382568359375,5.513063430786133,7.953742504119873,0.1746760457754135
1774656631340171800,5.257171875,5.082355499267578,8.733802795410156,-1.1653046607971191
1774656631356961000,5.2739609375,4.338187217712402,8.609375953674316,-0.7226324677467346
1774656631373750500,5.29075048828125,5.4173502922058105,7.628318786621094,0.46420758962631226
1774656631390539800,5.307539794921875,5.548955917358398,9.351150512695312,-0.4713860750198364
1774656631407329000,5.3243291015625,4.811966419219971,11.119446754455566,-2.589034080505371
1774656631424118500,5.341118408203125,5.529813289642334,9.42772102355957,0.3326023519039154
1774656631440907800,5.35790771484375,5.197210788726807,10.724631309509277,1.5744773149490356
1774656631457697000,5.374697021484375,5.589633464813232,12.79202938079834,-1.8687944412231445
1774656631474486500,5.391486572265625,8.14516830444336,11.717652320861816,-1.2921242713928223
1774656631491275800,5.40827587890625,5.175675392150879,12.112467765808105,1.4620146751403809
1774656631508065000,5.42506494140625,5.7547383308410645,12.004791259765625,-0.641276478767395
1774656631524854500,5.4418544921875,7.238288402557373,11.60519027709961,-0.8973084688186646
1774656631541643800,5.458643798828125,4.596612453460693,11.540583610534668,-0.39960137009620667
1774656631558433000,5.47543310546875,5.79063081741333,10.061819076538086,-0.8255237936973572
1774656631575222300,5.49222216796875,5.690132141113281,10.102497100830078,-0.8327022790908813
1774656631592011800,5.50901171875,4.089334011077881,10.853843688964844,-1.9621145725250244
1774656631608801000,5.525801025390625,5.960521221160889,8.834300994873047,-0.7441678643226624
1774656631625590300,5.54259033203125,5.424529075622559,8.693124771118164,0.6173482537269592
1774656631642379800,5.5593798828125,6.281159400939941,9.360722541809082,-1.6055840253829956
1774656631659169000,5.5761689453125,3.8572301864624023,10.104889869689941,-1.3112667798995972
1774656631675958300,5.592958251953125,6.515655994415283,8.025527000427246,0.05024927482008934
1774656631692747800,5.609747802734375,5.2115678787231445,8.965906143188477,-0.17228323221206665
1774656631709537000,5.626537109375,5.527420520782471,9.166903495788574,-1.2275179624557495
1774656631726326300,5.643326171875,3.8907296657562256,9.138189315795898,-0.7968099117279053
1774656631743115800,5.66011572265625,5.407779216766357,7.747959613800049,0.10049854964017868
1774656631759905000,5.676905029296875,3.1034910678863525,9.145368576049805,-0.30149564146995544
1774656631776694300,5.6936943359375,4.962714195251465,8.683553695678711,-1.306481122970581
1774656631793483500,5.7104833984375,5.5968122482299805,7.501499176025391,-0.22492532432079315
1774656631810273000,5.72727294921875,3.84765887260437,7.83410120010376,0.29431718587875366
1774656631827062300,5.744062255859375,4.838287353515625,7.987242221832275,-1.0839486122131348
1774656631843851800,5.760851806640625,2.392822742462158,9.164510726928711,-0.7824530005455017
1774656631860641000,5.77764111328125,5.144568920135498,7.10429048538208,-0.07178468257188797
1774656631877430300,5.79443017578125,4.120440483093262,7.35314416885376,0.5958128571510315
1774656631894219500,5.811219482421875,3.0580272674560547,8.63330364227295,-0.576670229434967
1774656631911009000,5.828009033203125,4.811966419219971,8.094919204711914,-0.9834501147270203
1774656631927798300,5.84479833984375,4.498506546020508,7.396214962005615,0.760917603969574
1774656631944587800,5.861587890625,3.3547372817993164,8.477770805358887,0.2105683982372284
1774656631961377000,5.878376953125,5.197210788726807,8.616554260253906,-1.124626636505127
1774656631978166300,5.895166259765625,3.0484559535980225,9.05444049835205,-0.0933200865983963
1774656631994955500,5.91195556640625,4.563112735748291,8.183453559875488,0.19381862878799438
1774656632011745000,5.9287451171875,3.900300979614258,9.422935485839844,-0.5288137793540955
1774656632028534300,5.9455341796875,4.505684852600098,9.351150512695312,-0.6915257573127747
1774656632045323500,5.962323486328125,4.34536600112915,8.824729919433594,0.0526420995593071
1774656632062113000,5.979113037109375,3.34995174407959,9.729216575622559,0.13160525262355804
1774656632078902300,5.99590234375,4.651647090911865,9.762716293334961,-1.1270195245742798
1774656632095691500,6.01269140625,3.9672999382019043,9.607182502746582,-0.4091726839542389
1774656632112481000,6.02948095703125,3.6323046684265137,9.485149383544922,-0.17946170270442963
1774656632129270300,6.046270263671875,3.589233875274658,9.884750366210938,-0.8374879360198975
1774656632146059500,6.0630595703125,3.601198196411133,9.877572059631348,-0.8542376756668091
1774656632162849000,6.07984912109375,2.9383862018585205,9.863214492797852,-0.8231309652328491
1774656632179638300,6.09663818359375,6.010770320892334,8.14516830444336,-0.7513462901115417
1774656632196427800,6.113427734375,5.498706340789795,8.310273170471191,-0.672383189201355
1774656632213217000,6.130217041015625,2.5076780319213867,9.930213928222656,-1.4069796800613403
1774656632230006300,6.14700634765625,3.634697675704956,9.408578872680664,-1.454836130142212
1774656632246795800,6.163795654296875,4.024727821350098,9.035298347473145,-0.27038896083831787
1774656632263585000,6.1805849609375,3.9984066486358643,8.898907661437988,-1.2370892763137817
1774656632280374300,6.197374267578125,3.9218363761901855,8.872586250305176,-1.423729419708252
1774656632297163800,6.214163818359375,2.572284460067749,9.28893756866455,-1.3758729696273804
1774656632313953000,6.230953125,4.022335052490234,8.427521705627441,-1.5290136337280273
1774656632330742300,6.2477421875,3.1752755641937256,8.523234367370605,-0.9834501147270203
1774656632347531800,6.26453173828125,3.7663028240203857,8.420342445373535,-1.466800332069397
1774656632364321000,6.281321044921875,4.572684288024902,8.147561073303223,-1.5720844268798828
1774656632381110500,6.298110595703125,2.1918256282806396,9.004191398620605,-1.0815558433532715
1774656632397899800,6.314899658203125,3.8333017826080322,8.276773452758789,-1.3399807214736938
1774656632414689000,6.33168896484375,3.8428730964660645,8.595019340515137,-1.2705888748168945
1774656632431478300,6.348478271484375,3.2997024059295654,9.011369705200195,-1.5960127115249634
1774656632448267800,6.365267822265625,4.022335052490234,8.518448829650879,-1.6941183805465698
1774656632465057000,6.38205712890625,4.077369689941406,8.733802795410156,-0.8015955686569214
1774656632481846500,6.398846435546875,4.036691665649414,8.93240737915039,-1.8089739084243774
1774656632498635800,6.4156357421875,4.802394866943359,8.116454124450684,-1.3567304611206055
1774656632515425000,6.432425048828125,3.689732551574707,8.898907661437988,-0.9547362327575684
1774656632532214500,6.449214599609375,4.35254430770874,8.803194046020508,-1.8089739084243774
1774656632549003800,6.466003662109375,3.656233072280884,8.941978454589844,-1.153340458869934
1774656632565793000,6.48279296875,4.445864677429199,8.315058708190918,-1.074377417564392
1774656632582582500,6.49958251953125,4.254438877105713,8.135597229003906,-1.1748759746551514
1774656632599371800,6.516371826171875,3.4432718753814697,8.630910873413086,-1.2323036193847656
1774656632616161000,6.5331611328125,4.436293125152588,8.00638484954834,-1.368694543838501
1774656632632950500,6.549950439453125,3.2590243816375732,8.81515884399414,-0.5886343717575073
1774656632649739800,6.56673974609375,4.687539577484131,8.310273170471191,-1.6390835046768188
1774656632666529000,6.583529052734375,3.4719855785369873,8.008777618408203,-0.33499518036842346
1774656632683318500,6.600318603515625,4.945964336395264,7.621140003204346,-0.04546362906694412
1774656632700107800,6.617107666015625,4.704289436340332,8.157132148742676,-1.7228323221206665
1774656632716897300,6.633897216796875,2.8761727809906006,8.528019905090332,-0.7657032608985901
1774656632733686500,6.6506865234375,4.333401679992676,7.503891944885254,-0.23210379481315613
1774656632750475800,6.667475830078125,4.151547431945801,7.7455668449401855,-0.9451649188995361
1774656632767265300,6.684265380859375,3.672982692718506,7.690532207489014,-0.4953143000602722
1774656632784054500,6.701054443359375,4.467400074005127,7.334001541137695,-0.4043870270252228
1774656632800843800,6.71784375,3.0963125228881836,8.291130065917969,-0.8135597109794617
1774656632817633300,6.73463330078125,2.950350284576416,8.793622970581055,-1.038485050201416
1774656632834422500,6.751422607421875,4.804787635803223,7.869993686676025,-0.8422735929489136
1774656632851211800,6.768211669921875,3.390629768371582,8.578269004821777,0.1339980661869049
1774656632868001300,6.785001220703125,5.285745143890381,8.523234367370605,-0.8733802437782288
1774656632884790500,6.80179052734375,4.687539577484131,8.62612533569336,-0.7824530005455017
1774656632901579800,6.818579833984375,2.847458839416504,9.623932838439941,-0.23449662327766418
1774656632918369300,6.835369384765625,5.338387489318848,8.937192916870117,-1.3758729696273804
1774656632935158500,6.852158447265625,4.625326156616211,8.762516975402832,-0.5647061467170715
1774656632951947800,6.86894775390625,4.493721008300781,8.410771369934082,-0.11006984114646912
1774656632968737300,6.8857373046875,5.015356063842773,8.207381248474121,-1.0456634759902954
1774656632985526500,6.902526611328125,3.4552359580993652,9.10229778289795,-0.794417142868042
1774656633002315800,6.919315673828125,4.091726779937744,8.410771369934082,-1.1868400573730469
1774656633019105300,6.936105224609375,4.106083869934082,8.085348129272461,-0.5838487148284912
1774656633035894500,6.95289453125,4.677968502044678,8.061419486999512,-0.6867401003837585
1774656633052684000,6.96968408203125,3.9529430866241455,8.243273735046387,-1.100698471069336
1774656633069473300,6.986473388671875,4.089334011077881,7.903493404388428,-0.638883650302887
1774656633086262500,7.003262451171875,3.830909013748169,8.111668586730957,-0.9690931439399719
1774656633103051800,7.0200517578125,3.9936211109161377,8.286344528198242,-1.2873386144638062
1774656633119841300,7.03684130859375,4.613361835479736,7.934599876403809,-0.6532405614852905
1774656633136630500,7.053630615234375,3.160918712615967,8.286344528198242,-0.794417142868042
1774656633153419800,7.070419677734375,4.488935470581055,7.566105365753174,-0.6891329288482666
1774656633170209300,7.087209228515625,3.242274761199951,8.128418922424316,-0.7728816866874695
1774656633186998500,7.10399853515625,2.610569477081299,8.128418922424316,-1.2993026971817017
1774656633203788000,7.1207880859375,4.048655986785889,7.295716285705566,-0.20338992774486542
1774656633220577300,7.137577392578125,2.5842485427856445,8.164310455322266,-0.97148597240448
1774656633237366500,7.154366455078125,3.5509488582611084,7.441678524017334,-0.8733802437782288
1774656633254155800,7.17115576171875,4.201796531677246,7.152146816253662,0.2679961323738098
1774656633270945300,7.1879453125,3.8763725757598877,7.733603000640869,-0.9643075466156006
1774656633287734500,7.204734619140625,3.084348440170288,7.874779224395752,-0.638883650302887
1774656633304524000,7.22152392578125,3.0795626640319824,8.243273735046387,-0.4139583110809326
1774656633321313300,7.238313232421875,2.8905298709869385,9.090332984924316,-1.6630117893218994
1774656633338102500,7.2551025390625,1.301695466041565,9.418149948120117,-0.3326023519039154
1774656633354892000,7.27189208984375,5.867201328277588,7.113861560821533,-0.1459621787071228
1774656633371681300,7.288681396484375,6.977470874786377,7.724031448364258,-0.7800601720809937
1774656633388470500,7.305470458984375,1.588834285736084,10.652846336364746,-1.6582261323928833
1774656633405259800,7.322259765625,2.847458839416504,9.255437850952148,-0.9260223507881165
1774656633422049300,7.33904931640625,6.329015731811523,7.616354465484619,0.40677985548973083
1774656633438838500,7.355838623046875,3.208775281906128,9.724431037902832,-1.2203395366668701
1774656633455628000,7.3726279296875,3.326023578643799,9.351150512695312,-2.117648124694824
1774656633472417300,7.389417236328125,3.19441819190979,8.96829891204834,0.031106693670153618
1774656633489206500,7.40620654296875,4.211368083953857,8.824729919433594,-1.3591232299804688
1774656633505996000,7.42299609375,4.271188259124756,8.57348346710205,-1.5720844268798828
1774656633522785300,7.439785400390625,3.524627685546875,8.757730484008789,-0.20817556977272034
1774656633539574500,7.456574462890625,3.4097721576690674,9.315258979797363,-1.9621145725250244
1774656633556364000,7.473364013671875,4.668396949768066,8.358129501342773,-1.1629117727279663
1774656633573153300,7.4901533203125,3.053241729736328,8.805587768554688,-0.09571290761232376
1774656633589942500,7.506942626953125,4.314259052276611,9.013762474060059,-2.1343977451324463
1774656633606731800,7.523731689453125,4.398007869720459,8.657232284545898,-1.1868400573730469
1774656633623521300,7.540521240234375,3.3236305713653564,8.434700012207031,0.3613162338733673
1774656633640310500,7.557310546875,4.744967460632324,8.834300994873047,-1.5960127115249634
1774656633657099800,7.574099853515625,4.4650068283081055,9.308079719543457,-1.8376877307891846
1774656633673889300,7.59088916015625,3.88594388961792,8.468199729919434,-0.1579262912273407
1774656633690678500,7.607678466796875,4.208974838256836,8.61894702911377,-0.2560320198535919
1774656633707467800,7.6244677734375,3.376272678375244,9.590433120727539,-1.552941918373108
1774656633724257300,7.64125732421875,4.254438877105713,9.020941734313965,-1.0671988725662231
1774656633741046500,7.658046630859375,4.7401814460754395,8.250452041625977,-0.064606212079525
1774656633757835800,7.674835693359375,3.627519130706787,8.819944381713867,-0.31345975399017334
1774656633774625300,7.691625244140625,4.563112735748291,9.083154678344727,-1.1174482107162476
1774656633791414500,7.70841455078125,3.6083765029907227,9.446864128112793,-1.0145567655563354
1774656633808203800,7.725203857421875,5.589633464813232,8.142775535583496,-0.3732803463935852
1774656633824993300,7.7419931640625,4.445864677429199,8.784051895141602,0.38763725757598877
1774656633841782500,7.758782470703125,4.6061835289001465,9.107083320617676,-0.9810572862625122
1774656633858571800,7.77557177734375,3.232703447341919,9.616754531860352,-0.6101697683334351
1774656633875361300,7.792361328125,4.907679080963135,8.678768157958984,-0.363709032535553
1774656633892150500,7.809150634765625,4.768895626068115,8.702695846557617,-0.2679961323738098
1774656633908939800,7.825939697265625,3.658625841140747,9.437292098999023,-0.41874396800994873
1774656633925729300,7.842729248046875,4.543970108032227,9.147761344909668,-0.7465606927871704
1774656633942518500,7.8595185546875,4.505684852600098,8.819944381713867,-0.4211367964744568
1774656633959307800,7.876307861328125,4.216153621673584,8.851051330566406,-0.2799602448940277
1774656633976097000,7.893096923828125,4.890929698944092,8.970691680908203,-0.9547362327575684
1774656633992886500,7.909886474609375,4.1659040451049805,9.107083320617676,-0.6939185857772827
1774656634009675800,7.92667578125,4.295116424560547,8.7505521774292,-0.35413774847984314
1774656634026465000,7.943465087890625,5.163711071014404,8.685946464538574,-0.672383189201355
1774656634043254500,7.960254638671875,4.319045066833496,9.075976371765137,-0.9284151792526245
1774656634060043800,7.977043701171875,3.8596229553222656,9.047262191772461,-0.4785645306110382
1774656634076833000,7.9938330078125,4.510470867156982,8.745766639709473,-0.4570291340351105
1774656634093622500,8.01062255859375,4.175475597381592,9.22433090209961,-0.9355936646461487
1774656634110411800,8.027411865234376,5.221138954162598,8.511270523071289,-0.8279166221618652
1774656634127201000,8.044200927734375,3.869194269180298,8.61176872253418,0.035892341285943985
1774656634143990500,8.060990478515626,4.4482574462890625,8.839086532592773,-0.9308080077171326
1774656634160779800,8.07777978515625,4.701896667480469,8.805587768554688,-1.3280165195465088
1774656634177569000,8.094569091796876,3.8572301864624023,8.774480819702148,-0.23449662327766418
1774656634194358300,8.111358154296875,5.1182475090026855,8.410771369934082,-0.5575276613235474
1774656634211147800,8.128147705078124,3.7567315101623535,9.1716890335083,-0.9188438653945923
1774656634227937000,8.14493701171875,4.512863636016846,8.831908226013184,-0.4498506486415863
1774656634244726300,8.161726318359374,5.434100151062012,8.530412673950195,-0.28953152894973755
1774656634261515800,8.178515869140625,4.802394866943359,9.561718940734863,-0.727418065071106
1774656634278305000,8.195304931640624,5.285745143890381,11.358729362487793,-2.012363910675049
1774656634295094300,8.21209423828125,4.412364959716797,11.00459098815918,0.3613162338733673
1774656634311883500,8.228883544921874,6.45822811126709,11.018948554992676,1.1078768968582153
1774656634328673000,8.245673095703125,6.374479293823242,13.351950645446777,-1.0145567655563354
1774656634345462300,8.262462158203125,6.159125328063965,13.117453575134277,-1.160519003868103
1774656634362251500,8.27925146484375,6.728617191314697,12.41396427154541,1.0767701864242554
1774656634379041000,8.296041015625,5.553741455078125,13.03370475769043,-0.5000999569892883
1774656634395830300,8.312830322265626,6.8243303298950195,12.31107234954834,-0.9619147181510925
1774656634412619500,8.32961962890625,5.359922885894775,11.485548973083496,-0.2799602448940277
1774656634429409000,8.346408935546876,6.6352972984313965,10.50209903717041,-0.6795616149902344
1774656634446198300,8.3631982421875,6.7310099601745605,10.88016414642334,-2.062613010406494
1774656634462987500,8.379987548828124,4.4721856117248535,9.781859397888184,-0.5647061467170715
1774656634479776800,8.39677685546875,6.300302028656006,8.683553695678711,0.39481574296951294
1774656634496566300,8.413566162109374,4.704289436340332,10.320243835449219,-1.3471591472625732
1774656634513355500,8.43035546875,5.264209747314453,9.494720458984375,-1.6390835046768188
1774656634530144800,8.447144775390624,6.2668023109436035,8.094919204711914,0.07657032459974289
1774656634546934300,8.463934326171875,3.720839262008667,9.324830055236816,-0.6699903607368469
1774656634563723500,8.4807236328125,6.783652305603027,8.410771369934082,-1.9812572002410889
1774656634580512800,8.4975126953125,5.685346603393555,8.288737297058105,-0.6484549641609192
1774656634597302000,8.514302001953125,4.156332969665527,8.384450912475586,-0.5886343717575073
1774656634614091500,8.531091552734376,6.305087566375732,7.678567886352539,-0.7106683254241943
1774656634630880800,8.547880859375,6.068198204040527,8.032705307006836,-0.9930213689804077
1774656634647670000,8.564669921875,-0.44027936458587646,10.755738258361816,-1.0648061037063599
1774656634664459500,8.58145947265625,2.3258235454559326,8.851051330566406,-0.7202396392822266
1774656634681248800,8.598248779296876,6.340980052947998,7.386643409729004,-0.12921242415905
1774656634698038000,8.6150380859375,3.8907296657562256,8.72183895111084,-1.1700903177261353
1774656634714827500,8.63182763671875,3.7112679481506348,8.23848819732666,-0.6173482537269592
1774656634731616800,8.64861669921875,4.773681163787842,7.444071292877197,0.5814558863639832
1774656634748406000,8.665406005859374,3.452843189239502,8.556734085083008,-1.0504491329193115
1774656634765195300,8.6821953125,2.6009981632232666,8.669196128845215,-0.8949156403541565
1774656634781984800,8.69898486328125,3.1968109607696533,7.929814338684082,0.397208571434021
1774656634798774000,8.71577392578125,4.553541660308838,7.582854747772217,-0.6029912829399109
1774656634815563300,8.732563232421874,2.8929226398468018,8.221738815307617,-0.7465606927871704
1774656634832352500,8.7493525390625,2.7326035499572754,8.338987350463867,-0.4450650215148926
1774656634849142000,8.76614208984375,3.9122650623321533,7.810173034667969,-0.9810572862625122
1774656634865931300,8.78293115234375,2.7828526496887207,8.518448829650879,-0.4498506486415863
1774656634882720500,8.799720458984375,3.594019651412964,8.078168869018555,-0.5240281820297241
1774656634899510000,8.816510009765626,3.074777126312256,8.597412109375,-0.5240281820297241
1774656634916299300,8.83329931640625,3.3403804302215576,8.85344409942627,-0.7920243144035339
1774656634933088500,8.850088623046876,3.4241292476654053,8.774480819702148,-0.6604190468788147
1774656634949877800,8.866877685546875,3.218346357345581,8.997013092041016,-0.20578274130821228
1774656634966667300,8.883667236328124,3.5126636028289795,9.109476089477539,-0.9667003750801086
1774656634983456500,8.90045654296875,3.0005996227264404,9.489934921264648,-0.4737788736820221
1774656635000245800,8.917245849609374,2.2779672145843506,9.951749801635742,-0.6795616149902344
1774656635017035000,8.934034912109375,2.9383862018585205,9.415757179260254,-0.7130611538887024
1774656635033824500,8.950824462890624,3.280559778213501,9.166903495788574,0.1339980661869049
1774656635050613800,8.96761376953125,3.328416347503662,9.734002113342285,-1.1078768968582153
1774656635067403000,8.984403076171875,1.9669002294540405,9.992427825927734,-1.196411371231079
1774656635084192500,9.001192626953125,4.768895626068115,8.169096946716309,0.07657032459974289
1774656635100981800,9.017981689453125,8.489734649658203,7.216753005981445,-0.794417142868042
1774656635117771000,9.03477099609375,1.6223337650299072,10.439885139465332,-1.4572290182113647
1774656635134560300,9.051560302734375,2.335394859313965,9.741181373596191,-0.8470591902732849
1774656635151349800,9.068349853515626,6.491727828979492,8.094919204711914,-0.42352959513664246
1774656635168139000,9.085138916015625,3.6131622791290283,9.743574142456055,-1.1030912399291992
1774656635184928300,9.10192822265625,4.364508628845215,9.286544799804688,-1.648654818534851
1774656635201717500,9.118717529296875,3.1992039680480957,9.269794464111328,-0.27038896083831787
1774656635218507000,9.135507080078124,3.603590965270996,9.276973724365234,-0.97148597240448
1774656635235296300,9.152296142578125,3.9074792861938477,9.422935485839844,-1.5792629718780518
1774656635252085500,9.16908544921875,3.603590965270996,8.918049812316895,-0.5072783827781677
1774656635268875000,9.185875,3.5748770236968994,8.685946464538574,-0.39481574296951294
1774656635285664300,9.202664306640624,4.240081787109375,8.944371223449707,-1.2370892763137817
1774656635302453500,9.21945361328125,3.6227335929870605,9.573683738708496,-1.3088740110397339
1774656635319242800,9.23624267578125,4.01037073135376,8.83669376373291,-0.763310432434082
1774656635336032300,9.2530322265625,4.292723655700684,8.47298526763916,-0.39960137009620667
1774656635352821500,9.269821533203125,4.06540584564209,9.20997428894043,-1.062413215637207
1774656635369610800,9.28661083984375,3.768695592880249,9.762716293334961,-1.1030912399291992
1774656635386400000,9.30339990234375,3.7878382205963135,9.339186668395996,-0.8973084688186646
1774656635403189500,9.320189453125,4.728217601776123,8.568697929382324,-0.09092725813388824
1774656635419978800,9.336978759765625,3.9457645416259766,8.767302513122559,-0.4043870270252228
1774656635436768000,9.35376806640625,4.125226020812988,8.609375953674316,-1.093519926071167
1774656635453557500,9.3705576171875,2.809173822402954,9.004191398620605,-0.7776673436164856
1774656635470346800,9.3873466796875,3.895515203475952,7.762316703796387,-0.5000999569892883
1774656635487136000,9.404135986328125,3.5916268825531006,7.463213920593262,-0.02392822690308094
1774656635503925200,9.42092529296875,3.955335855484009,7.032505512237549,-0.5072783827781677
1774656635520714800,9.43771484375,2.4765713214874268,6.874579429626465,-0.5000999569892883
1774656635537504000,9.45450390625,1.8975083827972412,7.312466144561768,-0.5000999569892883
1774656635554293200,9.471293212890625,2.7493531703948975,7.429714202880859,-1.919043779373169
1774656635571082500,9.48808251953125,3.6610186100006104,6.867401123046875,-0.30628129839897156
1774656635587872000,9.5048720703125,4.180261135101318,6.455835342407227,0.5479564070701599
1774656635604661200,9.5216611328125,3.5916268825531006,7.4847493171691895,-0.8542376756668091
1774656635621450500,9.538450439453126,3.730410575866699,8.315058708190918,-1.2634103298187256
1774656635638240000,9.555239990234375,2.014756679534912,9.485149383544922,-0.727418065071106
1774656635655029200,9.572029296875,2.526820659637451,9.542576789855957,-1.1629117727279663
1774656635671818500,9.588818603515625,0.9906286001205444,10.336994171142578,-0.07417750358581543
1774656635688607700,9.605607666015626,7.417750358581543,8.374878883361816,-0.6317051649093628
1774656635705397200,9.622397216796875,10.140782356262207,7.020541667938232,-1.2897313833236694
1774656635722186500,9.6391865234375,0.8949156403541565,11.021341323852539,-0.5742774605751038
1774656635738975700,9.655975830078125,5.13021183013916,9.614361763000488,-2.115255117416382
1774656635755765000,9.672764892578124,5.752345561981201,8.338987350463867,-1.007378339767456
1774656635772554500,9.689554443359375,2.5746772289276123,9.4660062789917,0.19381862878799438
1774656635789343700,9.70634375,6.558726787567139,8.037490844726562,-1.7611174583435059
1774656635806133000,9.723133056640625,1.6007983684539795,9.791430473327637,-0.6269195079803467
1774656635822922200,9.739922119140624,4.706682205200195,8.360522270202637,-0.7058826684951782
1774656635839711700,9.756711669921875,5.036891460418701,7.850851058959961,-1.1174482107162476
1774656635856501000,9.7735009765625,3.728017568588257,7.731209754943848,0.4019941985607147
1774656635873290200,9.790290283203126,4.773681163787842,7.412964344024658,-0.5886343717575073
1774656635890079700,9.807079833984375,3.902693748474121,7.735995769500732,-1.1341979503631592
1774656635906869000,9.823868896484376,2.9168508052825928,7.4225358963012695,0.014356935396790504
1774656635923658200,9.840658203125,4.40757942199707,6.809973239898682,-0.33499518036842346
1774656635940447500,9.857447509765626,3.814159393310547,7.0923261642456055,-0.8279166221618652
1774656635957237000,9.874237060546875,4.876572608947754,6.544369697570801,-0.3086741268634796
1774656635974026200,9.891026123046874,3.3643085956573486,8.011170387268066,-0.8015955686569214
1774656635990815500,9.9078154296875,4.015156269073486,7.637889862060547,-0.973878800868988
1774656636007604700,9.924604736328124,4.811966419219971,6.4701924324035645,0.23449662327766418
1774656636024394200,9.941394287109375,4.319045066833496,7.018148899078369,0.18903298676013947
1774656636041183500,9.95818359375,3.7328033447265625,9.008976936340332,-1.9286150932312012
1774656636057972700,9.97497265625,4.074976921081543,8.319844245910645,-1.672582983970642
1774656636074762000,9.991761962890624,4.067798614501953,6.537191390991211,1.1772687435150146
1774656636091551500,10.008551513671875,3.902693748474121,7.8317084312438965,-0.3158525824546814
1774656636108340700,10.0253408203125,5.113461971282959,8.874979019165039,-2.854637384414673
1774656636125130000,10.0421298828125,2.967100143432617,8.233702659606934,-0.038285162299871445
1774656636141919500,10.05891943359375,4.144368648529053,7.264609336853027,1.2993026971817017
1774656636158708700,10.075708740234376,5.161318302154541,8.906085968017578,-1.8400806188583374
1774656636175498000,10.092498046875,3.8189449310302734,9.257830619812012,-1.8544375896453857
1774656636192287200,10.109287353515626,3.864408493041992,7.183253765106201,0.5934200286865234
1774656636209076700,10.12607666015625,5.364708423614502,6.97986364364624,0.25363919138908386
1774656636225866000,10.142865966796874,3.0628130435943604,9.856036186218262,-1.8065811395645142
1774656636242655200,10.1596552734375,3.187239646911621,9.44447135925293,-2.282752752304077
1774656636259444500,10.176444580078124,4.759324073791504,7.472784996032715,0.48095735907554626
1774656636276233700,10.193233642578125,4.543970108032227,8.082955360412598,0.02392822690308094
1774656636293023200,10.210023193359374,5.245067119598389,8.96829891204834,-2.2612173557281494
1774656636309812500,10.2268125,2.837887763977051,9.791430473327637,-1.1198409795761108
1774656636326601700,10.243601806640624,4.766502857208252,8.408378601074219,-0.39481574296951294
1774656636343391000,10.260390869140625,5.355136871337891,8.719446182250977,-0.7657032608985901
1774656636360180500,10.277180419921875,5.120640277862549,9.293723106384277,-1.2610175609588623
1774656636376969700,10.2939697265625,4.596612453460693,9.083154678344727,-0.9643075466156006
1774656636393759000,10.310759033203125,4.302295207977295,9.037691116333008,-0.7106683254241943
1774656636410548500,10.327548583984376,4.510470867156982,9.45164966583252,-0.9810572862625122
1774656636427337700,10.344337646484375,5.426921844482422,8.987442016601562,-1.373480200767517
1774656636444127000,10.361126953125,5.123033046722412,8.623732566833496,-0.5838487148284912
1774656636460916200,10.377916259765625,4.524827480316162,9.169296264648438,-1.0911271572113037
1774656636477705500,10.39470556640625,4.555934429168701,9.365508079528809,-1.34476637840271
1774656636494495000,10.411494873046875,5.0225348472595215,8.774480819702148,-0.8015955686569214
1774656636511284200,10.4282841796875,4.680361270904541,8.774480819702148,-0.760917603969574
1774656636528073500,10.445073486328125,5.388636589050293,8.329415321350098,-0.6508477330207825
1774656636544863000,10.461863037109374,4.254438877105713,9.080761909484863,-0.6029912829399109
1774656636561652200,10.47865234375,2.9312076568603516,9.729216575622559,-1.0336993932724
1774656636578441500,10.49544140625,6.439085960388184,7.70967435836792,-0.32542386651039124
1774656636595230700,10.512230712890625,3.768695592880249,8.930013656616211,0.04546362906694412
1774656636612020200,10.529020263671875,4.9531426429748535,9.248259544372559,-1.3639088869094849
1774656636628809500,10.5458095703125,3.9122650623321533,9.57607650756836,-0.7465606927871704
1774656636645598700,10.5625986328125,4.843072891235352,8.602197647094727,0.02392822690308094
1774656636662388000,10.579387939453126,5.682953834533691,8.528019905090332,-0.5910272002220154
1774656636679177500,10.596177490234375,4.082155227661133,9.798608779907227,-0.8255237936973572
1774656636695966700,10.612966796875,4.874179840087891,9.298508644104004,-0.8805587291717529
1774656636712756000,10.629755859375,4.955535888671875,8.764909744262695,-0.0933200865983963
1774656636729545200,10.646545166015626,5.111069202423096,8.96112060546875,-0.3326023519039154
1774656636746334500,10.66333447265625,5.015356063842773,9.504291534423828,-1.3040883541107178
1774656636763124000,10.6801240234375,4.326223373413086,9.119047164916992,-0.4977070987224579
1774656636779913200,10.696913330078125,4.974678039550781,8.566305160522461,-0.05024927482008934
1774656636796702500,10.713702392578124,5.249852657318115,9.19561767578125,-1.3710874319076538
1774656636813491700,10.73049169921875,5.3216376304626465,8.93240737915039,-1.1676974296569824
1774656636830281200,10.74728125,4.275974273681641,8.740981101989746,0.06699903309345245
1774656636847070500,10.764070556640625,5.594419479370117,8.437092781066895,-0.7034898400306702
1774656636863859700,10.780859619140625,4.88853645324707,8.82951545715332,-1.2203395366668701
1774656636880649200,10.797649169921876,4.175475597381592,8.82233715057373,-0.5814558863639832
1774656636897438500,10.8144384765625,5.412564754486084,7.968099594116211,-0.638883650302887
1774656636914227700,10.831227783203126,4.089334011077881,8.458627700805664,-0.760917603969574
1774656636931017000,10.848016845703125,4.6995038986206055,8.154739379882812,-0.914058268070221
1774656636947806500,10.864806396484376,4.3788652420043945,8.176275253295898,-0.9020941257476807
1774656636964595700,10.881595703125,4.242474555969238,8.693124771118164,-0.8231309652328491
1774656636981385000,10.898385009765626,5.850451469421387,9.549755096435547,-1.6606189012527466
1774656636998174200,10.91517431640625,3.4241292476654053,10.054640769958496,-0.6364908218383789
1774656637014963700,10.931963623046874,4.398007869720459,10.336994171142578,0.3852444589138031
1774656637031753000,10.9487529296875,8.800801277160645,9.93260669708252,-1.129412293434143
1774656637048542200,10.965542236328124,4.429114818572998,12.07896900177002,-0.6221339106559753
1774656637065331700,10.982331787109375,5.536991596221924,11.880364418029785,0.064606212079525
1774656637082121000,10.999120849609374,7.472784996032715,11.353943824768066,-0.6795616149902344
1774656637098910200,11.01591015625,4.680361270904541,12.08614730834961,-0.1459621787071228
1774656637115699700,11.03269970703125,6.477370738983154,10.901700019836426,-0.47617170214653015
1774656637132489000,11.049489013671876,4.945964336395264,10.961520195007324,-0.7920243144035339
1774656637149278200,11.0662783203125,5.027320384979248,10.269994735717773,-0.7728816866874695
1774656637166067500,11.0830673828125,7.128218650817871,9.262616157531738,-0.9547362327575684
1774656637182856700,11.099856689453125,4.491328239440918,10.171889305114746,-0.9690931439399719
1774656637199646200,11.116646240234376,5.843272686004639,8.8438720703125,-0.44745782017707825
1774656637216435500,11.133435546875,6.362515449523926,8.413164138793945,0.05742774158716202
1774656637233224700,11.150224609375,6.209374904632568,9.05444049835205,-0.8111668825149536
1774656637250014200,11.16701416015625,5.469992637634277,8.987442016601562,-1.1270195245742798
1774656637266803500,11.183803466796874,5.613562107086182,8.37966537475586,0.31106695532798767
1774656637283592700,11.2005927734375,5.812166213989258,8.616554260253906,-0.8590233325958252
1774656637300382200,11.21738232421875,6.259624004364014,8.161917686462402,-0.8087740540504456
1774656637317171500,11.23417138671875,6.410371780395508,7.496713161468506,0.004785645287483931
1774656637333960700,11.250960693359374,0.7250252366065979,10.15753173828125,-0.5670989751815796
1774656637350750000,11.26775,1.1581261157989502,9.966106414794922,-0.9571290612220764
1774656637367539200,11.284539306640625,8.133204460144043,6.759724140167236,-0.13878370821475983
1774656637384328700,11.30132861328125,3.3379876613616943,8.539983749389648,-0.16031911969184875
1774656637401118000,11.318117919921875,3.7016966342926025,8.525627136230469,-0.8231309652328491
1774656637417907500,11.334907470703126,5.632704734802246,7.661818027496338,-0.038285162299871445
1774656637434696700,11.35169677734375,3.7088751792907715,8.298309326171875,0.0023928226437419653
1774656637451486000,11.36848583984375,4.716253280639648,7.941778182983398,-0.38285163044929504
1774656637468275200,11.385275146484375,4.218546390533447,8.34855842590332,-0.11724831163883209
1774656637485064700,11.402064697265626,4.342973232269287,8.13081169128418,-0.4785645306110382
1774656637501854000,11.41885400390625,5.252245903015137,7.7838521003723145,-0.0023928226437419653
1774656637518643200,11.435643310546874,3.263810157775879,8.989834785461426,-0.4043870270252228
1774656637535432400,11.452432373046875,5.91505765914917,7.779066562652588,-0.6221339106559753
1774656637552222000,11.469221923828124,4.359723091125488,8.22413158416748,0.36610186100006104
1774656637569011200,11.48601123046875,4.388436794281006,8.60459041595459,-0.638883650302887
1774656637585800400,11.502800537109374,4.417150497436523,8.776873588562012,-0.9116654396057129
1774656637602590000,11.51958984375,3.2303106784820557,8.879764556884766,-0.3158525824546814
1774656637619379200,11.536379150390625,4.362115859985352,8.812766075134277,-0.550349235534668
1774656637636168400,11.55316845703125,4.2209391593933105,9.025727272033691,-0.760917603969574
1774656637652957700,11.569957763671875,4.252045631408691,8.662017822265625,-0.4331009089946747
1774656637669747200,11.586747314453126,4.094119548797607,8.918049812316895,-0.33020952343940735
1774656637686536400,11.603536376953125,3.720839262008667,9.767501831054688,-1.1892328262329102
1774656637703325700,11.62032568359375,4.878965377807617,9.097511291503906,-1.3471591472625732
1774656637720115000,11.637114990234375,5.769095420837402,8.609375953674316,-0.4833501875400543
1774656637736904400,11.653904541015624,3.6610186100006104,9.834501266479492,-1.1270195245742798
1774656637753693700,11.670693603515625,5.079962253570557,9.559326171875,-1.5337992906570435
1774656637770483000,11.68748291015625,4.369294166564941,9.635896682739258,-0.9906286001205444
1774656637787272400,11.7042724609375,4.54636287689209,9.262616157531738,-1.428515076637268
1774656637804061700,11.721061767578124,4.395615100860596,9.542576789855957,-1.667797327041626
1774656637820851000,11.737850830078125,5.132604598999023,8.896514892578125,-1.545763373374939
1774656637837640200,11.75464013671875,3.651447296142578,9.214759826660156,-1.3184453248977661
1774656637854429700,11.7714296875,5.402993679046631,8.34138011932373,-1.6151553392410278
1774656637871219000,11.788218994140625,3.8045880794525146,9.169296264648438,-1.6917256116867065
1774656637888008200,11.80500830078125,3.651447296142578,8.865407943725586,-1.4213366508483887
1774656637904797400,11.82179736328125,4.48414945602417,8.403593063354492,-1.0241280794143677
1774656637921587000,11.8385869140625,4.689932346343994,8.484949111938477,-1.3758729696273804
1774656637938376200,11.855376220703125,4.280759811401367,8.21695327758789,-1.2849457263946533
1774656637955165400,11.87216552734375,3.397808074951172,8.539983749389648,-0.914058268070221
1774656637971955000,11.888954833984375,4.208974838256836,8.48734188079834,-1.7180466651916504
1774656637988744200,11.905744140625,4.0079779624938965,8.46580696105957,-1.1700903177261353
1774656638005533400,11.922533447265625,4.1347975730896,8.14516830444336,-0.8135597109794617
1774656638022322700,11.93932275390625,4.113262176513672,8.523234367370605,-1.0839486122131348
1774656638039112200,11.9561123046875,5.056034088134766,8.128418922424316,-1.3854442834854126
1774656638055901400,11.9729013671875,2.550748825073242,8.812766075134277,-0.8207381963729858
1774656638072690700,11.989690673828125,4.4650068283081055,8.401200294494629,-1.4380863904953003
1774656638089480000,12.00647998046875,4.319045066833496,8.38684368133545,-1.5672988891601562
1774656638106269400,12.02326953125,3.0340991020202637,8.520841598510742,-0.7968099117279053
1774656638123058700,12.04005859375,4.852644443511963,7.836493968963623,-1.0193424224853516
1774656638139848000,12.056847900390625,4.4961137771606445,8.532805442810059,-1.2705888748168945
1774656638156637200,12.07363720703125,3.6131622791290283,8.970691680908203,-1.3471591472625732
1774656638173426700,12.0904267578125,4.766502857208252,8.169096946716309,-0.6939185857772827
1774656638190216000,12.1072158203125,4.328616142272949,8.71226692199707,-0.6867401003837585
1774656638207005200,12.124005126953126,4.503292083740234,8.870193481445312,-1.3854442834854126
1774656638223794700,12.140794677734375,3.6945180892944336,9.255437850952148,-0.6197410821914673
1774656638240584000,12.157583984375,5.178068161010742,8.772088050842285,-0.8039883971214294
1774656638257373200,12.174373291015625,4.584648132324219,9.008976936340332,-0.8207381963729858
1774656638274162400,12.191162353515624,4.9363932609558105,8.621339797973633,-0.3565305769443512
1774656638290952000,12.207951904296875,5.056034088134766,8.635697364807129,-0.8662018179893494
1774656638307741200,12.2247412109375,4.651647090911865,8.520841598510742,-0.849452018737793
1774656638324530400,12.241530517578125,4.800002098083496,8.331808090209961,-0.20578274130821228
1774656638341319700,12.258319580078124,4.199403762817383,8.73619556427002,-1.00259268283844
1774656638358109200,12.275109130859375,4.816751956939697,7.750352382659912,-0.3613162338733673
1774656638374898400,12.2918984375,4.807180881500244,7.458428382873535,0.519242525100708
1774656638391687700,12.308687744140625,4.488935470581055,8.164310455322266,-0.8709874153137207
1774656638408477000,12.325476806640625,4.687539577484131,8.159524917602539,-0.6532405614852905
1774656638425266200,12.34226611328125,3.840480327606201,7.913064479827881,0.5288137793540955
1774656638442055700,12.3590556640625,5.151747226715088,7.680960655212402,-0.06699903309345245
1774656638458845000,12.375844970703126,4.809573650360107,8.25523853302002,-0.35892340540885925
1774656638475634200,12.39263427734375,4.433900356292725,8.126026153564453,0.007178467698395252
1774656638492423400,12.40942333984375,4.347758769989014,8.353343963623047,-0.19621145725250244
1774656638509213000,12.426212890625,4.673182487487793,8.427521705627441,-0.5288137793540955
1774656638526002200,12.443002197265624,4.527220249176025,8.434700012207031,-0.009571290574967861
1774656638542791400,12.45979150390625,4.419543266296387,8.389236450195312,-0.2105683982372284
1774656638559580700,12.47658056640625,4.823930263519287,8.190631866455078,-0.20578274130821228
1774656638576370200,12.4933701171875,4.479363918304443,8.391629219055176,-0.04546362906694412
1774656638593159400,12.510159423828124,3.9194436073303223,8.688339233398438,-0.31824541091918945
1774656638609948700,12.52694873046875,3.9672999382019043,8.963513374328613,-0.4019941985607147
1774656638626738000,12.543738037109375,4.192225456237793,8.769695281982422,-0.49292147159576416
1774656638643527400,12.56052734375,4.398007869720459,8.50169849395752,0.2105683982372284
1774656638660316700,12.577316650390625,5.730810165405273,8.023134231567383,-0.15074782073497772
1774656638677106000,12.59410595703125,4.488935470581055,8.343772888183594,-0.5000999569892883
1774656638693895200,12.610895263671875,3.926621913909912,8.774480819702148,-0.25363919138908386
1774656638710684700,12.6276845703125,4.240081787109375,8.72183895111084,-1.1102696657180786
1774656638727474000,12.644473876953125,4.821537494659424,7.824530124664307,-0.019142581149935722
1774656638744263200,12.66126318359375,4.388436794281006,7.956135272979736,0.4905286431312561
1774656638761052400,12.678052490234375,4.919643402099609,8.267202377319336,-1.0432707071304321
1774656638777842000,12.694842041015624,3.94815731048584,8.49452018737793,-0.41874396800994873
1774656638794631200,12.711631103515625,4.362115859985352,7.886743545532227,0.14356936514377594
1774656638811420400,12.72842041015625,4.000799655914307,8.298309326171875,-0.3445664644241333
1774656638828209700,12.745209716796875,4.529613494873047,8.688339233398438,-0.6436693072319031
1774656638844999000,12.7619990234375,4.06540584564209,8.599804878234863,-0.45942193269729614
1774656638861788400,12.778788330078125,4.151547431945801,8.317451477050781,0.22013968229293823
1774656638878577700,12.79557763671875,4.938786029815674,8.62612533569336,-0.4211367964744568
1774656638895367000,12.812366943359375,3.9433717727661133,9.21715259552002,-1.1150553226470947
1774656638912156400,12.829156494140625,4.744967460632324,8.281558990478516,-0.2225325107574463
1774656638928945700,12.845945556640626,4.443471431732178,8.429914474487305,-0.2584248483181
1774656638945735000,12.86273486328125,4.340580463409424,8.539983749389648,-1.0265209674835205
1774656638962524200,12.879524169921876,4.264009952545166,7.939385414123535,-0.3445664644241333
1774656638979313400,12.8963134765625,3.8979079723358154,7.800601959228516,-0.3086741268634796
1774656638996103000,12.91310302734375,3.8883368968963623,8.111668586730957,-1.3471591472625732
1774656639012892200,12.92989208984375,4.314259052276611,7.424928665161133,-0.7872386574745178
1774656639029681400,12.946681396484376,3.555734395980835,6.819544315338135,-0.09810572862625122
1774656639046470700,12.963470703125,3.6538400650024414,7.274180889129639,-0.5934200286865234
1774656639063260200,12.98026025390625,4.754538536071777,7.613961696624756,-1.552941918373108
1774656639080049400,12.99704931640625,2.644068956375122,7.970492362976074,-0.7585247755050659
1774656639096838700,13.013838623046874,3.871587038040161,7.013363361358643,0.29431718587875366
1774656639113628000,13.0306279296875,4.027120590209961,7.592426300048828,-0.5551348328590393
1774656639130417400,13.04741748046875,5.247459888458252,7.657032489776611,-1.4500504732131958
1774656639147206700,13.06420654296875,4.852644443511963,7.585247993469238,-0.4737788736820221
1774656639163996000,13.080995849609375,3.6083765029907227,7.700103282928467,-0.4426721930503845
1774656639180785200,13.09778515625,4.876572608947754,7.822137355804443,-0.6173482537269592
1774656639197574400,13.114574462890625,4.182653903961182,8.48016357421875,-1.2442678213119507
1774656639214364000,13.131364013671876,3.8261234760284424,8.26241683959961,-0.6173482537269592
1774656639231153200,13.148153076171875,4.524827480316162,8.126026153564453,-0.2105683982372284
1774656639247942400,13.1649423828125,4.603790760040283,8.283951759338379,-0.9451649188995361
1774656639264731600,13.181731689453125,5.111069202423096,8.10688304901123,-0.8183453679084778
1774656639281521200,13.198521240234374,4.548755645751953,7.932207107543945,-0.4091726839542389
1774656639298310400,13.215310302734375,4.053441524505615,8.645268440246582,-0.7441678643226624
1774656639315099600,13.232099609375,4.409972190856934,8.903693199157715,-1.612762451171875
1774656639331889000,13.248888916015625,4.967499732971191,8.22413158416748,-0.6819544434547424
1774656639348678400,13.265678466796874,4.692325115203857,8.432307243347168,-0.2584248483181
1774656639365467600,13.282467529296875,5.312066078186035,8.779266357421875,-1.34476637840271
1774656639382257000,13.2992568359375,4.9363932609558105,8.812766075134277,-1.0049854516983032
1774656639399046100,13.316046142578125,4.488935470581055,8.525627136230469,-0.5886343717575073
1774656639415835600,13.332835693359375,5.381458282470703,8.240880966186523,-0.7657032608985901
1774656639432625000,13.349625,5.2354960441589355,8.707481384277344,-0.7034898400306702
1774656639449414100,13.3664140625,5.398207664489746,8.537590980529785,-1.2610175609588623
1774656639466203400,13.383203369140626,4.800002098083496,8.482556343078613,-0.49292147159576416
1774656639482992600,13.39999267578125,5.517848968505859,8.446663856506348,-0.9643075466156006
1774656639499782100,13.4167822265625,5.61116886138916,8.429914474487305,-1.2705888748168945
1774656639516571400,13.4335712890625,5.082355499267578,8.360522270202637,-0.4307080805301666
1774656639533360600,13.450360595703126,4.335794448852539,8.85344409942627,-0.7178468108177185
1774656639550150000,13.46714990234375,6.3840508460998535,7.884350776672363,-0.9451649188995361
1774656639566939400,13.483939453125,4.934000492095947,8.209774017333984,-0.14117653667926788
1774656639583728600,13.500728759765625,5.134997367858887,8.458627700805664,-0.9212366938591003
1774656639600518000,13.517517822265624,5.216353416442871,8.358129501342773,-0.8015955686569214
1774656639617307400,13.534307373046875,4.809573650360107,8.439485549926758,-0.062213387340307236
1774656639634096600,13.5510966796875,6.369693756103516,7.992027759552002,-0.9188438653945923
1774656639650886000,13.567885986328125,5.690132141113281,8.3629150390625,-0.6293123364448547
1774656639667675100,13.584675048828124,5.4867424964904785,8.219346046447754,-0.5575276613235474
1774656639684464600,13.601464599609375,6.223731517791748,7.886743545532227,-0.8039883971214294
1774656639701254000,13.61825390625,5.412564754486084,8.551948547363281,-0.7465606927871704
1774656639718043100,13.635043212890626,5.099104881286621,8.709874153137207,-1.129412293434143
1774656639734832400,13.651832275390625,5.089533805847168,8.398807525634766,-0.4378865361213684
1774656639751622000,13.668621826171876,4.8574299812316895,8.669196128845215,-0.4666004180908203
1774656639768411100,13.6854111328125,5.661418437957764,8.542376518249512,-1.1820544004440308
1774656639785200400,13.702200439453126,4.058227062225342,8.937192916870117,-0.43549370765686035
1774656639801989600,13.71898974609375,5.814558982849121,8.37966537475586,-0.32542386651039124
1774656639818779100,13.735779052734374,5.522634506225586,8.616554260253906,-1.0432707071304321
1774656639835568400,13.752568359375,5.3312087059021,8.453842163085938,-0.11485548317432404
1774656639852357600,13.769357666015624,5.881557941436768,8.147561073303223,-0.08614161610603333
1774656639869147000,13.78614697265625,5.099104881286621,8.879764556884766,-0.8590233325958252
1774656639885936400,13.802936279296874,5.31685209274292,8.520841598510742,-0.5670989751815796
1774656639902725600,13.8197255859375,5.307280540466309,8.310273170471191,-0.04307080805301666
1774656639919515000,13.836514892578125,5.525027275085449,8.688339233398438,-0.6460621356964111
1774656639936304400,13.853304443359375,5.359922885894775,8.650053977966309,-0.6101697683334351
1774656639953093600,13.87009375,5.230710506439209,8.322237014770508,0.2225325107574463
1774656639969883000,13.8868828125,5.185246467590332,8.762516975402832,-0.5144568681716919
1774656639986672000,13.903672119140625,6.285944938659668,8.291130065917969,-0.8231309652328491
1774656640003461600,13.920461669921876,5.108676433563232,8.382058143615723,0.0023928226437419653
1774656640020251000,13.9372509765625,5.7547383308410645,7.9728851318359375,-0.39960137009620667
1774656640037040000,13.9540400390625,5.520241737365723,8.700303077697754,-0.6915257573127747
1774656640053829400,13.970829345703125,6.845865726470947,9.571290969848633,-1.6582261323928833
1774656640070618600,13.98761865234375,5.438885688781738,9.367900848388672,-0.763310432434082
1774656640087408000,14.004408203125,7.278966426849365,9.214759826660156,0.729810893535614
1774656640104197400,14.021197265625,5.020142078399658,12.002398490905762,-1.2897313833236694
1774656640120986600,14.037986572265625,6.876972198486328,12.076576232910156,-1.765903115272522
1774656640137776000,14.054776123046874,8.118846893310547,11.234302520751953,0.5599204897880554
1774656640154565400,14.0715654296875,5.563312530517578,12.526426315307617,-0.13878370821475983
1774656640171354600,14.088354736328125,7.587640762329102,12.181859970092773,-1.1461620330810547
1774656640188143900,14.105143798828125,6.197410583496094,11.997612953186035,-0.5623133182525635
1774656640204933000,14.12193310546875,6.86261510848999,10.925628662109375,-1.057627558708191
1774656640221722600,14.13872265625,5.814558982849121,10.451848983764648,-0.7034898400306702
1774656640238511900,14.155511962890625,5.819344520568848,10.39920711517334,-1.1892328262329102
1774656640255301000,14.172301025390626,7.156932353973389,9.535398483276367,-1.978864312171936
1774656640272090400,14.18909033203125,3.4337005615234375,9.43489933013916,-0.02392822690308094
1774656640288879900,14.2058798828125,6.833901405334473,7.8388872146606445,0.06939185410737991
1774656640305669000,14.222669189453125,6.135197162628174,9.159725189208984,-1.6941183805465698
1774656640322458400,14.239458251953126,7.853243827819824,7.884350776672363,-1.1461620330810547
1774656640339247900,14.256247802734375,1.0169496536254883,9.858428955078125,0.5479564070701599
1774656640356037000,14.273037109375,3.486342668533325,9.432506561279297,-0.7920243144035339
1774656640372826400,14.289826416015625,6.714260101318359,8.350951194763184,-1.5002998113632202
1774656640389615600,14.30661572265625,3.1896326541900635,8.819944381713867,-0.14835500717163086
1774656640406405000,14.323405029296875,5.532206058502197,7.6977105140686035,-0.0023928226437419653
1774656640423194400,14.3401943359375,5.477170944213867,8.252845764160156,-0.8662018179893494
1774656640439983600,14.356983642578125,3.924229145050049,8.647661209106445,-0.8757730722427368
1774656640456772900,14.37377294921875,5.099104881286621,7.496713161468506,-0.22013968229293823
1774656640473562000,14.39056201171875,4.225724697113037,8.047062873840332,-0.18424734473228455
1774656640490351600,14.4073515625,4.9986066818237305,7.934599876403809,-1.1724830865859985
1774656640507140900,14.424140869140626,4.48414945602417,7.630711555480957,-0.397208571434021
1774656640523930000,14.44093017578125,3.7184464931488037,7.858029365539551,-0.22971096634864807
1774656640540719400,14.45771923828125,4.060619831085205,8.061419486999512,-0.882951557636261
1774656640557508900,14.4745087890625,4.529613494873047,7.786244869232178,-0.4546363055706024
1774656640574298000,14.491298095703126,4.204189300537109,7.989634990692139,-0.39481574296951294
1774656640591087400,14.50808740234375,3.9290146827697754,7.9657063484191895,-0.7920243144035339
1774656640607876600,14.524876708984374,4.07258415222168,7.791030406951904,-0.32542386651039124
1774656640624666000,14.541666015625,4.287938117980957,8.226524353027344,-0.8781659007072449
1774656640641455400,14.558455322265624,3.6083765029907227,8.470592498779297,-1.2370892763137817
1774656640658244600,14.57524462890625,3.7543387413024902,7.8556365966796875,-0.18424734473228455
1774656640675033900,14.592033935546874,4.689932346343994,7.623532772064209,-0.1866401731967926
1774656640691823000,14.608822998046875,4.838287353515625,8.336593627929688,-0.9547362327575684
1774656640708612600,14.625612548828125,2.63449764251709,9.332008361816406,-1.0360921621322632
1774656640725401900,14.64240185546875,4.486542224884033,8.015955924987793,-0.2632105052471161
1774656640742191000,14.659191162109375,3.8739798069000244,8.73619556427002,-0.30628129839897156
1774656640758980400,14.67598046875,3.431307554244995,9.934999465942383,-1.6175481081008911
1774656640775769900,14.692769775390625,4.34536600112915,8.724231719970703,-1.0049854516983032
1774656640792559000,14.70955908203125,5.7786664962768555,7.448856830596924,0.7513462901115417
1774656640809348400,14.726348388671875,3.6873397827148438,9.439684867858887,-1.0552347898483276
1774656640826137600,14.7431376953125,3.342773199081421,9.884750366210938,-1.947757601737976
1774656640842927000,14.759927001953125,4.400400638580322,8.200202941894531,0.2153540402650833
1774656640859716400,14.77671630859375,4.517649173736572,8.315058708190918,0
1774656640876505600,14.793505615234375,4.709074974060059,9.142974853515625,-1.7874385118484497
1774656640893294800,14.810294921875,3.19441819190979,9.600004196166992,-1.0863415002822876
1774656640910084000,14.827083984375,3.9290146827697754,8.539983749389648,-0.4259224236011505
1774656640926873600,14.84387353515625,4.7401814460754395,8.396414756774902,-0.46420758962631226
1774656640943662800,14.860662841796875,4.965106964111328,8.583054542541504,-1.3639088869094849
1774656640960452000,14.8774521484375,3.924229145050049,8.642875671386719,-1.1270195245742798
1774656640977241300,14.894241455078125,3.2685956954956055,9.035298347473145,-0.6364908218383789
1774656640994030800,14.91103076171875,5.371886730194092,8.0350980758667,-1.1724830865859985
1774656641010820000,14.927820068359376,4.101297855377197,8.212167739868164,-0.20099709928035736
1774656641027609300,14.944609375,3.996013879776001,9.023334503173828,-0.7680960893630981
1774656641044398600,14.961398681640626,4.046263217926025,9.499505996704102,-1.7515461444854736
1774656641061187800,14.978187744140625,4.211368083953857,8.556734085083008,-0.16749759018421173
1774656641077977000,14.99497705078125,5.0464630126953125,8.228917121887207,0.24885354936122894
1774656641094766600,15.0117666015625,5.26181697845459,9.104690551757812,-1.526620864868164
1774656641111555800,15.028555908203124,4.314259052276611,9.604789733886719,-1.2370892763137817
1774656641128345000,15.045344970703125,4.8502516746521,8.535198211669922,0.1459621787071228
1774656641145134300,15.06213427734375,4.8191447257995605,8.879764556884766,-0.2799602448940277
1774656641161923800,15.078923828125,5.06082010269165,9.09990406036377,-1.277767300605774
1774656641178713000,15.095713134765624,4.986642360687256,8.839086532592773,-0.7202396392822266
1774656641195502300,15.11250244140625,4.570291042327881,8.673981666564941,-0.6652047038078308
1774656641212291600,15.12929150390625,4.835894584655762,8.3629150390625,-0.6173482537269592
1774656641229080800,15.146080810546875,5.5106706619262695,8.209774017333984,-0.7082754969596863
1774656641245870300,15.162870361328125,3.4911282062530518,8.980263710021973,-0.9332008361816406
1774656641262659600,15.17965966796875,3.4887354373931885,8.434700012207031,-0.2225325107574463
1774656641279448800,15.19644873046875,5.300102233886719,7.75753116607666,-0.08853443711996078
1774656641296238000,15.213238037109376,3.9290146827697754,8.657232284545898,-0.8422735929489136
1774656641313027300,15.23002734375,3.7256247997283936,8.72901725769043,-0.4019941985607147
1774656641329816800,15.24681689453125,4.247260093688965,8.49452018737793,-0.1866401731967926
1774656641346606000,15.263606201171875,4.869394302368164,8.133204460144043,-0.1459621787071228
1774656641363395300,15.280395263671876,3.9146578311920166,8.523234367370605,0.02871387079358101
1774656641380184600,15.2971845703125,4.187439441680908,8.623732566833496,-0.5168496966362
1774656641396974000,15.31397412109375,4.2209391593933105,8.788837432861328,-0.46899324655532837
1774656641413763300,15.330763427734375,4.5583271980285645,8.396414756774902,0.07417750358581543
1774656641430552600,15.347552490234374,3.87876558303833,8.719446182250977,-0.1339980661869049
1774656641447341800,15.364341796875,4.67078971862793,8.518448829650879,-0.4331009089946747
1774656641464131000,15.381131103515624,4.843072891235352,8.38684368133545,-0.2584248483181
1774656641480920300,15.39792041015625,4.130012035369873,8.525627136230469,-0.2991028428077698
1774656641497709800,15.414709716796875,4.8191447257995605,8.078168869018555,-0.3445664644241333
1774656641514499000,15.4314990234375,4.118047714233398,8.571090698242188,-0.30628129839897156
1774656641531288300,15.448288330078125,4.206582069396973,8.786444664001465,-0.9858429431915283
1774656641548077600,15.46507763671875,4.6540398597717285,8.097311973571777,-0.038285162299871445
1774656641564866800,15.48186669921875,4.144368648529053,8.592626571655273,0.0933200865983963
1774656641581656300,15.49865625,5.146961688995361,8.410771369934082,-1.526620864868164
1774656641598445600,15.515445556640625,4.541577339172363,7.841279983520508,-0.14835500717163086
1774656641615234800,15.53223486328125,4.252045631408691,8.09970474243164,-0.3517449200153351
1774656641632024000,15.549024169921875,5.13021183013916,7.9489569664001465,-1.923829436302185
1774656641648813300,15.565813232421876,3.8596229553222656,7.82692289352417,-0.4546363055706024
1774656641665602800,15.582602783203125,4.462614059448242,7.5637125968933105,-0.5383850932121277
1774656641682392000,15.59939208984375,4.508078098297119,7.798209190368652,-1.3615161180496216
1774656641699181300,15.616181396484375,4.256831645965576,7.8077802658081055,-0.15074782073497772
1774656641715970600,15.632970458984374,4.161118507385254,8.228917121887207,-0.8207381963729858
1774656641732759800,15.649759765625,4.4410786628723145,8.271987915039062,-0.9978070259094238
1774656641749549300,15.66654931640625,4.847858905792236,7.987242221832275,0.016749758273363113
1774656641766341400,15.68334130859375,4.613361835479736,8.740981101989746,-0.8422735929489136
1774656641783127800,15.7001279296875,4.790431022644043,8.920442581176758,-1.1653046607971191
1774656641799917000,15.7169169921875,5.276174068450928,8.394021987915039,-0.014356935396790504
1774656641816706300,15.733706298828125,4.536791801452637,8.870193481445312,-0.4666004180908203
1774656641833495800,15.750495849609376,5.1565327644348145,8.987442016601562,-1.1509476900100708
1774656641850285000,15.76728515625,4.991427898406982,8.73619556427002,-0.5527420043945312
1774656641867074300,15.78407421875,4.785645484924316,8.571090698242188,-0.5359922647476196
1774656641883863600,15.800863525390625,5.051248550415039,8.492127418518066,-0.6867401003837585
1774656641900653000,15.817653076171876,4.984249591827393,8.640482902526855,-0.9332008361816406
1774656641917442300,15.8344423828125,4.517649173736572,8.662017822265625,-0.8063812255859375
1774656641934231600,15.8512314453125,4.644468784332275,8.23848819732666,-0.2991028428077698
1774656641951020800,15.868020751953125,5.051248550415039,8.319844245910645,-0.8063812255859375
1774656641967810000,15.88481005859375,4.6061835289001465,8.566305160522461,-1.2131611108779907
1774656641984599600,15.901599609375,4.369294166564941,8.48734188079834,-0.6532405614852905
1774656642001388800,15.918388916015624,5.142175674438477,7.992027759552002,-0.6436693072319031
1774656642018178000,15.935177978515625,4.319045066833496,8.303094863891602,-0.6269195079803467
1774656642034967300,15.95196728515625,4.488935470581055,8.37966537475586,-0.7752745151519775
1774656642051756500,15.968756591796875,4.503292083740234,8.149953842163086,-0.9188438653945923
1774656642068546000,15.985546142578125,4.46979284286499,7.8628153800964355,-0.3517449200153351
1774656642085335300,16.002335205078126,4.302295207977295,7.922635555267334,-0.7322037220001221
1774656642102124500,16.01912451171875,4.46979284286499,7.812565803527832,-0.8757730722427368
1774656642118913800,16.035913818359376,4.579862594604492,7.5086774826049805,-0.7034898400306702
1774656642135703300,16.052703369140627,3.7399818897247314,7.401000499725342,-0.46420758962631226
1774656642152492500,16.069492431640626,4.29033088684082,7.2095746994018555,-0.48095735907554626
1774656642169281800,16.08628173828125,3.9672999382019043,7.590033531188965,-1.0671988725662231
1774656642186071000,16.103071044921876,4.18983268737793,7.135396957397461,-0.914058268070221
1774656642202860500,16.119860595703123,3.8117663860321045,6.826723098754883,-0.059820566326379776
1774656642219649800,16.13664990234375,3.7974095344543457,7.2095746994018555,-0.7178468108177185
1774656642236439000,16.15343896484375,4.764110088348389,6.9104719161987305,-0.851844847202301
1774656642253228300,16.170228271484376,3.5605201721191406,7.020541667938232,-0.5551348328590393
1774656642270017500,16.187017578125,3.2709884643554688,7.587640762329102,-0.5000999569892883
1774656642286807000,16.20380712890625,4.309473514556885,7.561319351196289,-0.8279166221618652
1774656642303596300,16.22059619140625,5.039284706115723,7.1856465339660645,-0.6269195079803467
1774656642320385500,16.237385498046876,4.309473514556885,7.408178806304932,-0.26560330390930176
1774656642337174800,16.2541748046875,3.7160534858703613,8.62612533569336,-0.6197410821914673
1774656642353964300,16.27096435546875,3.5461630821228027,9.30329418182373,-1.3567304611206055
1774656642370753500,16.28775341796875,7.183253765106201,6.955935478210449,-0.3900300860404968
1774656642387542800,16.304542724609377,5.467599868774414,7.920242786407471,0.5144568681716919
1774656642404332000,16.32133203125,4.53200626373291,9.439684867858887,-1.8041882514953613
1774656642421121500,16.33812158203125,4.890929698944092,9.1716890335083,-1.5912270545959473
1774656642437910800,16.354910888671874,4.132404804229736,8.621339797973633,0.3684946894645691
1774656642454700000,16.371699951171873,6.4079790115356445,8.023134231567383,-0.8925228714942932
1774656642471489300,16.3884892578125,7.1234331130981445,7.927421569824219,-1.4883357286453247
1774656642488278500,16.405278564453123,4.555934429168701,8.267202377319336,-0.24406790733337402
1774656642505068000,16.422068115234374,4.6540398597717285,8.204988479614258,-0.5383850932121277
1774656642521857300,16.438857177734373,6.135197162628174,8.200202941894531,-1.3710874319076538
1774656642538646500,16.455646484375,4.8191447257995605,8.250452041625977,-0.6652047038078308
1774656642555435800,16.472435791015624,5.539384365081787,7.661818027496338,0.1818545162677765
1774656642572225300,16.489225341796875,5.5728840827941895,8.374878883361816,-0.8422735929489136
1774656642589014500,16.5060146484375,5.9198431968688965,8.427521705627441,-1.2921242713928223
1774656642605803800,16.5228037109375,4.938786029815674,8.228917121887207,-0.14117653667926788
1774656642622593000,16.539593017578124,6.104090690612793,7.822137355804443,-0.3756731450557709
1774656642639382300,16.55638232421875,6.204588890075684,8.240880966186523,-1.2897313833236694
1774656642656171800,16.573171875,5.44845724105835,8.123632431030273,-0.5982056856155396
1774656642672961000,16.5899609375,6.534798622131348,7.554141044616699,-0.39960137009620667
1774656642689750300,16.606750244140624,5.108676433563232,8.384450912475586,-0.9020941257476807
1774656642706539500,16.62353955078125,5.905486106872559,7.893921852111816,-0.638883650302887
1774656642723328800,16.640328857421874,5.606383323669434,8.0350980758667,-0.519242525100708
1774656642740118000,16.657117919921873,5.642275810241699,8.02791976928711,-0.9068797826766968
1774656642756907500,16.673907470703124,5.295316696166992,8.008777618408203,-0.29431718587875366
1774656642773696800,16.69069677734375,5.6207404136657715,8.051848411560059,-0.4378865361213684
1774656642790486000,16.707486083984374,5.568098068237305,8.37009334564209,-0.7250252366065979
1774656642807275300,16.724275146484374,5.632704734802246,8.008777618408203,-0.3517449200153351
1774656642824064800,16.741064697265625,5.221138954162598,8.147561073303223,-0.03349951654672623
1774656642840854000,16.75785400390625,6.111268997192383,8.11406135559082,-0.6604190468788147
1774656642857643300,16.774643310546875,5.857629776000977,8.322237014770508,-0.7680960893630981
1774656642874432500,16.7914326171875,5.536991596221924,8.104490280151367,0.11485548317432404
1774656642891221800,16.8082216796875,5.879165172576904,8.087740898132324,-0.2727817893028259
1774656642908011300,16.82501123046875,5.223531723022461,8.642875671386719,-0.672383189201355
1774656642924800500,16.841800537109375,5.742774486541748,8.3629150390625,-0.3900300860404968
1774656642941589800,16.85858984375,5.996413707733154,8.219346046447754,-0.21774685382843018
1774656642958379000,16.87537890625,5.7786664962768555,8.281558990478516,-0.20099709928035736
1774656642975168500,16.89216845703125,6.015556335449219,8.293522834777832,-0.24167509377002716
1774656642991957800,16.908957763671875,5.84566593170166,8.23130989074707,-0.4139583110809326
1774656643008747000,16.9257470703125,5.994020938873291,8.23848819732666,-0.1698904037475586
1774656643025536300,16.942536376953125,6.211767673492432,8.281558990478516,-0.3397808074951172
1774656643042325500,16.959325439453124,5.8959150314331055,8.070990562438965,0.1459621787071228
1774656643059114800,16.97611474609375,5.383851051330566,8.46580696105957,0.08614161610603333
1774656643075904300,16.992904296875,6.465406894683838,8.082955360412598,-0.6508477330207825
1774656643092693500,17.009693603515625,5.558526992797852,8.104490280151367,0.08135596662759781
1774656643109482800,17.026482666015625,6.154339790344238,7.582854747772217,0.1459621787071228
1774656643126272000,17.04327197265625,5.962913990020752,7.843672752380371,-0.2871387302875519
1774656643143061200,17.060061279296875,5.948556900024414,7.898707389831543,-0.33738797903060913
1774656643159850800,17.076850830078126,6.190232276916504,8.561519622802734,-0.14356936514377594
1774656643176640000,17.093639892578125,6.419943332672119,10.554740905761719,-1.7156537771224976
1774656643193429200,17.11042919921875,8.207381248474121,9.166903495788574,0.5000999569892883
1774656643210218500,17.127218505859375,6.690331935882568,11.016555786132812,1.428515076637268
1774656643227007700,17.1440078125,6.685546398162842,13.15095329284668,-1.4979069232940674
1774656643243797200,17.16079736328125,8.769695281982422,12.31107234954834,-0.8590233325958252
1774656643260586500,17.17758642578125,8.197810173034668,11.96889877319336,1.820937991142273
1774656643277375700,17.194375732421875,6.187839508056641,13.01216983795166,-0.8997012972831726
1774656643294165000,17.2111650390625,7.551748275756836,12.189038276672363,-1.0528420209884644
1774656643310954200,17.227954345703125,5.697310924530029,11.351551055908203,-0.30628129839897156
1774656643327743500,17.244743408203124,7.542177200317383,9.55214786529541,-1.1509476900100708
1774656643344533000,17.261532958984375,5.998806476593018,10.03549861907959,-1.1102696657180786
1774656643361322200,17.278322265625,6.0370917320251465,9.791430473327637,-1.887937068939209
1774656643378111500,17.295111572265625,6.695117950439453,7.800601959228516,-0.2105683982372284
1774656643394900700,17.311900634765625,6.774080753326416,7.9489569664001465,0.24167509377002716
1774656643411690000,17.32868994140625,6.738188743591309,8.599804878234863,-1.9381862878799438
1774656643428479500,17.3454794921875,10.559526443481445,6.0610198974609375,-0.7345965504646301
1774656643445268700,17.362268798828126,3.359523057937622,8.551948547363281,0.7441678643226624
1774656643462058000,17.37905810546875,-2.007578134536743,11.636296272277832,-1.5170495510101318
1774656643478847200,17.39584716796875,5.72841739654541,8.054241180419922,-1.674975872039795
1774656643495636500,17.412636474609375,6.661618232727051,6.7070817947387695,0.37088751792907715
1774656643512425700,17.42942578125,2.6153552532196045,8.839086532592773,-0.7369893789291382
1774656643529215200,17.44621533203125,6.31944465637207,7.642675399780273,-1.7587246894836426
1774656643546004500,17.46300439453125,4.675575256347656,7.822137355804443,0.24646073579788208
1774656643562793700,17.479793701171875,4.328616142272949,7.953742504119873,-0.6029912829399109
1774656643579583000,17.4965830078125,4.551148891448975,8.391629219055176,-0.97148597240448
1774656643596372200,17.513372314453125,3.94815731048584,8.492127418518066,-0.4019941985607147
1774656643613161700,17.53016162109375,5.024927616119385,7.817351341247559,-0.19142581522464752
1774656643629951000,17.546950927734375,4.232903480529785,8.47298526763916,-0.02871387079358101
1774656643646740200,17.563740234375,4.9363932609558105,8.451449394226074,-0.6484549641609192
1774656643663529500,17.580529541015625,4.673182487487793,8.233702659606934,-0.2679961323738098
1774656643680318700,17.597318603515625,4.749752998352051,8.161917686462402,0.43549370765686035
1774656643697108000,17.61410791015625,5.008177757263184,8.542376518249512,-0.5335994362831116
1774656643713897200,17.630897216796875,4.984249591827393,8.571090698242188,-0.6173482537269592
1774656643730686700,17.647686767578126,5.19960355758667,8.315058708190918,0.10289137065410614
1774656643747476000,17.66447607421875,5.4173502922058105,8.425128936767578,-0.27038896083831787
1774656643764265200,17.68126513671875,4.390829563140869,9.097511291503906,-0.4737788736820221
1774656643781054500,17.698054443359375,5.008177757263184,8.786444664001465,-0.3445664644241333
1774656643797843700,17.71484375,4.60139799118042,8.784051895141602,-0.25363919138908386
1774656643814633000,17.731633056640625,4.778466701507568,8.358129501342773,-0.1052841991186142
1774656643831422500,17.74842236328125,5.197210788726807,8.350951194763184,-0.3038884699344635
1774656643848211700,17.765211669921875,4.522434711456299,8.719446182250977,-0.6556333899497986
1774656643865001000,17.7820009765625,4.297509670257568,8.429914474487305,-0.4307080805301666
1774656643881790200,17.798790283203125,5.553741455078125,7.506284713745117,0.07417750358581543
1774656643898579500,17.815579345703124,3.9625144004821777,8.676374435424805,-0.6197410821914673
1774656643915368700,17.83236865234375,5.3312087059021,7.915457248687744,-0.9188438653945923
1774656643932158200,17.849158203125,4.022335052490234,7.791030406951904,0.4139583110809326
1774656643948947500,17.865947509765626,5.072783946990967,7.798209190368652,-0.4331009089946747
1774656643965736700,17.88273681640625,4.457828521728516,8.279166221618652,-0.9690931439399719
1774656643982526000,17.89952587890625,3.9601213932037354,8.212167739868164,-0.11964113265275955
1774656643999315200,17.916315185546875,5.66620397567749,7.4847493171691895,-0.3756731450557709
1774656644016104400,17.9331044921875,4.1659040451049805,8.202595710754395,-0.2919243574142456
1774656644032893700,17.949893798828125,4.977071285247803,8.279166221618652,-0.5048855543136597
1774656644049683200,17.96668310546875,3.9768712520599365,8.717052459716797,-0.8781659007072449
1774656644066472400,17.983472412109375,4.412364959716797,8.408378601074219,-0.2847459018230438
1774656644083261700,18.00026171875,4.907679080963135,8.248059272766113,-0.2512463629245758
1774656644100051000,18.017051025390625,3.7734813690185547,8.980263710021973,-0.41156548261642456
1774656644116840200,18.033840087890624,4.192225456237793,9.138189315795898,-0.760917603969574
1774656644133629400,18.05062939453125,4.486542224884033,8.702695846557617,-0.6269195079803467
1774656644150418700,18.067418701171874,4.72582483291626,8.281558990478516,0.05503492057323456
1774656644167208200,18.084208251953125,5.163711071014404,8.47298526763916,-0.7848458290100098
1774656644183997400,18.10099755859375,4.319045066833496,8.879764556884766,-1.007378339767456
1774656644200786700,18.11778662109375,3.421736478805542,8.709874153137207,0.004785645287483931
1774656644217576000,18.134575927734375,4.697110652923584,8.537590980529785,-0.607776939868927
1774656644234365200,18.151365234375,3.84765887260437,8.669196128845215,-0.6963114142417908
1774656644251154400,18.168154541015625,4.479363918304443,7.9728851318359375,0.11964113265275955
1774656644267944000,18.18494384765625,3.85483717918396,8.327022552490234,-0.5096712112426758
1774656644284733200,18.201733154296875,3.8596229553222656,8.35573673248291,-0.6963114142417908
1774656644301522400,18.2185224609375,3.304488182067871,8.776873588562012,-0.5790630578994751
1774656644318311700,18.235311767578125,4.426722049713135,7.850851058959961,-0.9332008361816406
1774656644335101000,18.252100830078124,3.7974095344543457,7.494320392608643,0.5670989751815796
1774656644351890400,18.268890380859375,4.340580463409424,7.412964344024658,-0.3158525824546814
1774656644368679700,18.2856796875,4.106083869934082,7.496713161468506,-1.0671988725662231
1774656644385469000,18.302468994140625,2.249253273010254,8.338987350463867,-0.380458801984787
1774656644402258200,18.319258056640624,3.314059257507324,7.956135272979736,-0.6556333899497986
1774656644419047400,18.33604736328125,5.314459323883057,7.001399040222168,0.04546362906694412
1774656644435837000,18.3528369140625,1.7156537771224976,8.671588897705078,0.2799602448940277
1774656644452626200,18.369626220703125,5.352744102478027,7.8556365966796875,-0.7393822073936462
1774656644469415400,18.38641552734375,2.007578134536743,9.226723670959473,-0.16271193325519562
1774656644486204700,18.40320458984375,3.651447296142578,8.640482902526855,-0.25363919138908386
1774656644502994000,18.419993896484375,3.9625144004821777,9.013762474060059,-0.6149554252624512
1774656644519783200,18.436783203125,3.555734395980835,9.291330337524414,0.02871387079358101
1774656644536572700,18.45357275390625,3.8668015003204346,9.384650230407715,-0.19142581522464752
1774656644553362000,18.47036181640625,5.874379634857178,8.26241683959961,-0.3086741268634796
1774656644570151200,18.487151123046875,4.024727821350098,8.896514892578125,0.28953152894973755
1774656644586940400,18.5039404296875,3.074777126312256,9.518648147583008,-0.729810893535614
1774656644603729700,18.520729736328125,4.0558342933654785,8.848658561706543,-0.7202396392822266
1774656644620519200,18.537519287109376,3.680161237716675,8.740981101989746,0.39960137009620667
1774656644637308400,18.554308349609375,3.90987229347229,8.889336585998535,-0.5335994362831116
1774656644654097700,18.57109765625,5.807380676269531,7.960920810699463,-0.2273181527853012
1774656644670887000,18.587886962890625,3.4815568923950195,9.09272575378418,0.2871387302875519
1774656644687676200,18.60467626953125,3.8285162448883057,9.300901412963867,-0.7728816866874695
1774656644704465400,18.62146533203125,3.680161237716675,8.999405860900879,-0.13639089465141296
1774656644721255000,18.6382548828125,3.6227335929870605,9.042476654052734,0.21296121180057526
1774656644738044200,18.655044189453125,4.034298896789551,9.30329418182373,-0.973878800868988
1774656644754833400,18.67183349609375,3.28773832321167,9.157332420349121,-0.05024927482008934
1774656644771622700,18.68862255859375,4.063013076782227,8.841479301452637,0.09571290761232376
1774656644788412000,18.705411865234375,4.398007869720459,8.963513374328613,-0.7417750358581543
1774656644805201400,18.722201416015626,5.240281581878662,8.276773452758789,-0.05742774158716202
1774656644821990700,18.73899072265625,4.18983268737793,8.724231719970703,0.06699903309345245
1774656644838780000,18.75577978515625,4.244867324829102,9.052047729492188,-0.8015955686569214
1774656644855569200,18.772569091796875,4.369294166564941,8.762516975402832,-0.25363919138908386
1774656644872358400,18.7893583984375,4.40757942199707,8.551948547363281,0.040677983313798904
1774656644889147600,18.806147705078125,4.735395908355713,8.671588897705078,-0.37806597352027893
1774656644905937200,18.822937255859376,4.48414945602417,8.937192916870117,-0.4043870270252228
1774656644922726400,18.839726318359375,3.9433717727661133,8.930013656616211,-0.26081767678260803
1774656644939515600,18.856515625,4.321437835693359,8.848658561706543,-0.1986042857170105
1774656644956305000,18.873304931640625,4.455435752868652,8.922835350036621,-0.44745782017707825
1774656644973094100,18.89009423828125,4.029513359069824,8.81515884399414,-0.08614161610603333
1774656644989883600,18.906883544921875,4.73300313949585,8.499305725097656,-0.11246266216039658
1774656645006673000,18.9236728515625,4.862215518951416,8.408378601074219,-0.4570291340351105
1774656645023462100,18.940462158203125,4.1347975730896,8.575876235961914,-0.04546362906694412
1774656645040251400,18.95725146484375,4.285545349121094,8.475378036499023,-0.3756731450557709
1774656645057040600,18.97404052734375,4.4243292808532715,8.288737297058105,-0.3278166949748993
1774656645073830000,18.990829833984375,4.027120590209961,8.200202941894531,-0.08135596662759781
1774656645090619100,19.007619140625,4.29033088684082,8.295916557312012,-0.44027936458587646
1774656645107408600,19.02440869140625,4.445864677429199,8.23848819732666,-0.6269195079803467
1774656645124198000,19.041197998046876,4.225724697113037,7.836493968963623,-0.07178468257188797
1774656645140987100,19.057987060546875,4.120440483093262,7.88913631439209,-0.15553347766399384
1774656645157776400,19.0747763671875,5.149354457855225,7.750352382659912,-0.9020941257476807
1774656645174565600,19.091565673828125,3.6394832134246826,8.410771369934082,-0.7417750358581543
1774656645191355000,19.10835498046875,4.977071285247803,7.381857872009277,-0.3278166949748993
1774656645208144400,19.125144287109375,4.211368083953857,7.41535758972168,0.02153540402650833
1774656645224933600,19.14193359375,4.555934429168701,7.511070251464844,-0.5407779216766357
1774656645241723000,19.158722900390625,4.395615100860596,8.09970474243164,-0.9858429431915283
1774656645258512100,19.17551220703125,4.553541660308838,7.379465103149414,-0.5694918036460876
1774656645275301400,19.19230126953125,4.517649173736572,6.853044033050537,0.607776939868927
1774656645292090600,19.209090576171874,5.20678186416626,7.18086051940918,-0.4091726839542389
1774656645308880100,19.225880126953125,4.323830604553223,8.209774017333984,-1.2801600694656372
1774656645325669400,19.24266943359375,4.048655986785889,7.523034572601318,-0.24885354936122894
1774656645342458600,19.259458740234376,5.405386447906494,6.321837425231934,0.5288137793540955
1774656645359248000,19.276247802734375,4.780859470367432,7.3914289474487305,-0.42831525206565857
1774656645376037000,19.293037109375,5.505885124206543,7.4464640617370605,-1.4117653369903564
1774656645392826400,19.309826416015625,2.6799614429473877,8.126026153564453,-0.0933200865983963
1774656645409615600,19.32661572265625,5.472385406494141,6.6352972984313965,0.19621145725250244
1774656645426405000,19.343405029296875,5.039284706115723,7.231110095977783,0.040677983313798904
1774656645443194400,19.3601943359375,3.651447296142578,8.48734188079834,-0.5670989751815796
1774656645459983600,19.376983642578125,4.7401814460754395,8.059026718139648,-0.8279166221618652
1774656645476772900,19.39377294921875,5.623133182525635,7.156932353973389,0.5168496966362
1774656645493562000,19.41056201171875,4.551148891448975,8.181060791015625,0.29431718587875366
1774656645510351400,19.427351318359374,6.16391134262085,8.34855842590332,-1.074377417564392
1774656645527140900,19.444140869140625,5.099104881286621,8.274380683898926,0.13639089465141296
1774656645543930000,19.46093017578125,4.706682205200195,8.401200294494629,0.004785645287483931
1774656645560719400,19.47771923828125,5.364708423614502,8.748159408569336,-0.7968099117279053
1774656645577508600,19.494508544921874,5.149354457855225,8.642875671386719,0.16510476171970367
1774656645594297900,19.5112978515625,5.714060306549072,8.35573673248291,-0.1052841991186142
1774656645611087000,19.528087158203125,5.4556355476379395,8.48016357421875,-0.3852444589138031
1774656645627876600,19.544876708984376,4.986642360687256,8.784051895141602,-0.16510476171970367
1774656645644665900,19.561665771484375,5.304887771606445,8.786444664001465,-0.8446664214134216
1774656645661455000,19.578455078125,5.814558982849121,8.291130065917969,-0.4211367964744568
1774656645678244400,19.595244384765625,4.718646049499512,8.86062240600586,-0.1052841991186142
1774656645695033600,19.61203369140625,6.685546398162842,8.25523853302002,-1.1365907192230225
1774656645711822800,19.62882275390625,4.843072891235352,8.896514892578125,-0.35413774847984314
1774656645728612000,19.645612060546874,5.26181697845459,8.872586250305176,-0.5934200286865234
1774656645745401300,19.6624013671875,6.305087566375732,8.461020469665527,-0.8781659007072449
1774656645762190800,19.67919091796875,5.300102233886719,8.537590980529785,-0.15314064919948578
1774656645778980000,19.69597998046875,5.879165172576904,8.305487632751465,-0.32303106784820557
1774656645795769300,19.712769287109374,4.859822750091553,8.941978454589844,-0.851844847202301
1774656645812558600,19.72955859375,5.283352375030518,8.34855842590332,-0.5694918036460876
1774656645829347800,19.746347900390624,5.565705299377441,7.872386455535889,-0.09571290761232376
1774656645846137000,19.76313720703125,5.3455657958984375,8.204988479614258,-0.5862415432929993
1774656645862926300,19.77992626953125,4.785645484924316,8.640482902526855,-0.885344386100769
1774656645879715800,19.7967158203125,4.914857864379883,8.240880966186523,-0.607776939868927
1774656645896505000,19.813505126953125,5.218746185302734,8.051848411560059,-0.2584248483181
1774656645913294300,19.83029443359375,5.883950710296631,8.142775535583496,-0.8662018179893494
1774656645930083600,19.84708349609375,4.9531426429748535,8.700303077697754,-0.9068797826766968
1774656645946872800,19.863872802734374,5.608776092529297,8.087740898132324,-0.24406790733337402
1774656645963662000,19.880662109375,4.914857864379883,8.391629219055176,-0.26081767678260803
1774656645980451600,19.89745166015625,5.630311489105225,8.46341323852539,-0.8255237936973572
1774656645997240800,19.91424072265625,6.307480335235596,8.240880966186523,-0.6867401003837585
1774656646014030000,19.931030029296874,5.2043890953063965,8.444271087646484,-0.4498506486415863
1774656646030819300,19.9478193359375,5.467599868774414,8.446663856506348,-0.2847459018230438
1774656646047608600,19.964608642578124,5.85284423828125,8.439485549926758,-0.916451096534729
1774656646064397800,19.981397705078123,5.627918720245361,8.288737297058105,-0.8614161610603333
1774656646081187000,19.99818701171875,5.257031440734863,8.303094863891602,-0.4450650215148926
1774656646097976300,20.014976318359373,5.766702651977539,8.372486114501953,-1.057627558708191
1774656646114765600,20.031765625,6.867401123046875,10.521241188049316,-1.2083754539489746
1774656646131555000,20.04855517578125,3.751945972442627,11.540583610534668,-2.0889341831207275
1774656646148344300,20.06534423828125,6.606583118438721,10.14317512512207,1.31365966796875
1774656646165133600,20.082133544921874,8.520841598510742,11.645867347717285,0.3086741268634796
1774656646181922800,20.0989228515625,7.1162543296813965,13.75633716583252,-2.163111686706543
1774656646198712000,20.115712158203124,8.260024070739746,12.593425750732422,0.4666004180908203
1774656646215501300,20.132501220703126,6.56829833984375,12.930813789367676,1.423729419708252
1774656646232290600,20.14929052734375,7.307680130004883,12.971491813659668,-1.2562319040298462
1774656646249079800,20.166079833984377,7.511070251464844,11.693724632263184,-0.3852444589138031
1774656646265869000,20.182869140625,5.4867424964904785,10.956734657287598,0.26560330390930176
1774656646282658600,20.199658447265627,6.056233882904053,10.614561080932617,-1.2059825658798218
1774656646299447800,20.21644775390625,7.403393268585205,10.210174560546875,-1.5481562614440918
1774656646316237000,20.233237060546877,4.292723655700684,9.300901412963867,0.12921242415905
1774656646333026300,20.2500263671875,6.041877269744873,8.13081169128418,0.8231309652328491
1774656646349815600,20.266815673828123,5.84566593170166,9.372686386108398,-0.9451649188995361
1774656646366604800,20.283604736328126,2.3234307765960693,10.145567893981934,-1.1653046607971191
1774656646383394000,20.30039404296875,8.965906143188477,6.223731517791748,0.20817556977272034
1774656646400183300,20.317183349609376,3.814159393310547,8.58066177368164,0.638883650302887
1774656646416972500,20.33397265625,5.3934221267700195,8.669196128845215,-1.8999011516571045
1774656646433762000,20.350761962890626,5.819344520568848,7.654639720916748,-0.4426721930503845
1774656646450551300,20.36755126953125,3.1968109607696533,8.154739379882812,0.6843472719192505
1774656646467340500,20.384340576171876,6.838686943054199,7.2430739402771,-1.1676974296569824
1774656646484129800,20.4011298828125,5.209175109863281,8.018348693847656,-0.794417142868042
1774656646500919000,20.4179189453125,5.54177713394165,7.436892986297607,-0.13160525262355804
1774656646517708300,20.434708251953126,5.685346603393555,7.10429048538208,-0.4450650215148926
1774656646534497500,20.45149755859375,5.410171985626221,7.719245910644531,-0.38285163044929504
1774656646551286800,20.468286865234376,3.601198196411133,8.449056625366211,-1.0719845294952393
1774656646568076300,20.485076171875,3.9792640209198,7.8388872146606445,-0.25363919138908386
1774656646584865500,20.501865478515626,5.027320384979248,7.331608772277832,-0.2919243574142456
1774656646601654800,20.51865478515625,4.907679080963135,7.83410120010376,-1.0336993932724
1774656646618444000,20.535444091796876,2.833101987838745,8.219346046447754,-0.40677985548973083
1774656646635233300,20.5522333984375,4.618147850036621,7.331608772277832,-0.17946170270442963
1774656646652022500,20.5690224609375,5.259424209594727,7.5565338134765625,-0.7776673436164856
1774656646668811800,20.585811767578125,4.319045066833496,7.867600917816162,-0.7226324677467346
1774656646685601000,20.60260107421875,4.73300313949585,7.238288402557373,0.03349951654672623
1774656646702390300,20.619390380859375,3.5365917682647705,8.413164138793945,-0.4498506486415863
1774656646719179800,20.6361796875,4.043870449066162,8.685946464538574,-1.2921242713928223
1774656646735969000,20.652968994140625,4.012763500213623,8.23130989074707,-0.11724831163883209
1774656646752758300,20.66975830078125,4.701896667480469,7.987242221832275,0.19381862878799438
1774656646769547500,20.686547607421875,4.768895626068115,8.81515884399414,-0.8709874153137207
1774656646786336800,20.703336669921875,5.862415313720703,8.578269004821777,-0.6795616149902344
1774656646803126000,20.7201259765625,4.515256404876709,8.439485549926758,-0.13878370821475983
1774656646819915300,20.736915283203125,3.9050865173339844,8.901300430297852,-0.040677983313798904
1774656646836704500,20.75370458984375,4.816751956939697,9.011369705200195,-0.9547362327575684
1774656646853494000,20.770493896484375,3.7806596755981445,9.083154678344727,-0.4043870270252228
1774656646870283300,20.787283203125,3.9840497970581055,8.57348346710205,0.014356935396790504
1774656646887072500,20.804072509765625,3.730410575866699,9.315258979797363,-0.9284151792526245
1774656646903861800,20.82086181640625,4.709074974060059,8.628518104553223,-0.8925228714942932
1774656646920651000,20.837651123046875,4.156332969665527,8.422736167907715,0.1052841991186142
1774656646937440300,20.854440185546874,5.766702651977539,7.944170951843262,-0.7513462901115417
1774656646954229800,20.871229736328125,5.936593055725098,7.9489569664001465,-1.160519003868103
1774656646971019000,20.88801904296875,3.682554006576538,8.846264839172363,-0.5240281820297241
1774656646987808300,20.904808349609375,4.800002098083496,8.274380683898926,-0.8709874153137207
1774656647004597500,20.921597412109374,5.357530117034912,7.908278942108154,-0.34695929288864136
1774656647021386800,20.93838671875,3.4002010822296143,8.937192916870117,-0.6652047038078308
1774656647038176000,20.955176025390625,3.9792640209198,9.229117393493652,-1.3854442834854126
1774656647054965200,20.97196533203125,5.285745143890381,8.166703224182129,-0.5958128571510315
1774656647071754500,20.98875439453125,4.211368083953857,8.537590980529785,-0.0023928226437419653
1774656647088544000,21.0055439453125,4.675575256347656,9.097511291503906,-1.31365966796875
1774656647105333200,21.022333251953125,5.036891460418701,8.889336585998535,-1.093519926071167
1774656647122122500,21.03912255859375,3.9840497970581055,8.755337715148926,-0.24885354936122894
1774656647138911700,21.055911865234375,4.960321426391602,8.635697364807129,-0.794417142868042
1774656647155701000,21.072700927734374,4.151547431945801,9.245866775512695,-1.275374412536621
1774656647172490200,21.089490234375,5.26181697845459,8.142775535583496,-0.7154539823532104
1774656647189279500,21.106279541015624,3.6323046684265137,8.762516975402832,-0.038285162299871445
1774656647206068700,21.12306884765625,4.807180881500244,9.061619758605957,-1.6821542978286743
1774656647222858200,21.139858154296874,5.213960647583008,8.22413158416748,-0.9236295223236084
1774656647239647500,21.1566474609375,3.4959139823913574,8.669196128845215,0.37806597352027893
1774656647256436700,21.173436767578124,5.60399055480957,8.69791030883789,-1.6103696823120117
1774656647273226000,21.19022607421875,3.4480574131011963,9.561718940734863,-1.3280165195465088
1774656647290015200,21.20701513671875,4.689932346343994,8.468199729919434,-0.02632104977965355
1774656647306804500,21.223804443359374,5.077569484710693,8.382058143615723,-0.7465606927871704
1774656647323593700,21.24059375,4.309473514556885,8.918049812316895,-0.7992027401924133
1774656647340383200,21.25738330078125,4.668396949768066,8.731410026550293,-0.7896314859390259
1774656647357172500,21.27417236328125,4.168296813964844,8.86062240600586,-0.8039883971214294
1774656647373961700,21.290961669921874,5.300102233886719,7.9585280418396,-0.44745782017707825
1774656647390751000,21.3077509765625,4.721039295196533,7.960920810699463,-0.23210379481315613
1774656647407540200,21.324540283203124,4.914857864379883,7.5565338134765625,-0.8015955686569214
1774656647424329500,21.34132958984375,4.280759811401367,7.183253765106201,-0.32542386651039124
1774656647441119000,21.358118896484374,6.52044153213501,6.178267955780029,-0.6436693072319031
1774656647457908200,21.374908203125,8.650053977966309,4.981856822967529,-1.057627558708191
1774656647474697500,21.391697509765624,0.6819544434547424,8.169096946716309,0.20099709928035736
1774656647491486700,21.40848681640625,-4.587040901184082,10.628918647766113,-0.11724831163883209
1774656647508276000,21.42527587890625,4.29033088684082,7.386643409729004,-0.7130611538887024
1774656647525065200,21.442065185546873,6.321837425231934,6.577869415283203,-0.3158525824546814
1774656647541854500,21.4588544921875,0.26560330390930176,9.389435768127441,-0.22971096634864807
1774656647558643700,21.475643798828123,5.5968122482299805,7.824530124664307,-0.97148597240448
1774656647575433000,21.492432861328126,3.730410575866699,8.657232284545898,-0.1746760457754135
1774656647592222500,21.509222412109374,3.0939197540283203,9.236295700073242,-0.15553347766399384
1774656647609011700,21.52601171875,5.505885124206543,8.616554260253906,-0.5599204897880554
1774656647625801000,21.542801025390624,3.06999135017395,9.542576789855957,0.038285162299871445
1774656647642590200,21.559590087890626,3.9912281036376953,9.640682220458984,-0.4378865361213684
