time,seconds_elapsed,z,y,x
1775705930275689500,0.048689453125,-0.3275299072265625,-1.01458740234375,0.259735107421875
1775705930285702100,0.0587021484375,-0.321746826171875,-1.041534423828125,0.203857421875
1775705930295715300,0.06871533203125,-0.428436279296875,-1.10089111328125,0.175201416015625
1775705930305728500,0.078728515625,-0.51043701171875,-1.117889404296875,0.1300506591796875
1775705930315740400,0.088740478515625,-0.5207061767578125,-1.0785980224609375,0.0776519775390625
1775705930325753000,0.098753173828125,-0.51416015625,-1.017669677734375,0.019378662109375
1775705930335766300,0.108766357421875,-0.4817657470703125,-0.9814910888671875,-0.015472412109375
1775705930345779500,0.118779541015625,-0.42230224609375,-0.993621826171875,-0.035247802734375
1775705930355792400,0.12879248046875,-0.353729248046875,-1.0330657958984375,-0.013671875
1775705930365805300,0.138805419921875,-0.28265380859375,-1.0892791748046875,0.058349609375
1775705930375817200,0.148817138671875,-0.2113494873046875,-1.1245269775390625,0.0864715576171875
1775705930385830400,0.158830322265625,-0.1429901123046875,-0.978546142578125,-0.04241943359375
1775705930395843300,0.16884326171875,-0.2190093994140625,-0.7399444580078125,-0.11151123046875
1775705930405856300,0.178856201171875,-0.383270263671875,-0.7116851806640625,-0.0052642822265625
1775705930415869200,0.188869140625,-0.461883544921875,-0.7675628662109375,0.0008544921875
1775705930425882400,0.19888232421875,-0.4860382080078125,-0.80810546875,0.002105712890625
1775705930435894300,0.208894287109375,-0.3329315185546875,-0.870819091796875,0.00445556640625
1775705930445907500,0.218907470703125,-0.281219482421875,-0.83990478515625,-0.015594482421875
1775705930455920000,0.228920166015625,-0.3186492919921875,-0.772186279296875,-0.004425048828125
1775705930465933300,0.238933349609375,-0.3856658935546875,-0.730560302734375,0.0425262451171875
1775705930475946500,0.248946533203125,-0.435821533203125,-0.6998748779296875,0.08892822265625
1775705930485959200,0.258959228515625,-0.3995513916015625,-0.679046630859375,0.1306610107421875
1775705930495971300,0.268971435546875,-0.0596923828125,-0.9273681640625,0.5284423828125
1775705930505984300,0.278984375,-0.2202911376953125,-1.35833740234375,1.359344482421875
1775705930515997400,0.28899755859375,-0.3442535400390625,-1.3712921142578125,1.6799163818359375
1775705930526010400,0.29901025390625,-0.047271728515625,-0.8217315673828125,1.077911376953125
1775705930536023300,0.309023193359375,-0.0689697265625,-0.46636962890625,0.668365478515625
1775705930546035200,0.31903515625,-0.2779693603515625,-0.7610626220703125,0.440216064453125
1775705930556048400,0.32904833984375,-0.30926513671875,-0.873138427734375,0.0619049072265625
1775705930566061300,0.339061279296875,-0.1374969482421875,-0.6710662841796875,0.0799407958984375
1775705930576074200,0.34907421875,-0.06390380859375,-0.6464691162109375,0.145965576171875
1775705930586087200,0.359087158203125,-0.14898681640625,-0.765869140625,0.1742095947265625
1775705930596100400,0.369100341796875,-0.013336181640625,-0.757781982421875,0.22296142578125
1775705930606113500,0.379113525390625,0.0789642333984375,-0.7003326416015625,0.2889404296875
1775705930616125400,0.38912548828125,0.1930389404296875,-0.686798095703125,0.3560028076171875
1775705930626138000,0.39913818359375,0.2739105224609375,-0.72589111328125,0.4785308837890625
1775705930636151300,0.4091513671875,0.0711517333984375,-0.755828857421875,0.5895233154296875
1775705930646164500,0.41916455078125,-0.05389404296875,-0.7570037841796875,0.66571044921875
1775705930656177400,0.429177490234375,-0.0771484375,-0.8073272705078125,0.5881805419921875
1775705930666189300,0.439189208984375,-0.18817138671875,-0.8743133544921875,0.3921051025390625
1775705930676202200,0.4492021484375,-0.1896514892578125,-0.9500885009765625,0.2914886474609375
1775705930686215400,0.45921533203125,-0.16131591796875,-0.9994964599609375,0.2559356689453125
1775705930696228400,0.469228271484375,-0.0600738525390625,-0.9143524169921875,0.2450714111328125
1775705930706241300,0.4792412109375,0.04193115234375,-0.8634490966796875,0.2959442138671875
1775705930716254200,0.489254150390625,0.0944061279296875,-0.8749542236328125,0.3595733642578125
1775705930726267400,0.499267333984375,0.241455078125,-0.953704833984375,0.3264007568359375
1775705930736279300,0.509279296875,0.214019775390625,-0.940521240234375,0.34368896484375
1775705930746292500,0.51929248046875,0.0616912841796875,-0.8743438720703125,0.473419189453125
1775705930756305200,0.52930517578125,0.1141815185546875,-0.940277099609375,0.403167724609375
1775705930766318300,0.539318359375,0.0494842529296875,-0.9498443603515625,0.342803955078125
1775705930776331500,0.54933154296875,0.0402679443359375,-0.9529266357421875,0.391876220703125
1775705930786343400,0.559343505859375,0.0801239013671875,-0.9414825439453125,0.3902435302734375
1775705930796356400,0.5693564453125,0.0638885498046875,-0.9256439208984375,0.3673858642578125
1775705930806369300,0.579369384765625,0.039337158203125,-0.944610595703125,0.3858642578125
1775705930816382500,0.589382568359375,0.024871826171875,-0.9524688720703125,0.3944244384765625
1775705930826395400,0.5993955078125,0.0057525634765625,-0.9288330078125,0.401763916015625
1775705930836408300,0.609408203125,0.0068359375,-0.910888671875,0.408355712890625
1775705930846421200,0.619421142578125,0.0162506103515625,-0.9166717529296875,0.4147186279296875
1775705930856433400,0.629433349609375,0.0280303955078125,-0.933380126953125,0.4268035888671875
1775705930866446300,0.6394462890625,0.0351409912109375,-0.9410400390625,0.40673828125
1775705930876459300,0.649459228515625,0.05657958984375,-0.94415283203125,0.403472900390625
1775705930886472200,0.65947216796875,0.0779266357421875,-0.93768310546875,0.4167022705078125
1775705930896485400,0.6694853515625,0.0645599365234375,-0.9229888916015625,0.407745361328125
1775705930906497300,0.679497314453125,0.04449462890625,-0.918914794921875,0.3874359130859375
1775705930916510500,0.689510498046875,0.0308074951171875,-0.917755126953125,0.3794708251953125
1775705930926523100,0.699523193359375,0.003143310546875,-0.907196044921875,0.388427734375
1775705930936536300,0.709536376953125,-0.0254364013671875,-0.9258880615234375,0.4205780029296875
1775705930946549500,0.719549560546875,-0.0699005126953125,-0.9298553466796875,0.4575653076171875
1775705930956562200,0.729562255859375,-0.0804595947265625,-0.916229248046875,0.4941558837890625
1775705930966575400,0.739575439453125,-0.0998077392578125,-0.902679443359375,0.498992919921875
1775705930976587300,0.749587158203125,-0.112274169921875,-0.8929443359375,0.4750213623046875
1775705930986600400,0.759600341796875,-0.1053009033203125,-0.888458251953125,0.4467315673828125
1775705930996613400,0.76961328125,-0.0814056396484375,-0.899932861328125,0.4199371337890625
1775705931006626300,0.779626220703125,-0.0404205322265625,-0.9056854248046875,0.4132232666015625
1775705931016639200,0.78963916015625,-0.023040771484375,-0.905517578125,0.408966064453125
1775705931026652400,0.79965234375,-0.009857177734375,-0.900146484375,0.3595123291015625
1775705931036664300,0.809664306640625,0.0128326416015625,-0.9088897705078125,0.3277740478515625
1775705931046677200,0.81967724609375,-0.0111236572265625,-0.918975830078125,0.2856903076171875
1775705931056690200,0.829690185546875,-0.002197265625,-0.9384307861328125,0.2808990478515625
1775705931066703400,0.839703369140625,0.0228424072265625,-0.9414825439453125,0.302764892578125
1775705931076716500,0.849716552734375,0.0099029541015625,-0.9430999755859375,0.3128662109375
1775705931086728400,0.859728515625,-0.0272369384765625,-0.9494476318359375,0.3082122802734375
1775705931096740600,0.86974072265625,-0.049560546875,-0.967193603515625,0.29119873046875
1775705931106753500,0.87975341796875,-0.0869293212890625,-0.9601898193359375,0.28704833984375
1775705931116766700,0.8897666015625,-0.0904083251953125,-0.935211181640625,0.3166961669921875
1775705931126779600,0.899779541015625,-0.065765380859375,-0.883392333984375,0.3417510986328125
1775705931136792600,0.90979248046875,-0.0618896484375,-0.852294921875,0.367523193359375
1775705931146805800,0.9198056640625,-0.054229736328125,-0.8619384765625,0.3976898193359375
1775705931156817700,0.929817626953125,-0.0406951904296875,-0.8878936767578125,0.41998291015625
1775705931166830800,0.939830810546875,-0.0145721435546875,-0.8951263427734375,0.4022064208984375
1775705931176843500,0.949843505859375,0.018310546875,-0.883575439453125,0.3608856201171875
1775705931186856700,0.959856689453125,0.0839080810546875,-0.8835906982421875,0.343109130859375
1775705931196869600,0.96986962890625,0.13818359375,-0.88201904296875,0.3340606689453125
1775705931206882800,0.9798828125,0.1848602294921875,-0.878173828125,0.3469390869140625
1775705931216894700,0.989894775390625,0.226531982421875,-0.8508453369140625,0.3938751220703125
1775705931226907600,0.99990771484375,0.2543792724609375,-0.8289947509765625,0.4144287109375
1775705931236920600,1.009920654296875,0.2377166748046875,-0.8095855712890625,0.41766357421875
1775705931246933800,1.019933837890625,0.2613677978515625,-0.8376312255859375,0.466827392578125
1775705931256946700,1.02994677734375,0.2566375732421875,-0.8559722900390625,0.5192108154296875
1775705931266959600,1.039959716796875,0.239959716796875,-0.8404693603515625,0.522796630859375
1775705931276971500,1.049971435546875,0.2339019775390625,-0.8059844970703125,0.5009613037109375
1775705931286984700,1.059984619140625,0.231903076171875,-0.8086700439453125,0.482269287109375
1775705931296997600,1.06999755859375,0.22357177734375,-0.8383636474609375,0.406494140625
1775705931307010600,1.080010498046875,0.2341766357421875,-0.875457763671875,0.3682708740234375
1775705931317023700,1.090023681640625,0.2383575439453125,-0.8830413818359375,0.3466796875
1775705931327036700,1.10003662109375,0.200042724609375,-0.8748321533203125,0.3314361572265625
1775705931337048800,1.110048828125,0.163482666015625,-0.8773345947265625,0.349639892578125
1775705931347061800,1.120061767578125,0.1441650390625,-0.89111328125,0.3858489990234375
1775705931357074700,1.13007470703125,0.1375579833984375,-0.9013214111328125,0.4004364013671875
1775705931367087600,1.140087646484375,0.123443603515625,-0.90472412109375,0.388397216796875
1775705931377100800,1.150100830078125,0.1114501953125,-0.9221038818359375,0.3585968017578125
1775705931387113500,1.160113525390625,0.09918212890625,-0.947998046875,0.3470458984375
1775705931397125600,1.170125732421875,0.07843017578125,-0.9549407958984375,0.3726348876953125
1775705931407138600,1.180138671875,0.074371337890625,-0.9421844482421875,0.3921966552734375
1775705931417151700,1.19015185546875,0.1056976318359375,-0.92498779296875,0.40081787109375
1775705931427164700,1.20016455078125,0.1625518798828125,-0.9199676513671875,0.4196319580078125
1775705931437177600,1.210177490234375,0.17633056640625,-0.9116668701171875,0.4121551513671875
1775705931447190800,1.220190673828125,0.185699462890625,-0.9031982421875,0.420013427734375
1775705931457202700,1.23020263671875,0.2018890380859375,-0.890167236328125,0.4649505615234375
1775705931467216000,1.2402158203125,0.2031707763671875,-0.8634033203125,0.5020904541015625
1775705931477228500,1.250228515625,0.227996826171875,-0.83935546875,0.5084075927734375
1775705931487241700,1.26024169921875,0.265960693359375,-0.836334228515625,0.533233642578125
1775705931497254700,1.270254638671875,0.268310546875,-0.8610992431640625,0.60467529296875
1775705931507267800,1.280267822265625,0.2442169189453125,-0.887786865234375,0.6722259521484375
1775705931517279700,1.29027978515625,0.1739959716796875,-0.8879852294921875,0.662811279296875
1775705931527292700,1.300292724609375,0.120330810546875,-0.8898773193359375,0.5978546142578125
1775705931537305600,1.3103056640625,0.0837249755859375,-0.9058837890625,0.491607666015625
1775705931547318800,1.32031884765625,0.06219482421875,-0.909027099609375,0.3696136474609375
1775705931557331500,1.33033154296875,0.061065673828125,-0.9390411376953125,0.31903076171875
1775705931567344600,1.3403447265625,0.0475616455078125,-0.99102783203125,0.3580780029296875
1775705931577356500,1.3503564453125,0.020782470703125,-1.007843017578125,0.4164276123046875
1775705931587369700,1.36036962890625,-0.0094146728515625,-1.0298614501953125,0.474945068359375
1775705931597382700,1.370382568359375,0.009735107421875,-1.1170501708984375,0.56756591796875
1775705931607395600,1.3803955078125,0.0224151611328125,-1.1455841064453125,0.6094970703125
1775705931617408800,1.39040869140625,0.0298004150390625,-1.1562652587890625,0.623809814453125
1775705931627421700,1.400421630859375,0.0095672607421875,-1.1625823974609375,0.6410980224609375
1775705931637434600,1.4104345703125,-0.0378570556640625,-1.1858673095703125,0.68536376953125
1775705931647446500,1.420446533203125,-0.086090087890625,-1.2495269775390625,0.752593994140625
1775705931657459700,1.430459716796875,-0.1214599609375,-1.2674102783203125,0.779754638671875
1775705931667472600,1.44047265625,-0.12481689453125,-1.2448577880859375,0.7686767578125
1775705931677485800,1.45048583984375,-0.133148193359375,-1.2044677734375,0.7357635498046875
1775705931687498500,1.46049853515625,-0.137481689453125,-1.1631317138671875,0.68939208984375
1775705931697511700,1.47051171875,-0.1280517578125,-1.120269775390625,0.65740966796875
1775705931707523600,1.480523681640625,-0.1128082275390625,-1.0940399169921875,0.6541290283203125
1775705931717536800,1.490536865234375,-0.076873779296875,-1.0764312744140625,0.6783294677734375
1775705931727549400,1.500549560546875,-0.026885986328125,-1.0487518310546875,0.6875762939453125
1775705931737562600,1.510562744140625,0.00970458984375,-1.0333251953125,0.6690521240234375
1775705931747575800,1.520575927734375,0.0439453125,-1.023529052734375,0.6273193359375
1775705931757588700,1.530588623046875,0.08349609375,-0.9872283935546875,0.5711822509765625
1775705931767601000,1.540600830078125,0.119171142578125,-0.9304046630859375,0.5123748779296875
1775705931777613600,1.550613525390625,0.1679840087890625,-0.926727294921875,0.49078369140625
1775705931787626800,1.560626708984375,0.1974334716796875,-0.9049835205078125,0.4468841552734375
1775705931797639700,1.5706396484375,0.2246856689453125,-0.8470001220703125,0.3918609619140625
1775705931807652600,1.580652587890625,0.22979736328125,-0.806427001953125,0.3496856689453125
1775705931817665500,1.59066552734375,0.24591064453125,-0.7947998046875,0.34576416015625
1775705931827677700,1.600677734375,0.2587738037109375,-0.7793731689453125,0.3723297119140625
1775705931837690600,1.610690673828125,0.264007568359375,-0.762054443359375,0.39007568359375
1775705931847703800,1.620703857421875,0.2680511474609375,-0.7435455322265625,0.378662109375
1775705931857716500,1.630716552734375,0.2356719970703125,-0.716766357421875,0.3467559814453125
1775705931867729700,1.640729736328125,0.2055206298828125,-0.7044677734375,0.3245086669921875
1775705931877742800,1.650742919921875,0.1903839111328125,-0.6825408935546875,0.2834320068359375
1775705931887754800,1.660754638671875,0.178863525390625,-0.6659393310546875,0.2399139404296875
1775705931897767400,1.670767333984375,0.1587982177734375,-0.662078857421875,0.2144775390625
1775705931907780600,1.680780517578125,0.1305084228515625,-0.6668701171875,0.2133331298828125
1775705931917793800,1.690793701171875,0.098114013671875,-0.6666259765625,0.2332000732421875
1775705931927806700,1.700806640625,0.09478759765625,-0.665313720703125,0.240203857421875
1775705931937819600,1.710819580078125,0.1079864501953125,-0.6608734130859375,0.217498779296875
1775705931947831600,1.72083154296875,0.128662109375,-0.6556549072265625,0.19891357421875
1775705931957844700,1.7308447265625,0.16314697265625,-0.654876708984375,0.2086181640625
1775705931967857700,1.740857666015625,0.183013916015625,-0.65496826171875,0.2106475830078125
1775705931977870600,1.75087060546875,0.1959686279296875,-0.6668243408203125,0.21820068359375
1775705931987883500,1.760883544921875,0.205963134765625,-0.68450927734375,0.236846923828125
1775705931997896700,1.770896728515625,0.2005615234375,-0.701568603515625,0.244873046875
1775705932007908600,1.78090869140625,0.206573486328125,-0.7060394287109375,0.2417755126953125
1775705932017921800,1.790921875,0.2008056640625,-0.7112274169921875,0.226287841796875
1775705932027934500,1.8009345703125,0.1945343017578125,-0.7248077392578125,0.213897705078125
1775705932037947600,1.81094775390625,0.1905670166015625,-0.7423248291015625,0.2204132080078125
1775705932047960800,1.8209609375,0.1762237548828125,-0.755645751953125,0.237823486328125
1775705932057973500,1.830973388671875,0.1568450927734375,-0.771087646484375,0.2463836669921875
1775705932067986700,1.840986572265625,0.147308349609375,-0.789154052734375,0.2461090087890625
1775705932077998600,1.85099853515625,0.1591339111328125,-0.808258056640625,0.2484588623046875
1775705932088011500,1.861011474609375,0.1840057373046875,-0.8214874267578125,0.2669219970703125
1775705932098024400,1.8710244140625,0.18536376953125,-0.835235595703125,0.2913665771484375
1775705932108037400,1.881037353515625,0.18408203125,-0.843231201171875,0.3064117431640625
1775705932118050300,1.89105029296875,0.17559814453125,-0.853302001953125,0.3141937255859375
1775705932128063500,1.9010634765625,0.1549072265625,-0.8790740966796875,0.337493896484375
1775705932138075400,1.911075439453125,0.146453857421875,-0.896392822265625,0.3706817626953125
1775705932148088600,1.921088623046875,0.1412506103515625,-0.9072723388671875,0.3938140869140625
1775705932158101200,1.931101318359375,0.1279449462890625,-0.908477783203125,0.4043426513671875
1775705932168114400,1.941114501953125,0.122314453125,-0.9161529541015625,0.4068145751953125
1775705932178127600,1.951127685546875,0.1184539794921875,-0.92071533203125,0.407257080078125
1775705932188140300,1.961140380859375,0.126953125,-0.91259765625,0.4105682373046875
1775705932198152200,1.971152099609375,0.1444244384765625,-0.906005859375,0.4166717529296875
1775705932208165400,1.981165283203125,0.1563720703125,-0.901702880859375,0.413238525390625
1775705932218178600,1.991178466796875,0.169525146484375,-0.8974151611328125,0.4191131591796875
1775705932228191500,2.00119140625,0.172882080078125,-0.8897857666015625,0.44732666015625
1775705932238204400,2.011204345703125,0.157745361328125,-0.8840484619140625,0.4840087890625
1775705932248217300,2.02121728515625,0.132904052734375,-0.8651885986328125,0.4969482421875
1775705932258229500,2.0312294921875,0.123016357421875,-0.8506622314453125,0.498779296875
1775705932268242400,2.041242431640625,0.1337127685546875,-0.840484619140625,0.4868011474609375
1775705932278255400,2.05125537109375,0.1599884033203125,-0.8245849609375,0.4557342529296875
1775705932288268300,2.061268310546875,0.18023681640625,-0.8134613037109375,0.4310455322265625
1775705932298281500,2.071281494140625,0.190643310546875,-0.818084716796875,0.4184112548828125
1775705932308294400,2.08129443359375,0.180511474609375,-0.80963134765625,0.38433837890625
1775705932318306600,2.091306640625,0.18902587890625,-0.807464599609375,0.3829345703125
1775705932328319200,2.1013193359375,0.1767578125,-0.8175506591796875,0.4119415283203125
1775705932338332400,2.11133251953125,0.1721649169921875,-0.840789794921875,0.4391326904296875
1775705932348345600,2.121345703125,0.17633056640625,-0.8907318115234375,0.4554901123046875
1775705932358358300,2.131358154296875,0.164764404296875,-0.921356201171875,0.4608306884765625
1775705932368371500,2.141371337890625,0.1751861572265625,-0.9600982666015625,0.477447509765625
1775705932378384400,2.15138427734375,0.183349609375,-0.9885406494140625,0.47412109375
1775705932388396500,2.161396484375,0.1997528076171875,-0.9935150146484375,0.459625244140625
1775705932398409500,2.171409423828125,0.22283935546875,-0.9947967529296875,0.4441375732421875
1775705932408422400,2.18142236328125,0.2342987060546875,-0.9925689697265625,0.4396514892578125
1775705932418435300,2.191435302734375,0.2104339599609375,-1.0022735595703125,0.4799346923828125
1775705932428448500,2.201448486328125,0.1585235595703125,-1.028472900390625,0.5433349609375
1775705932438461200,2.211461181640625,0.110809326171875,-1.02154541015625,0.5771942138671875
1775705932448473300,2.221473388671875,0.069061279296875,-1.0114898681640625,0.6070098876953125
1775705932458486300,2.231486328125,0.0439910888671875,-1.01068115234375,0.6370391845703125
1775705932468499500,2.24149951171875,0.0491485595703125,-0.9916839599609375,0.6522674560546875
1775705932478512600,2.2515126953125,0.0691070556640625,-0.972503662109375,0.6630401611328125
1775705932488525300,2.261525390625,0.088623046875,-0.9536895751953125,0.6684112548828125
1775705932498538500,2.27153857421875,0.1051788330078125,-0.9231109619140625,0.66461181640625
1775705932508550400,2.28155029296875,0.112091064453125,-0.906890869140625,0.6742706298828125
1775705932518563600,2.2915634765625,0.1053009033203125,-0.8985443115234375,0.6782379150390625
1775705932528576300,2.301576171875,0.1056671142578125,-0.8755035400390625,0.676605224609375
1775705932538589400,2.31158935546875,0.1069793701171875,-0.86083984375,0.675628662109375
1775705932548602400,2.321602294921875,0.1007537841796875,-0.8596954345703125,0.6721343994140625
1775705932558615600,2.331615478515625,0.1063995361328125,-0.8572235107421875,0.6649932861328125
1775705932568627500,2.34162744140625,0.1092376708984375,-0.856201171875,0.6449432373046875
1775705932578640400,2.351640380859375,0.1211395263671875,-0.860015869140625,0.612335205078125
1775705932588653300,2.3616533203125,0.1474151611328125,-0.8580169677734375,0.5798187255859375
1775705932598666500,2.37166650390625,0.1632537841796875,-0.853668212890625,0.5509033203125
1775705932608679200,2.38167919921875,0.1571044921875,-0.8515777587890625,0.5338592529296875
1775705932618692400,2.3916923828125,0.1462249755859375,-0.853973388671875,0.5184326171875
1775705932628705500,2.40170556640625,0.1362457275390625,-0.8616180419921875,0.511444091796875
1775705932638717400,2.411717529296875,0.13763427734375,-0.8669891357421875,0.5138092041015625
1775705932648730600,2.421730712890625,0.130401611328125,-0.8628997802734375,0.50146484375
1775705932658743300,2.431743408203125,0.122283935546875,-0.860931396484375,0.4771728515625
1775705932668756500,2.441756591796875,0.119720458984375,-0.8634490966796875,0.462310791015625
1775705932678769400,2.451769287109375,0.1195831298828125,-0.867767333984375,0.4637603759765625
1775705932688782300,2.4617822265625,0.1091156005859375,-0.869293212890625,0.4616851806640625
1775705932698794200,2.471794189453125,0.10540771484375,-0.871429443359375,0.453704833984375
1775705932708807400,2.481807373046875,0.09930419921875,-0.8730926513671875,0.4374237060546875
1775705932718820400,2.4918203125,0.0974884033203125,-0.8692474365234375,0.4214019775390625
1775705932728833500,2.50183349609375,0.09405517578125,-0.8665618896484375,0.40826416015625
1775705932738846200,2.51184619140625,0.096160888671875,-0.867767333984375,0.397003173828125
1775705932748859400,2.521859375,0.114044189453125,-0.869598388671875,0.381927490234375
1775705932758871300,2.531871337890625,0.12445068359375,-0.8647918701171875,0.3600006103515625
1775705932768884500,2.541884521484375,0.1497802734375,-0.8674774169921875,0.3509674072265625
1775705932778897400,2.5518974609375,0.1483612060546875,-0.8773956298828125,0.351470947265625
1775705932788910300,2.561910400390625,0.140228271484375,-0.8914031982421875,0.3606109619140625
1775705932798923500,2.571923583984375,0.14459228515625,-0.9004364013671875,0.37042236328125
1775705932808936400,2.5819365234375,0.14910888671875,-0.9009246826171875,0.3700103759765625
1775705932818949400,2.591949462890625,0.158050537109375,-0.8926239013671875,0.356109619140625
1775705932828961300,2.601961181640625,0.1728363037109375,-0.881683349609375,0.3442230224609375
1775705932838974500,2.611974365234375,0.156982421875,-0.8884429931640625,0.3368072509765625
1775705932848987400,2.6219873046875,0.14501953125,-0.916778564453125,0.34100341796875
1775705932859000300,2.632000244140625,0.1417083740234375,-0.92431640625,0.3442535400390625
1775705932869013200,2.64201318359375,0.1411895751953125,-0.91912841796875,0.3505706787109375
1775705932879026400,2.6520263671875,0.1387176513671875,-0.924102783203125,0.3623199462890625
1775705932889038300,2.662038330078125,0.14447021484375,-0.92938232421875,0.370208740234375
1775705932899051500,2.672051513671875,0.1683807373046875,-0.9260711669921875,0.37451171875
1775705932909064200,2.682064208984375,0.1794281005859375,-0.9244232177734375,0.36944580078125
1775705932919077400,2.692077392578125,0.1889495849609375,-0.921417236328125,0.3673858642578125
1775705932929090600,2.702090576171875,0.180023193359375,-0.9154510498046875,0.3787994384765625
1775705932939103500,2.712103515625,0.1498260498046875,-0.91229248046875,0.3899383544921875
1775705932949115400,2.722115478515625,0.1315765380859375,-0.9039764404296875,0.4016571044921875
1775705932959128300,2.73212841796875,0.122467041015625,-0.88653564453125,0.41046142578125
1775705932969141500,2.7421416015625,0.12274169921875,-0.870208740234375,0.4212188720703125
1775705932979154400,2.752154541015625,0.1137237548828125,-0.8626556396484375,0.43572998046875
1775705932989167400,2.76216748046875,0.1013946533203125,-0.8578948974609375,0.4477081298828125
1775705932999180300,2.77218017578125,0.09814453125,-0.8624420166015625,0.4617156982421875
1775705933009193500,2.782193359375,0.0977935791015625,-0.863800048828125,0.4662322998046875
1775705933019205400,2.792205322265625,0.1080780029296875,-0.863037109375,0.4582061767578125
1775705933029218600,2.802218505859375,0.1114959716796875,-0.8683013916015625,0.4500885009765625
1775705933039231200,2.812231201171875,0.121002197265625,-0.8645782470703125,0.440216064453125
1775705933049244400,2.822244384765625,0.135284423828125,-0.85986328125,0.4290008544921875
1775705933059257600,2.832257568359375,0.1471099853515625,-0.862091064453125,0.4266510009765625
1775705933069270300,2.842270263671875,0.14794921875,-0.8677520751953125,0.41973876953125
1775705933079282400,2.852282470703125,0.1619720458984375,-0.86419677734375,0.4185333251953125
1775705933089296000,2.8622958984375,0.1640167236328125,-0.8593902587890625,0.424530029296875
1775705933099308800,2.872308837890625,0.157745361328125,-0.8604736328125,0.42822265625
1775705933109321700,2.88232177734375,0.1591796875,-0.8570404052734375,0.436279296875
1775705933119334700,2.892334716796875,0.164459228515625,-0.8508758544921875,0.443145751953125
1775705933129347800,2.902347900390625,0.172149658203125,-0.8493499755859375,0.451019287109375
1775705933139359700,2.91235986328125,0.1656951904296875,-0.8531951904296875,0.447235107421875
1775705933149373000,2.922373046875,0.1760406494140625,-0.860260009765625,0.437347412109375
1775705933159385600,2.932385498046875,0.1867523193359375,-0.8614959716796875,0.4369049072265625
1775705933169398800,2.942398681640625,0.1967620849609375,-0.86529541015625,0.442352294921875
1775705933179412000,2.952411865234375,0.193634033203125,-0.86859130859375,0.451812744140625
1775705933189424600,2.962424560546875,0.183197021484375,-0.87939453125,0.45526123046875
1775705933199437800,2.972437744140625,0.18121337890625,-0.88287353515625,0.448211669921875
1775705933209449700,2.98244970703125,0.1822509765625,-0.881561279296875,0.4445648193359375
1775705933219463000,2.992462890625,0.1815032958984375,-0.8741302490234375,0.439697265625
1775705933229475800,3.002475830078125,0.1815185546875,-0.8606414794921875,0.4386138916015625
1775705933239488800,3.01248876953125,0.1862030029296875,-0.861846923828125,0.447998046875
1775705933249501700,3.022501708984375,0.183319091796875,-0.8670501708984375,0.4621429443359375
1775705933259515000,3.032514892578125,0.1789093017578125,-0.8674774169921875,0.4713134765625
1775705933269526800,3.04252685546875,0.1704254150390625,-0.8674468994140625,0.47412109375
1775705933279539700,3.052539794921875,0.164031982421875,-0.8627777099609375,0.474212646484375
1775705933289552600,3.062552734375,0.16461181640625,-0.8575592041015625,0.4747314453125
1775705933299565800,3.07256591796875,0.17041015625,-0.8526763916015625,0.472869873046875
1775705933309579000,3.0825791015625,0.173095703125,-0.844085693359375,0.466339111328125
1775705933319591700,3.092591796875,0.173492431640625,-0.8411102294921875,0.458740234375
1775705933329604900,3.10260498046875,0.16888427734375,-0.8493499755859375,0.4658660888671875
1775705933339616800,3.11261669921875,0.157379150390625,-0.85626220703125,0.4768218994140625
1775705933349630000,3.1226298828125,0.1544342041015625,-0.85968017578125,0.4821319580078125
1775705933359642600,3.132642578125,0.1470184326171875,-0.866607666015625,0.4869384765625
1775705933369655800,3.14265576171875,0.1313323974609375,-0.8734588623046875,0.4807281494140625
1775705933379668700,3.152668701171875,0.1273651123046875,-0.874053955078125,0.4658355712890625
1775705933389682000,3.162681884765625,0.141845703125,-0.871612548828125,0.4474029541015625
1775705933399693800,3.17269384765625,0.1541748046875,-0.8756103515625,0.442901611328125
1775705933409706800,3.182706787109375,0.15216064453125,-0.8807830810546875,0.4455718994140625
1775705933419719700,3.1927197265625,0.1459197998046875,-0.88262939453125,0.44354248046875
1775705933429732900,3.20273291015625,0.1380615234375,-0.8804168701171875,0.44232177734375
1775705933439745800,3.212745849609375,0.1282501220703125,-0.8705291748046875,0.4402618408203125
1775705933449758700,3.2227587890625,0.1269073486328125,-0.8729095458984375,0.447174072265625
1775705933459772000,3.23277197265625,0.1258087158203125,-0.8845062255859375,0.451080322265625
1775705933469783800,3.24278369140625,0.1294708251953125,-0.886077880859375,0.4525146484375
1775705933479797000,3.252796875,0.1393280029296875,-0.8898773193359375,0.45098876953125
1775705933489809700,3.2628095703125,0.1556243896484375,-0.8866119384765625,0.4371185302734375
1775705933499822800,3.27282275390625,0.1751251220703125,-0.8766021728515625,0.43115234375
1775705933509835800,3.282835693359375,0.1808319091796875,-0.8752593994140625,0.4236907958984375
1775705933519848700,3.2928486328125,0.181121826171875,-0.87481689453125,0.421875
1775705933529860600,3.302860595703125,0.17498779296875,-0.8730621337890625,0.426422119140625
1775705933539873800,3.312873779296875,0.154296875,-0.8765411376953125,0.4352569580078125
1775705933549886700,3.32288671875,0.1373443603515625,-0.8754730224609375,0.4474029541015625
1775705933559900000,3.33289990234375,0.135833740234375,-0.8666534423828125,0.44775390625
1775705933569912600,3.34291259765625,0.1393280029296875,-0.8537445068359375,0.441619873046875
1775705933579925800,3.35292578125,0.1423797607421875,-0.8443145751953125,0.4426727294921875
1775705933589939000,3.36293896484375,0.1426544189453125,-0.84521484375,0.43841552734375
1775705933599950800,3.372950927734375,0.14190673828125,-0.84368896484375,0.4322357177734375
1775705933609963800,3.3829638671875,0.1441192626953125,-0.84210205078125,0.4361572265625
1775705933619976700,3.392976806640625,0.140411376953125,-0.8421630859375,0.4299468994140625
1775705933629990000,3.402989990234375,0.148040771484375,-0.8433380126953125,0.4234161376953125
1775705933640002800,3.4130029296875,0.149932861328125,-0.83868408203125,0.427581787109375
1775705933650015700,3.423015625,0.153228759765625,-0.84503173828125,0.44427490234375
1775705933660027600,3.433027587890625,0.151947021484375,-0.8669281005859375,0.453948974609375
1775705933670040800,3.443040771484375,0.15374755859375,-0.874481201171875,0.4423980712890625
1775705933680053800,3.4530537109375,0.1558837890625,-0.8761749267578125,0.4251556396484375
1775705933690066700,3.463066650390625,0.1649017333984375,-0.8867950439453125,0.412384033203125
1775705933700079600,3.47307958984375,0.17620849609375,-0.8927001953125,0.3907623291015625
1775705933710092800,3.4830927734375,0.18609619140625,-0.8956298828125,0.3677825927734375
1775705933720106000,3.49310595703125,0.19000244140625,-0.904876708984375,0.3450927734375
1775705933730118000,3.503117919921875,0.19097900390625,-0.911346435546875,0.3450927734375
1775705933740130800,3.513130859375,0.1769866943359375,-0.9068145751953125,0.354400634765625
1775705933750143700,3.523143798828125,0.1589508056640625,-0.9117279052734375,0.367462158203125
1775705933760157000,3.533156982421875,0.13897705078125,-0.9079437255859375,0.375946044921875
1775705933770169900,3.543169921875,0.13861083984375,-0.8939056396484375,0.3805999755859375
1775705933780182800,3.553182861328125,0.1602783203125,-0.8905029296875,0.3845062255859375
1775705933790195700,3.56319580078125,0.175018310546875,-0.8977813720703125,0.3966064453125
1775705933800208000,3.573207763671875,0.168487548828125,-0.904754638671875,0.4107818603515625
1775705933810220800,3.583220703125,0.1592559814453125,-0.9019317626953125,0.4234161376953125
1775705933820233700,3.593233642578125,0.13946533203125,-0.8930206298828125,0.4344635009765625
1775705933830246700,3.60324658203125,0.123443603515625,-0.888427734375,0.451904296875
1775705933840259800,3.613259765625,0.11712646484375,-0.882080078125,0.46734619140625
1775705933850272800,3.623272705078125,0.1069183349609375,-0.8712310791015625,0.473876953125
1775705933860285000,3.633284912109375,0.0936431884765625,-0.86541748046875,0.4888153076171875
1775705933870297600,3.643297607421875,0.07830810546875,-0.85992431640625,0.497802734375
1775705933880310800,3.653310791015625,0.0782318115234375,-0.8816070556640625,0.509490966796875
1775705933890324000,3.663323974609375,0.065185546875,-0.9193878173828125,0.5246734619140625
1775705933900336600,3.673336669921875,0.0601348876953125,-0.9502716064453125,0.5279693603515625
1775705933910349800,3.683349853515625,0.0765380859375,-0.981597900390625,0.5302734375
1775705933920362800,3.69336279296875,0.1104736328125,-1.013702392578125,0.5406494140625
1775705933930375000,3.703375,0.149383544921875,-1.040374755859375,0.551239013671875
1775705933940387800,3.713387939453125,0.179412841796875,-1.067535400390625,0.569305419921875
1775705933950400800,3.72340087890625,0.179656982421875,-1.1227264404296875,0.603240966796875
1775705933960413700,3.73341357421875,0.1564788818359375,-1.18353271484375,0.6520538330078125
1775705933970427000,3.743427001953125,0.1368865966796875,-1.2303009033203125,0.701568603515625
1775705933980439800,3.753439697265625,0.14654541015625,-1.2621612548828125,0.7136077880859375
1775705933990451700,3.76345166015625,0.18994140625,-1.268890380859375,0.685943603515625
1775705934000464600,3.773464599609375,0.2377166748046875,-1.257110595703125,0.636932373046875
1775705934010477800,3.783477783203125,0.2574005126953125,-1.2391815185546875,0.5826263427734375
1775705934020491000,3.793490966796875,0.2510223388671875,-1.187286376953125,0.533203125
1775705934030503700,3.803503662109375,0.2314605712890625,-1.1398468017578125,0.5204010009765625
1775705934040516900,3.813516845703125,0.1911468505859375,-1.0986175537109375,0.5445556640625
1775705934050529800,3.82352978515625,0.127349853515625,-1.052154541015625,0.589141845703125
1775705934060542000,3.8335419921875,0.0626220703125,-1.0131988525390625,0.6381683349609375
1775705934070554600,3.8435546875,0.0303955078125,-0.9849853515625,0.660980224609375
1775705934080567800,3.85356787109375,0.0237884521484375,-0.973876953125,0.6733856201171875
1775705934090581200,3.863581298828125,0.042510986328125,-0.97296142578125,0.662445068359375
1775705934100594000,3.873593994140625,0.1002044677734375,-0.9708404541015625,0.628814697265625
1775705934110607000,3.883607177734375,0.142791748046875,-0.9710845947265625,0.59149169921875
1775705934120620000,3.8936201171875,0.17462158203125,-0.98199462890625,0.555511474609375
1775705934130632200,3.903632080078125,0.2048492431640625,-0.997711181640625,0.52783203125
1775705934140645000,3.91364501953125,0.2356719970703125,-0.9893035888671875,0.475372314453125
1775705934150658000,3.923657958984375,0.2418975830078125,-0.973297119140625,0.4207000732421875
1775705934160671000,3.9336708984375,0.2065582275390625,-0.9642486572265625,0.40399169921875
1775705934170684200,3.94368408203125,0.1498260498046875,-0.9429931640625,0.4155426025390625
1775705934180697000,3.953697021484375,0.0972442626953125,-0.931854248046875,0.440643310546875
1775705934190710000,3.9637099609375,0.049560546875,-0.9305267333984375,0.46673583984375
1775705934200722000,3.973721923828125,0.0400238037109375,-0.9241790771484375,0.49127197265625
1775705934210735000,3.983735107421875,0.058624267578125,-0.922210693359375,0.508575439453125
1775705934220748300,3.993748291015625,0.08062744140625,-0.9264678955078125,0.5302581787109375
1775705934230761000,4.003760986328125,0.1004180908203125,-0.9281158447265625,0.5521240234375
1775705934240774100,4.013774169921875,0.134735107421875,-0.918609619140625,0.5782012939453125
1775705934250787000,4.023787109375,0.1662750244140625,-0.8946075439453125,0.57598876953125
1775705934260799200,4.03379931640625,0.1844024658203125,-0.879119873046875,0.5527801513671875
1775705934270812200,4.043812255859375,0.17608642578125,-0.8710479736328125,0.5322418212890625
1775705934280825000,4.0538251953125,0.1539764404296875,-0.86920166015625,0.5089111328125
1775705934290838000,4.063838134765625,0.1187286376953125,-0.8512420654296875,0.475341796875
1775705934300851200,4.073851318359375,0.0837249755859375,-0.817291259765625,0.456512451171875
1775705934310864000,4.08386376953125,0.0801239013671875,-0.7947540283203125,0.4568939208984375
1775705934320877000,4.093876953125,0.0684967041015625,-0.7786712646484375,0.4414825439453125
1775705934330889000,4.103888916015625,0.0629425048828125,-0.770538330078125,0.4208526611328125
1775705934340902100,4.113902099609375,0.072967529296875,-0.7763824462890625,0.4282684326171875
1775705934350915000,4.1239150390625,0.097320556640625,-0.7767333984375,0.43310546875
1775705934360928000,4.133927978515625,0.117584228515625,-0.765716552734375,0.42041015625
1775705934370941200,4.143941162109375,0.1639404296875,-0.7700958251953125,0.4133453369140625
1775705934380954000,4.1539541015625,0.2079925537109375,-0.7734375,0.417327880859375
1775705934390967000,4.163967041015625,0.2313690185546875,-0.77984619140625,0.417633056640625
1775705934400979000,4.17397900390625,0.2238311767578125,-0.78839111328125,0.43487548828125
1775705934410992000,4.1839921875,0.2156219482421875,-0.782958984375,0.4643707275390625
1775705934421005000,4.194005126953125,0.2108306884765625,-0.7818145751953125,0.4916534423828125
1775705934431018200,4.204018310546875,0.191314697265625,-0.77490234375,0.4957122802734375
1775705934441031000,4.214031005859375,0.1866302490234375,-0.77239990234375,0.505706787109375
1775705934451044000,4.224044189453125,0.1875457763671875,-0.7701873779296875,0.5037689208984375
1775705934461056000,4.234055908203125,0.154510498046875,-0.783355712890625,0.514495849609375
1775705934471069200,4.244069091796875,0.1210784912109375,-0.7932586669921875,0.5319366455078125
1775705934481081900,4.254081787109375,0.1148681640625,-0.792724609375,0.5249176025390625
1775705934491095000,4.264094970703125,0.1249847412109375,-0.8102569580078125,0.5109405517578125
1775705934501108200,4.274108154296875,0.111663818359375,-0.816436767578125,0.5102691650390625
1775705934511121200,4.28412109375,0.0950775146484375,-0.808868408203125,0.52099609375
1775705934521134000,4.294134033203125,0.105499267578125,-0.789825439453125,0.5259857177734375
1775705934531146000,4.30414599609375,0.1190032958984375,-0.781768798828125,0.5496673583984375
1775705934541159200,4.3141591796875,0.1089630126953125,-0.7937164306640625,0.5698699951171875
1775705934551172000,4.324172119140625,0.0912322998046875,-0.7967681884765625,0.5826416015625
1775705934561185000,4.33418505859375,0.063385009765625,-0.7965240478515625,0.5822906494140625
1775705934571198000,4.344197998046875,0.0614166259765625,-0.8006591796875,0.542724609375
1775705934581211100,4.354211181640625,0.085113525390625,-0.7922515869140625,0.4984283447265625
1775705934591224300,4.364224365234375,0.11163330078125,-0.7816925048828125,0.488433837890625
1775705934601236200,4.374236328125,0.124755859375,-0.77996826171875,0.4983062744140625
1775705934611249000,4.384248779296875,0.1158294677734375,-0.7823638916015625,0.50189208984375
1775705934621262000,4.394261962890625,0.134735107421875,-0.7902679443359375,0.5051116943359375
1775705934631275300,4.404275146484375,0.1204376220703125,-0.7971954345703125,0.521026611328125
1775705934641288000,4.414287841796875,0.11517333984375,-0.8042449951171875,0.5446929931640625
1775705934651301000,4.424301025390625,0.111419677734375,-0.8091583251953125,0.5642242431640625
1775705934661314000,4.43431396484375,0.113861083984375,-0.780426025390625,0.568389892578125
1775705934671326200,4.444326171875,0.1210479736328125,-0.7693939208984375,0.5564422607421875
1775705934681339100,4.454339111328125,0.1350250244140625,-0.763824462890625,0.5220947265625
1775705934691352000,4.46435205078125,0.1555023193359375,-0.764190673828125,0.4899444580078125
1775705934701365000,4.474364990234375,0.1760101318359375,-0.7880401611328125,0.4837646484375
1775705934711378200,4.484378173828125,0.1953277587890625,-0.798187255859375,0.476409912109375
1775705934721390800,4.494390869140625,0.208221435546875,-0.7972412109375,0.4682769775390625
1775705934731404000,4.504404052734375,0.2435760498046875,-0.8088226318359375,0.4603424072265625
1775705934741416000,4.514416015625,0.29058837890625,-0.8096771240234375,0.4496612548828125
1775705934751429000,4.52442919921875,0.3405303955078125,-0.80194091796875,0.4492034912109375
1775705934761442300,4.5344423828125,0.3986358642578125,-0.78656005859375,0.4643402099609375
1775705934771455000,4.544455078125,0.423553466796875,-0.74749755859375,0.4572296142578125
1775705934781468200,4.55446826171875,0.410797119140625,-0.7415924072265625,0.460113525390625
1775705934791481000,4.564481201171875,0.3700103759765625,-0.7164764404296875,0.44891357421875
1775705934801494000,4.574493896484375,0.3546295166015625,-0.6681365966796875,0.41876220703125
1775705934811506000,4.584505859375,0.3650970458984375,-0.6269989013671875,0.423065185546875
1775705934821519000,4.59451904296875,0.35736083984375,-0.6069183349609375,0.43414306640625
1775705934831532000,4.604531982421875,0.38275146484375,-0.561737060546875,0.4155731201171875
1775705934841545200,4.614545166015625,0.389923095703125,-0.4924774169921875,0.3915863037109375
1775705934851558000,4.624557861328125,0.360809326171875,-0.4426727294921875,0.3660888671875
1775705934861571000,4.634571044921875,0.320220947265625,-0.40472412109375,0.3416900634765625
1775705934871584300,4.644584228515625,0.30718994140625,-0.3813018798828125,0.292205810546875
1775705934881596200,4.65459619140625,0.3254241943359375,-0.3453521728515625,0.2390289306640625
1775705934891609000,4.664609130859375,0.2905426025390625,-0.3624114990234375,0.2512359619140625
1775705934901622000,4.6746220703125,0.228759765625,-0.41552734375,0.2882537841796875
1775705934911635200,4.68463525390625,0.201629638671875,-0.41943359375,0.323944091796875
1775705934921648000,4.694648193359375,0.2118072509765625,-0.3930511474609375,0.3214569091796875
1775705934931661000,4.7046611328125,0.2415008544921875,-0.3721466064453125,0.2934722900390625
1775705934941673000,4.7146728515625,0.243927001953125,-0.3681640625,0.2686004638671875
1775705934951686100,4.72468603515625,0.1947479248046875,-0.3614044189453125,0.2326202392578125
1775705934961699000,4.734698974609375,0.16571044921875,-0.3683013916015625,0.1994171142578125
1775705934971712000,4.7447119140625,0.13299560546875,-0.4058685302734375,0.201904296875
1775705934981725000,4.754724853515625,0.0989227294921875,-0.4714202880859375,0.2570037841796875
1775705934991738000,4.764738037109375,0.1001739501953125,-0.518829345703125,0.3353118896484375
1775705935001751300,4.774751220703125,0.174896240234375,-0.515380859375,0.404693603515625
1775705935011763200,4.78476318359375,0.306243896484375,-0.496185302734375,0.4264678955078125
1775705935021776000,4.79477587890625,0.45440673828125,-0.4862823486328125,0.4107513427734375
1775705935031789000,4.8047890625,0.5484161376953125,-0.491973876953125,0.3917083740234375
1775705935041802200,4.81480224609375,0.5499114990234375,-0.5817718505859375,0.413909912109375
1775705935051815000,4.82481494140625,0.5035552978515625,-0.69793701171875,0.45391845703125
1775705935061828000,4.834828125,0.4114990234375,-0.7382659912109375,0.51544189453125
1775705935071841000,4.844841064453125,0.2930450439453125,-0.739990234375,0.554168701171875
1775705935081853200,4.854853271484375,0.2365570068359375,-0.738128662109375,0.576385498046875
1775705935091865900,4.864865966796875,0.230987548828125,-0.724884033203125,0.587005615234375
1775705935101878800,4.874878662109375,0.236785888671875,-0.7642822265625,0.6106414794921875
1775705935111891700,4.8848916015625,0.2415313720703125,-0.7928924560546875,0.561187744140625
1775705935121905000,4.89490478515625,0.28680419921875,-0.8343658447265625,0.4650115966796875
1775705935131917800,4.904917724609375,0.3022918701171875,-0.8937835693359375,0.4294281005859375
1775705935141930800,4.9149306640625,0.2919464111328125,-0.9123992919921875,0.4392547607421875
1775705935151942700,4.924942626953125,0.2556610107421875,-0.9044647216796875,0.476409912109375
1775705935161955800,4.934955810546875,0.2016143798828125,-0.8941650390625,0.540557861328125
1775705935171968800,4.94496875,0.1381072998046875,-0.844573974609375,0.5930328369140625
1775705935181981700,4.954981689453125,0.1057891845703125,-0.81304931640625,0.626220703125
1775705935191994600,4.96499462890625,0.075469970703125,-0.8342132568359375,0.6254730224609375
1775705935202007800,4.9750078125,0.0574951171875,-0.8928070068359375,0.5736236572265625
1775705935212021000,4.98502099609375,0.069305419921875,-0.9311676025390625,0.5066375732421875
1775705935222033000,4.995032958984375,0.104949951171875,-0.94720458984375,0.4617462158203125
1775705935232045800,5.0050458984375,0.1577606201171875,-0.930755615234375,0.42095947265625
1775705935242058800,5.015058837890625,0.22381591796875,-0.9055023193359375,0.405181884765625
1775705935252072000,5.025072021484375,0.2790374755859375,-0.895233154296875,0.4117279052734375
1775705935262084600,5.035084716796875,0.292877197265625,-0.9061279296875,0.450592041015625
1775705935272097800,5.045097900390625,0.2552642822265625,-0.96771240234375,0.4955902099609375
1775705935282110700,5.05511083984375,0.195526123046875,-0.9712982177734375,0.471954345703125
1775705935292123000,5.065122802734375,0.1564788818359375,-0.955047607421875,0.4339141845703125
1775705935302135800,5.0751357421875,0.1505126953125,-0.963043212890625,0.412322998046875
1775705935312148700,5.085148681640625,0.1401824951171875,-0.9470977783203125,0.366363525390625
1775705935322161700,5.09516162109375,0.1416778564453125,-0.951080322265625,0.3389739990234375
1775705935332174800,5.1051748046875,0.144134521484375,-0.9835357666015625,0.334503173828125
1775705935342187800,5.115187744140625,0.1365509033203125,-1.01800537109375,0.3251800537109375
1775705935352200700,5.12520068359375,0.1482086181640625,-1.039398193359375,0.3145751953125
1775705935362212900,5.135212890625,0.188995361328125,-1.04071044921875,0.3274688720703125
1775705935372225800,5.145225830078125,0.2384033203125,-1.00439453125,0.36376953125
1775705935382239000,5.155239013671875,0.2703857421875,-0.986907958984375,0.428497314453125
1775705935392251600,5.165251708984375,0.289947509765625,-0.9741668701171875,0.5085601806640625
1775705935402264800,5.175264892578125,0.257354736328125,-0.959808349609375,0.57843017578125
1775705935412277800,5.18527783203125,0.1797943115234375,-0.954498291015625,0.5859527587890625
1775705935422290700,5.195290771484375,0.1065826416015625,-0.9347991943359375,0.5495758056640625
1775705935432302600,5.205302490234375,0.048919677734375,-0.9149932861328125,0.53045654296875
1775705935442315800,5.215315673828125,0.00970458984375,-0.9044036865234375,0.549102783203125
1775705935452328700,5.22532861328125,-0.001434326171875,-0.8937530517578125,0.566986083984375
1775705935462342000,5.235341796875,0.00189208984375,-0.88494873046875,0.586151123046875
1775705935472354800,5.245354736328125,-0.0010528564453125,-0.8599090576171875,0.5882110595703125
1775705935482367700,5.25536767578125,0.00927734375,-0.8255767822265625,0.610870361328125
1775705935492381000,5.265380859375,0.0057525634765625,-0.81390380859375,0.67303466796875
1775705935502392800,5.275392822265625,-0.0126495361328125,-0.8297882080078125,0.73565673828125
1775705935512405800,5.28540576171875,-0.0139007568359375,-0.8348541259765625,0.7351837158203125
1775705935522418700,5.295418701171875,0.0059967041015625,-0.8274688720703125,0.69049072265625
1775705935532432000,5.305431884765625,0.0142669677734375,-0.8175811767578125,0.621185302734375
1775705935542444800,5.31544482421875,0.007476806640625,-0.8256988525390625,0.5665130615234375
1775705935552457700,5.325457763671875,0.022918701171875,-0.8357086181640625,0.5593414306640625
1775705935562470700,5.335470703125,0.0452423095703125,-0.8418731689453125,0.561859130859375
1775705935572482800,5.34548291015625,0.08233642578125,-0.842987060546875,0.557769775390625
1775705935582495700,5.355495849609375,0.1001739501953125,-0.862518310546875,0.5634307861328125
1775705935592508700,5.3655087890625,0.114532470703125,-0.8744354248046875,0.57281494140625
1775705935602521900,5.37552197265625,0.138336181640625,-0.8689422607421875,0.588165283203125
1775705935612534800,5.38553466796875,0.1531219482421875,-0.8744659423828125,0.5841217041015625
1775705935622548000,5.3955478515625,0.158905029296875,-0.8652801513671875,0.563018798828125
1775705935632560600,5.405560546875,0.1475830078125,-0.87042236328125,0.5750885009765625
1775705935642572800,5.41557275390625,0.1203460693359375,-0.8907318115234375,0.591827392578125
1775705935652585700,5.425585693359375,0.0900726318359375,-0.8960723876953125,0.615966796875
1775705935662599000,5.435598876953125,0.0595550537109375,-0.9021759033203125,0.6305084228515625
1775705935672611800,5.44561181640625,0.05731201171875,-0.8923797607421875,0.5862579345703125
1775705935682624800,5.455624755859375,0.0840301513671875,-0.888275146484375,0.5604705810546875
1775705935692637700,5.4656376953125,0.109527587890625,-0.8879547119140625,0.57684326171875
1775705935702651000,5.47565087890625,0.104217529296875,-0.894012451171875,0.5963592529296875
1775705935712662800,5.485662841796875,0.087188720703125,-0.87896728515625,0.600921630859375
1775705935722675700,5.49567578125,0.076812744140625,-0.876007080078125,0.6086883544921875
1775705935732689000,5.50568896484375,0.07147216796875,-0.8921966552734375,0.5846710205078125
1775705935742701800,5.515701904296875,0.0872802734375,-0.8968048095703125,0.5469512939453125
1775705935752714800,5.52571484375,0.1198272705078125,-0.899749755859375,0.537841796875
1775705935762727700,5.535727783203125,0.1555023193359375,-0.89373779296875,0.532318115234375
1775705935772740900,5.545740966796875,0.1925506591796875,-0.8801422119140625,0.546539306640625
1775705935782752800,5.555752685546875,0.22027587890625,-0.870635986328125,0.569244384765625
1775705935792766000,5.565765869140625,0.2340545654296875,-0.8556976318359375,0.5638427734375
1775705935802778600,5.575778564453125,0.2293548583984375,-0.853271484375,0.5736236572265625
1775705935812791800,5.585791748046875,0.2169647216796875,-0.8423919677734375,0.6020660400390625
1775705935822804700,5.5958046875,0.1827850341796875,-0.8107757568359375,0.622650146484375
1775705935832818000,5.60581787109375,0.1406402587890625,-0.7868499755859375,0.6395416259765625
1775705935842830800,5.615830810546875,0.1141815185546875,-0.76861572265625,0.661712646484375
1775705935852842800,5.6258427734375,0.1015625,-0.7518463134765625,0.6681671142578125
1775705935862855700,5.635855712890625,0.0912322998046875,-0.745513916015625,0.639007568359375
1775705935872868900,5.645868896484375,0.092987060546875,-0.7402496337890625,0.611541748046875
1775705935882881800,5.6558818359375,0.1118011474609375,-0.7309112548828125,0.5761566162109375
1775705935892894700,5.665894775390625,0.1370391845703125,-0.7219390869140625,0.5511322021484375
1775705935902908000,5.675907958984375,0.1538848876953125,-0.7254486083984375,0.5691680908203125
1775705935912919800,5.685919921875,0.1854705810546875,-0.7470855712890625,0.6220855712890625
1775705935922932700,5.6959326171875,0.197418212890625,-0.77978515625,0.664825439453125
1775705935932945700,5.705945556640625,0.19049072265625,-0.8145599365234375,0.66387939453125
1775705935942958800,5.715958740234375,0.1852264404296875,-0.8590545654296875,0.638702392578125
1775705935952971800,5.7259716796875,0.16705322265625,-0.9005279541015625,0.5808563232421875
1775705935962984700,5.735984619140625,0.1477813720703125,-0.929595947265625,0.5006256103515625
1775705935972998000,5.745997802734375,0.158447265625,-0.945037841796875,0.3994598388671875
1775705935983010800,5.7560107421875,0.19268798828125,-0.96209716796875,0.33038330078125
1775705935993022700,5.766022705078125,0.2457733154296875,-0.9810791015625,0.295440673828125
1775705936003036000,5.776035888671875,0.29693603515625,-0.99407958984375,0.2882537841796875
1775705936013048800,5.786048828125,0.3081817626953125,-1.0132904052734375,0.287139892578125
1775705936023061800,5.796061767578125,0.309295654296875,-1.026458740234375,0.284423828125
1775705936033075000,5.806074951171875,0.3101654052734375,-1.029144287109375,0.2722930908203125
1775705936043087600,5.816087646484375,0.3056488037109375,-1.028411865234375,0.2603607177734375
1775705936053100800,5.826100830078125,0.2799835205078125,-1.0179595947265625,0.252288818359375
1775705936063112700,5.83611279296875,0.2789306640625,-1.0186767578125,0.2586212158203125
1775705936073126000,5.8461259765625,0.3195953369140625,-1.00909423828125,0.246917724609375
1775705936083138800,5.856138916015625,0.3474884033203125,-0.998260498046875,0.240203857421875
1775705936093151700,5.86615185546875,0.3394622802734375,-0.9907989501953125,0.2504119873046875
1775705936103164700,5.87616455078125,0.3109130859375,-0.977783203125,0.25665283203125
1775705936113177900,5.886177734375,0.288299560546875,-0.9586029052734375,0.25213623046875
1775705936123190800,5.896190673828125,0.2552337646484375,-0.9409637451171875,0.277130126953125
1775705936133202700,5.90620263671875,0.199493408203125,-0.943084716796875,0.3149871826171875
1775705936143215900,5.9162158203125,0.153717041015625,-0.9608001708984375,0.3212432861328125
1775705936153228800,5.926228759765625,0.1613922119140625,-0.96826171875,0.313385009765625
1775705936163242000,5.936241943359375,0.190185546875,-0.970916748046875,0.2990570068359375
1775705936173254700,5.946254638671875,0.2215118408203125,-0.9717254638671875,0.299224853515625
1775705936183267800,5.956267822265625,0.2216949462890625,-0.9609832763671875,0.314453125
1775705936193280800,5.96628076171875,0.2118072509765625,-0.9496002197265625,0.3227996826171875
1775705936203293000,5.97629296875,0.21978759765625,-0.9443511962890625,0.29669189453125
1775705936213305600,5.9863056640625,0.230499267578125,-0.9483184814453125,0.269012451171875
1775705936223318800,5.99631884765625,0.245941162109375,-0.93896484375,0.2598114013671875
1775705936233331700,6.006331787109375,0.2661590576171875,-0.924041748046875,0.2988739013671875
1775705936243345000,6.016344970703125,0.2699737548828125,-0.928497314453125,0.3582611083984375
1775705936253357800,6.02635791015625,0.2524261474609375,-0.9280548095703125,0.3946533203125
1775705936263370800,6.036370849609375,0.22918701171875,-0.927825927734375,0.4139251708984375
1775705936273383000,6.0463828125,0.1986846923828125,-0.936492919921875,0.440185546875
1775705936283395800,6.056395751953125,0.15875244140625,-0.9381866455078125,0.45733642578125
1775705936293408800,6.06640869140625,0.1476287841796875,-0.929962158203125,0.438079833984375
1775705936303421700,6.076421630859375,0.1456756591796875,-0.9115753173828125,0.4186859130859375
1775705936313435000,6.086434814453125,0.1490936279296875,-0.8827056884765625,0.39141845703125
1775705936323447800,6.09644775390625,0.1534881591796875,-0.8738250732421875,0.367706298828125
1775705936333460700,6.106460693359375,0.1334381103515625,-0.88092041015625,0.3802947998046875
1775705936343472600,6.11647265625,0.1168670654296875,-0.888916015625,0.4020233154296875
1775705936353485800,6.12648583984375,0.12518310546875,-0.895843505859375,0.4208526611328125
1775705936363498800,6.136498779296875,0.1580810546875,-0.8898773193359375,0.432464599609375
1775705936373511700,6.14651171875,0.181732177734375,-0.889617919921875,0.428863525390625
1775705936383524900,6.15652490234375,0.1890716552734375,-0.89508056640625,0.412841796875
1775705936393537800,6.166537841796875,0.1962432861328125,-0.89569091796875,0.401763916015625
1775705936403551000,6.176551025390625,0.2032928466796875,-0.900848388671875,0.4090118408203125
1775705936413563000,6.18656298828125,0.1980133056640625,-0.90997314453125,0.4163360595703125
1775705936423575800,6.196575927734375,0.190582275390625,-0.922760009765625,0.4142913818359375
1775705936433588700,6.206588623046875,0.1888427734375,-0.9385833740234375,0.4263763427734375
1775705936443602000,6.216601806640625,0.1817626953125,-0.963287353515625,0.443115234375
1775705936453614600,6.226614501953125,0.1584320068359375,-0.994964599609375,0.453125
1775705936463627800,6.236627685546875,0.1530914306640625,-1.019805908203125,0.475250244140625
1775705936473640700,6.246640625,0.18133544921875,-1.0506134033203125,0.508880615234375
1775705936483652900,6.25665283203125,0.2161102294921875,-1.0823516845703125,0.5272674560546875
1775705936493665800,6.266665771484375,0.2574920654296875,-1.1136627197265625,0.5497589111328125
1775705936503678700,6.2766787109375,0.2783203125,-1.161834716796875,0.5731353759765625
1775705936513692000,6.28669189453125,0.271484375,-1.19244384765625,0.5720367431640625
1775705936523704800,6.296704833984375,0.2739410400390625,-1.2235107421875,0.5849151611328125
1775705936533717800,6.3067177734375,0.291534423828125,-1.247711181640625,0.6002197265625
1775705936543730700,6.316730712890625,0.288177490234375,-1.2576904296875,0.605804443359375
1775705936553742800,6.326742919921875,0.2679595947265625,-1.261199951171875,0.5970458984375
1775705936563755800,6.336755859375,0.255218505859375,-1.2387542724609375,0.5720062255859375
1775705936573769000,6.34676904296875,0.2379302978515625,-1.2058868408203125,0.52935791015625
1775705936583781600,6.35678173828125,0.2343292236328125,-1.154296875,0.4267578125
1775705936593794800,6.366794921875,0.2528076171875,-1.12335205078125,0.3360443115234375
1775705936603807700,6.376807861328125,0.2828521728515625,-1.107574462890625,0.2983551025390625
1775705936613820700,6.386820556640625,0.3251495361328125,-1.090789794921875,0.3052825927734375
1775705936623833900,6.396833740234375,0.3536224365234375,-1.0789642333984375,0.332366943359375
1775705936633845800,6.406845703125,0.3615875244140625,-1.0635223388671875,0.37408447265625
1775705936643858700,6.416858642578125,0.3587493896484375,-1.0345001220703125,0.4364776611328125
1775705936653871900,6.426871826171875,0.35931396484375,-0.9914703369140625,0.5020904541015625
1775705936663884800,6.436884765625,0.3468017578125,-0.97430419921875,0.5675506591796875
1775705936673897700,6.446897705078125,0.312591552734375,-0.9504852294921875,0.59759521484375
1775705936683911000,6.456910888671875,0.2938232421875,-0.912200927734375,0.6043701171875
1775705936693923600,6.466923583984375,0.264068603515625,-0.8848876953125,0.5989532470703125
1775705936703935700,6.476935791015625,0.2221527099609375,-0.8559112548828125,0.546783447265625
1775705936713948700,6.48694873046875,0.2081298828125,-0.838134765625,0.48675537109375
1775705936723961900,6.4969619140625,0.2076568603515625,-0.829193115234375,0.4775238037109375
1775705936733974800,6.506974853515625,0.2028961181640625,-0.817626953125,0.4858856201171875
1775705936743987700,6.51698779296875,0.18927001953125,-0.8207550048828125,0.5162506103515625
1775705936754001000,6.5270009765625,0.1772918701171875,-0.820281982421875,0.554840087890625
1775705936764013800,6.537013916015625,0.168212890625,-0.8289337158203125,0.604583740234375
1775705936774025700,6.547025634765625,0.172698974609375,-0.84283447265625,0.65234375
1775705936784038700,6.55703857421875,0.2012786865234375,-0.84783935546875,0.678863525390625
1775705936794051800,6.5670517578125,0.229522705078125,-0.855743408203125,0.7030487060546875
1775705936804064800,6.577064697265625,0.244110107421875,-0.85247802734375,0.70672607421875
1775705936814078000,6.587077880859375,0.235076904296875,-0.833343505859375,0.6346435546875
1775705936824090600,6.597090576171875,0.2476348876953125,-0.8364105224609375,0.5139617919921875
1775705936834103800,6.607103759765625,0.238555908203125,-0.833343505859375,0.432373046875
1775705936844115700,6.61711572265625,0.20806884765625,-0.8297119140625,0.41607666015625
1775705936854129000,6.62712890625,0.1708526611328125,-0.83404541015625,0.454559326171875
1775705936864141800,6.637141845703125,0.1370697021484375,-0.8271942138671875,0.5117950439453125
1775705936874154800,6.64715478515625,0.0963592529296875,-0.8369140625,0.5763397216796875
1775705936884167700,6.657167724609375,0.0449676513671875,-0.8376617431640625,0.61993408203125
1775705936894180900,6.667180908203125,0.01739501953125,-0.83074951171875,0.62603759765625
1775705936904193800,6.67719384765625,0.0447998046875,-0.826263427734375,0.5803375244140625
1775705936914205700,6.687205810546875,0.0829315185546875,-0.8185882568359375,0.4936981201171875
1775705936924219000,6.697218994140625,0.0984954833984375,-0.840606689453125,0.4251708984375
1775705936934231800,6.707231689453125,0.1077880859375,-0.8451690673828125,0.3626861572265625
1775705936944244700,6.71724462890625,0.1031494140625,-0.8438873291015625,0.3503570556640625
1775705936954257700,6.727257568359375,0.068023681640625,-0.860748291015625,0.3997344970703125
1775705936964270800,6.737270751953125,0.064971923828125,-0.8638458251953125,0.45721435546875
1775705936974283800,6.74728369140625,0.096893310546875,-0.852081298828125,0.502838134765625
1775705936984296000,6.7572958984375,0.1165771484375,-0.85894775390625,0.5285186767578125
1775705936994308600,6.76730859375,0.117523193359375,-0.8616180419921875,0.52783203125
1775705937004321800,6.77732177734375,0.12567138671875,-0.8499603271484375,0.5150299072265625
1775705937014334700,6.787334716796875,0.1354217529296875,-0.8444366455078125,0.485260009765625
1775705937024348000,6.797347900390625,0.1636810302734375,-0.831268310546875,0.4024505615234375
1775705937034360800,6.80736083984375,0.1851043701171875,-0.8291168212890625,0.322906494140625
1775705937044373800,6.817373779296875,0.164764404296875,-0.8380279541015625,0.2436981201171875
1775705937054386000,6.827385986328125,0.1065673828125,-0.8657073974609375,0.231842041015625
1775705937064398800,6.83739892578125,0.0417327880859375,-0.8818206787109375,0.2745208740234375
1775705937074411800,6.847411865234375,0.000946044921875,-0.873809814453125,0.339813232421875
1775705937084424700,6.8574248046875,-0.0141754150390625,-0.8564453125,0.407012939453125
1775705937094438000,6.86743798828125,-0.0126953125,-0.839630126953125,0.454498291015625
1775705937104450800,6.877450927734375,0.0217132568359375,-0.8441619873046875,0.467315673828125
1775705937114463700,6.887463623046875,0.0800933837890625,-0.8503265380859375,0.4421844482421875
1775705937124475600,6.8974755859375,0.1287841796875,-0.8693084716796875,0.4393768310546875
1775705937134488800,6.90748876953125,0.1441192626953125,-0.8930511474609375,0.4069366455078125
1775705937144502000,6.917501953125,0.1661834716796875,-0.873260498046875,0.326568603515625
1775705937154514700,6.9275146484375,0.1668548583984375,-0.862945556640625,0.3107452392578125
1775705937164527900,6.93752783203125,0.1533660888671875,-0.8267974853515625,0.3045196533203125
1775705937174540800,6.947540771484375,0.1318359375,-0.7974395751953125,0.342987060546875
1775705937184554000,6.957553955078125,0.10137939453125,-0.78558349609375,0.3805999755859375
1775705937194566000,6.96756591796875,0.1098175048828125,-0.7709808349609375,0.409637451171875
1775705937204578800,6.977578857421875,0.134124755859375,-0.7639923095703125,0.4533538818359375
1775705937214591700,6.987591796875,0.171417236328125,-0.74200439453125,0.4716339111328125
1775705937224605000,6.99760498046875,0.2555999755859375,-0.6802520751953125,0.44598388671875
1775705937234617600,7.00761767578125,0.365814208984375,-0.6103973388671875,0.388916015625
1775705937244630800,7.017630859375,0.4618988037109375,-0.5631866455078125,0.2843017578125
1775705937254644000,7.02764404296875,0.520263671875,-0.5082550048828125,0.1369781494140625
1775705937264657000,7.037656982421875,0.527191162109375,-0.4489898681640625,0.0279998779296875
1775705937274669000,7.0476689453125,0.469696044921875,-0.4178314208984375,0.0102081298828125
1775705937284681700,7.057681640625,0.4012451171875,-0.3997039794921875,0.019073486328125
1775705937294695000,7.06769482421875,0.331512451171875,-0.3433380126953125,0.0207366943359375
1775705937304707800,7.077707763671875,0.24151611328125,-0.3009033203125,0.03045654296875
1775705937314720800,7.087720703125,0.1748504638671875,-0.3043975830078125,0.0617523193359375
1775705937324733700,7.097733642578125,0.1613616943359375,-0.3085784912109375,0.0860748291015625
1775705937334747000,7.107746826171875,0.1801910400390625,-0.296539306640625,0.1131744384765625
1775705937344758800,7.1177587890625,0.2136688232421875,-0.280364990234375,0.140045166015625
1775705937354772000,7.12777197265625,0.27484130859375,-0.2810211181640625,0.1520233154296875
1775705937364784600,7.13778466796875,0.351654052734375,-0.286956787109375,0.1464691162109375
1775705937374797800,7.1477978515625,0.41326904296875,-0.300201416015625,0.1531524658203125
1775705937384811000,7.15781103515625,0.42791748046875,-0.3679656982421875,0.210784912109375
1775705937394823700,7.16782373046875,0.3717498779296875,-0.453857421875,0.2807769775390625
1775705937404836900,7.1778369140625,0.2886962890625,-0.497039794921875,0.35498046875
1775705937414848800,7.187848876953125,0.1847686767578125,-0.5451507568359375,0.42413330078125
1775705937424862000,7.197862060546875,0.061614990234375,-0.5932464599609375,0.4558258056640625
1775705937434875000,7.207875,-0.0007781982421875,-0.623565673828125,0.49609375
1775705937444887800,7.2178876953125,0.027862548828125,-0.630950927734375,0.5238037109375
1775705937454900700,7.227900634765625,0.1234588623046875,-0.646331787109375,0.488861083984375
1775705937464914000,7.237913818359375,0.2159271240234375,-0.6881561279296875,0.450531005859375
1775705937474926600,7.247926513671875,0.2749481201171875,-0.7164154052734375,0.4239501953125
1775705937484938800,7.257938720703125,0.3031463623046875,-0.750732421875,0.4160919189453125
1775705937494951700,7.26795166015625,0.30145263671875,-0.8111724853515625,0.4594879150390625
1775705937504964900,7.27796484375,0.27362060546875,-0.8432769775390625,0.5334014892578125
1775705937514978000,7.28797802734375,0.2138671875,-0.8457794189453125,0.5900115966796875
1775705937524990700,7.29799072265625,0.186309814453125,-0.8737945556640625,0.6184539794921875
1775705937535004000,7.30800390625,0.1894989013671875,-0.8686370849609375,0.6290435791015625
1775705937545016800,7.318016845703125,0.2073974609375,-0.8751068115234375,0.6339111328125
1775705937555029000,7.328029052734375,0.2121734619140625,-0.8628692626953125,0.5873260498046875
1775705937565041700,7.338041748046875,0.2495269775390625,-0.825836181640625,0.541107177734375
1775705937575054800,7.348054931640625,0.2623443603515625,-0.819580078125,0.5796356201171875
1775705937585067800,7.35806787109375,0.2595062255859375,-0.823455810546875,0.5997467041015625
1775705937595081000,7.3680810546875,0.29266357421875,-0.832794189453125,0.6055755615234375
1775705937605093600,7.37809375,0.2914581298828125,-0.85552978515625,0.6096038818359375
1775705937615106800,7.38810693359375,0.269989013671875,-0.873046875,0.6285552978515625
1775705937625118700,7.39811865234375,0.256103515625,-0.90167236328125,0.66552734375
1775705937635132000,7.4081318359375,0.251434326171875,-0.88385009765625,0.6763916015625
1775705937645144800,7.418144775390625,0.2796630859375,-0.851470947265625,0.654083251953125
1775705937655157800,7.42815771484375,0.3148651123046875,-0.858917236328125,0.61578369140625
1775705937665171000,7.4381708984375,0.32745361328125,-0.843719482421875,0.5982666015625
1775705937675183900,7.448183837890625,0.345733642578125,-0.820831298828125,0.6234588623046875
1775705937685196800,7.45819677734375,0.354339599609375,-0.85223388671875,0.654327392578125
1775705937695208700,7.468208740234375,0.3383636474609375,-0.867889404296875,0.679443359375
1775705937705222000,7.478221923828125,0.3134613037109375,-0.8580780029296875,0.681640625
1775705937715234800,7.48823486328125,0.2886199951171875,-0.8361663818359375,0.6715240478515625
1775705937725247700,7.498247802734375,0.2557373046875,-0.8463592529296875,0.6705780029296875
1775705937735260700,7.5082607421875,0.238677978515625,-0.85400390625,0.6509246826171875
1775705937745273900,7.51827392578125,0.225555419921875,-0.8696746826171875,0.6005096435546875
1775705937755287000,7.528287109375,0.1962127685546875,-0.880828857421875,0.5505828857421875
1775705937765299000,7.538298828125,0.159942626953125,-0.8780670166015625,0.531768798828125
1775705937775311600,7.5483115234375,0.1348876953125,-0.885223388671875,0.493438720703125
1775705937785324800,7.55832470703125,0.1318359375,-0.8777008056640625,0.4517669677734375
1775705937795338000,7.568337890625,0.1644439697265625,-0.8912506103515625,0.4317474365234375
1775705937805350700,7.5783505859375,0.21331787109375,-0.924468994140625,0.43817138671875
1775705937815363800,7.58836376953125,0.2368316650390625,-0.9708404541015625,0.4610595703125
1775705937825376800,7.598376708984375,0.2576446533203125,-0.9745941162109375,0.4646453857421875
1775705937835389000,7.608388916015625,0.2829132080078125,-0.968048095703125,0.47882080078125
1775705937845401900,7.61840185546875,0.2811126708984375,-0.9728851318359375,0.4942626953125
1775705937855414800,7.628414794921875,0.2941131591796875,-0.9423675537109375,0.4636077880859375
1775705937865427700,7.638427734375,0.3068084716796875,-0.91851806640625,0.43634033203125
1775705937875441000,7.64844091796875,0.33148193359375,-0.9011077880859375,0.3842010498046875
1775705937885453800,7.658453857421875,0.35595703125,-0.9217987060546875,0.3866729736328125
1775705937895466800,7.668466796875,0.32623291015625,-0.9585113525390625,0.4677276611328125
1775705937905478700,7.678478759765625,0.3065032958984375,-0.9470672607421875,0.538909912109375
1775705937915491800,7.688491943359375,0.271759033203125,-0.978973388671875,0.6162872314453125
1775705937925505000,7.698505126953125,0.2127685546875,-0.970794677734375,0.646026611328125
1775705937935517700,7.708517578125,0.188018798828125,-0.9244384765625,0.629669189453125
1775705937945531000,7.71853076171875,0.1508636474609375,-0.920867919921875,0.6291046142578125
1775705937955543800,7.728543701171875,0.1378173828125,-0.8921966552734375,0.6192169189453125
1775705937965556700,7.738556640625,0.1591339111328125,-0.8795013427734375,0.6264801025390625
1775705937975569700,7.748569580078125,0.1679840087890625,-0.8803253173828125,0.6173553466796875
1775705937985581800,7.758581787109375,0.198486328125,-0.860198974609375,0.5774688720703125
1775705937995594800,7.7685947265625,0.24090576171875,-0.8748321533203125,0.55462646484375
1775705938005608000,7.77860791015625,0.2447662353515625,-0.8780059814453125,0.5383453369140625
1775705938015620600,7.78862060546875,0.261962890625,-0.85284423828125,0.5151824951171875
1775705938025633800,7.7986337890625,0.2906646728515625,-0.8396453857421875,0.4915008544921875
1775705938035647000,7.80864697265625,0.3137359619140625,-0.814971923828125,0.4796142578125
1775705938045660000,7.818659912109375,0.317138671875,-0.806121826171875,0.5050048828125
1775705938055671800,7.828671875,0.3068389892578125,-0.8324127197265625,0.5175018310546875
1775705938065684700,7.838684814453125,0.3391571044921875,-0.822723388671875,0.4800567626953125
1775705938075698000,7.848697998046875,0.3813934326171875,-0.82757568359375,0.4542694091796875
1775705938085710800,7.8587109375,0.373260498046875,-0.859619140625,0.440277099609375
1775705938095723800,7.868723876953125,0.3500823974609375,-0.8502655029296875,0.4118499755859375
1775705938105736700,7.87873681640625,0.3388214111328125,-0.8531646728515625,0.4208831787109375
1775705938115750000,7.88875,0.32684326171875,-0.8765106201171875,0.4299468994140625
1775705938125761800,7.89876171875,0.3329315185546875,-0.8767852783203125,0.4149017333984375
1775705938135775000,7.90877490234375,0.3516082763671875,-0.8885650634765625,0.4181671142578125
1775705938145787600,7.91878759765625,0.3634796142578125,-0.89141845703125,0.420989990234375
1775705938155800800,7.92880078125,0.369781494140625,-0.8828582763671875,0.4573974609375
1775705938165813800,7.938813720703125,0.345794677734375,-0.8880615234375,0.513427734375
1775705938175826700,7.94882666015625,0.30645751953125,-0.876373291015625,0.531280517578125
1775705938185839900,7.95883984375,0.24615478515625,-0.88775634765625,0.554901123046875
1775705938195851800,7.968851806640625,0.1959075927734375,-0.928375244140625,0.5457305908203125
1775705938205864700,7.97886474609375,0.1750335693359375,-0.9503021240234375,0.52520751953125
1775705938215878000,7.9888779296875,0.185760498046875,-0.95361328125,0.5086669921875
1775705938225890800,7.998890869140625,0.2185516357421875,-0.95648193359375,0.496612548828125
1775705938235903700,8.00890380859375,0.2288970947265625,-0.946807861328125,0.51702880859375
1775705938245917000,8.0189169921875,0.2349700927734375,-0.94293212890625,0.5374603271484375
1775705938255929600,8.0289296875,0.225555419921875,-0.94281005859375,0.5638580322265625
1775705938265941800,8.038941650390624,0.2008514404296875,-0.9224395751953125,0.58624267578125
1775705938275954700,8.04895458984375,0.17852783203125,-0.9013214111328125,0.6110076904296875
1775705938285968000,8.0589677734375,0.1695709228515625,-0.8875274658203125,0.6520538330078125
1775705938295980800,8.068980712890625,0.1594085693359375,-0.8619537353515625,0.6829986572265625
1775705938305993700,8.07899365234375,0.1303558349609375,-0.852447509765625,0.7109222412109375
1775705938316007000,8.0890068359375,0.085205078125,-0.8436279296875,0.7104644775390625
1775705938326019800,8.099019775390625,0.0561370849609375,-0.827606201171875,0.6629180908203125
1775705938336031700,8.10903173828125,0.050689697265625,-0.83245849609375,0.6093292236328125
1775705938346044700,8.119044677734376,0.061370849609375,-0.847930908203125,0.5509185791015625
1775705938356057900,8.129057861328125,0.0883941650390625,-0.865753173828125,0.5127410888671875
1775705938366070800,8.13907080078125,0.108306884765625,-0.8809356689453125,0.479278564453125
1775705938376084000,8.149083984375,0.1259765625,-0.88739013671875,0.4382781982421875
1775705938386096600,8.1590966796875,0.1511688232421875,-0.889068603515625,0.408203125
1775705938396109800,8.16910986328125,0.17694091796875,-0.8800811767578125,0.4095001220703125
1775705938406121700,8.179121826171874,0.1715240478515625,-0.876617431640625,0.4380645751953125
1775705938416135000,8.189135009765625,0.1560821533203125,-0.8866119384765625,0.4584197998046875
1775705938426147600,8.199147705078126,0.1619873046875,-0.88983154296875,0.4556884765625
1775705938436160800,8.209160888671875,0.1689453125,-0.8822784423828125,0.4439239501953125
1775705938446173700,8.219173583984375,0.1517181396484375,-0.8856048583984375,0.423187255859375
1775705938456187000,8.229186767578126,0.13714599609375,-0.876312255859375,0.4040679931640625
1775705938466199800,8.23919970703125,0.14013671875,-0.8608551025390625,0.40484619140625
1775705938476211700,8.249211669921875,0.1458740234375,-0.8709869384765625,0.4105377197265625
1775705938486225000,8.259224853515626,0.1473388671875,-0.882110595703125,0.42230224609375
1775705938496237800,8.26923779296875,0.15338134765625,-0.9013824462890625,0.4451904296875
1775705938506250800,8.279250732421875,0.1597747802734375,-0.9351043701171875,0.4755401611328125
1775705938516263700,8.289263671875,0.1567535400390625,-0.951690673828125,0.5049896240234375
1775705938526276900,8.29927685546875,0.158172607421875,-0.974151611328125,0.52874755859375
1775705938536289800,8.309289794921876,0.156829833984375,-1.0104217529296875,0.5443115234375
1775705938546302700,8.319302734375,0.1567840576171875,-1.04638671875,0.5440673828125
1775705938556314600,8.329314697265625,0.14715576171875,-1.1113739013671875,0.5734100341796875
1775705938566327800,8.339327880859376,0.143890380859375,-1.178619384765625,0.6009979248046875
1775705938576340700,8.3493408203125,0.151580810546875,-1.2171783447265625,0.5858001708984375
1775705938586353700,8.359353759765625,0.1558074951171875,-1.2547454833984375,0.568878173828125
1775705938596366800,8.369366943359376,0.1649322509765625,-1.291534423828125,0.546539306640625
1775705938606379800,8.3793798828125,0.19415283203125,-1.2981414794921875,0.5211639404296875
1775705938616393000,8.38939306640625,0.2234344482421875,-1.2922515869140625,0.528472900390625
1775705938626404900,8.39940478515625,0.25006103515625,-1.270294189453125,0.551910400390625
1775705938636417800,8.409417724609375,0.2621307373046875,-1.2337493896484375,0.570037841796875
1775705938646430700,8.4194306640625,0.2661590576171875,-1.19268798828125,0.59619140625
1775705938656444000,8.42944384765625,0.2700042724609375,-1.1510009765625,0.623779296875
1775705938666456600,8.43945654296875,0.2606201171875,-1.1053619384765625,0.647979736328125
1775705938676469800,8.4494697265625,0.2421417236328125,-1.0586700439453125,0.673583984375
1775705938686482700,8.459482666015624,0.226593017578125,-1.0074462890625,0.7032623291015625
1775705938696494800,8.469494873046875,0.2233123779296875,-0.9607391357421875,0.7455291748046875
1775705938706507800,8.4795078125,0.2466583251953125,-0.939422607421875,0.777862548828125
1775705938716520700,8.489520751953124,0.287384033203125,-0.913482666015625,0.7789764404296875
1775705938726534000,8.499533935546875,0.3184814453125,-0.886749267578125,0.7579345703125
1775705938736546800,8.509546875,0.326416015625,-0.87701416015625,0.716949462890625
1775705938746559700,8.519559814453125,0.3248443603515625,-0.891937255859375,0.6617889404296875
1775705938756572700,8.52957275390625,0.314788818359375,-0.90924072265625,0.62274169921875
1775705938766584800,8.539584716796876,0.3222503662109375,-0.91326904296875,0.5808563232421875
1775705938776597800,8.54959765625,0.3409271240234375,-0.92681884765625,0.53582763671875
1775705938786611000,8.55961083984375,0.3565826416015625,-0.9254150390625,0.513671875
1775705938796623600,8.56962353515625,0.3652496337890625,-0.9078216552734375,0.52276611328125
1775705938806636800,8.57963671875,0.362152099609375,-0.9002838134765625,0.537628173828125
1775705938816649700,8.589649658203125,0.348602294921875,-0.89984130859375,0.5744476318359375
1775705938826662700,8.59966259765625,0.3509063720703125,-0.903045654296875,0.607818603515625
1775705938836674800,8.6096748046875,0.3644866943359375,-0.9062652587890625,0.6218109130859375
1775705938846687700,8.619687744140625,0.3772125244140625,-0.9028167724609375,0.6068267822265625
1775705938856701000,8.629700927734374,0.38446044921875,-0.896026611328125,0.588409423828125
1775705938866713900,8.6397138671875,0.383026123046875,-0.8869476318359375,0.575927734375
1775705938876726800,8.649726806640626,0.380462646484375,-0.871856689453125,0.5506591796875
1775705938886739700,8.65973974609375,0.3760986328125,-0.87896728515625,0.514312744140625
1775705938896753000,8.6697529296875,0.3481292724609375,-0.878662109375,0.512939453125
1775705938906764800,8.679764892578126,0.317108154296875,-0.8600311279296875,0.53546142578125
1775705938916777700,8.68977783203125,0.2681884765625,-0.8530731201171875,0.5732421875
1775705938926790700,8.699790771484375,0.21356201171875,-0.8366851806640625,0.59521484375
1775705938936803800,8.709803955078126,0.18292236328125,-0.802581787109375,0.593292236328125
1775705938946816800,8.719816650390625,0.1497802734375,-0.7641448974609375,0.5852813720703125
1775705938956829700,8.72982958984375,0.124725341796875,-0.7530364990234375,0.5767669677734375
1775705938966843000,8.7398427734375,0.1410369873046875,-0.7808380126953125,0.574127197265625
1775705938976854800,8.749854736328125,0.1556549072265625,-0.78143310546875,0.56036376953125
1775705938986867700,8.75986767578125,0.1526641845703125,-0.755035400390625,0.5206146240234375
1775705938996881000,8.769880859375,0.1651611328125,-0.736663818359375,0.471954345703125
1775705939006893800,8.779893798828125,0.158966064453125,-0.7537078857421875,0.4341888427734375
1775705939016906800,8.78990673828125,0.1312408447265625,-0.759613037109375,0.39508056640625
1775705939026920000,8.799919921875,0.10174560546875,-0.767578125,0.3836212158203125
1775705939036932600,8.8099326171875,0.09625244140625,-0.7670745849609375,0.3813629150390625
1775705939046945800,8.81994580078125,0.105987548828125,-0.76580810546875,0.39501953125
1775705939056957700,8.829957763671874,0.0818023681640625,-0.7474822998046875,0.4205474853515625
1775705939066971000,8.839970947265625,0.05755615234375,-0.7426910400390625,0.4510650634765625
1775705939076983800,8.84998388671875,0.0584564208984375,-0.7250213623046875,0.4775543212890625
1775705939086996700,8.859996826171875,0.094879150390625,-0.7205047607421875,0.50030517578125
1775705939097010000,8.870010009765625,0.1286468505859375,-0.7054290771484375,0.504180908203125
1775705939107022800,8.88002294921875,0.1428070068359375,-0.6888427734375,0.4969635009765625
1775705939117035800,8.890035888671875,0.1542816162109375,-0.650177001953125,0.4276275634765625
1775705939127047700,8.900047607421875,0.163604736328125,-0.6094207763671875,0.3209381103515625
1775705939137060900,8.910060791015624,0.1493682861328125,-0.5818634033203125,0.2490234375
1775705939147073800,8.92007373046875,0.1265106201171875,-0.5513458251953125,0.2193145751953125
1775705939157087000,8.9300869140625,0.1377105712890625,-0.53314208984375,0.23223876953125
1775705939167099600,8.940099609375,0.21417236328125,-0.503204345703125,0.2454071044921875
1775705939177112800,8.95011279296875,0.2855377197265625,-0.4743499755859375,0.239501953125
1775705939187125800,8.960125732421876,0.2913360595703125,-0.4408416748046875,0.212677001953125
1775705939197138000,8.970137939453124,0.2955169677734375,-0.395751953125,0.1680450439453125
1775705939207150600,8.980150634765625,0.2941436767578125,-0.3489532470703125,0.0803070068359375
1775705939217163800,8.990163818359376,0.2811279296875,-0.2841033935546875,-0.05535888671875
1775705939227176700,9.0001767578125,0.2474822998046875,-0.1981201171875,-0.2162322998046875
1775705939237190000,9.01018994140625,0.2104034423828125,-0.1206512451171875,-0.3443756103515625
1775705939247202800,9.020202880859374,0.16204833984375,-0.108978271484375,-0.384368896484375
1775705939257215700,9.0302158203125,0.134124755859375,-0.2054443359375,-0.3646697998046875
1775705939267228000,9.040227783203125,0.110382080078125,-0.3233184814453125,-0.3282928466796875
1775705939277240800,9.05024072265625,0.1065826416015625,-0.3875732421875,-0.294921875
1775705939287253800,9.060253662109375,0.1401519775390625,-0.414642333984375,-0.2411346435546875
1775705939297266700,9.0702666015625,0.176605224609375,-0.3938140869140625,-0.165618896484375
1775705939307280000,9.08027978515625,0.21343994140625,-0.3571014404296875,-0.0783233642578125
1775705939317292800,9.090292724609375,0.2310943603515625,-0.373992919921875,-0.0203094482421875
1775705939327305700,9.1003056640625,0.231231689453125,-0.4051971435546875,-0.0186767578125
1775705939337317600,9.110317626953124,0.248626708984375,-0.487701416015625,0.01904296875
1775705939347330800,9.120330810546875,0.252655029296875,-0.5991668701171875,0.1557464599609375
1775705939357343700,9.13034375,0.24652099609375,-0.704010009765625,0.35345458984375
1775705939367356700,9.140356689453125,0.26690673828125,-0.7714080810546875,0.544921875
1775705939377369900,9.150369873046875,0.2978363037109375,-0.7881622314453125,0.6920928955078125
1775705939387382800,9.1603828125,0.3078765869140625,-0.806976318359375,0.796478271484375
1775705939397396000,9.17039599609375,0.3173675537109375,-0.7987518310546875,0.8104400634765625
1775705939407407900,9.180407958984375,0.321014404296875,-0.82257080078125,0.787506103515625
1775705939417420800,9.1904208984375,0.2819671630859375,-0.864990234375,0.6984405517578125
1775705939427433700,9.200433837890625,0.2447967529296875,-0.8561553955078125,0.5724029541015625
1775705939437447000,9.210447021484375,0.2219390869140625,-0.8620452880859375,0.4985809326171875
1775705939447459600,9.22045947265625,0.130279541015625,-0.875335693359375,0.54766845703125
1775705939457472800,9.23047265625,0.0089569091796875,-0.8936920166015625,0.6632843017578125
1775705939467485700,9.240485595703126,-0.0623779296875,-0.894317626953125,0.7527008056640625
1775705939477499000,9.250498779296874,-0.0862274169921875,-0.88299560546875,0.7860870361328125
1775705939487510800,9.2605107421875,-0.0644989013671875,-0.82757568359375,0.7295379638671875
1775705939497523700,9.270523681640626,-0.0070037841796875,-0.788055419921875,0.6654205322265625
1775705939507537000,9.280536865234374,0.03753662109375,-0.813446044921875,0.60693359375
1775705939517549800,9.2905498046875,0.0929718017578125,-0.80889892578125,0.5195770263671875
1775705939527562800,9.300562744140626,0.154876708984375,-0.809814453125,0.4669036865234375
1775705939537575700,9.31057568359375,0.1825714111328125,-0.8347625732421875,0.4750518798828125
1775705939547588900,9.3205888671875,0.17877197265625,-0.8331451416015625,0.5269927978515625
1775705939557600800,9.330600830078126,0.165802001953125,-0.8462982177734375,0.5958099365234375
1775705939567614000,9.340614013671875,0.1374053955078125,-0.876800537109375,0.63739013671875
1775705939577626600,9.350626708984375,0.115875244140625,-0.8830108642578125,0.628448486328125
1775705939587639800,9.360639892578124,0.1362152099609375,-0.878753662109375,0.6044769287109375
1775705939597652700,9.37065283203125,0.1753082275390625,-0.8935394287109375,0.589691162109375
1775705939607665700,9.380665771484376,0.2227783203125,-0.8924102783203125,0.570465087890625
1775705939617678800,9.390678955078124,0.265472412109375,-0.894134521484375,0.542572021484375
1775705939627690800,9.400690673828125,0.29595947265625,-0.915435791015625,0.5347900390625
1775705939637704000,9.410703857421876,0.307037353515625,-0.937042236328125,0.5428924560546875
1775705939647716900,9.420716796875,0.2858734130859375,-0.9738006591796875,0.574005126953125
1775705939657729800,9.430729736328125,0.2171173095703125,-1.0479583740234375,0.621185302734375
1775705939667742700,9.44074267578125,0.1891326904296875,-1.05242919921875,0.60260009765625
1775705939677756000,9.450755859375,0.209381103515625,-1.0346221923828125,0.558441162109375
1775705939687768600,9.4607685546875,0.2322235107421875,-1.0237884521484375,0.5100250244140625
1775705939697780700,9.47078076171875,0.2497711181640625,-0.99603271484375,0.4604644775390625
1775705939707793700,9.480793701171875,0.2626495361328125,-0.9826507568359375,0.448638916015625
1775705939717806800,9.490806884765625,0.2604522705078125,-0.95892333984375,0.46368408203125
1775705939727819800,9.50081982421875,0.2554931640625,-0.9507598876953125,0.504974365234375
1775705939737832700,9.510832763671875,0.2356109619140625,-0.9676666259765625,0.541229248046875
1775705939747846000,9.520845947265625,0.22882080078125,-0.94976806640625,0.543426513671875
1775705939757858800,9.53085888671875,0.2209625244140625,-0.9609527587890625,0.5701904296875
1775705939767871000,9.54087109375,0.2181243896484375,-0.954010009765625,0.5778045654296875
1775705939777883600,9.550883544921875,0.2187042236328125,-0.9357147216796875,0.607269287109375
1775705939787896800,9.560896728515624,0.19061279296875,-0.9571990966796875,0.655364990234375
1775705939797909800,9.57090966796875,0.1712646484375,-0.9549713134765625,0.6966094970703125
1775705939807923000,9.5809228515625,0.17608642578125,-0.9386749267578125,0.7001495361328125
1775705939817935600,9.590935546875,0.18212890625,-0.9294586181640625,0.649078369140625
1775705939827948800,9.60094873046875,0.1876983642578125,-0.907623291015625,0.6163330078125
1775705939837961700,9.610961669921876,0.1856536865234375,-0.9005126953125,0.63446044921875
1775705939847974000,9.620973876953125,0.1907501220703125,-0.8860321044921875,0.654327392578125
1775705939857986800,9.63098681640625,0.2311553955078125,-0.8562774658203125,0.656280517578125
1775705939867999700,9.640999755859376,0.2569732666015625,-0.835113525390625,0.66424560546875
1775705939878013000,9.651012939453125,0.253143310546875,-0.8119354248046875,0.6837615966796875
1775705939888025900,9.66102587890625,0.2203369140625,-0.8107147216796875,0.71893310546875
1775705939898038800,9.671038818359374,0.1867828369140625,-0.810302734375,0.74090576171875
1775705939908051700,9.6810517578125,0.16064453125,-0.802978515625,0.7105865478515625
1775705939918063900,9.69106396484375,0.1430816650390625,-0.8142242431640625,0.6504058837890625
1775705939928076800,9.701076904296874,0.1364593505859375,-0.80914306640625,0.5797576904296875
1775705939938089700,9.71108984375,0.1344451904296875,-0.7939453125,0.5110931396484375
1775705939948102700,9.7211025390625,0.1363067626953125,-0.786285400390625,0.4261016845703125
1775705939958115800,9.73111572265625,0.15087890625,-0.768402099609375,0.3591766357421875
1775705939968128800,9.741128662109375,0.1546478271484375,-0.759002685546875,0.3206329345703125
1775705939978141700,9.7511416015625,0.143280029296875,-0.7740478515625,0.3313140869140625
1775705939988153600,9.761153564453124,0.1347808837890625,-0.776702880859375,0.403533935546875
1775705939998166800,9.771166748046875,0.1464996337890625,-0.793243408203125,0.47509765625
1775705940008180000,9.781179931640626,0.117095947265625,-0.86309814453125,0.543975830078125
1775705940018193000,9.79119287109375,0.0638427734375,-0.9326171875,0.5644989013671875
1775705940028205800,9.801205810546875,0.03887939453125,-0.9930877685546875,0.53326416015625
1775705940038218800,9.81121875,0.031707763671875,-1.0359954833984375,0.484161376953125
1775705940048232000,9.82123193359375,0.048797607421875,-1.0526580810546875,0.4394073486328125
1775705940058243800,9.831243896484375,0.062835693359375,-1.0829620361328125,0.4131317138671875
1775705940068256800,9.8412568359375,0.064453125,-1.1299285888671875,0.371307373046875
1775705940078269700,9.851269775390625,0.074127197265625,-1.2026519775390625,0.3703460693359375
1775705940088283100,9.861283203125,0.0860137939453125,-1.251434326171875,0.433837890625
1775705940098295800,9.8712958984375,0.125152587890625,-1.269805908203125,0.4702301025390625
1775705940108309000,9.88130908203125,0.173919677734375,-1.2745361328125,0.4652252197265625
1775705940118322000,9.891322021484376,0.219085693359375,-1.258148193359375,0.4583282470703125
1775705940128335000,9.901335205078125,0.2648468017578125,-1.231475830078125,0.4646148681640625
1775705940138347000,9.911346923828125,0.298095703125,-1.2028961181640625,0.4656524658203125
1775705940148360000,9.92135986328125,0.3222503662109375,-1.168853759765625,0.428741455078125
1775705940158372900,9.931372802734375,0.35400390625,-1.116180419921875,0.383819580078125
1775705940168386000,9.941385986328125,0.36053466796875,-1.0667572021484375,0.379058837890625
1775705940178398700,9.951398681640624,0.34210205078125,-0.998291015625,0.3883819580078125
1775705940188412000,9.961411865234375,0.3189544677734375,-0.9368743896484375,0.4180755615234375
1775705940198425000,9.971425048828126,0.290985107421875,-0.8870849609375,0.44110107421875
1775705940208437000,9.98143701171875,0.273681640625,-0.843994140625,0.4428558349609375
1775705940218450200,9.9914501953125,0.2711029052734375,-0.8109588623046875,0.4173126220703125
1775705940228462800,10.001462890625,0.259765625,-0.7804107666015625,0.4041290283203125
1775705940238476000,10.01147607421875,0.251800537109375,-0.744903564453125,0.39947509765625
1775705940248489000,10.021489013671875,0.23577880859375,-0.7178497314453125,0.4171905517578125
1775705940258502000,10.031501953125,0.1973876953125,-0.7082977294921875,0.4532623291015625
1775705940268514800,10.041514892578125,0.1546478271484375,-0.7004241943359375,0.47406005859375
1775705940278527000,10.05152685546875,0.1305999755859375,-0.7124786376953125,0.4653472900390625
1775705940288540000,10.061539794921876,0.1290435791015625,-0.7296142578125,0.4494171142578125
1775705940298553000,10.071552978515625,0.1282196044921875,-0.751739501953125,0.4346466064453125
1775705940308565800,10.081565673828125,0.139190673828125,-0.7785186767578125,0.422882080078125
1775705940318579000,10.091578857421876,0.15557861328125,-0.79730224609375,0.4053497314453125
1775705940328592100,10.101592041015625,0.15789794921875,-0.825836181640625,0.3954315185546875
1775705940338604800,10.111604736328125,0.15673828125,-0.8538818359375,0.3941497802734375
1775705940348618000,10.121617919921874,0.1562042236328125,-0.882659912109375,0.3822479248046875
1775705940358630000,10.1316298828125,0.141143798828125,-0.9130859375,0.37359619140625
1775705940368643000,10.14164306640625,0.1279754638671875,-0.920135498046875,0.3727569580078125
1775705940378656000,10.151656005859374,0.1196136474609375,-0.9226531982421875,0.392486572265625
1775705940388669000,10.1616689453125,0.0965423583984375,-0.927459716796875,0.414154052734375
1775705940398681900,10.171681884765626,0.082794189453125,-0.9271240234375,0.43109130859375
1775705940408695000,10.181695068359375,0.0858612060546875,-0.9167633056640625,0.44061279296875
1775705940418708000,10.1917080078125,0.0815277099609375,-0.9042205810546875,0.4358978271484375
1775705940428719900,10.201719970703126,0.0776824951171875,-0.9009857177734375,0.416046142578125
1775705940438732800,10.21173291015625,0.088592529296875,-0.8984832763671875,0.415557861328125
1775705940448746000,10.22174609375,0.113555908203125,-0.885528564453125,0.42193603515625
1775705940458759200,10.23175927734375,0.1443328857421875,-0.89898681640625,0.4392242431640625
1775705940468771800,10.241771728515625,0.16253662109375,-0.9175567626953125,0.4570770263671875
1775705940478785000,10.251784912109375,0.19024658203125,-0.9387664794921875,0.4708404541015625
1775705940488798000,10.2617978515625,0.209136962890625,-0.9819183349609375,0.4835968017578125
1775705940498811000,10.271810791015625,0.2116241455078125,-1.0233612060546875,0.4914703369140625
1775705940508823000,10.281822998046875,0.209075927734375,-1.0520782470703125,0.487396240234375
1775705940518836000,10.2918359375,0.20196533203125,-1.081634521484375,0.4680023193359375
1775705940528849000,10.301848876953125,0.195648193359375,-1.1145782470703125,0.4422607421875
1775705940538862000,10.311862060546876,0.1785125732421875,-1.1477508544921875,0.4288330078125
1775705940548874800,10.321874755859374,0.154693603515625,-1.1795654296875,0.4349212646484375
1775705940558888000,10.331887939453125,0.1150970458984375,-1.213348388671875,0.4519195556640625
1775705940568901000,10.341901123046876,0.0759735107421875,-1.2348785400390625,0.4859466552734375
1775705940578913000,10.3519130859375,0.0352630615234375,-1.2428741455078125,0.5183258056640625
1775705940588926000,10.361926025390625,0.000640869140625,-1.21826171875,0.5340118408203125
1775705940598939000,10.37193896484375,-0.0219268798828125,-1.1961517333984375,0.57147216796875
1775705940608952000,10.3819521484375,-0.0162506103515625,-1.1891632080078125,0.6262054443359375
1775705940618965000,10.391965087890625,0.015625,-1.175628662109375,0.65087890625
1775705940628978000,10.40197802734375,0.0307159423828125,-1.152862548828125,0.660797119140625
1775705940638990800,10.411990966796875,0.0445404052734375,-1.1463623046875,0.6587982177734375
1775705940649003000,10.4220029296875,0.0748443603515625,-1.1241912841796875,0.6492462158203125
1775705940659016000,10.432015869140624,0.1082916259765625,-1.0917205810546875,0.6571044921875
1775705940669029000,10.442029052734375,0.1364593505859375,-1.0668792724609375,0.6829986572265625
1775705940679041800,10.452041748046875,0.1742706298828125,-1.0388946533203125,0.685791015625
1775705940689055000,10.462054931640624,0.2253570556640625,-1.0090179443359375,0.665924072265625
1775705940699068200,10.472068115234375,0.2653656005859375,-0.99072265625,0.6575775146484375
1775705940709080800,10.482080810546876,0.29083251953125,-0.970123291015625,0.6505126953125
1775705940719094000,10.492093994140625,0.2830352783203125,-0.9538421630859375,0.6489105224609375
1775705940729106000,10.50210595703125,0.2599945068359375,-0.9453887939453125,0.6405487060546875
1775705940739119000,10.512119140625,0.251922607421875,-0.929931640625,0.6102752685546875
1775705940749132000,10.522132080078125,0.2616424560546875,-0.9166412353515625,0.571380615234375
1775705940759145000,10.53214501953125,0.2779083251953125,-0.9152679443359375,0.55218505859375
1775705940769158000,10.542157958984374,0.28662109375,-0.914215087890625,0.5476837158203125
1775705940779171000,10.552171142578125,0.2821502685546875,-0.9091339111328125,0.549530029296875
1775705940789183700,10.562183837890625,0.2645721435546875,-0.895233154296875,0.55438232421875
1775705940799196000,10.57219580078125,0.239501953125,-0.886077880859375,0.5568084716796875
1775705940809208800,10.582208740234375,0.218414306640625,-0.882049560546875,0.5456390380859375
1775705940819222000,10.592221923828125,0.19818115234375,-0.8902130126953125,0.530853271484375
1775705940829235000,10.60223486328125,0.1933441162109375,-0.8828582763671875,0.495635986328125
1775705940839248000,10.612247802734375,0.205413818359375,-0.8687286376953125,0.478118896484375
1775705940849261000,10.622260986328126,0.22698974609375,-0.864837646484375,0.4704437255859375
1775705940859274000,10.63227392578125,0.2417144775390625,-0.8550262451171875,0.4460601806640625
1775705940869287000,10.642286865234375,0.2215423583984375,-0.8499908447265625,0.4333343505859375
1775705940879298800,10.652298828125,0.1831512451171875,-0.8490753173828125,0.437774658203125
1775705940889312000,10.66231201171875,0.16754150390625,-0.8493194580078125,0.4495086669921875
1775705940899325000,10.672324951171875,0.1875457763671875,-0.8546905517578125,0.4631500244140625
1775705940909338000,10.682338134765626,0.208038330078125,-0.8507080078125,0.4806976318359375
1775705940919350800,10.692350830078125,0.2192230224609375,-0.85247802734375,0.48529052734375
1775705940929364000,10.702364013671875,0.23992919921875,-0.8471221923828125,0.46112060546875
1775705940939377200,10.712377197265624,0.26251220703125,-0.8326263427734375,0.444580078125
1775705940949389000,10.72238916015625,0.2691650390625,-0.8259124755859375,0.42230224609375
1775705940959401700,10.732401611328125,0.2972259521484375,-0.8252410888671875,0.396728515625
1775705940969415000,10.742414794921874,0.317962646484375,-0.8190765380859375,0.3940887451171875
1775705940979428000,10.752427978515625,0.3089599609375,-0.819793701171875,0.412353515625
1775705940989441000,10.76244091796875,0.282989501953125,-0.81793212890625,0.4340362548828125
1775705940999454000,10.772453857421874,0.2501373291015625,-0.7936553955078125,0.4591064453125
1775705941009467000,10.782466796875,0.2074127197265625,-0.7767333984375,0.4910736083984375
1775705941019480000,10.79247998046875,0.180999755859375,-0.7608489990234375,0.5068817138671875
1775705941029492000,10.802491943359374,0.194732666015625,-0.75555419921875,0.5180511474609375
1775705941039505000,10.8125048828125,0.2210693359375,-0.74566650390625,0.5120086669921875
1775705941049517800,10.822517822265626,0.2297210693359375,-0.7481536865234375,0.505218505859375
1775705941059531000,10.832531005859375,0.2306365966796875,-0.756011962890625,0.4919891357421875
1775705941069544000,10.8425439453125,0.2437286376953125,-0.739227294921875,0.4793548583984375
1775705941079556900,10.852556884765624,0.2374267578125,-0.7423858642578125,0.4899444580078125
1775705941089569800,10.86256982421875,0.212493896484375,-0.731170654296875,0.4906005859375
1775705941099582000,10.87258203125,0.209320068359375,-0.7306976318359375,0.4940948486328125
1775705941109595000,10.882594970703124,0.223358154296875,-0.7346343994140625,0.496490478515625
1775705941119607800,10.89260791015625,0.25421142578125,-0.7174072265625,0.499542236328125
1775705941129621000,10.90262109375,0.279571533203125,-0.7237396240234375,0.5133056640625
1775705941139634000,10.912634033203124,0.2938385009765625,-0.7212066650390625,0.5205078125
1775705941149647000,10.922647216796875,0.3000335693359375,-0.721405029296875,0.5317840576171875
1775705941159659800,10.93265966796875,0.2664947509765625,-0.7275848388671875,0.5381317138671875
1775705941169673000,10.9426728515625,0.2505645751953125,-0.7288055419921875,0.542510986328125
1775705941179684900,10.952684814453125,0.2252044677734375,-0.719268798828125,0.5357513427734375
1775705941189698000,10.962697998046876,0.2243804931640625,-0.6999359130859375,0.5329132080078125
1775705941199710700,10.972710693359375,0.29315185546875,-0.684814453125,0.5457611083984375
1775705941209724000,10.982723876953125,0.352447509765625,-0.658447265625,0.530059814453125
1775705941219736800,10.99273681640625,0.43115234375,-0.617034912109375,0.4828338623046875
1775705941229750000,11.00275,0.510711669921875,-0.569244384765625,0.412200927734375
1775705941239763000,11.012762939453125,0.5414886474609375,-0.5358123779296875,0.3270721435546875
1775705941249774800,11.02277490234375,0.526947021484375,-0.5076904296875,0.2499542236328125
1775705941259787800,11.032787841796875,0.45635986328125,-0.4703369140625,0.189361572265625
1775705941269801000,11.042801025390625,0.34271240234375,-0.4194793701171875,0.1096343994140625
1775705941279814000,11.05281396484375,0.23199462890625,-0.3831787109375,0.0472564697265625
1775705941289826800,11.062826904296875,0.1154632568359375,-0.3483428955078125,0.0073394775390625
1775705941299840000,11.072840087890626,0.015045166015625,-0.3307342529296875,-0.0093231201171875
1775705941309853000,11.08285302734375,-0.0754547119140625,-0.3387451171875,0.005767822265625
1775705941319865900,11.092865966796875,-0.1365814208984375,-0.34503173828125,0.013671875
1775705941329877800,11.102877685546876,-0.1437835693359375,-0.343963623046875,-0.0107269287109375
1775705941339891000,11.112890869140625,-0.093963623046875,-0.3450469970703125,-0.0406494140625
1775705941349904000,11.12290380859375,-0.036346435546875,-0.3386077880859375,-0.0589141845703125
1775705941359916800,11.132916748046876,0.01593017578125,-0.3358612060546875,-0.070098876953125
1775705941369930000,11.142929931640625,0.0717010498046875,-0.3567047119140625,-0.06744384765625
1775705941379943000,11.15294287109375,0.1000213623046875,-0.3916015625,-0.0400848388671875
1775705941389956000,11.1629560546875,0.12933349609375,-0.4226226806640625,0.006988525390625
1775705941399968000,11.172968017578125,0.1741485595703125,-0.4529571533203125,0.0672760009765625
1775705941409981000,11.18298095703125,0.2133636474609375,-0.500274658203125,0.1231536865234375
1775705941419993900,11.192993896484374,0.2582244873046875,-0.5683746337890625,0.1847381591796875
1775705941430007000,11.203007080078125,0.303741455078125,-0.6254425048828125,0.236968994140625
1775705941440020000,11.21302001953125,0.3476409912109375,-0.648223876953125,0.2520599365234375
1775705941450033000,11.223032958984374,0.3911590576171875,-0.686859130859375,0.269287109375
1775705941460045800,11.2330458984375,0.39910888671875,-0.725250244140625,0.282470703125
1775705941470059000,11.24305908203125,0.40045166015625,-0.748931884765625,0.335968017578125
1775705941480071000,11.25307080078125,0.3764801025390625,-0.7725982666015625,0.4165496826171875
1775705941490083800,11.263083740234375,0.3403778076171875,-0.7704925537109375,0.481903076171875
1775705941500096800,11.2730966796875,0.2999420166015625,-0.7577056884765625,0.5482635498046875
1775705941510110000,11.28310986328125,0.2294464111328125,-0.7924346923828125,0.63861083984375
1775705941520123000,11.293122802734375,0.1356353759765625,-0.833160400390625,0.6815643310546875
1775705941530135800,11.3031357421875,0.098602294921875,-0.8510894775390625,0.6702117919921875
1775705941540149000,11.31314892578125,0.121856689453125,-0.896392822265625,0.647308349609375
1775705941550161000,11.323160888671875,0.1707000732421875,-0.8939361572265625,0.5904388427734375
1775705941560174000,11.333174072265624,0.19683837890625,-0.8654327392578125,0.548583984375
1775705941570186800,11.343186767578125,0.2019805908203125,-0.8533172607421875,0.5529327392578125
1775705941580200000,11.353199951171876,0.201416015625,-0.827178955078125,0.5791168212890625
1775705941590212900,11.363212890625,0.1710205078125,-0.8238525390625,0.6016387939453125
1775705941600226000,11.37322607421875,0.150848388671875,-0.8130035400390625,0.60699462890625
1775705941610239000,11.383239013671876,0.1165924072265625,-0.8252410888671875,0.6258087158203125
1775705941620252000,11.393251953125,0.0509490966796875,-0.887542724609375,0.6392822265625
1775705941630263800,11.403263916015625,-0.008697509765625,-0.8735198974609375,0.5943450927734375
1775705941640277000,11.413277099609376,-0.041015625,-0.8636474609375,0.5478515625
1775705941650290000,11.4232900390625,-0.0736541748046875,-0.8572998046875,0.4820098876953125
1775705941660302800,11.433302734375,-0.056060791015625,-0.8276519775390625,0.4099884033203125
1775705941670316000,11.44331591796875,0.0042572021484375,-0.8154449462890625,0.392333984375
1775705941680329000,11.453328857421875,0.0637054443359375,-0.8050994873046875,0.4325103759765625
1775705941690342000,11.463341796875,0.10589599609375,-0.805999755859375,0.500030517578125
1775705941700353800,11.473353759765626,0.1414642333984375,-0.8494720458984375,0.5867919921875
1775705941710367000,11.483366943359375,0.1676177978515625,-0.9092559814453125,0.6473846435546875
1775705941720380000,11.4933798828125,0.202301025390625,-0.9396209716796875,0.630340576171875
1775705941730392800,11.503392822265624,0.245513916015625,-0.956787109375,0.5706787109375
1775705941740405800,11.51340576171875,0.2683258056640625,-0.964202880859375,0.52056884765625
1775705941750419000,11.5234189453125,0.3057098388671875,-0.9450225830078125,0.49212646484375
1775705941760432000,11.53343212890625,0.32525634765625,-0.9344940185546875,0.480865478515625
1775705941770444800,11.54344482421875,0.320404052734375,-0.939605712890625,0.4972991943359375
1775705941780457000,11.55345703125,0.2843170166015625,-0.948974609375,0.537261962890625
1775705941790470000,11.563469970703125,0.2418975830078125,-0.95953369140625,0.574951171875
1775705941800483000,11.573483154296875,0.1990966796875,-0.990081787109375,0.586639404296875
1775705941810495700,11.583495849609376,0.170379638671875,-0.9960784912109375,0.5545501708984375
1775705941820509000,11.593509033203125,0.158538818359375,-0.9943389892578125,0.50872802734375
1775705941830521900,11.60352197265625,0.162200927734375,-1.0338287353515625,0.485443115234375
1775705941840535000,11.61353515625,0.1876678466796875,-1.0343017578125,0.4395751953125
1775705941850547000,11.623546875,0.2363128662109375,-1.03363037109375,0.4081878662109375
1775705941860560000,11.633559814453125,0.24884033203125,-1.0533599853515625,0.4412841796875
1775705941870572800,11.64357275390625,0.235443115234375,-1.0513916015625,0.4930267333984375
1775705941880586000,11.6535859375,0.22271728515625,-1.0640869140625,0.5501708984375
1775705941890599000,11.663598876953126,0.217315673828125,-1.068817138671875,0.59747314453125
1775705941900611800,11.67361181640625,0.215850830078125,-1.0462646484375,0.609527587890625
1775705941910625000,11.683625,0.2062835693359375,-1.0604248046875,0.6094512939453125
1775705941920638000,11.693637939453126,0.199066162109375,-1.0676727294921875,0.5938568115234375
1775705941930650000,11.703650146484375,0.21746826171875,-1.0562591552734375,0.5693359375
1775705941940662800,11.713662841796875,0.2442626953125,-1.0506591796875,0.5363922119140625
1775705941950676000,11.723676025390626,0.2642974853515625,-1.0338592529296875,0.48724365234375
1775705941960689000,11.73368896484375,0.286346435546875,-1.0221710205078125,0.4423065185546875
1775705941970701800,11.743701904296875,0.2982177734375,-0.9956207275390625,0.398101806640625
1775705941980714800,11.75371484375,0.3085784912109375,-0.9518890380859375,0.3618621826171875
1775705941990728000,11.76372802734375,0.315704345703125,-0.9257354736328125,0.3545684814453125
1775705942000741000,11.7737412109375,0.2862548828125,-0.917266845703125,0.3892364501953125
1775705942010753000,11.7837529296875,0.2530975341796875,-0.8931427001953125,0.4271392822265625
1775705942020766000,11.793765869140625,0.2280731201171875,-0.8653106689453125,0.46142578125
1775705942030779000,11.80377880859375,0.2060699462890625,-0.8510589599609375,0.4894561767578125
1775705942040792000,11.8137919921875,0.1869964599609375,-0.8273468017578125,0.502197265625
1775705942050804700,11.8238046875,0.1867523193359375,-0.7985076904296875,0.49298095703125
1775705942060818000,11.83381787109375,0.192413330078125,-0.7861175537109375,0.4707183837890625
1775705942070830800,11.843830810546875,0.2053680419921875,-0.7782135009765625,0.4320068359375
1775705942080843000,11.853843017578125,0.227447509765625,-0.77783203125,0.4090118408203125
1775705942090855400,11.86385546875,0.2419586181640625,-0.783935546875,0.4214630126953125
1775705942100868400,11.873868408203125,0.2391815185546875,-0.7896881103515625,0.4675140380859375
1775705942110881300,11.88388134765625,0.225341796875,-0.7993927001953125,0.513702392578125
1775705942120894500,11.89389453125,0.205841064453125,-0.8543853759765625,0.5731048583984375
1775705942130907400,11.903907470703125,0.182342529296875,-0.9244537353515625,0.622589111328125
1775705942140920300,11.91392041015625,0.1835784912109375,-0.9438934326171875,0.607513427734375
1775705942150933500,11.92393359375,0.20733642578125,-0.988250732421875,0.5769195556640625
1775705942160945400,11.9339453125,0.213592529296875,-1.05035400390625,0.534912109375
1775705942170958600,11.94395849609375,0.22216796875,-1.085662841796875,0.49884033203125
1775705942180971300,11.95397119140625,0.2345733642578125,-1.104705810546875,0.4918212890625
1775705942190984400,11.963984375,0.2427978515625,-1.13275146484375,0.504913330078125
1775705942200997400,11.973997314453126,0.2431793212890625,-1.1513824462890625,0.542266845703125
1775705942211010600,11.984010498046874,0.223358154296875,-1.1528472900390625,0.6025848388671875
1775705942221023200,11.994023193359375,0.1821136474609375,-1.1486358642578125,0.6455230712890625
1775705942231035400,12.004035400390626,0.1489105224609375,-1.1389923095703125,0.667449951171875
1775705942241048300,12.01404833984375,0.12322998046875,-1.1194000244140625,0.66943359375
1775705942251061500,12.0240615234375,0.090240478515625,-1.0945281982421875,0.630950927734375
1775705942261074400,12.034074462890626,0.0560302734375,-1.0704345703125,0.55438232421875
1775705942271087400,12.04408740234375,0.0364532470703125,-1.051513671875,0.456817626953125
1775705942281100500,12.0541005859375,0.0550537109375,-1.0258941650390625,0.376129150390625
1775705942291113500,12.064113525390624,0.0709075927734375,-0.995391845703125,0.33819580078125
1775705942301126400,12.07412646484375,0.0525360107421875,-0.9667205810546875,0.328125
1775705942311138300,12.08413818359375,0.0330657958984375,-0.9407806396484375,0.327789306640625
1775705942321151500,12.0941513671875,0.0115203857421875,-0.908294677734375,0.338623046875
1775705942331164400,12.104164306640625,-0.0119781494140625,-0.8798675537109375,0.354522705078125
1775705942341177300,12.11417724609375,-0.03131103515625,-0.857818603515625,0.3691558837890625
1775705942351190300,12.124190185546874,-0.0287322998046875,-0.842041015625,0.3690185546875
1775705942361203500,12.134203369140625,0.00640869140625,-0.8341064453125,0.329345703125
1775705942371216400,12.14421630859375,0.0558319091796875,-0.8331451416015625,0.292144775390625
1775705942381229300,12.154229248046875,0.100616455078125,-0.830291748046875,0.2699127197265625
1775705942391241200,12.1642412109375,0.14996337890625,-0.8245697021484375,0.2577972412109375
1775705942401254400,12.17425439453125,0.1821136474609375,-0.82513427734375,0.280059814453125
1775705942411267600,12.184267578125,0.1891937255859375,-0.8296661376953125,0.305267333984375
1775705942421280500,12.194280517578125,0.2004547119140625,-0.8377227783203125,0.31695556640625
1775705942431293400,12.20429345703125,0.214019775390625,-0.8412628173828125,0.3336029052734375
1775705942441306400,12.214306396484375,0.2176513671875,-0.8404998779296875,0.3541259765625
1775705942451319600,12.224319580078125,0.2091522216796875,-0.8399505615234375,0.37689208984375
1775705942461331500,12.23433154296875,0.1956787109375,-0.8430633544921875,0.39715576171875
1775705942471344400,12.244344482421875,0.1724395751953125,-0.841766357421875,0.3968353271484375
1775705942481357300,12.254357421875,0.15899658203125,-0.85430908203125,0.386138916015625
1775705942491370500,12.26437060546875,0.1450347900390625,-0.8645782470703125,0.38616943359375
1775705942501383400,12.274383544921875,0.134002685546875,-0.8749237060546875,0.3862762451171875
1775705942511396400,12.284396240234376,0.1432342529296875,-0.895233154296875,0.3940277099609375
1775705942521409500,12.294409423828125,0.1481781005859375,-0.9167938232421875,0.4180755615234375
1775705942531422500,12.30442236328125,0.149810791015625,-0.96051025390625,0.4518280029296875
1775705942541434600,12.3144345703125,0.1467742919921875,-1.0186309814453125,0.476898193359375
1775705942551447300,12.324447265625,0.1292877197265625,-1.0889739990234375,0.4983673095703125
1775705942561460500,12.33446044921875,0.1154327392578125,-1.179901123046875,0.5212554931640625
1775705942571473400,12.344473388671876,0.117401123046875,-1.2610626220703125,0.5370635986328125
1775705942581486300,12.354486328125,0.1338348388671875,-1.3323822021484375,0.553192138671875
1775705942591499300,12.364499267578125,0.1681671142578125,-1.3909454345703125,0.568328857421875
1775705942601512400,12.374512451171874,0.2254486083984375,-1.4331817626953125,0.5702362060546875
1775705942611525400,12.384525390625,0.2897796630859375,-1.4647369384765625,0.5572967529296875
1775705942621537500,12.39453759765625,0.3460235595703125,-1.4722442626953125,0.555206298828125
1775705942631550200,12.40455029296875,0.376129150390625,-1.453399658203125,0.5698089599609375
1775705942641563400,12.4145634765625,0.3968963623046875,-1.423492431640625,0.5919189453125
1775705942651576600,12.42457666015625,0.4017486572265625,-1.37957763671875,0.5952606201171875
1775705942661589500,12.434589599609374,0.403900146484375,-1.307342529296875,0.6049652099609375
1775705942671602400,12.4446025390625,0.389617919921875,-1.2433013916015625,0.62005615234375
1775705942681615400,12.454615478515626,0.36328125,-1.182586669921875,0.64312744140625
1775705942691627500,12.46462744140625,0.3239288330078125,-1.12945556640625,0.6679534912109375
1775705942701640400,12.474640380859375,0.2971343994140625,-1.0855560302734375,0.6967010498046875
1775705942711653400,12.4846533203125,0.2761688232421875,-1.0429229736328125,0.7065582275390625
1775705942721666300,12.494666259765625,0.2549591064453125,-1.0060577392578125,0.6855316162109375
1775705942731679500,12.504679443359375,0.2403717041015625,-0.9737548828125,0.652557373046875
1775705942741692400,12.5146923828125,0.219085693359375,-0.9495086669921875,0.6355133056640625
1775705942751705300,12.524705322265625,0.192718505859375,-0.9262847900390625,0.6126556396484375
1775705942761718500,12.534718505859376,0.17303466796875,-0.9058380126953125,0.5814666748046875
1775705942771730400,12.54473046875,0.16168212890625,-0.8917999267578125,0.554290771484375
1775705942781743600,12.55474365234375,0.150390625,-0.875152587890625,0.5411376953125
1775705942791756300,12.56475634765625,0.1466522216796875,-0.8477935791015625,0.519500732421875
1775705942801769500,12.57476953125,0.1345977783203125,-0.833160400390625,0.514251708984375
1775705942811782400,12.584782470703125,0.1051025390625,-0.8331451416015625,0.538055419921875
1775705942821795600,12.594795654296876,0.083953857421875,-0.814910888671875,0.546173095703125
1775705942831808300,12.604808349609375,0.075286865234375,-0.78411865234375,0.5488128662109375
1775705942841821400,12.614821533203125,0.0661773681640625,-0.77423095703125,0.558135986328125
1775705942851833300,12.624833251953126,0.073883056640625,-0.7821197509765625,0.562225341796875
1775705942861846500,12.634846435546875,0.103790283203125,-0.7769775390625,0.54681396484375
1775705942871859200,12.644859130859375,0.1500091552734375,-0.752655029296875,0.5089874267578125
1775705942881872400,12.654872314453126,0.18328857421875,-0.729339599609375,0.46136474609375
1775705942891885600,12.664885498046875,0.218170166015625,-0.7291107177734375,0.4155731201171875
1775705942901898500,12.6748984375,0.252899169921875,-0.736541748046875,0.414947509765625
1775705942911911400,12.684911376953124,0.26202392578125,-0.723114013671875,0.4468536376953125
1775705942921923300,12.69492333984375,0.23370361328125,-0.7263336181640625,0.4785003662109375
1775705942931936500,12.7049365234375,0.20501708984375,-0.7173919677734375,0.4973907470703125
1775705942941949400,12.714949462890624,0.183837890625,-0.694671630859375,0.5171661376953125
1775705942951962400,12.72496240234375,0.158660888671875,-0.683807373046875,0.516082763671875
1775705942961975300,12.734975341796876,0.1400146484375,-0.658782958984375,0.500335693359375
1775705942971988500,12.744988525390625,0.1301727294921875,-0.639739990234375,0.4681549072265625
1775705942982001400,12.75500146484375,0.1556854248046875,-0.6400909423828125,0.415679931640625
1775705942992014300,12.765014404296876,0.20220947265625,-0.6401519775390625,0.3562774658203125
1775705943002026200,12.775026123046874,0.2283172607421875,-0.640106201171875,0.3135223388671875
1775705943012039400,12.785039306640625,0.2430419921875,-0.650299072265625,0.318115234375
1775705943022052600,12.795052490234376,0.2463531494140625,-0.6546630859375,0.3469390869140625
1775705943032065300,12.805065185546875,0.2398681640625,-0.654571533203125,0.38592529296875
1775705943042078500,12.815078369140625,0.232421875,-0.67584228515625,0.4350738525390625
1775705943052091400,12.82509130859375,0.216949462890625,-0.67987060546875,0.4543609619140625
1775705943062104600,12.8351044921875,0.21710205078125,-0.6711883544921875,0.4685821533203125
1775705943072117200,12.8451171875,0.2094879150390625,-0.6775665283203125,0.4851226806640625
1775705943082129400,12.85512939453125,0.228179931640625,-0.6719512939453125,0.489349365234375
1775705943092142600,12.865142578125,0.2732696533203125,-0.6691131591796875,0.4803619384765625
1775705943102155800,12.87515576171875,0.293975830078125,-0.66424560546875,0.46502685546875
1775705943112168400,12.88516845703125,0.3099365234375,-0.67071533203125,0.44940185546875
1775705943122181600,12.895181640625,0.3076629638671875,-0.68377685546875,0.4467010498046875
1775705943132194800,12.90519482421875,0.28668212890625,-0.6920623779296875,0.4516448974609375
1775705943142207700,12.915207763671875,0.2397308349609375,-0.71435546875,0.446533203125
1775705943152219600,12.9252197265625,0.18896484375,-0.7215576171875,0.443450927734375
1775705943162232600,12.935232666015626,0.176116943359375,-0.731964111328125,0.4562225341796875
1775705943172245800,12.945245849609375,0.156280517578125,-0.7239837646484375,0.4592742919921875
1775705943182258700,12.9552587890625,0.153045654296875,-0.7230682373046875,0.4734954833984375
1775705943192271600,12.965271728515624,0.16448974609375,-0.72979736328125,0.484619140625
1775705943202284500,12.975284423828125,0.16302490234375,-0.7531585693359375,0.4944000244140625
1775705943212297700,12.985297607421876,0.1683807373046875,-0.77911376953125,0.5024261474609375
1775705943222310700,12.995310546875,0.15399169921875,-0.7412872314453125,0.4996490478515625
1775705943232322800,13.00532275390625,0.1558837890625,-0.7349700927734375,0.488433837890625
1775705943242335500,13.01533544921875,0.1764984130859375,-0.7309112548828125,0.4599456787109375
1775705943252348700,13.0253486328125,0.1940155029296875,-0.716278076171875,0.4294586181640625
1775705943262361900,13.03536181640625,0.226898193359375,-0.7288970947265625,0.387786865234375
1775705943272374500,13.04537451171875,0.2473602294921875,-0.713623046875,0.342803955078125
