time,seconds_elapsed,z,y,x
1775705930280695600,0.053695556640625,-2.4234112418971954,-9.153810360890626,2.550533793118596
1775705930290708200,0.063708251953125,-2.4096176943443712,-9.1661899499923,2.5189438921123743
1775705930300721400,0.073721435546875,-2.377762420400232,-9.183835496798157,2.4847145825132726
1775705930310734300,0.083734375,-2.318793075689673,-9.206733557304739,2.4555367110848425
1775705930320747300,0.093747314453125,-2.229262150107324,-9.234926801609992,2.432468408577889
1775705930330760200,0.10376025390625,-2.1154728354506194,-9.265730520674586,2.416899668046087
1775705930340772400,0.1137724609375,-1.9903006876446305,-9.293999752825497,2.4146722012549637
1775705930350785300,0.123785400390625,-1.8648761725127696,-9.316147287225723,2.4294090210072694
1775705930360798500,0.133798583984375,-1.7490696728147566,-9.32972982237637,2.4631845954895017
1775705930370811100,0.14381103515625,-1.6429523540906608,-9.337323930767178,2.507088034623861
1775705930380824300,0.15382421875,-1.5429969189971684,-9.343214742371439,2.5483073492407797
1775705930390837500,0.16383740234375,-1.4593870540268719,-9.343919675770401,2.5945637812420723
1775705930400849400,0.173849365234375,-1.4059661372236907,-9.33509982497692,2.6550994984865186
1775705930410862300,0.1838623046875,-1.38893053900972,-9.317430897295475,2.725209976544976
1775705930420875300,0.193875244140625,-1.4177027522467076,-9.2940734025836,2.7893948639467356
1775705930430888400,0.203888427734375,-1.4690443785578011,-9.268050488054751,2.8487773195028305
1775705930440901400,0.2139013671875,-1.511414762905985,-9.241437206417322,2.9123586880534886
1775705930450914300,0.223914306640625,-1.5339569957122206,-9.210933347082138,2.9960104924693702
1775705930460926200,0.23392626953125,-1.5371600295372307,-9.171162477707862,3.114051180960238
1775705930470939400,0.243939453125,-1.5219500393152237,-9.117570003730059,3.2747482311338185
1775705930480952300,0.253952392578125,-1.4901447419926523,-9.046828826552629,3.4791865156173705
1775705930490965200,0.26396533203125,-1.4357405132405459,-8.959279137915372,3.7202608785808082
1775705930500978200,0.273978271484375,-1.3566928416192532,-8.876130314585566,3.9425975155875084
1775705930510991400,0.283991455078125,-1.3125938799127936,-8.847148550251125,4.021872420093417
1775705930521003300,0.294003173828125,-1.2967694110542536,-8.9033725417763,3.9011160429030656
1775705930531016400,0.304016357421875,-1.248501200839132,-9.012374183765052,3.6590626057744022
1775705930541029000,0.314029052734375,-1.1650425078425555,-9.13547215564549,3.36989787338078
1775705930551042300,0.324042236328125,-1.050668159839511,-9.239900498369336,3.1129891046866773
1775705930561055500,0.334055419921875,-0.932877281391248,-9.308848946911096,2.9403157855153084
1775705930571068200,0.344068115234375,-0.820505651512742,-9.350586147922277,2.83966725359112
1775705930581080300,0.354080322265625,-0.715447413387522,-9.374531087133288,2.7886718103691934
1775705930591093200,0.36409326171875,-0.6215100695397704,-9.386227370145916,2.7717978324577213
1775705930601106400,0.3741064453125,-0.5349941078644246,-9.390554001173376,2.7751877671569583
1775705930611119400,0.384119384765625,-0.45701523451842363,-9.39250513524115,2.7825074425205587
1775705930621132300,0.39413232421875,-0.3895408771172166,-9.397029919189213,2.777487860792875
1775705930631145200,0.404145263671875,-0.3404161231379956,-9.408641446527838,2.7444389931499957
1775705930641157400,0.414157470703125,-0.31281971221473065,-9.430716500213741,2.6709718981400132
1775705930651170300,0.42417041015625,-0.29501360455229875,-9.459677221760153,2.568626499170065
1775705930661183200,0.434183349609375,-0.27815464154686775,-9.484574347129463,2.477071082022786
1775705930671196200,0.444196044921875,-0.24996055699139832,-9.494385547047854,2.442247021400928
1775705930681209300,0.454209228515625,-0.20247991695739329,-9.48583223823607,2.4795915404111146
1775705930691222500,0.464222412109375,-0.1394913449344225,-9.464764315766095,2.563036424078047
1775705930701234400,0.474234375,-0.07001373968571424,-9.438837847349047,2.6596689983591437
1775705930711247400,0.484247314453125,0.00039863558049219136,-9.412951710942387,2.750766150344908
1775705930721260300,0.49426025390625,0.06928853981685824,-9.390898869088291,2.824288774934411
1775705930731273500,0.5042734375,0.12469649311825633,-9.381499172580241,2.8534771677568553
1775705930741286400,0.514286376953125,0.16576394164171068,-9.379875955292581,2.8567165880694985
1775705930751299300,0.52429931640625,0.20338126797759903,-9.37911490779221,2.856787607479095
1775705930761311200,0.534311279296875,0.23592401272924615,-9.375850353038311,2.8649881573304534
1775705930771324400,0.544324462890625,0.2554265125134028,-9.370121453997493,2.882008557975292
1775705930781337300,0.55433740234375,0.2643032445932738,-9.364051194173097,2.9008760477915403
1775705930791350300,0.564350341796875,0.2705707257565111,-9.358516356399655,2.918109798926115
1775705930801363200,0.57436328125,0.27634934569057074,-9.352438497790693,2.936986641092598
1775705930811376400,0.58437646484375,0.28321932279160245,-9.345795406514405,2.9574060365259647
1775705930821388300,0.59438818359375,0.29247537304526194,-9.339922130566835,2.975007451929152
1775705930831401500,0.6044013671875,0.30386620683791116,-9.335279273197054,2.9884152150347827
1775705930841414100,0.6144140625,0.3163806195667013,-9.331154302221536,2.999977642534673
1775705930851427300,0.62442724609375,0.32806524867415426,-9.326351285853981,3.013623306049406
1775705930861440500,0.6344404296875,0.33434144286680967,-9.320194516789913,3.0319281935468316
1775705930871453200,0.644453125,0.33335856930930163,-9.313164472022653,3.0535619332060215
1775705930881465300,0.65446533203125,0.3271211362244561,-9.305864378142356,3.0764062176987528
1775705930891478300,0.664478271484375,0.31551925349701193,-9.298317616024613,3.1003397587329147
1775705930901491500,0.674491455078125,0.2976311666395515,-9.290605434212088,3.1251296243354676
1775705930911504400,0.68450439453125,0.27650689260615036,-9.282943521282077,3.149741210761666
1775705930921517300,0.694517333984375,0.2554908099212684,-9.274702931681276,3.1756884297057986
1775705930931530200,0.7045302734375,0.23689819152364505,-9.265437090685962,3.204046509183943
1775705930941542400,0.71454248046875,0.221607445949316,-9.255414878365396,3.233972568631172
1775705930951555300,0.724555419921875,0.2105926423948258,-9.245812937283516,3.2620527079507706
1775705930961568300,0.734568359375,0.20472409742129966,-9.237538445413112,3.285780789540708
1775705930971581200,0.744581298828125,0.20166573276398703,-9.230674404862523,3.305204159674048
1775705930981594400,0.754594482421875,0.2016752495110035,-9.224703513759374,3.3218300080433485
1775705930991607600,0.764607666015625,0.2081817818608135,-9.218971692109108,3.337304640550911
1775705931001619500,0.774619384765625,0.22682501620082182,-9.212288268822432,3.35450244358927
1775705931011632400,0.78463232421875,0.26269664964685213,-9.203679430431126,3.375449954549968
1775705931021645300,0.794645263671875,0.3134064625941217,-9.193689366814494,3.398271734949946
1775705931031658500,0.804658447265625,0.37257038002870974,-9.183745480427145,3.419126599191129
1775705931041671200,0.814671142578125,0.43277693838402626,-9.173996239829062,3.4381501563519237
1775705931051684400,0.824684326171875,0.48391686811055984,-9.16480580215752,3.455798041245341
1775705931061696300,0.8346962890625,0.522459839657694,-9.156963271963596,3.470944464711845
1775705931071709400,0.84470947265625,0.5512920394536107,-9.151721864178777,3.4802956459030505
1775705931081721600,0.8547216796875,0.5714186259528622,-9.151345432081818,3.4780388068869708
1775705931091734500,0.864734619140625,0.5808915338275954,-9.155430655568837,3.4656925355330106
1775705931101747700,0.874747802734375,0.5796454427566379,-9.159720461717248,3.454548041184246
1775705931111760600,0.8847607421875,0.5710859964650123,-9.161203393751382,3.4520410267993804
1775705931121772800,0.894772705078125,0.5644702315870672,-9.160396753543615,3.455265249542892
1775705931131785700,0.90478564453125,0.5645027456171811,-9.159465610173344,3.4577333932220933
1775705931141798700,0.914798583984375,0.5692049319587648,-9.15937910093367,3.4571897878646847
1775705931151811600,0.9248115234375,0.5763122797459364,-9.160344146573543,3.453452062641084
1775705931161824800,0.93482470703125,0.585316072271578,-9.162747700583934,3.445550495736301
1775705931171837700,0.944837646484375,0.5971599835939705,-9.166650553241372,3.4331153770551084
1775705931181849600,0.954849609375,0.6130011113263666,-9.170873723894356,3.4190170013368126
1775705931191862500,0.964862548828125,0.6367489205300808,-9.172282421648502,3.4108877631559964
1775705931201875700,0.974875732421875,0.6692966337177902,-9.169379101422429,3.4124624651268123
1775705931211888600,0.984888671875,0.7100798950050026,-9.163798086419702,3.4192046328634023
1775705931221901600,0.994901611328125,0.7547932622827589,-9.157186559325456,3.427328610347211
1775705931231914800,1.004914794921875,0.7993629833061248,-9.148773535767196,3.4396737126573917
1775705931241926700,1.0149267578125,0.8444166153889149,-9.136827661907672,3.4605998885691163
1775705931251939800,1.02493994140625,0.8912982666164636,-9.121811879083515,3.488344512324035
1775705931261952500,1.034952392578125,0.9367655940666795,-9.105866706454753,3.5179619442135093
1775705931271965700,1.044965576171875,0.9781957018900662,-9.090043114379048,3.5474843912959098
1775705931281978600,1.054978515625,1.0147379646066577,-9.073741383397579,3.5788188562363383
1775705931291991800,1.06499169921875,1.0453759717155247,-9.05812997276783,3.6094139009863135
1775705931302003700,1.075003662109375,1.0696000931940972,-9.044432871326803,3.6365611433699723
1775705931312016600,1.0850166015625,1.0882030137900263,-9.033079118141531,3.6591914928510785
1775705931322029600,1.095029541015625,1.100480896082893,-9.023784051051736,3.678407065452635
1775705931332042800,1.105042724609375,1.106488685130328,-9.016393356278538,3.6946935988649723
1775705931342055700,1.1150556640625,1.1083084479033947,-9.011177667456865,3.7068458089515564
1775705931352068600,1.125068603515625,1.1057946384515613,-9.00842456935644,3.714280635127425
1775705931362080500,1.13508056640625,1.0978193487234413,-9.007631373152137,3.718568979971111
1775705931372093700,1.14509375,1.084843255033344,-9.007105887973308,3.7236461371049283
1775705931382106600,1.155106689453125,1.0719654340859501,-9.004197891572117,3.73439403335154
1775705931392119600,1.16511962890625,1.0645628296792506,-8.997421529304981,3.752800627657771
1775705931402132700,1.1751328125,1.0642913923267274,-8.98693988277912,3.777902335688472
1775705931412145700,1.185145751953125,1.0688182951666414,-8.972889145594834,3.809888250274956
1775705931422158600,1.19515869140625,1.0746841915253549,-8.955321340200305,3.8493697813138366
1775705931432170800,1.205170654296875,1.0787184885427354,-8.934417083859444,3.89652900737375
1775705931442183700,1.21518359375,1.0832889382634312,-8.909996928352117,3.95080069578737
1775705931452196600,1.225196533203125,1.096059718639776,-8.882222786241769,4.009384986703098
1775705931462209800,1.235209716796875,1.1195789797846227,-8.85323751477599,4.066583376218379
1775705931472222500,1.245222412109375,1.148704609569162,-8.825029072901605,4.11943467644006
1775705931482235600,1.255235595703125,1.1779401294689624,-8.796981374546885,4.170848052813112
1775705931492247600,1.26524755859375,1.1994043577801436,-8.769784740063548,4.221693566170335
1775705931502260700,1.2752607421875,1.203845847358927,-8.748107745784521,4.265179948936402
1775705931512273700,1.285273681640625,1.1883924037698657,-8.736965589523315,4.292267862348258
1775705931522286600,1.29528662109375,1.1581848970327526,-8.737117565214634,4.300210638046265
1775705931532299800,1.3052998046875,1.1226103103045373,-8.744708750995994,4.294204675629735
1775705931542312700,1.315312744140625,1.0873404056113212,-8.754238211363553,4.283850454875827
1775705931552324900,1.325324951171875,1.060532039793208,-8.76071705198884,4.277324560238421
1775705931562337500,1.335337646484375,1.0488803265746682,-8.762336177623272,4.276882369428873
1775705931572350700,1.345350830078125,1.0526695627897977,-8.760146558624506,4.280433632169664
1775705931582363600,1.35536376953125,1.0679904660403727,-8.755480904901027,4.286180066867172
1775705931592376800,1.365376953125,1.0892221277046947,-8.749831500837207,4.292368692374229
1775705931602389500,1.375389404296875,1.1056648015268147,-8.745129022234678,4.297741033062339
1775705931612401700,1.385401611328125,1.107166949718073,-8.74197260403037,4.303773591224849
1775705931622414600,1.39541455078125,1.095205732158944,-8.7399191786319,4.31099915856421
1775705931632427800,1.405427734375,1.0760827332116663,-8.738319926741719,4.3190518243774765
1775705931642440400,1.4154404296875,1.0553856168154627,-8.737147960352898,4.326523767693341
1775705931652453600,1.42545361328125,1.0360207719363272,-8.737056190416217,4.331385236249864
1775705931662466800,1.435466796875,1.0205524230390786,-8.738104238164425,4.332945617434382
1775705931672478700,1.445478759765625,1.0116635255973785,-8.740670289260148,4.329849697245657
1775705931682491600,1.45549169921875,1.015300274664536,-8.743384224393964,4.323516402570903
1775705931692504600,1.465504638671875,1.0363225313618778,-8.743598743927478,4.318091162651777
1775705931702517800,1.475517822265625,1.072837686875835,-8.739769541028142,4.316925041481852
1775705931712530700,1.48553076171875,1.1217943177465348,-8.732097691226006,4.320000211143493
1775705931722543600,1.495543701171875,1.177500130616501,-8.721402109688519,4.326780665063858
1775705931732555500,1.505555419921875,1.2318427653744817,-8.708212373247742,4.338201053744554
1775705931742568700,1.515568603515625,1.2826204741925,-8.692780410838127,4.3544063386142255
1775705931752581600,1.52558154296875,1.333775784151256,-8.674512348219752,4.375414347590506
1775705931762594800,1.5355947265625,1.3875608580917118,-8.652798529061675,4.401608819293975
1775705931772607500,1.545607421875,1.4445241236768662,-8.628079098346829,4.431700590696931
1775705931782620700,1.55562060546875,1.5013142246522009,-8.602911339342594,4.461656168499589
1775705931792632600,1.565632568359375,1.5540310848392545,-8.577671684145926,4.492095730426907
1775705931802645800,1.575645751953125,1.6027276034690439,-8.551167708101868,4.525394188916683
1775705931812658400,1.585658447265625,1.648496544214338,-8.523889825075864,4.560276993988454
1775705931822671600,1.595671630859375,1.6915271460369228,-8.498284259176254,4.592199487949907
1775705931832684800,1.605684814453125,1.7271591620407998,-8.476738782322407,4.618682713466883
1775705931842697700,1.61569775390625,1.7506451054379344,-8.460192136669159,4.640127360294759
1775705931852710700,1.625710693359375,1.7599813813209533,-8.448374273103475,4.658090302486717
1775705931862722600,1.63572265625,1.7578211345471442,-8.440406070703268,4.673328495889902
1775705931872735700,1.64573583984375,1.7490765409469604,-8.435484396392107,4.685480121454596
1775705931882748700,1.655748779296875,1.736944642996043,-8.432227440422773,4.695843694558739
1775705931892761600,1.66576171875,1.7229200631663202,-8.428677054464817,4.707371050745248
1775705931902774500,1.6757744140625,1.710433360428363,-8.423519817832112,4.721134203159809
1775705931912787700,1.68578759765625,1.703436048886925,-8.417165480369329,4.734979188638925
1775705931922799600,1.695799560546875,1.7033841725692151,-8.410458676207066,4.746900804840028
1775705931932812800,1.705812744140625,1.708215684378892,-8.403563071474432,4.757366669274866
1775705931942825500,1.715825439453125,1.7147558998025954,-8.395769056597352,4.768760462209582
1775705931952838700,1.725838623046875,1.7215407376371323,-8.386462299069763,4.782673544488847
1775705931962851800,1.735851806640625,1.72635179118067,-8.376777355879545,4.79788748023361
1775705931972864500,1.745864501953125,1.7270988101556897,-8.368004851359128,4.812902094013989
1775705931982876700,1.755876708984375,1.7239084896817802,-8.360755026361346,4.826627544766664
1775705931992889600,1.7658896484375,1.7164496981084345,-8.356193417534232,4.837169397047162
1775705932002902800,1.77590283203125,1.7055569865636526,-8.355140693610906,4.842837505811453
1775705932012915700,1.785915771484375,1.6931958099015056,-8.357309854343534,4.843433425877988
1775705932022928600,1.7959287109375,1.6803202539764344,-8.361953296235203,4.839903205925226
1775705932032941600,1.805941650390625,1.6671838551580904,-8.368192482885718,4.833659343099594
1775705932042953700,1.81595361328125,1.6530600527375936,-8.375254676356912,4.826272739979625
1775705932052966700,1.825966552734375,1.6370841927096247,-8.382571136850117,4.819011224544048
1775705932062979600,1.8359794921875,1.6202802112944423,-8.389509996202587,4.812608956286311
1775705932072992500,1.845992431640625,1.6050214134946466,-8.395805881476402,4.8067365571215745
1775705932083005400,1.85600537109375,1.5929488445155322,-8.401798984411359,4.800279928328097
1775705932093018400,1.866018310546875,1.581723978406936,-8.408761224639415,4.791794716316462
1775705932103030500,1.876030517578125,1.5692960201188921,-8.417419162869454,4.780666588580608
1775705932113043200,1.886043212890625,1.556292307769507,-8.426877896088362,4.7682358538135885
1775705932123056400,1.896056396484375,1.5435766185812652,-8.43644535037875,4.755431609559059
1775705932133069600,1.906069580078125,1.531497473730892,-8.445766720953584,4.742779048734903
1775705932143082500,1.91608251953125,1.519156755334884,-8.454310092893243,4.7315091744408
1775705932153095400,1.926095458984375,1.5042431177109479,-8.461898940587043,4.722701306346059
1775705932163108400,1.9361083984375,1.4897230094492435,-8.468408176350593,4.715632975395024
1775705932173120500,1.94612060546875,1.4805863477915524,-8.474164547920227,4.708161324340105
1775705932183133400,1.956133544921875,1.4781081211097538,-8.479705815434455,4.698955104577541
1775705932193146400,1.966146484375,1.4809540120601654,-8.485473877441883,4.687630577486753
1775705932203159300,1.9761591796875,1.4870665035910904,-8.491105745849012,4.675482751314342
1775705932213172500,1.98617236328125,1.4950700695656238,-8.495489075499773,4.664960188256204
1775705932223185400,1.996185302734375,1.5038836367487907,-8.498335112580657,4.6569347027108074
1775705932233197600,2.006197509765625,1.5122345548562706,-8.500468032956123,4.650330482140183
1775705932243210200,2.016210205078125,1.5198574509501457,-8.50274825284779,4.6436739468604324
1775705932253223400,2.026223388671875,1.5272414237216114,-8.505977736288308,4.635328727841377
1775705932263236600,2.036236572265625,1.536436829829216,-8.510651573318242,4.623698495802283
1775705932273249300,2.046249267578125,1.548505891676992,-8.516915309888123,4.608106958916783
1775705932283262500,2.056262451171875,1.5615886606119571,-8.524919752645491,4.588853976914287
1775705932293274400,2.0662744140625,1.5748253049343823,-8.534333477678894,4.566778338706493
1775705932303287600,2.07628759765625,1.587680256462842,-8.544794081416725,4.542704512418807
1775705932313300500,2.086300537109375,1.601349008592218,-8.555313137343525,4.51804119580537
1775705932323313400,2.0963134765625,1.6158920593380928,-8.56541367559731,4.4936593264818185
1775705932333326300,2.106326416015625,1.627382736776024,-8.575860250809788,4.469522371830046
1775705932343339500,2.116339599609375,1.6330819713309406,-8.58755068860352,4.444931243669987
1775705932353351400,2.126351318359375,1.633297659908235,-8.600395557129383,4.419943517407774
1775705932363364400,2.1363642578125,1.629805580008775,-8.61337778829932,4.395889272603393
1775705932373377300,2.146377197265625,1.622123208812624,-8.626463479843736,4.373011378102004
1775705932383390500,2.156390380859375,1.608718806707859,-8.639540988081693,4.352100399759411
1775705932393403400,2.1664033203125,1.5903537134557961,-8.651796658542752,4.3344671279132365
1775705932403416300,2.176416259765625,1.5685947399817406,-8.662459506854415,4.321072516550124
1775705932413428200,2.18642822265625,1.5442330366633832,-8.671243117290734,4.312223731923103
1775705932423441400,2.19644140625,1.5168136993400751,-8.67897341928184,4.306399848075211
1775705932433454600,2.20645458984375,1.4882742719456552,-8.686195187228918,4.301792062018811
1775705932443467300,2.21646728515625,1.46182904035151,-8.691679171597958,4.299787444198131
1775705932453480400,2.22648046875,1.439511263950914,-8.69499399523437,4.300611912323534
1775705932463493400,2.236493408203125,1.4233829898402095,-8.69635476219356,4.303228232301771
1775705932473505500,2.246505615234375,1.4134142612725495,-8.695918124341965,4.307394119809568
1775705932483518500,2.2565185546875,1.4066225553058087,-8.693979849755763,4.313526046693325
1775705932493531400,2.266531494140625,1.4003855606123805,-8.691014570209383,4.321526982319355
1775705932503544300,2.27654443359375,1.3944682993926107,-8.68736540005207,4.330764766263962
1775705932513557500,2.2865576171875,1.390914698564261,-8.683963482654095,4.338719524660706
1775705932523570200,2.296570068359375,1.3912835318766534,-8.681123875313997,4.344281542702019
1775705932533583400,2.306583251953125,1.3954590639956295,-8.67867414407432,4.3478368970960375
1775705932543595300,2.31659521484375,1.4010180132970214,-8.677049757742882,4.349288849470019
1775705932553608400,2.3266083984375,1.4070057094044983,-8.676375219482184,4.348703158536553
1775705932563621600,2.33662158203125,1.4132802596293388,-8.676466404896974,4.3464895741403105
1775705932573634300,2.34663427734375,1.4189194345600902,-8.677679287818073,4.34222811730355
1775705932583647500,2.3566474609375,1.4235754436723886,-8.679771291661263,4.336515584875643
1775705932593660400,2.366660400390625,1.4255286235667763,-8.682023454502225,4.331362439896166
1775705932603672600,2.376672607421875,1.4235719365410506,-8.684535145062208,4.326970926938951
1775705932613685200,2.386685302734375,1.4204282316878438,-8.687975056383014,4.321095312903822
1775705932623698400,2.396698486328125,1.4193481813661752,-8.6920111800313,4.3133276015117765
1775705932633711400,2.40671142578125,1.4199343106910585,-8.696110432043671,4.304858463852107
1775705932643724500,2.416724609375,1.419347304583341,-8.70012259029448,4.296940530334413
1775705932653737200,2.4267373046875,1.415829359590262,-8.704213074478506,4.289812870411574
1775705932663749400,2.436749267578125,1.4105978886775672,-8.707841201847792,4.284166681218147
1775705932673762300,2.44676220703125,1.405317171795666,-8.710755043467879,4.279976828312874
1775705932683775500,2.456775390625,1.4002309545725584,-8.713549642622471,4.275957655799389
1775705932693788400,2.466788330078125,1.3955236536644398,-8.717054435873031,4.270346830180287
1775705932703801300,2.47680126953125,1.3926947138488293,-8.721586234083771,4.262010086728632
1775705932713814500,2.486814453125,1.3919234372153877,-8.726500894132256,4.252187196372449
1775705932723827500,2.496827392578125,1.393630387263745,-8.731534212124346,4.241280017910897
1775705932733839600,2.506839599609375,1.3974867704309522,-8.736793155565858,4.229168432095647
1775705932743852300,2.516852294921875,1.4040527048178015,-8.742097691714763,4.216007629488408
1775705932753865500,2.526865478515625,1.4120705915786325,-8.747139193013309,4.202857640536129
1775705932763878400,2.53687841796875,1.4205484970666467,-8.751306834086776,4.191309533822536
1775705932773891300,2.546891357421875,1.4300377715542911,-8.754251070845127,4.181923281317949
1775705932783904300,2.556904296875,1.439513602038473,-8.75639100548327,4.174185380542278
1775705932793916400,2.56691650390625,1.4485812901131807,-8.758248031526804,4.1671474447295065
1775705932803929300,2.576929443359375,1.456729232994467,-8.76028625935614,4.160013355065882
1775705932813942500,2.586942626953125,1.4621252468191086,-8.762731898942588,4.152968112729489
1775705932823955200,2.596955078125,1.4646975815251468,-8.765321915435791,4.146590102130174
1775705932833968400,2.606968505859375,1.4658698401749133,-8.767380601531267,4.141818357683718
1775705932843981600,2.616981689453125,1.4678135215885937,-8.768468981289862,4.138825021086633
1775705932853993500,2.626993408203125,1.4724952496640384,-8.767973891249298,4.1382101040586825
1775705932864006400,2.63700634765625,1.4797697707116604,-8.765355233183502,4.141160186035931
1775705932874019300,2.647019287109375,1.4880219046197831,-8.760725819817186,4.147996754057705
1775705932884032500,2.657032470703125,1.4958701339021325,-8.75474732992947,4.157780189186334
1775705932894045400,2.66704541015625,1.5028677377045154,-8.747546020248532,4.17039534060955
1775705932904058400,2.677058349609375,1.5065160310789942,-8.738824953654408,4.187330693319439
1775705932914071300,2.6870712890625,1.503377733053267,-8.729172159168124,4.208540362347662
1775705932924083500,2.69708349609375,1.4959516747057438,-8.719811041104792,4.230533582969009
1775705932934096400,2.707096435546875,1.4882223956279457,-8.711208047932386,4.250934565962851
1775705932944109300,2.717109375,1.4822029892079531,-8.702726635313034,4.270365242619812
1775705932954122200,2.727122314453125,1.4781094362840055,-8.693599910527468,4.290328126457333
1775705932964135400,2.737135498046875,1.4755872243300079,-8.684030702671409,4.310528618443012
1775705932974148600,2.747148681640625,1.4752508319824933,-8.674339329740405,4.330110394008457
1775705932984160500,2.757160400390625,1.4772735699817536,-8.66485546208024,4.348369396537542
1775705932994173400,2.76717333984375,1.4811638554185629,-8.656153100186586,4.364348763696849
1775705933004186400,2.777186279296875,1.487445858297497,-8.64922359318435,4.375935448855161
1775705933014199600,2.787199462890625,1.4969962153226137,-8.644121886131167,4.38275535800308
1775705933024212500,2.79721240234375,1.5089657623186707,-8.640359903249143,4.386067551290989
1775705933034225400,2.807225341796875,1.5219636294491588,-8.63742209623158,4.387362559537589
1775705933044237300,2.8172373046875,1.5361134430937469,-8.634568460366129,4.3880490804970265
1775705933054250500,2.82725048828125,1.5508401798434555,-8.631187001234293,4.3895217833980915
1775705933064263400,2.837263427734375,1.5639270404316483,-8.627436124268174,4.392251792883873
1775705933074276400,2.8472763671875,1.574578782827407,-8.623364344784617,4.396438430918753
1775705933084289800,2.857289794921875,1.5833653158731757,-8.619024269753695,4.401790313340723
1775705933094303000,2.867302978515625,1.5907694546498357,-8.615189221635461,4.406626355195045
1775705933104315600,2.877315673828125,1.5987893872372805,-8.612135094761848,4.409693633811176
1775705933114327600,2.88732763671875,1.608154304692894,-8.609455061897634,4.411518803411722
1775705933124340700,2.8973408203125,1.6180964375145732,-8.607324479609728,4.412039027893543
1775705933134354000,2.90735400390625,1.6272168786898253,-8.606410287374258,4.410468125315011
1775705933144366800,2.917366943359375,1.6351792358711361,-8.606262987858056,4.4078120578482745
1775705933154379800,2.9273798828125,1.642017411328107,-8.605963712650537,4.405853909517824
1775705933164392700,2.937392822265625,1.6467681129865348,-8.605461023825406,4.40506071331352
1775705933174404900,2.94740478515625,1.649277027067542,-8.605273976820706,4.404493434819579
1775705933184417800,2.957417724609375,1.6497567734085024,-8.6058468082726,4.403192581354081
1775705933194430700,2.9674306640625,1.649770217411965,-8.607146784955262,4.400645234958827
1775705933204443600,2.977443603515625,1.6500133785180746,-8.608226981407403,4.398438080303371
1775705933214456800,2.987456787109375,1.650226290616393,-8.60879338311851,4.397251793128252
1775705933224470000,2.997469970703125,1.6499527343720197,-8.609298410031199,4.396366826987267
1775705933234482000,3.00748193359375,1.6498698783941566,-8.609637432727217,4.395731743954122
1775705933244494600,3.01749462890625,1.649762910888344,-8.609746738320588,4.395556387387216
1775705933254507800,3.0275078125,1.648461180640012,-8.60976018232405,4.396019036462903
1775705933264521000,3.03752099609375,1.6459401377297938,-8.60948253442645,4.397508982759714
1775705933274533600,3.04753369140625,1.6427540550395845,-8.608871709051728,4.399897046940028
1775705933284546800,3.057546875,1.6399708540618418,-8.608167944696545,4.40230907651782
1775705933294559700,3.067559814453125,1.6375827898815274,-8.60770909501314,4.404097713500261
1775705933304572000,3.077572021484375,1.6343877932325004,-8.60767460822165,4.405352681997418
1775705933314584800,3.087584716796875,1.6300919957347213,-8.608131704339385,4.406050016611815
1775705933324597800,3.09759765625,1.625429118490219,-8.608649006211758,4.406760502968728
1775705933334610700,3.107610595703125,1.6200452334947884,-8.608934252893924,4.408187613162398
1775705933344623900,3.117623779296875,1.614271618529409,-8.609322375428675,4.4095483801215885
1775705933354636500,3.127636474609375,1.6093649956569074,-8.610127846592665,4.409767868091166
1775705933364649700,3.137649658203125,1.605237540463358,-8.61173761987686,4.408128868712485
1775705933374661600,3.14766162109375,1.6016180347919464,-8.614193196335435,4.404644241467118
1775705933384674800,3.1576748046875,1.598326153639704,-8.61667975245416,4.400977535653114
1775705933394688000,3.16768798828125,1.5949728976890445,-8.618487094137071,4.398649969488382
1775705933404700700,3.17770068359375,1.5906369143113492,-8.619787070819735,4.3976761560201645
1775705933414713900,3.1877138671875,1.5845520414397118,-8.621006968003512,4.397482971535623
1775705933424726800,3.197726806640625,1.5780932206891476,-8.622439631155133,4.396995772540569
1775705933434739000,3.207739013671875,1.5734538704507053,-8.624071616271138,4.3954546805784105
1775705933444751600,3.217751708984375,1.5726901926018297,-8.625991186156869,4.391963039070368
1775705933454764800,3.227764892578125,1.5764087747335433,-8.627792098098993,4.387085788422823
1775705933464777700,3.23777783203125,1.5831038884580135,-8.629000304844975,4.382292708927393
1775705933474791000,3.247791015625,1.5911368266575037,-8.629605285000801,4.378194918219745
1775705933484803600,3.257803466796875,1.5984136857926845,-8.629935539868473,4.374890031455457
1775705933494815700,3.267815673828125,1.6033261538840828,-8.630205004459619,4.372562465290725
1775705933504828700,3.27782861328125,1.6041032757364213,-8.630020880064368,4.372639622180164
1775705933514841900,3.287841796875,1.6003956533901393,-8.62936387746036,4.375293643820285
1775705933524854800,3.297854736328125,1.593584804331511,-8.628371943813562,4.379731918528676
1775705933534867700,3.30786767578125,1.5854706175893545,-8.627280641445518,4.38482456549257
1775705933544881000,3.317880859375,1.5774932089693843,-8.626330793374777,4.3895682528883215
1775705933554893800,3.327893798828125,1.5708046711161732,-8.625870774647593,4.392871678347885
1775705933564906000,3.337906005859375,1.5662493458993731,-8.626486860719323,4.393290196020901
1775705933574918700,3.347918701171875,1.5636574297100305,-8.628440332874655,4.390374893096089
1775705933584931800,3.357931884765625,1.5619408350504933,-8.630970143613219,4.386008806841075
1775705933594944800,3.36794482421875,1.5600649581760166,-8.63346780564785,4.381759917224944
1775705933604957700,3.377957763671875,1.557842459820956,-8.635528245308995,4.378493024383485
1775705933614970600,3.387970703125,1.5546310965590178,-8.637429110494255,4.3758828418850895
1775705933624983800,3.39798388671875,1.5503846911609171,-8.639111364492774,4.374066732373834
1775705933634995700,3.40799560546875,1.5461797868169844,-8.640411925697325,4.372984782356023
1775705933645009000,3.4180087890625,1.541755686764419,-8.642032220375537,4.371345490716397
1775705933655021600,3.428021484375,1.5377271619006991,-8.64489930024445,4.367092801707983
1775705933665034800,3.43803466796875,1.5346940778151155,-8.64959768719375,4.358849289497733
1775705933675048000,3.4480478515625,1.5319402490623295,-8.655907016471028,4.347277801908552
1775705933685060900,3.458060791015625,1.5287646877661347,-8.662925370800494,4.334398154330254
1775705933695072800,3.46807275390625,1.5249064049027858,-8.670378609415888,4.3208314012706275
1775705933705085700,3.478085693359375,1.520267200794816,-8.677824249246717,4.307500210532546
1775705933715099000,3.488098876953125,1.5145808257214723,-8.684259835252165,4.296518797791004
1775705933725111800,3.49811181640625,1.508193755032867,-8.689151114425062,4.288864775906503
1775705933735124700,3.508124755859375,1.5009654112145303,-8.692415084657073,4.284792704162001
1775705933745137700,3.5181376953125,1.4921395690716803,-8.694404212647676,4.28383438052386
1775705933755150800,3.52815087890625,1.483387815078348,-8.695543445810674,4.284564740625024
1775705933765162800,3.538162841796875,1.4759996045231818,-8.695793036657571,4.286609690456092
1775705933775176000,3.548176025390625,1.470057647253573,-8.695176366063952,4.289898210607469
1775705933785188600,3.558188720703125,1.4638282513447105,-8.693404095694422,4.295615126949548
1775705933795201800,3.568201904296875,1.4535976569704712,-8.690715879523754,4.304520025677979
1775705933805215000,3.578215087890625,1.4385446108758448,-8.687652984821796,4.315744307264685
1775705933815227600,3.5882275390625,1.420235631725192,-8.684804609653353,4.327525930473208
1775705933825239800,3.59823974609375,1.400566031745821,-8.682228621685505,4.339092449626326
1775705933835252700,3.608252685546875,1.3803379211008548,-8.679946063706279,4.35012705385983
1775705933845266000,3.618265869140625,1.3594947472974657,-8.678063318699598,4.3604330515578384
1775705933855278800,3.62827880859375,1.3385649181239305,-8.676326704165339,4.370351218982041
1775705933865291800,3.638291748046875,1.3180388474456965,-8.674919759976863,4.379375944697856
1775705933875304700,3.6483046875,1.2987469947375356,-8.673641995126008,4.387663296049833
1775705933885318000,3.65831787109375,1.2819511966288089,-8.672212839105725,4.395423116396367
1775705933895329800,3.668329833984375,1.2685508861772716,-8.670516556581854,4.402646637909114
1775705933905342700,3.6783427734375,1.259874973899126,-8.668092544305324,4.4099061075180765
1775705933915355600,3.688355712890625,1.25495300732702,-8.66464854133129,4.418068955707549
1775705933925368800,3.698368896484375,1.2515752014569936,-8.660655672302841,4.426851397100091
1775705933935382000,3.708382080078125,1.2473210511438548,-8.656728854247927,4.4357197632104155
1775705933945394700,3.718394775390625,1.2417401822715997,-8.653100726878643,4.444358704479038
1775705933955406800,3.72840673828125,1.2365512353263794,-8.650449335587025,4.450959710179269
1775705933965419800,3.738419677734375,1.2344770594008265,-8.650302036070823,4.451822756749391
1775705933975433000,3.748432861328125,1.2327609031327067,-8.653299464321137,4.4464720433712
1775705933985445600,3.758445556640625,1.2272871478967369,-8.658965819519757,4.436942290742695
1775705933995458800,3.768458740234375,1.2177155288878827,-8.666061915260553,4.425711579415202
1775705934005471700,3.7784716796875,1.2052547643087803,-8.673411693501471,4.414711754234135
1775705934015485000,3.78848486328125,1.1914483572743833,-8.679870660382509,4.405756294362247
1775705934025496800,3.798496826171875,1.1806214775074273,-8.683415785643458,4.401679838703573
1775705934035509800,3.808509765625,1.17516116627492,-8.682780410349368,4.404397280968725
1775705934045522700,3.818522705078125,1.1741746394556014,-8.67751854429841,4.415013952051103
1775705934055535900,3.828535888671875,1.1779921519171446,-8.66849235727787,4.431697668087482
1775705934065548800,3.838548828125,1.1886527352064846,-8.65692759169042,4.451413883687556
1775705934075561700,3.848561767578125,1.2070411362688989,-8.6434058468163,4.472689019167423
1775705934085575200,3.8585751953125,1.2285184432573615,-8.628514567154646,4.495537395313382
1775705934095587000,3.868587158203125,1.2510725126318634,-8.6130446108222,4.518922947075962
1775705934105600000,3.87860009765625,1.2758226307459175,-8.598024151822925,4.5405531796038145
1775705934115613000,3.888613037109375,1.3012766593456269,-8.583514564955234,4.5607375972375275
1775705934125626000,3.898626220703125,1.3255213121555744,-8.569405960103868,4.580247476610541
1775705934135639300,3.908639404296875,1.3463231310352681,-8.556139651295542,4.598944578295946
1775705934145652000,3.91865185546875,1.362757840746641,-8.542569391104578,4.619282140664756
1775705934155665200,3.9286650390625,1.375415954528749,-8.527065532502531,4.644110000190139
1775705934165677000,3.938677001953125,1.3866865594752131,-8.509247551739215,4.673347785112261
1775705934175690200,3.948690185546875,1.4000623200073838,-8.489753746718169,4.7047091380596155
1775705934185703000,3.958702880859375,1.418880856115371,-8.469004388678073,4.736360413864254
1775705934195716000,3.968716064453125,1.4433007193617522,-8.446505556622148,4.769046585674584
1775705934205729000,3.97872900390625,1.4715208516739309,-8.421797816345094,4.803995149458944
1775705934215742200,3.9887421875,1.5012836833834646,-8.395217267933488,4.841166357728839
1775705934225754000,3.998754150390625,1.5322342635728419,-8.36818722218871,4.878123923248053
1775705934235767000,4.00876708984375,1.5649283264286815,-8.343200664970277,4.910437462353706
1775705934245780000,4.018780029296875,1.5961315662048756,-8.323492924937606,4.933782097584009
1775705934255793200,4.028793212890625,1.6214416562892495,-8.310162318721414,4.947982472372055
1775705934265806000,4.03880615234375,1.6396952519908548,-8.302598020946979,4.954658881396055
1775705934275819000,4.048819091796875,1.6532104209937155,-8.299839662149548,4.954792152386903
1775705934285832200,4.058832275390625,1.6668432250268757,-8.29987414894104,4.9501644925862545
1775705934295844000,4.068843994140625,1.6835786712504923,-8.30035871758759,4.943685067439079
1775705934305857300,4.078857177734375,1.704768320403993,-8.299939030870794,4.937122640183568
1775705934315870000,4.088869873046875,1.7304923981167375,-8.297828322327137,4.931715228182077
1775705934325883100,4.098883056640625,1.7601897633746266,-8.292518525481224,4.930138188123703
1775705934335896000,4.10889599609375,1.7928395486973225,-8.28323573335111,4.9339790814608335
1775705934345909000,4.118908935546875,1.8238452200748025,-8.270379174387454,4.944170220607519
1775705934355922000,4.128921875,1.848003802036494,-8.254658458164334,4.961443426969647
1775705934365934000,4.13893408203125,1.8642267686933278,-8.236078260856866,4.98618682308197
1775705934375947000,4.148947021484375,1.8740303698271512,-8.215943819844723,5.015639127537608
1775705934385960200,4.158960205078125,1.878288611793518,-8.196094625514744,5.0464276490330695
1775705934395972900,4.168972900390625,1.8807969413526355,-8.177053240436315,5.076297886639833
1775705934405986000,4.178986083984375,1.8849612214252351,-8.159742040151357,5.102538243311644
1775705934415999200,4.188999267578125,1.8927530443452298,-8.14539261228144,5.1225440895080565
1775705934426012200,4.19901220703125,1.903694417337328,-8.134321183168888,5.136067587947845
1775705934436024000,4.209024169921875,1.9146771452531217,-8.126215033602714,5.144808528286219
1775705934446037000,4.219037109375,1.9217475220307707,-8.120051250275969,5.151897609764338
1775705934456050200,4.22905029296875,1.9205895841673015,-8.114350408285857,5.161301397925615
1775705934466063000,4.23906298828125,1.9125199672192335,-8.108683468565344,5.173193495771288
1775705934476076000,4.249075927734375,1.9027588900528847,-8.103005422928929,5.185675960725545
1775705934486089000,4.2590888671875,1.8934519863948225,-8.095800021594762,5.200311804321408
1775705934496101000,4.26910107421875,1.8826829012297093,-8.085717603519559,5.219873413881659
1775705934506114000,4.279114013671875,1.8746308199383317,-8.073288914579152,5.2419595734834665
1775705934516127200,4.289127197265625,1.8743233614243566,-8.060211990863085,5.262157727381587
1775705934526140000,4.299139892578125,1.8837591521590946,-8.049229409077762,5.27558010353446
1775705934536153000,4.309153076171875,1.89927075567618,-8.042548323878645,5.280202502638101
1775705934546166300,4.319166259765625,1.9183058571442961,-8.040446967685222,5.2765241063863035
1775705934556179000,4.329178955078125,1.9410805835321545,-8.042401024362444,5.265206593558192
1775705934566190800,4.33919091796875,1.9659246635399759,-8.046135534715653,5.250261537882685
1775705934576204000,4.3492041015625,1.9873532360158859,-8.04731451536715,5.240374934640527
1775705934586217200,4.35921728515625,1.9996740806676445,-8.044508810296655,5.239997918021679
1775705934596230100,4.369230224609375,2.004026430658251,-8.038935394078493,5.246884754925966
1775705934606243000,4.3792431640625,2.0043312588237225,-8.032685101512074,5.25633238222897
1775705934616256000,4.389256103515625,2.003271228376776,-8.026619517862796,5.26599336002171
1775705934626269200,4.399269287109375,2.0018613615788516,-8.021365250596403,5.274530302220582
1775705934636281000,4.409281005859375,2.0029699073426426,-8.01754832265675,5.279909072649478
1775705934646294000,4.4192939453125,2.0146825569681823,-8.01611273689568,5.277632944411039
1775705934656307000,4.429306884765625,2.0363915538206694,-8.017760504102707,5.266785971704125
1775705934666320100,4.439320068359375,2.063366362246871,-8.02166861745715,5.2503094686776395
1775705934676333300,4.449333251953125,2.0891975535959,-8.026049024498462,5.233375869533419
1775705934686346000,4.459345947265625,2.1115271665647626,-8.028913181757927,5.220000839653611
1775705934696359200,4.469359130859375,2.131391996855289,-8.028929548370838,5.211896443653107
1775705934706371000,4.47937109375,2.1481351879939434,-8.026636468997598,5.208548302268982
1775705934716384300,4.48938427734375,2.1621504154734312,-8.022306330838799,5.209425669625401
1775705934726397000,4.49939697265625,2.1725962600335476,-8.016278741112352,5.214354358199238
1775705934736410000,4.50941015625,2.1852510128147897,-8.00833742671907,5.221262822413444
1775705934746423000,4.519423095703125,2.204163510816544,-7.998384187981486,5.228563500815629
1775705934756436200,4.529436279296875,2.226744322067499,-7.988709181663394,5.233789126509428
1775705934766449000,4.539448974609375,2.2450705446138977,-7.981109228053689,5.2375534474790095
1775705934776461000,4.5494609375,2.253795556730777,-7.974860104531049,5.243319755920767
1775705934786474000,4.559473876953125,2.252910736720264,-7.968224027517437,5.25377743704915
1775705934796487200,4.569487060546875,2.2462803587950764,-7.959308899655937,5.270102548906207
1775705934806499800,4.579499755859375,2.2391582518301902,-7.947645934391021,5.2906999312549825
1775705934816513000,4.589512939453125,2.2339340874411167,-7.934782945686578,5.3121711738288395
1775705934826526200,4.599526123046875,2.2312485016189516,-7.9228657133996485,5.331054153475165
1775705934836538000,4.6095380859375,2.2300975780181584,-7.9130527599155895,5.346090394565462
1775705934846551300,4.61955126953125,2.2262679367274045,-7.9061063017785544,5.357950928229093
1775705934856564000,4.62956396484375,2.214107543334365,-7.902058487692475,5.368945784974098
1775705934866577200,4.6395771484375,2.1904577876776457,-7.899006698906422,5.383121025320888
1775705934876590000,4.649590087890625,2.156930342737585,-7.895318950304389,5.402033231061696
1775705934886603000,4.65960302734375,2.123900325925648,-7.889578360825777,5.423467064234614
1775705934896616000,4.669615966796875,2.09995494832322,-7.880669662705063,5.445697600743174
1775705934906628000,4.679628173828125,2.0871774459451435,-7.868392364934087,5.468319182395935
1775705934916641000,4.68964111328125,2.07896447500363,-7.855410718286037,5.490065150257945
1775705934926654200,4.699654296875,2.066396085331589,-7.844279667940735,5.510688836091757
1775705934936667000,4.7096669921875,2.045432792279869,-7.836152475586533,5.5300388487279415
1775705934946680000,4.71968017578125,2.0167891738586126,-7.832581631362438,5.54559531430006
1775705934956693200,4.729693359375,1.9882444857671855,-7.833428603580594,5.554698658210039
1775705934966706000,4.739705810546875,1.9710661180816589,-7.8367925270557395,5.55607579178214
1775705934976718000,4.749718017578125,1.9760558891929685,-7.839356240063905,5.550682992827892
1775705934986731000,4.75973095703125,2.0109139982149005,-7.837007046589255,5.5414767730653285
1775705934996744200,4.769744140625,2.0728172044202684,-7.828274874079227,5.530998633670807
1775705935006757000,4.779757080078125,2.145699193018675,-7.814832039660215,5.522206839928031
1775705935016770000,4.78977001953125,2.205166842640191,-7.799045856985449,5.521100339990854
1775705935026783000,4.799782958984375,2.2312658911451697,-7.784841975066065,5.5306514276683325
1775705935036796200,4.809796142578125,2.2220982498273254,-7.775821048742532,5.547008688229322
1775705935046808000,4.81980810546875,2.1881997796177863,-7.7753318039208645,5.561148272740841
1775705935056821000,4.829821044921875,2.150898222966492,-7.785324205625057,5.561722857758403
1775705935066834000,4.839833984375,2.1285858533933757,-7.803624416947365,5.544633191269636
1775705935076847000,4.84984716796875,2.125673765338957,-7.827007046100497,5.512697837826609
1775705935086859800,4.85985986328125,2.1351006421148777,-7.853101856821775,5.471790657898783
1775705935096872700,4.869872802734375,2.1452651855155827,-7.879879389110207,5.429155046743154
1775705935106885600,4.8798857421875,2.1427494033023713,-7.90661892747581,5.391138912081718
1775705935116897800,4.889897705078125,2.123659795168042,-7.930542823898792,5.363481674349308
1775705935126910700,4.89991064453125,2.0925635228976605,-7.948537914794683,5.349048659849166
1775705935136924000,4.909923828125,2.0549729201719162,-7.96170953105688,5.344028785860538
1775705935146936800,4.919936767578125,2.0174943995185197,-7.97349758400619,5.340735005012155
1775705935156949800,4.92994970703125,1.9870218121044336,-7.986004598879814,5.333467059835791
1775705935166963000,4.939962890625,1.9652786207213997,-8.00016522617936,5.32028316861391
1775705935176975600,4.9499755859375,1.949452544427663,-8.017002963733672,5.3007256507068865
1775705935186987800,4.95998779296875,1.9380312789641319,-8.036810072487592,5.274854127347469
1775705935197000700,4.970000732421875,1.9309167707838117,-8.058652486461401,5.244050408282876
1775705935207014000,4.980013916015625,1.929714993778616,-8.079158683395386,5.212846291723847
1775705935217026800,4.99002685546875,1.9345872759900986,-8.095809958466887,5.185132355368137
1775705935227039700,5.000039794921875,1.9449547946169972,-8.10805861466527,5.162064198991656
1775705935237052700,5.010052734375,1.9595089512787758,-8.117222748851775,5.142122065681219
1775705935247065900,5.02006591796875,1.9737848755210636,-8.125538741776346,5.123493353056907
1775705935257077800,5.030077880859375,1.981494865376502,-8.136146060508489,5.1036464968144895
1775705935267090700,5.040090576171875,1.9818629680365323,-8.152181249508262,5.077848623213172
1775705935277103900,5.050103759765625,1.977435799244046,-8.172933530157804,5.046118436953425
1775705935287116800,5.06011669921875,1.9701606936745344,-8.19414582953453,5.014460731408
1775705935297130000,5.0701298828125,1.9635024048291145,-8.212952236813306,4.986230662223696
1775705935307142700,5.080142578125,1.956999452675879,-8.228269632932543,4.963481654798985
1775705935317155800,5.09015576171875,1.9506753642208874,-8.239196685138344,4.947817052677274
1775705935327167700,5.100167724609375,1.9464532164812087,-8.24618230624199,4.937834003323316
1775705935337181000,5.110180908203125,1.9489564314737915,-8.250937976336479,4.9288943255424496
1775705935347193600,5.120193603515625,1.9612388438113033,-8.252173655611276,4.921950790014863
1775705935357206800,5.130206787109375,1.9775402825318276,-8.248215857896207,4.9220560039550065
1775705935367219700,5.1402197265625,1.99157450697273,-8.24011789163649,4.929958155381679
1775705935377233000,5.15023291015625,1.999047619332373,-8.230398461654781,4.943151398953795
1775705935387245800,5.160245849609375,1.9950502202592788,-8.222948730170726,4.957144852992892
1775705935397257700,5.1702578125,1.9777223611004648,-8.222024016541242,4.965616913262009
1775705935407270700,5.180270751953125,1.9489513169072568,-8.229628646326065,4.964388832771778
1775705935417283800,5.190283935546875,1.9150643910050391,-8.242588081142307,4.956071086281538
1775705935427296800,5.200296875,1.883178721922636,-8.256302718240022,4.94545499972105
1775705935437309700,5.210309814453125,1.8583977702789007,-8.268908517313003,4.9337499488800765
1775705935447323000,5.220322998046875,1.842154783747345,-8.280544010049104,4.920309452548623
1775705935457335800,5.230335693359375,1.8332292806223034,-8.29107183380425,4.905889297530055
1775705935467348000,5.240347900390625,1.828385786113888,-8.299933185651899,4.892698684306443
1775705935477360600,5.250360595703125,1.8249606339707969,-8.306017474001646,4.883644440235197
1775705935487373800,5.260373779296875,1.8211141876757144,-8.310271039792894,4.877841014653444
1775705935497386800,5.27038671875,1.8152688226483762,-8.316049038672446,4.870163611893355
1775705935507399700,5.280399658203125,1.8071046592846511,-8.325744503256677,4.856620531970262
1775705935517412900,5.290412841796875,1.7989486792273819,-8.338801553228498,4.837208560013771
1775705935527425800,5.30042578125,1.792952361422032,-8.353500525188446,4.814015900474787
1775705935537437700,5.310437744140625,1.7938162847749888,-8.367066693726182,4.790077391004562
1775705935547451000,5.320450927734375,1.8036716160960495,-8.377932955655455,4.767325753231346
1775705935557463800,5.3304638671875,1.818340046787262,-8.386269991368055,4.747053949575126
1775705935567476700,5.340476806640625,1.8327914737269282,-8.392158464884757,4.731060846151411
1775705935577490000,5.350489990234375,1.843592999856919,-8.395888883584737,4.720231409101188
1775705935587502600,5.360502685546875,1.8492242837421595,-8.398228140187262,4.713866842505335
1775705935597515800,5.370515869140625,1.8488481439061462,-8.400128420850635,4.71062245375663
1775705935607527700,5.380527587890625,1.8382503236547112,-8.40336374951005,4.709002451339364
1775705935617540900,5.390540771484375,1.8182700502909719,-8.407716684022546,4.708990176379681
1775705935627553800,5.4005537109375,1.7928771042287348,-8.412140345683694,4.710827036418021
1775705935637566700,5.410566650390625,1.7656696560904384,-8.417665246585011,4.711228602956235
1775705935647579600,5.42057958984375,1.7413037149883805,-8.424389586403965,4.708282904893159
1775705935657592800,5.4305927734375,1.7216637794949112,-8.432407473164796,4.70114910749048
1775705935667605800,5.440605712890625,1.7061207579262554,-8.44068138051331,4.691954285904765
1775705935677617700,5.45061767578125,1.6951507433615625,-8.446109250780939,4.686160212673246
1775705935687630800,5.460630859375,1.687372510575503,-8.448507544094324,4.68464279384762
1775705935697643800,5.470643798828125,1.681207704335451,-8.449536302620173,4.685004028375446
1775705935707657000,5.480656982421875,1.677216296611726,-8.449994567781687,4.685611931140721
1775705935717669600,5.490669677734375,1.6762817922405897,-8.44996943334043,4.6859898245424025
1775705935727682800,5.500682861328125,1.679030944818258,-8.449977032124997,4.684986492718756
1775705935737695700,5.51069580078125,1.6874626730769873,-8.448452599036694,4.684711767430604
1775705935747708000,5.5207080078125,1.701685259696841,-8.444269175872206,4.687107430395484
1775705935757720800,5.530720947265625,1.7210098456308245,-8.43834972269535,4.690709254279732
1775705935767733800,5.540733642578125,1.7425984309740363,-8.431728258728981,4.694648639555275
1775705935777746700,5.55074658203125,1.7611795050643384,-8.426008712038398,4.697978368499875
1775705935787759900,5.560759765625,1.7720850760906934,-8.422545419842004,4.700086738955974
1775705935797772800,5.570772705078125,1.7751150914363563,-8.420324821183085,4.702922254642844
1775705935807785700,5.58078564453125,1.7707720937959848,-8.41964677579105,4.705772967898845
1775705935817798000,5.5907978515625,1.760747251126915,-8.422256666028499,4.704864913143218
1775705935827810800,5.600810791015625,1.7493432290591298,-8.428793374320865,4.697408167396485
1775705935837823700,5.61082373046875,1.7417951517671346,-8.439312430247664,4.681299328638613
1775705935847836700,5.620836669921875,1.739785565510392,-8.45437146769166,4.654795644855499
1775705935857849900,5.630849853515625,1.7427039371751247,-8.47245949756801,4.620694637811184
1775705935867862800,5.64086279296875,1.7489004537276922,-8.490534083440899,4.585040263845026
1775705935877875700,5.650875732421875,1.7558295223385094,-8.506946873581409,4.551847896078229
1775705935887887600,5.6608876953125,1.7630344852812587,-8.520350545033812,4.523906288446486
1775705935897900800,5.67090087890625,1.7711482336319981,-8.530451667809485,4.501645941321551
1775705935907913700,5.680913818359375,1.779007714960724,-8.539182671275734,4.481950476248562
1775705935917927000,5.690927001953125,1.7843745026908815,-8.549775961482524,4.4595659182220695
1775705935927939800,5.70093994140625,1.7868473225452004,-8.564298407831787,4.430615718069673
1775705935937952800,5.710952880859375,1.790599514685571,-8.582672853434085,4.393388687959313
1775705935947964700,5.720964599609375,1.7969252105757594,-8.604518774539232,4.347842157793044
1775705935957977900,5.730977783203125,1.8072798697210848,-8.628084943565726,4.296543639971316
1775705935967990800,5.74099072265625,1.8235323547333477,-8.650701849043369,4.2438744183182715
1775705935978003700,5.751003662109375,1.847648997249454,-8.669684197410941,4.194420651580393
1775705935988017000,5.761016845703125,1.8790886761300265,-8.684221256807445,4.150143410697579
1775705935998029800,5.77102978515625,1.9139761573769152,-8.695081673517823,4.111282641905546
1775705936008042800,5.781042724609375,1.947487820225954,-8.70394477893114,4.076644751505554
1775705936018055700,5.7910556640625,1.9778180765599012,-8.711210386019944,4.046408603195846
1775705936028067800,5.80106787109375,2.002889681713283,-8.71655350061357,4.022497858515382
1775705936038080800,5.811080810546875,2.02082295941934,-8.720317821583151,4.005336003573238
1775705936048093700,5.82109375,2.0326978138692677,-8.72278216587007,3.9939463022917505
1775705936058107000,5.83110693359375,2.0423845106251535,-8.724408305767177,3.9854426778405903
1775705936068119800,5.841119873046875,2.0504209559559823,-8.726591495025158,3.9765293035447593
1775705936078133000,5.851133056640625,2.0545906428560614,-8.730139542895555,3.9665743112415073
1775705936088145700,5.861145751953125,2.052651929878443,-8.734882353508471,3.957128145243227
1775705936098157800,5.87115771484375,2.0434623689897355,-8.740349386742711,3.9497976562246677
1775705936108170800,5.881170654296875,2.027241155898571,-8.745556307736038,3.946631008887291
1775705936118184000,5.891183837890625,2.0057716668903827,-8.749842606753111,3.948100496917963
1775705936128196600,5.901196533203125,1.9823489979878066,-8.753924907630681,3.950886912766099
1775705936138209800,5.911209716796875,1.9622887912556528,-8.757700334516167,3.9525323418855667
1775705936148222700,5.92122265625,1.9503275736965238,-8.76013662175238,3.9530470134094355
1775705936158236000,5.93123583984375,1.9450395502910016,-8.761608447870612,3.9523981941118835
1775705936168247800,5.941247802734375,1.9432453603506088,-8.76248932235837,3.9513217970520254
1775705936178260700,5.9512607421875,1.9431838394217191,-8.763689345797896,3.9486917408093807
1775705936188273700,5.961273681640625,1.9447864523127674,-8.766258319503068,3.9421924419179555
1775705936198286800,5.971286865234375,1.9489887263081966,-8.769508845731616,3.9328801314324138
1775705936208299800,5.9812998046875,1.9545305783443152,-8.770680812120437,3.9275072062224146
1775705936218312700,5.991312744140625,1.957538089597225,-8.767806133466959,3.932426542446017
1775705936228326000,6.001325927734375,1.9545188879065214,-8.76142549251914,3.9481250468373297
1775705936238337800,6.011337890625,1.9436245689265428,-8.753958225378394,3.970006331516802
1775705936248351000,6.02135107421875,1.9269550275459884,-8.748283686873316,3.990586178208887
1775705936258363600,6.03136376953125,1.907401309031248,-8.74555572321415,4.005927831986546
1775705936268376800,6.041376953125,1.8875318025656043,-8.745136036497353,4.0162446433395145
1775705936278389800,6.0513896484375,1.8683457483194768,-8.74702754933238,4.02109237563163
1775705936288402700,6.061402587890625,1.8507270895205437,-8.750983593481779,4.0206314801216125
1775705936298415900,6.071415771484375,1.837010260465741,-8.75624019883573,4.015475997054577
1775705936308427800,6.081427734375,1.826981910665333,-8.762640713527798,4.00607893089503
1775705936318440700,6.091440673828125,1.8197928759440778,-8.768575948795675,3.9963495640411972
1775705936328454000,6.101453857421875,1.8151678464919327,-8.772088925352692,3.990739907465875
1775705936338466800,6.111466796875,1.8128345812387763,-8.773049294817447,3.989687768064439
1775705936348479700,6.121479736328125,1.813558803860098,-8.7722245344311,3.99116865427196
1775705936358493000,6.131492919921875,1.8160070737950502,-8.770997622984646,3.9927562157243486
1775705936368505600,6.141505615234375,1.8170055833131074,-8.770836294943093,3.9926559702202677
1775705936378517800,6.151517822265625,1.8149300922133027,-8.772158483457565,3.9906940224975345
1775705936388530700,6.16153076171875,1.8103804660849272,-8.77399446671307,3.9887224301636217
1775705936398544000,6.1715439453125,1.8034348847307264,-8.775702439674735,3.98811043574512
1775705936408556800,6.181556884765625,1.7940733282759784,-8.777667017745971,3.988010774762928
1775705936418569700,6.19156982421875,1.7835411206066607,-8.779545086577533,3.9886008496105667
1775705936428582700,6.201582763671875,1.7745128877595067,-8.780738095754385,3.9900001950144763
1775705936438595800,6.211595947265625,1.766851413220912,-8.781394513836503,3.991959512388706
1775705936448607700,6.221607666015625,1.761297870747,-8.781405035230517,3.9943887853622435
1775705936458620700,6.23162060546875,1.7596040724411606,-8.779630426773428,3.9990307659491893
1775705936468633900,6.2416337890625,1.7611146231345831,-8.775858507019281,4.006641533213854
1775705936478646800,6.251646728515625,1.7642158040203153,-8.7715160939008,4.0147763243526216
1775705936488660000,6.261659912109375,1.7685918271474539,-8.767364234918356,4.021914505669474
1775705936498672600,6.271672607421875,1.7716832172915338,-8.764393110153078,4.0270235192462795
1775705936508685800,6.281685791015625,1.7724344740502536,-8.762807302266358,4.030149834573269
1775705936518697700,6.29169775390625,1.773166587717086,-8.761602018129825,4.032442621685564
1775705936528711000,6.3017109375,1.7757048740230499,-8.760970149967074,4.03270185714364
1775705936538723600,6.3117236328125,1.7808780388772487,-8.761860961326956,4.028483070404827
1775705936548736800,6.32173681640625,1.7906360473036764,-8.76433465796411,4.018760425552726
1775705936558749700,6.331749755859375,1.8066297352492808,-8.767678123173118,4.004288248085976
1775705936568763000,6.341762939453125,1.8294073842465877,-8.770873119822143,3.9869083664789793
1775705936578775800,6.35177587890625,1.8589228170663117,-8.77177386805415,3.9712434720963237
1775705936588787700,6.36178759765625,1.89466413866356,-8.766354765614867,3.966312445434928
1775705936598801000,6.37180078125,1.9339298349946736,-8.751959745037555,3.979131887258589
1775705936608813800,6.381813720703125,1.9734011369004845,-8.72845261272192,4.011260717447102
1775705936618826800,6.39182666015625,2.009867265640944,-8.697501009619236,4.060085246370733
1775705936628839700,6.401839599609375,2.041798819691688,-8.661365281876922,4.120947126829624
1775705936638852900,6.411852783203125,2.069498581391573,-8.62266759469211,4.18773985864222
1775705936648865800,6.42186572265625,2.0938747516267,-8.584574887663125,4.253366177023947
1775705936658878000,6.4318779296875,2.1142335029140114,-8.550264037260412,4.312007458823919
1775705936668890600,6.441890625,2.129896351470053,-8.52193869100809,4.360101043124497
1775705936678903800,6.45190380859375,2.142811362622678,-8.50011848886609,4.3962142667740585
1775705936688916700,6.461916748046875,2.153747767178714,-8.484648532533646,4.420687321512401
1775705936698929700,6.4719296875,2.1620998543299734,-8.47440303285122,4.436236480560899
1775705936708942800,6.48194287109375,2.1696948395036157,-8.465401395750046,4.449691882200539
1775705936718955800,6.491955810546875,2.1746226512946185,-8.454580726528167,4.467828135132789
1775705936728969000,6.501968994140625,2.1752755622453988,-8.441789049494266,4.4916313277855515
1775705936738980900,6.51198095703125,2.173350585532188,-8.427636020979286,4.519055633544921
1775705936748993800,6.521993896484375,2.1721470549613238,-8.413565410050749,4.54577383686155
1775705936759006700,6.5320068359375,2.1761295487262307,-8.401060148742795,4.566951649446785
1775705936769020000,6.54202001953125,2.186763170943409,-8.391980185708404,4.578550317303836
1775705936779032800,6.55203271484375,2.2015374000966546,-8.387819558897615,4.5790927536174655
1775705936789045800,6.562045654296875,2.2147848580740392,-8.389607611358166,4.569421546691656
1775705936799058700,6.57205859375,2.2223390728458763,-8.398582360452414,4.549222808271646
1775705936809070800,6.58207080078125,2.2212504008263347,-8.414961832845211,4.519386180673539
1775705936819083800,6.592083740234375,2.209685342977941,-8.434387248805164,4.48874262060672
1775705936829096700,6.6020966796875,2.187123967079818,-8.451047291705011,4.468407104064524
1775705936839110000,6.61210986328125,2.1556002631776034,-8.46196089990735,4.463066327558457
1775705936849122800,6.622122802734375,2.119758842206746,-8.467027535647153,4.470620980721712
1775705936859135700,6.6321357421875,2.0836209225073454,-8.468691669467091,4.484439078193903
1775705936869148700,6.642148681640625,2.0493283384136856,-8.469518183419108,4.498657865421474
1775705936879160800,6.652160888671875,2.0197120755679903,-8.471725922596454,4.507882205362618
1775705936889173800,6.662173828125,1.9987157570295035,-8.476921153151988,4.507477131693065
1775705936899187000,6.67218701171875,1.9878582629285753,-8.485344698104262,4.496413593626022
1775705936909199600,6.68219970703125,1.983627639621496,-8.495255851265787,4.479537862148881
1775705936919212800,6.692212890625,1.98103733086735,-8.503096043372153,4.46578493886739
1775705936929225700,6.702225830078125,1.9763366058304905,-8.50614374050498,4.462063872517645
1775705936939239000,6.712239013671875,1.9684645572811363,-8.50194745785892,4.473528100340068
1775705936949250800,6.722250732421875,1.9598587876297533,-8.490472124120593,4.499022899341583
1775705936959263700,6.732263671875,1.9532618735827505,-8.47404647449851,4.532736076112092
1775705936969276700,6.742276611328125,1.9496713017448781,-8.456158351108432,4.567556337341666
1775705936979289900,6.752289794921875,1.947472914917767,-8.440688979297876,4.597011856667697
1775705936989302800,6.762302734375,1.9456663038872182,-8.429937283658981,4.617462524022161
1775705936999315700,6.772315673828125,1.9461649010591209,-8.424726855534315,4.626751161371171
1775705937009329000,6.782328857421875,1.9506207114242016,-8.425337680909037,4.623760162861645
1775705937019340800,6.7923408203125,1.954877784346789,-8.430258186176419,4.612977195301652
1775705937029354000,6.80235400390625,1.9526788129977881,-8.436257718852161,4.602933355671167
1775705937039366700,6.81236669921875,1.940432348756492,-8.440058864700793,4.601144134166836
1775705937049379800,6.8223798828125,1.9216266721300779,-8.43715905160606,4.614336500956118
1775705937059392800,6.832392822265625,1.9025453934326766,-8.4263202622056,4.641967435203492
1775705937069405700,6.84240576171875,1.8897025707334278,-8.408897418239713,4.6786599200457335
1775705937079419000,6.8524189453125,1.8864957375161349,-8.388546119606495,4.716334986184537
1775705937089430800,6.8624306640625,1.8961137529499827,-8.3691399928689,4.746852289523184
1775705937099444000,6.87244384765625,1.917622112663835,-8.354101998212933,4.7646702702865005
1775705937109457000,6.882456787109375,1.9485516500651836,-8.344123040512203,4.769604219557345
1775705937119469800,6.8924697265625,1.9856977238938212,-8.337999004673957,4.764995848979056
1775705937129482800,6.902482666015625,2.0233957325167955,-8.334274431192874,4.755647298136354
1775705937139496000,6.912495849609375,2.0545114401400086,-8.328713289934397,4.752042551642656
1775705937149508600,6.922508544921875,2.0771445661000905,-8.317327388045191,4.762135198850929
1775705937159520800,6.932520751953125,2.0918429535381495,-8.299760751694441,4.786289104637503
1775705937169533700,6.94253369140625,2.1039614074856043,-8.277263673204184,4.819819910578429
1775705937179547000,6.952546875,2.1215071471787987,-8.25151197683215,4.856147653761505
1775705937189560000,6.96256005859375,2.151855085299909,-8.222455393695832,4.891946112373471
1775705937199572700,6.97257275390625,2.1973864178970457,-8.190503673639894,4.925191379371285
1775705937209586000,6.9825859375,2.2550212991334497,-8.156748703554273,4.955068631240725
1775705937219598800,6.992598876953125,2.318747482982278,-8.123580008924007,4.9800873371630905
1775705937229611800,7.00261181640625,2.3800505313374103,-8.094515827003121,4.998456522068381
1775705937239623700,7.012623779296875,2.42793485680148,-8.071347717383503,5.0128690783023835
1775705937249636900,7.022636962890625,2.452026072615385,-8.054460295468568,5.028281751489639
1775705937259649800,7.03264990234375,2.4480206363663077,-8.041172359350323,5.051448107543587
1775705937269663000,7.0426630859375,2.4205641819030044,-8.030148276510834,5.082121478226781
1775705937279675600,7.052675537109375,2.3792685871794816,-8.02215610871315,5.114142756387591
1775705937289688800,7.062688720703125,2.3354234541036187,-8.017291133025289,5.141906961625814
1775705937299702000,7.072701904296875,2.301382652813941,-8.013920195287465,5.162472195270658
1775705937309714000,7.0827138671875,2.2865846043936906,-8.009228822600841,5.176310166487098
1775705937319726800,7.092726806640625,2.291882856932282,-8.00074740998149,5.187071214476227
1775705937329739800,7.10273974609375,2.3107974007606504,-7.986089354553818,5.201251715520024
1775705937339753000,7.1127529296875,2.3352019203074277,-7.964853674301505,5.222864996913075
1775705937349766000,7.122765869140625,2.3607789907649157,-7.939103731495141,5.2504965156823395
1775705937359778800,7.13277880859375,2.3850797576762734,-7.911873194742202,5.280535680115222
1775705937369791700,7.142791748046875,2.4065109605006874,-7.887244364920258,5.307584430560469
1775705937379804000,7.152803955078125,2.4272326998814937,-7.868434450510144,5.326034279486537
1775705937389816800,7.16281689453125,2.447901540031284,-7.857521426829695,5.332682046937943
1775705937399829800,7.172829833984375,2.468560735569894,-7.854149904569983,5.328128036895394
1775705937409842700,7.1828427734375,2.489948391513526,-7.856715371143817,5.3143742368310685
1775705937419856000,7.19285595703125,2.517913964542746,-7.86047793854773,5.2955999782562255
1775705937429869000,7.202869140625,2.5560160239219663,-7.859073916968703,5.279406968346238
1775705937439881700,7.2128818359375,2.598844527301192,-7.851784929004311,5.269333902621269
1775705937449893600,7.2228935546875,2.6372166357934472,-7.840976534742117,5.2663621933341025
1775705937459906800,7.23290673828125,2.667081320442259,-7.828180181533098,5.270353308796882
1775705937469920000,7.242919921875,2.6909578705921766,-7.815334143963455,5.277280477711558
1775705937479932700,7.2529326171875,2.711549407722056,-7.804020722788572,5.283478163307905
1775705937489945900,7.26294580078125,2.729840558955073,-7.794033581781387,5.288799650591612
1775705937499958800,7.272958740234375,2.7464436109706756,-7.78688546359241,5.290730326393247
1775705937509972000,7.282971923828125,2.7642300275519487,-7.78349056045711,5.286462147554755
1775705937519983900,7.29298388671875,2.78555426287055,-7.782710808256268,5.276406032964587
1775705937529996800,7.302996826171875,2.8071871257469057,-7.783007745376229,5.264489385199546
1775705937540009700,7.313009765625,2.8220702221021052,-7.783350275203585,5.256022585627436
1775705937550023000,7.32302294921875,2.8269416275307533,-7.783508096113801,5.253170118805766
1775705937560035800,7.333035888671875,2.8243080641567704,-7.781825842115283,5.2570788166821
1775705937570048800,7.343048828125,2.82053292953223,-7.7793954000979655,5.262698410129547
1775705937580062000,7.35306201171875,2.8185341569304465,-7.779149900904297,5.2641299042373895
1775705937590073900,7.363073974609375,2.8191604721352457,-7.782369447472691,5.259038134056329
1775705937600087000,7.373087158203125,2.8204475893363354,-7.789212445235252,5.248202267265319
1775705937610099700,7.383099609375,2.8227175800949333,-7.7978154384076594,5.234186016872525
1775705937620113000,7.39311279296875,2.825555141608417,-7.806481559944152,5.219717346537113
1775705937630125800,7.403125732421875,2.827393170690536,-7.814467882522941,5.20676024980843
1775705937640138800,7.413138671875,2.8264626118421554,-7.822526685816049,5.195151645079255
1775705937650151700,7.423151611328125,2.8223849871397015,-7.830928603458404,5.1846980556041
1775705937660163800,7.433163818359375,2.8134909020662304,-7.838274290046096,5.1784284738153215
1775705937670176800,7.4431767578125,2.798139311416447,-7.845645111075044,5.175583021256327
1775705937680190000,7.45318994140625,2.776801339833438,-7.85583508117795,5.1716193783223625
1775705937690202600,7.46320263671875,2.7502897650048137,-7.870307843166589,5.163769833865762
1775705937700215800,7.4732158203125,2.7202330649152398,-7.890303752490878,5.1491573711454866
1775705937710229000,7.48322900390625,2.6903189881667493,-7.916038497728109,5.125320568484067
1775705937720241700,7.49324169921875,2.6631118322893976,-7.947544227582216,5.090654328772425
1775705937730253800,7.50325390625,2.63969267051816,-7.984653768792748,5.044570622989535
1775705937740266800,7.513266845703125,2.6180142149344086,-8.025550427326559,4.990687057110667
1775705937750280000,7.523280029296875,2.597865745396912,-8.067075446891785,4.933944010147452
1775705937760292900,7.53329296875,2.5820623193264005,-8.106535935142636,4.877237495802342
1775705937770305800,7.543305908203125,2.5740517390891906,-8.142900210943818,4.820560499812662
1775705937780318700,7.553318603515625,2.5762363896518945,-8.174408863407374,4.765757481001317
1775705937790332000,7.563331787109375,2.587667884248495,-8.199803416904807,4.715673307405412
1775705937800343800,7.57334375,2.604687992632389,-8.22003196594119,4.6708729194313285
1775705937810356700,7.583356689453125,2.6225907290697097,-8.236406177636981,4.631847899988293
1775705937820369700,7.59336962890625,2.637077227322757,-8.249374964803456,4.600437447202205
1775705937830382800,7.6033828125,2.6467870126932858,-8.259314175015687,4.576965386199951
1775705937840396000,7.61339599609375,2.651419348669052,-8.267690958216786,4.559126362648606
1775705937850408700,7.62340869140625,2.6514444831103083,-8.275207325196266,4.545455856953561
1775705937860422000,7.633421875,2.6487717567697167,-8.282009406426548,4.534615313987434
1775705937870434800,7.643434814453125,2.6431436877548693,-8.288901504027843,4.525296573761105
1775705937880447000,7.653447021484375,2.636424024111032,-8.293692245435714,4.520430136768519
1775705937890459600,7.663459716796875,2.626523100082576,-8.296054882913827,4.521859000527859
1775705937900472800,7.673472900390625,2.6095830711975694,-8.297499236503244,4.529012963935733
1775705937910485800,7.68348583984375,2.5858207950770855,-8.298686984983085,4.540452349577844
1775705937920499000,7.6934990234375,2.554343706795573,-8.300397880554199,4.55511917283386
1775705937930511600,7.70351171875,2.5182509414121506,-8.301765077254176,4.572687562750279
1775705937940524800,7.71352490234375,2.4842580709174276,-8.302424417945742,4.590056922963261
1775705937950536700,7.72353662109375,2.458329556673765,-8.302620817300676,4.603643257506191
1775705937960550000,7.7335498046875,2.4438911353461443,-8.302813125002384,4.61097491556853
1775705937970562800,7.743562744140625,2.438615825291723,-8.30446206125319,4.610795175087452
1775705937980575700,7.75357568359375,2.4387188472747803,-8.306129117682575,4.607738417865336
1775705937990589000,7.7635888671875,2.4399032347537575,-8.305919274324179,4.607490288323164
1775705938000601900,7.773601806640625,2.439494361691922,-8.303927808246016,4.6112931877374645
1775705938010614800,7.78361474609375,2.4382576595038175,-8.29992850947678,4.619139809584618
1775705938020626700,7.793626708984375,2.434519642019272,-8.294392502659559,4.631043890129029
1775705938030639900,7.803639892578125,2.4279696358539162,-8.287953994044662,4.645986315456033
1775705938040652800,7.81365283203125,2.420707828157395,-8.282524370211362,4.6594402557909484
1775705938050665700,7.823665771484375,2.415045564612001,-8.280929794496297,4.665207441015541
1775705938060678700,7.8336787109375,2.412376637663692,-8.28333101041913,4.662323702272772
1775705938070691800,7.84369189453125,2.411044658407569,-8.288712703457474,4.6534372159838675
1775705938080704800,7.853704833984375,2.4061139240071174,-8.296606087055801,4.641911613363027
1775705938090717000,7.863717041015625,2.396625234041363,-8.305087499675155,4.631641856022179
1775705938100729600,7.8737294921875,2.3851563300438223,-8.312511512196064,4.624237424984574
1775705938110742800,7.88374267578125,2.3714038451537487,-8.319422899019719,4.618878528299928
1775705938120755700,7.893755615234375,2.3553274473607537,-8.324581889218091,4.617812652634084
1775705938130769000,7.903768798828125,2.335878942786157,-8.327366551500559,4.62266096944809
1775705938140781800,7.91378173828125,2.31081245219931,-8.327664073142408,4.634711472725868
1775705938150794800,7.923794677734375,2.2784686640858647,-8.324867720422148,4.655703407350182
1775705938160807000,7.933806884765625,2.2368754015900194,-8.321640575069189,4.681564701576531
1775705938170819800,7.94381982421875,2.188407284888625,-8.320130755028128,4.707089895716309
1775705938180832800,7.953832763671875,2.137451589155197,-8.32031429490149,4.730124442084134
1775705938190845700,7.963845703125,2.0885598402142524,-8.322547753041983,4.748002044080198
1775705938200859000,7.97385888671875,2.047212807564437,-8.324482520496845,4.762596094360947
1775705938210871800,7.983871826171875,2.013608790256828,-8.325400804385543,4.775297462762892
1775705938220884700,7.993884765625,1.9882498925946652,-8.325299097576737,4.786087736846507
1775705938230896600,8.003896728515626,1.9690943796172737,-8.324235267737507,4.795849836926162
1775705938240909800,8.013909912109375,1.9481132586479186,-8.323126429712772,4.806332360234856
1775705938250922800,8.0239228515625,1.9215335870191455,-8.322274781319498,4.818492461366951
1775705938260935700,8.033935791015624,1.8892799614071845,-8.322135080587863,4.831468262796104
1775705938270948900,8.043948974609375,1.8549150427296757,-8.322799681976438,4.843621349665522
1775705938280961800,8.0539619140625,1.8212949510701,-8.32492091191411,4.852729077489673
1775705938290975000,8.06397509765625,1.7887554942540824,-8.329894608673452,4.856296122321486
1775705938300987000,8.07398681640625,1.7567792242787776,-8.339538050809502,4.8514127341941
1775705938310999800,8.083999755859375,1.7279602492906152,-8.355221357631683,4.834749184162915
1775705938321012700,8.0940126953125,1.7052910291038452,-8.37609580335617,4.806600948043167
1775705938331026000,8.10402587890625,1.6901573189884422,-8.39927969506681,4.771360707835853
1775705938341038600,8.11403857421875,1.6825296005889772,-8.421908875504135,4.734020865000784
1775705938351051800,8.1240517578125,1.679947913532704,-8.441633566671609,4.699681080764532
1775705938361064700,8.134064697265625,1.6787527123987673,-8.458562489640713,4.66957440405339
1775705938371076900,8.144076904296876,1.6793449792034922,-8.472686292061208,4.6436803766012185
1775705938381089800,8.15408984375,1.6813224167563021,-8.483579441997408,4.623033017630875
1775705938391102700,8.164102783203125,1.682977344356477,-8.491357674783467,4.608127709443867
1775705938401116000,8.174115966796874,1.681780243526399,-8.497845867758988,4.596590416385233
1775705938411128800,8.18412890625,1.6790718613505362,-8.504988140729068,4.584354911929369
1775705938421141800,8.194141845703125,1.6766085399769246,-8.513650755134224,4.5691523743614555
1775705938431154700,8.20415478515625,1.6736938215740025,-8.524292560657859,4.5503369069933886
1775705938441166800,8.214166748046875,1.6701000348657369,-8.536289872443675,4.529116716571152
1775705938451179800,8.2241796875,1.6681050616562365,-8.54801128989756,4.507697204184532
1775705938461193000,8.23419287109375,1.667735789952427,-8.557964528635143,4.488905702213943
1775705938471205600,8.24420556640625,1.6665853047430514,-8.565974816611408,4.474028158816695
1775705938481218800,8.25421875,1.6646582822032272,-8.571655784857272,4.46385397080481
1775705938491231700,8.264231689453124,1.6631133908487856,-8.575179867330194,4.457661253644526
1775705938501244700,8.27424462890625,1.662212058094889,-8.577138600182533,4.4542283565863965
1775705938511256600,8.284256591796876,1.6611615261286496,-8.57829829161167,4.452385651329159
1775705938521269800,8.294269775390624,1.6606375022545456,-8.579319451352953,4.450615719047189
1775705938531283000,8.304282958984375,1.6628743213959036,-8.581165956002474,4.446218068610132
1775705938541295900,8.3142958984375,1.6687668865658343,-8.583771170064807,4.438972627526521
1775705938551308800,8.324308837890625,1.6800665714763103,-8.586134392064809,4.430128811335563
1775705938561321700,8.33432177734375,1.696424562689662,-8.588304721841215,4.419676975426078
1775705938571335000,8.3443349609375,1.7161239732854068,-8.589913910603522,4.408932878571749
1775705938581346800,8.354346923828125,1.7399512774661183,-8.58921073077023,4.40095736964792
1775705938591359700,8.36435986328125,1.7694734322875738,-8.584598853060603,4.398184397803247
1775705938601372700,8.37437255859375,1.8050132399633525,-8.575138950797914,4.402194510227441
1775705938611385900,8.3843857421875,1.8464764463387429,-8.559887605652213,4.414662654395401
1775705938621398800,8.394398681640626,1.8905536346048115,-8.539524032059312,4.43539418451786
1775705938631411700,8.40441162109375,1.9350950793817638,-8.514902216500044,4.463434868609905
1775705938641425000,8.4144248046875,1.981564423481375,-8.486641752177476,4.4967461865812535
1775705938651437800,8.424437744140626,2.028961549950391,-8.455269293314219,4.5345478017091745
1775705938661449700,8.43444970703125,2.0761599389769136,-8.421431321120261,4.575967022812367
1775705938671462700,8.444462646484375,2.12423291888088,-8.385558043706416,4.619570602217316
1775705938681475800,8.454475830078126,2.174162778697908,-8.348172608163953,4.663839952054619
1775705938691488800,8.46448876953125,2.2263770961903036,-8.310746840611099,4.705858015833795
1775705938701502000,8.474501953125,2.2795048752658067,-8.275482635006307,4.742426874296367
1775705938711514600,8.4845146484375,2.33106131337136,-8.244782960838078,4.7707533895924685
1775705938721527800,8.49452783203125,2.3791787169389425,-8.220372157680988,4.789090425793827
1775705938731539700,8.504539794921875,2.424211890755594,-8.202849944993853,4.796546002496779
1775705938741553000,8.514552978515624,2.466181439217925,-8.190000400292872,4.79710305185765
1775705938751565600,8.524565673828125,2.505532621875405,-8.178714451646805,4.795968202608823
1775705938761578800,8.534578857421875,2.543008073788881,-8.166780852746964,4.796580781549215
1775705938771592000,8.544592041015624,2.578725576119125,-8.152914239957928,4.80110264288783
1775705938781604900,8.55460498046875,2.612062320792675,-8.135850292432307,4.812011574915052
1775705938791617800,8.56461767578125,2.6426357382327317,-8.116123847699164,4.828604105536639
1775705938801629700,8.574629638671874,2.670584067866206,-8.09505826331675,4.848547115629911
1775705938811643000,8.584642822265625,2.697711144244671,-8.0734052344352,4.869587565571069
1775705938821655800,8.59465576171875,2.7231965908959506,-8.05257287428677,4.889853524008393
1775705938831668700,8.604668701171875,2.7435814995378256,-8.034563170343636,4.90804442973733
1775705938841681700,8.614681640625,2.755919295324385,-8.020631675624847,4.923898416951299
1775705938851694800,8.62469482421875,2.7589196461841463,-8.010815215009451,4.938173026019334
1775705938861707800,8.634707763671875,2.7528260054841636,-8.004986947247385,4.9510120493263
1775705938871720000,8.644719970703125,2.7389377653852103,-8.003108293893932,4.96173627243638
1775705938881732600,8.654732666015626,2.717858736999333,-8.003401139360665,4.972845695471763
1775705938891745800,8.664745849609375,2.6875360794499517,-8.003405815535784,4.989293556925654
1775705938901758700,8.6747587890625,2.6464497435629366,-8.00164055942893,5.0140240935564035
1775705938911771600,8.684771728515624,2.5960928905054925,-7.998699829801916,5.044948224130272
1775705938921784800,8.694784912109375,2.5373358733713625,-7.996181709501147,5.078717807263136
1775705938931797800,8.7047978515625,2.4725790313005445,-7.995068195301294,5.112299758869409
1775705938941811000,8.71481103515625,2.4053468851573765,-7.996248929518461,5.142441799154877
1775705938951822800,8.72482275390625,2.3402691405691205,-7.999986362481117,5.1665995043337345
1775705938961835800,8.734835693359376,2.2807664196342228,-8.007197609034181,5.1820168536961075
1775705938971848700,8.7448486328125,2.2274347885496915,-8.01905814269781,5.186870723468065
1775705938981862000,8.75486181640625,2.180743180001527,-8.035536983811856,5.181207290878891
1775705938991874800,8.764874755859376,2.1413599947705864,-8.055738060319424,5.1662429459810255
1775705939001887700,8.7748876953125,2.1052432639896868,-8.07825501255393,5.145884048563242
1775705939011901000,8.78490087890625,2.069115719553828,-8.100859643071889,5.124958749434351
1775705939021912800,8.794912841796876,2.034755184790492,-8.120136590471864,5.108181802156567
1775705939031925800,8.80492578125,2.004332866258919,-8.134118354073166,5.097953253608941
1775705939041938700,8.814938720703125,1.9764305677242575,-8.14276401734352,5.095044672685861
1775705939051951900,8.824951904296874,1.9501513403467834,-8.147301076251267,5.097921104905009
1775705939061964800,8.83496484375,1.9298552790321408,-8.149735025399924,5.101753814935684
1775705939071977700,8.844977783203126,1.9187271512962876,-8.153217022296786,5.100387202757597
1775705939081990700,8.85499072265625,1.9130637187071144,-8.159917396718264,5.091790639325976
1775705939092002800,8.8650029296875,1.9089101061590015,-8.170863153624534,5.075773570504785
1775705939102015700,8.875015625,1.9036117074899375,-8.18644358459413,5.052603707319498
1775705939112029000,8.88502880859375,1.899318248079717,-8.20589764212668,5.022570388105511
1775705939122041600,8.89504150390625,1.8955483741521835,-8.225249408328533,4.992250653165579
1775705939132054800,8.9050546875,1.8923234207563102,-8.238726145017147,4.971205527049303
1775705939142067700,8.915067626953125,1.8909381038777529,-8.242613800105453,4.965287827438115
1775705939152081000,8.925080810546875,1.8934398575656115,-8.237529044187069,4.972766785016655
1775705939162092800,8.9350927734375,1.8954868532232938,-8.22872263739705,4.986550395697355
1775705939172105700,8.945105712890625,1.8935174528464673,-8.221722987768054,4.998827108946442
1775705939182119000,8.955118896484375,1.8874372561499475,-8.219792311966419,5.0042976493120195
1775705939192131800,8.9651318359375,1.8782865659669041,-8.225670264089107,4.998078920927643
1775705939202144800,8.975144775390625,1.8632988401934503,-8.241055464747548,4.978306883487105
1775705939212157700,8.98515771484375,1.8364643170207737,-8.264163953134418,4.949888013732433
1775705939222171000,8.9951708984375,1.7960365911729632,-8.290651562565564,4.920340432208776
1775705939232182800,9.005182861328125,1.7492238404631613,-8.315696571972966,4.894874859301746
1775705939242196000,9.015196044921876,1.7072168825998901,-8.335311957547068,4.876306936953962
1775705939252208600,9.025208740234374,1.6743934942759573,-8.348581773486734,4.864977149166166
1775705939262221800,9.035221923828125,1.6573874144174157,-8.355677869227527,4.85861112126559
1775705939272234800,9.04523486328125,1.6671641275443136,-8.354985795310139,4.856454235492646
1775705939282247700,9.05524755859375,1.7032124692641197,-8.345618832027911,4.8600516754627225
1775705939292260900,9.0652607421875,1.7550630680106578,-8.329580720418692,4.869109134404361
1775705939302272800,9.075272705078126,1.8122075353816152,-8.310574406653641,4.880638828678429
1775705939312286000,9.085285888671875,1.8669710989654063,-8.291419039806723,4.892565997837484
1775705939322299000,9.095298828125,1.916171329333633,-8.271556985995172,4.907140174373984
1775705939332311800,9.105311767578126,1.964412651541829,-8.246078845867514,4.930885791620612
1775705939342324700,9.11532470703125,2.017693867613375,-8.21203278388083,4.966066410595178
1775705939352338000,9.125337890625,2.076857711982727,-8.171395653066039,5.008529003271461
1775705939362350600,9.1353505859375,2.1403169154584405,-8.128570072296261,5.051316005596518
1775705939372362800,9.14536279296875,2.197026498543471,-8.089547975462674,5.089465995770692
1775705939382375700,9.155375732421875,2.2364799725316464,-8.06059368365705,5.118140301591158
1775705939392388900,9.165388916015624,2.2522458430707455,-8.046248931962252,5.133778015705943
1775705939402401800,9.17540185546875,2.2461305750608442,-8.048428029567003,5.133039180037379
1775705939412414700,9.185414794921876,2.225121981562674,-8.064723330807686,5.1165895650178195
1775705939422428000,9.195427978515625,2.195125194966793,-8.086924641221762,5.094456643664836
1775705939432440800,9.20544091796875,2.161544412404299,-8.106235490891336,5.078095875972509
1775705939442452700,9.21545263671875,2.126778511710465,-8.118302360782026,5.073493350613117
1775705939452465700,9.225465576171874,2.0949647388204933,-8.123655996769665,5.078162511467934
1775705939462478800,9.235478759765625,2.0686732364833356,-8.125167570376396,5.086514744749665
1775705939472491800,9.24549169921875,2.0479805770665407,-8.12624192160964,5.093167188376188
1775705939482505000,9.2555048828125,2.030220610100776,-8.12905580998659,5.095783508354425
1775705939492517600,9.265517578125,2.0158349418736994,-8.132876245057583,5.09540181556046
1775705939502530800,9.27553076171875,2.0072958077177403,-8.1380101008147,5.090574249273538
1775705939512543700,9.285543701171875,2.0044320888496934,-8.142647697487472,5.084283624696731
1775705939522556000,9.295555908203125,2.0069278511881827,-8.14485426762104,5.079760009792447
1775705939532568600,9.305568603515624,2.013722479764372,-8.144856605708599,5.077065948402882
1775705939542581800,9.315581787109375,2.022986713324487,-8.144179729360342,5.074466579559445
1775705939552595000,9.325594970703126,2.0351703414626416,-8.14630621999502,5.066175136554241
1775705939562607900,9.33560791015625,2.051182441847771,-8.15337835033834,5.048312147605419
1775705939572620800,9.345620849609375,2.0713453783020377,-8.164728011870384,5.021664963698387
1775705939582633700,9.3556337890625,2.0944186492450534,-8.177421489226818,4.991351658499241
1775705939592646000,9.36564599609375,2.116816943535954,-8.18914524476826,4.962599026745558
1775705939602658800,9.375658935546875,2.135804698731005,-8.19944510498643,4.937393858340382
1775705939612671700,9.385671630859376,2.1506194060251116,-8.209003791448474,4.9150242056220765
1775705939622684700,9.3956845703125,2.161540759142488,-8.218515716159343,4.89429764393568
1775705939632697900,9.40569775390625,2.1660199503831565,-8.229485438463092,4.873841131362319
1775705939642710800,9.415710693359374,2.16282919151783,-8.24235953308344,4.85346323698312
1775705939652723700,9.4257236328125,2.1542535247437655,-8.25828483196795,4.830145489759743
1775705939662735600,9.435735595703125,2.146062911764532,-8.276945693296193,4.801769290103018
1775705939672748800,9.445748779296874,2.143105523263663,-8.296887242084741,4.768558217635751
1775705939682761700,9.45576171875,2.1455233980603516,-8.316734682849049,4.732763266155123
1775705939692774700,9.465774658203125,2.150704015568644,-8.334231176573038,4.699513322982192
1775705939702787800,9.475787841796874,2.1574087739042938,-8.347439617714285,4.672924006742239
1775705939712800800,9.48580078125,2.16295895537734,-8.35634597774744,4.6544075223207475
1775705939722814000,9.49581396484375,2.163961410418153,-8.361876723867654,4.643992219029367
1775705939732825900,9.505825927734374,2.159165992835164,-8.366029167371988,4.63874555054754
1775705939742838800,9.5158388671875,2.14849218473807,-8.369283200731873,4.637830189268291
1775705939752851700,9.525851806640626,2.1327172541096804,-8.370907002541422,4.642176986300945
1775705939762865000,9.535864990234375,2.1110630561843515,-8.370925707241891,4.652028518229723
1775705939772877600,9.545877685546875,2.0860918426655233,-8.36966080187261,4.665549094060063
1775705939782890800,9.555890869140624,2.0615892695717513,-8.36884071766138,4.6778959499359125
1775705939792904000,9.565904052734375,2.04083888861835,-8.369885842800139,4.685125608928502
1775705939802916900,9.575916748046875,2.0238656881161035,-8.373387128919363,4.686231232082844
1775705939812928800,9.5859287109375,2.0074043826587498,-8.37852156919837,4.684134259803593
1775705939822941700,9.595941650390625,1.9929295748434959,-8.381313830265402,4.685317332108318
1775705939832955000,9.605954833984375,1.9817168375641105,-8.380378595241904,4.691737720544636
1775705939842967800,9.6159677734375,1.972783735654503,-8.376995382544397,4.701538691329956
1775705939852980700,9.625980712890625,1.962503749180585,-8.372238543406128,4.714295589311421
1775705939862993700,9.63599365234375,1.9463309052757918,-8.367669920316338,4.729087792512774
1775705939873006800,9.6460068359375,1.9232354225009678,-8.364613455355167,4.743919450941681
1775705939883018800,9.656018798828125,1.8966722636155784,-8.364249882739783,4.7552419322058554
1775705939893032000,9.666031982421876,1.8689574504770337,-8.3687658988595,4.758268878811598
1775705939903044600,9.676044677734374,1.8419512239992617,-8.379601765650511,4.749725214610994
1775705939913057800,9.686057861328125,1.8171813782714306,-8.395521219316125,4.731119006079435
1775705939923070700,9.69607080078125,1.794044394442439,-8.414328211116791,4.706471471557021
1775705939933083600,9.706083740234375,1.771528318990767,-8.434290218171476,4.679192711748183
1775705939943096800,9.716096923828125,1.7473257517568765,-8.453892159742116,4.65284538757056
1775705939953108700,9.726108642578126,1.7220166845858096,-8.471698450067638,4.6298342220783235
1775705939963122000,9.736121826171875,1.6978176244832575,-8.48719295631945,4.610349477146566
1775705939973134800,9.746134765625,1.6775453824356197,-8.500348790490627,4.5935053098514675
1775705939983147800,9.756147705078124,1.6621210188105702,-8.512527888584136,4.576529332870245
1775705939993160700,9.76616064453125,1.643763816604018,-8.528348558050393,4.553644424106181
1775705940003174000,9.776173828125,1.620821478564292,-8.551016901454329,4.519230405589938
1775705940013186800,9.786186767578124,1.5936236750371753,-8.581063080149889,4.471700884912908
1775705940023198700,9.79619873046875,1.5643145784445107,-8.61688608868122,4.412773771908879
1775705940033211600,9.806211669921876,1.5360620051674543,-8.65568139102161,4.346273593302071
1775705940043224800,9.816224853515624,1.5104219524763525,-8.694465002924204,4.277301471623778
1775705940053237800,9.82623779296875,1.4902495175413786,-8.731149012199044,4.209110271190107
1775705940063250700,9.836250732421876,1.4773906204901635,-8.76394302829802,4.144997864502668
1775705940073263900,9.846263916015625,1.4758803620576857,-8.788441509738565,4.093343080589175
1775705940083277000,9.856277099609375,1.4854009084664284,-8.803280182430148,4.057861725102365
1775705940093289000,9.8662890625,1.5027021718792617,-8.810953785797953,4.0347672652408475
1775705940103302000,9.876302001953125,1.5254047098137438,-8.813362600505352,4.020966995686292
1775705940113314800,9.886314697265625,1.5528643791474401,-8.811429002094268,4.014691568678617
1775705940123328000,9.896327880859374,1.583962551113963,-8.8065190182209,4.013314142845571
1775705940133341000,9.9063408203125,1.6167385931648313,-8.800436483436822,4.0135856532633305
1775705940143353900,9.916353759765625,1.649545614875853,-8.794593602627515,4.013041463384032
1775705940153367000,9.926366943359374,1.6815093176305294,-8.78792771499753,4.014380603033304
1775705940163380000,9.9363798828125,1.7102921983920036,-8.779165147349238,4.021389312751591
1775705940173392100,9.94639208984375,1.733128591839224,-8.768720910224317,4.034376804618537
1775705940183404800,9.95640478515625,1.7503794402390718,-8.757541929084063,4.05117537920624
1775705940193418000,9.96641796875,1.7624094852507113,-8.747140946578979,4.068395394076407
1775705940203431000,9.976430908203126,1.7685132089532911,-8.738558411672711,4.0841614107459785
1775705940213444000,9.986444091796875,1.7678459772162138,-8.732001245114207,4.098445079903304
1775705940223456800,9.996456787109375,1.7618058202691376,-8.726686187571287,4.11234734852761
1775705940233470000,10.006469970703124,1.751690961229056,-8.722673444798588,4.12516006834954
1775705940243481900,10.01648193359375,1.7374647213473915,-8.720514805459976,4.1357282241150735
1775705940253495000,10.0264951171875,1.7188244644157586,-8.721096989262103,4.1422824680641295
1775705940263508000,10.036508056640624,1.6973047065250575,-8.724697059580683,4.143572215613722
1775705940273521000,10.04652099609375,1.6748875614032148,-8.73085616673231,4.139720508621632
1775705940283534000,10.0565341796875,1.6538989877797663,-8.738474825042486,4.132081392045319
1775705940293547000,10.066547119140624,1.6348150787338613,-8.747059698036313,4.121496285144985
1775705940303560000,10.076559814453125,1.6175110388420522,-8.756343659210204,4.1085877037331455
1775705940313572900,10.08657275390625,1.6005686718694865,-8.766096406939626,4.094401649731397
1775705940323585000,10.0965849609375,1.5820783448025584,-8.775864352238179,4.080640543143451
1775705940333598000,10.106597900390625,1.5607454877860842,-8.785178124028445,4.068796376092732
1775705940343611000,10.11661083984375,1.5359871863655745,-8.793809758773445,4.059562391540408
1775705940353623800,10.126623779296875,1.5097392309091984,-8.80109407056272,4.053621895575523
1775705940363637000,10.136636962890625,1.4839521709628403,-8.806621309551597,4.051133585891128
1775705940373650000,10.14664990234375,1.4592191501140594,-8.810506626552343,4.051672222812473
1775705940383662800,10.156662841796875,1.435564864412695,-8.813260309174657,4.054129845097661
1775705940393674800,10.1666748046875,1.4147609997063875,-8.815369848674536,4.056858977800608
1775705940403688000,10.17668798828125,1.3975918382406234,-8.817318644654751,4.058572503720224
1775705940413701000,10.186701171875,1.3832042703174054,-8.819589512196183,4.0585713346764445
1775705940423714000,10.196714111328125,1.3723451687812804,-8.821391008660196,4.058338402703404
1775705940433727000,10.20672705078125,1.3655064088024198,-8.821306837508082,4.060827589170635
1775705940443740000,10.216739990234375,1.3608086063750087,-8.819114880421758,4.067160591584444
1775705940453753000,10.226753173828126,1.3557054380171,-8.815535852891205,4.076612895062565
1775705940463765000,10.236764892578124,1.3495818405702709,-8.81148102454245,4.087398785232007
1775705940473778000,10.24677783203125,1.3424800457410513,-8.808261477974057,4.096668425619602
1775705940483790800,10.256790771484376,1.334217244308442,-8.807144456642865,4.101763410671055
1775705940493804000,10.266803955078124,1.3238847969949246,-8.808857105779648,4.101433448064327
1775705940503817000,10.27681689453125,1.3108584344223142,-8.81349645601809,4.09564551231265
1775705940513830000,10.286829833984376,1.2942876772411167,-8.820231317231059,4.086407143846154
1775705940523843000,10.296843017578125,1.2734070940367876,-8.827457176831365,4.077351438470185
1775705940533856000,10.30685595703125,1.248594139819592,-8.833179061609506,4.072629962906241
1775705940543868200,10.3168681640625,1.221588570928946,-8.83608238183558,4.074522644785047
1775705940553880800,10.326880859375,1.1933798367936164,-8.835251191708444,4.084676082269847
1775705940563894000,10.33689404296875,1.1664263634163885,-8.830073496809602,4.1036142992347475
1775705940573907000,10.346906982421874,1.1447611326403915,-8.820687828826903,4.129815200679004
1775705940583920000,10.356920166015625,1.1332003125756978,-8.80756355883777,4.160896275380254
1775705940593932800,10.366932861328126,1.1373089169383048,-8.790273401340842,4.196189999340475
1775705940603946000,10.376946044921874,1.1572498812049627,-8.769270360800624,4.234509793123602
1775705940613958000,10.3869580078125,1.18932829638049,-8.745363415512442,4.274870445084572
1775705940623971000,10.39697119140625,1.2314774391934276,-8.719204307383299,4.316173346331715
1775705940633983700,10.406983642578124,1.2836729058548808,-8.69059020731747,4.358464674094319
1775705940643997000,10.416996826171875,1.347034201914072,-8.658934839859604,4.402131966385245
1775705940654010000,10.427010009765626,1.4212484620295465,-8.623982184422015,4.447174346421659
1775705940664023000,10.43702294921875,1.5042399028405546,-8.586874396777153,4.4914626932203765
1775705940674036000,10.447035888671875,1.5924297890774906,-8.549216574034094,4.532711526192724
1775705940684049000,10.457048828125,1.6815664546452462,-8.51200006531775,4.570403835727274
1775705940694061000,10.46706103515625,1.767362577613443,-8.475635789516568,4.605474856847525
1775705940704074000,10.477073974609375,1.8449448528572916,-8.440989423549174,4.638564933283627
1775705940714087000,10.4870869140625,1.9135808744490146,-8.408747780635952,4.669212877264618
1775705940724099800,10.497099853515625,1.9753461334884166,-8.379464403006434,4.696058506353199
1775705940734113000,10.507113037109375,2.0333795125231147,-8.352522620066999,4.719230415365099
1775705940744126000,10.5171259765625,2.0902450168222186,-8.32712339039445,4.739229831820726
1775705940754139000,10.527138916015625,2.1457218432419003,-8.303144548913837,4.7564770269587635
1775705940764150800,10.53715087890625,2.19900992744565,-8.281344220516084,4.7701244440391655
1775705940774164000,10.5471640625,2.248153313060105,-8.262732459026575,4.779484100797772
1775705940784177200,10.55717724609375,2.2897826697826384,-8.247520276847482,4.7859880758643145
1775705940794189800,10.56718994140625,2.3224786323346196,-8.235071714162826,4.7916681673273445
1775705940804203000,10.577203125,2.3472306501448155,-8.224819200217723,4.797212649711966
1775705940814216000,10.5872158203125,2.3695301602363585,-8.215729300311207,4.801825111943483
1775705940824229000,10.59722900390625,2.394721884638071,-8.207080714431404,4.80411497644633
1775705940834241800,10.60724169921875,2.424317689217627,-8.197688032186031,4.80530798562318
1775705940844254000,10.61725390625,2.4557471389651297,-8.187643023511766,4.806475860358774
1775705940854267000,10.627266845703126,2.4846491160616275,-8.177619642147421,4.808685060840845
1775705940864280000,10.637280029296875,2.510557756561041,-8.167422657781838,4.812558395142853
1775705940874292700,10.647292724609375,2.5372166309058666,-8.156165935230254,4.817664778371155
1775705940884306000,10.657305908203124,2.566600546300411,-8.143110638824105,4.824179859353602
1775705940894319000,10.667319091796875,2.5955069073110817,-8.127895534035563,4.834360184845328
1775705940904332000,10.67733203125,2.6196160971730946,-8.111493265289068,4.848883215716481
1775705940914344000,10.687343994140624,2.638686416085064,-8.096025647044181,4.864368661879003
1775705940924356900,10.69735693359375,2.6547309574350715,-8.082803177377581,4.877608667202294
1775705940934370000,10.7073701171875,2.668896553170681,-8.072261909618973,4.887328389444947
1775705940944383000,10.717383056640625,2.6815476526901123,-8.06391318346858,4.894181324079632
1775705940954396000,10.72739599609375,2.6900974543705582,-8.056055455705524,4.902418991070985
1775705940964408800,10.737408935546876,2.6920585253104568,-8.048231630212069,4.914184247666597
1775705940974422000,10.747422119140625,2.687085413073003,-8.040922183981538,4.928844056659937
1775705940984434000,10.757433837890625,2.6764298712849617,-8.034960645228624,4.944341485521197
1775705940994447000,10.767447021484376,2.6631796368286014,-8.030682529518007,4.958429047584533
1775705941004459800,10.777459716796875,2.650665607692301,-8.02844088807106,4.968754626765847
1775705941014473000,10.787472900390625,2.6410657124370336,-8.027578718283772,4.975251003047823
1775705941024486100,10.797486083984374,2.6340289456680415,-8.028008926394582,4.978287009742855
1775705941034498800,10.807498779296875,2.6284458848387002,-8.030962515503168,4.976474407362938
1775705941044512000,10.817511962890626,2.623451145291328,-8.036859172326325,4.9695828942835325
1775705941054525000,10.82752490234375,2.6171482457548376,-8.044986364680527,4.959745975401997
1775705941064537000,10.837537109375,2.6080788041144607,-8.053959360209108,4.949951142096519
1775705941074550000,10.847550048828126,2.596229960888624,-8.063207665547727,4.9411166782557965
1775705941084563000,10.85756298828125,2.583358204355836,-8.072243204918504,4.933102883148193
1775705941094575900,10.867575927734375,2.5733187486395237,-8.080069368499517,4.9255362472862005
1775705941104589000,10.877589111328126,2.567274207778275,-8.086396817955375,4.9182981127262115
1775705941114601700,10.887601806640625,2.5626889258146286,-8.091971403217315,4.911517658805847
1775705941124615000,10.897614990234375,2.5571593487381934,-8.097581059792637,4.905146954730153
1775705941134626800,10.907626708984376,2.545414550408721,-8.103947087693214,4.900744920378923
1775705941144640000,10.917639892578125,2.526497083970904,-8.111308556371927,4.8983556871548295
1775705941154653000,10.92765283203125,2.5037398932397363,-8.11920778518915,4.896955464968085
1775705941164665900,10.937665771484374,2.4813667333900926,-8.1272303481251,4.895030049863458
1775705941174678800,10.9476787109375,2.4663611796990037,-8.133267874723673,4.892583533494174
1775705941184692000,10.95769189453125,2.4627178547605872,-8.135420668843388,4.890841366001963
1775705941194705000,10.967704833984374,2.4700612032607197,-8.135012088042497,4.887822018180787
1775705941204717800,10.9777177734375,2.4872493616878986,-8.135720528572797,4.87791378762871
1775705941214730000,10.98772998046875,2.508316991896927,-8.141186977285146,4.857962886489927
1775705941224743000,10.997742919921874,2.522770756924152,-8.154934347608686,4.827321664510667
1775705941234756000,11.007756103515625,2.5182442194104193,-8.17808901322484,4.790378127516806
1775705941244768800,11.017768798828126,2.487166359579563,-8.208760630342363,4.754015020759404
1775705941254782000,11.027781982421875,2.428225656441599,-8.244016652640699,4.7233775981724255
1775705941264795000,11.037794921875,2.341979597748816,-8.281855677169562,4.700677398325503
1775705941274807800,11.047807861328126,2.236795468221605,-8.318667112216353,4.686884727555513
1775705941284820000,11.057820068359375,2.125015301430225,-8.35120043155253,4.681039508658647
1775705941294833000,11.0678330078125,2.019774034888297,-8.378105389612912,4.679558037929237
1775705941304845800,11.077845703125,1.935008862403035,-8.399011399519443,4.677902087415754
1775705941314859000,11.08785888671875,1.8776376005388795,-8.413799803328514,4.674704168157279
1775705941324872000,11.097871826171875,1.846816491948068,-8.421533612450958,4.673055816428363
1775705941334884900,11.107884765625,1.8336216409407555,-8.421516076794266,4.678277934990823
1775705941344898000,11.11789794921875,1.8309509604267775,-8.414612873277068,4.6917271991506215
1775705941354911000,11.127910888671876,1.8368476172499357,-8.401898937654495,4.712159746326506
1775705941364923000,11.1379228515625,1.8519884877584873,-8.384499474564194,4.73716150111407
1775705941374935800,11.147935791015625,1.8766360222809015,-8.363836625763774,4.763914191222191
1775705941384949000,11.157948974609376,1.9114213583275674,-8.34155465132892,4.789084872835875
1775705941394962000,11.1679619140625,1.9564989558078347,-8.32001501969397,4.80831242813617
1775705941404974800,11.177974853515625,2.0108624141581357,-8.300019110369682,4.820426644299924
1775705941414987800,11.18798779296875,2.071064077142626,-8.281096383234859,4.827476562811434
1775705941425001000,11.1980009765625,2.131891178549081,-8.263013029533624,4.83197913492769
1775705941435012900,11.208012939453125,2.1849501301720737,-8.245829839542507,4.837632046122849
1775705941445026000,11.218026123046876,2.2233524876721202,-8.229002623382211,4.84877332560122
1775705941455039000,11.2280390625,2.2431126885443926,-8.212072531369328,4.868339903597533
1775705941465052000,11.238052001953125,2.246768872964382,-8.195179264235495,4.8950461242154235
1775705941475065000,11.248065185546874,2.2382101573251187,-8.180093923306465,4.924111182919145
1775705941485077800,11.258077880859375,2.219526938034594,-8.168606314608454,4.951562668946385
1775705941495091000,11.268091064453126,2.1920725293979046,-8.161981928032636,4.9746600514173505
1775705941505104000,11.278103759765624,2.16129891321063,-8.161914123493432,4.9882197902143
1775705941515116000,11.288115966796875,2.1320751568138596,-8.168440894913672,4.990110134005547
1775705941525129000,11.29812890625,2.1053283119246364,-8.178955859187244,4.984243287798762
1775705941535142000,11.308141845703124,2.0821428127788004,-8.189580713576078,4.976531105986237
1775705941545154800,11.31815478515625,2.057378666139394,-8.198086676114798,4.972820561030507
1775705941555168000,11.32816796875,2.027182995970547,-8.202740054878593,4.9775481740742915
1775705941565181000,11.338180908203125,1.9934208654917775,-8.203897408220172,4.989259070134163
1775705941575193900,11.34819384765625,1.9582085362046955,-8.203558970046043,5.003740015429258
1775705941585207000,11.35820703125,1.9205527592882512,-8.20384304768443,5.017850958368182
1775705941595219000,11.368218994140625,1.8824895706146954,-8.206597899350523,5.027758604398369
1775705941605232000,11.378232177734375,1.8455330280087887,-8.213538512268663,5.030127087095379
1775705941615244800,11.388244873046874,1.8117445940449832,-8.225603628593683,5.0226872924834485
1775705941625258000,11.398258056640625,1.7831275713697075,-8.242028109171986,5.00597581165731
1775705941635271000,11.40827099609375,1.7642274944581091,-8.260267530217765,4.982559280234575
1775705941645283800,11.418283935546874,1.7591553057603537,-8.27738116210401,4.9558770250141615
1775705941655296800,11.428296875,1.7665630977988243,-8.288539100456237,4.934551328390836
1775705941665309000,11.438308837890625,1.784117897581309,-8.290821658435464,4.924389415338635
1775705941675321900,11.44832177734375,1.80940548357293,-8.286300381618737,4.922770874226093
1775705941685335000,11.4583349609375,1.8394808883629739,-8.278409920629858,4.9248997029483315
1775705941695348000,11.468347900390626,1.8724736419044434,-8.270782494491339,4.925282564786076
1775705941705361000,11.47836083984375,1.906639238617569,-8.26746007207036,4.9177480776280165
1775705941715374000,11.4883740234375,1.9379162742823361,-8.271156003978849,4.899273386521637
1775705941725386800,11.49838671875,1.9663081098996102,-8.280997014513611,4.871254622000456
1775705941735400000,11.50839990234375,1.9944667212828993,-8.29388806026876,4.837758010590076
1775705941745411800,11.518411865234375,2.0217142091706393,-8.307443707412482,4.8030660519152875
1775705941755425000,11.528425048828124,2.0443778763994573,-8.32107592692375,4.769760286901891
1775705941765438000,11.53843798828125,2.0588833716139194,-8.33445154132545,4.7400765117779375
1775705941775451000,11.548450927734375,2.0646163623079654,-8.348407585963606,4.712942713397741
1775705941785463800,11.5584638671875,2.0641585355378687,-8.364517009243368,4.6844922794610255
1775705941795477000,11.56847705078125,2.0605719092227517,-8.383792203077673,4.651500694963335
1775705941805490000,11.578489990234376,2.0582246154442427,-8.405465690225363,4.6132715020731085
1775705941815501800,11.588501708984374,2.0617054432973263,-8.426995384988189,4.572255601073802
1775705941825514800,11.5985146484375,2.074407834612578,-8.446304481092096,4.530691126281023
1775705941835528000,11.60852783203125,2.096160378345847,-8.462450729250907,4.490368760503828
1775705941845541000,11.618541015625,2.1246983444355427,-8.473890991675853,4.455243378847837
1775705941855553800,11.6285537109375,2.1569287353023885,-8.480409579789638,4.427266699902713
1775705941865567000,11.63856689453125,2.1898808645725247,-8.484114279526471,4.4039331705883145
1775705941875580000,11.648579833984375,2.222391387555003,-8.486695528191328,4.382622087012231
1775705941885592800,11.6585927734375,2.2521339071288704,-8.490193891701102,4.3606092849075795
1775705941895604700,11.668604736328126,2.277044038110226,-8.496323188236355,4.335661598394811
1775705941905618000,11.678617919921875,2.2978220377229155,-8.505292092111706,4.307018272234499
1775705941915630800,11.688630859375,2.315494180274755,-8.516153677865862,4.275977237282693
1775705941925644000,11.69864404296875,2.329958758956939,-8.527954005774856,4.244485828214883
1775705941935657000,11.708656982421875,2.340669976454973,-8.54032658061385,4.2136037832170725
1775705941945670000,11.718669921875,2.345447419989854,-8.5528774346292,4.185397679430246
1775705941955683000,11.72868310546875,2.343478896395862,-8.564561442682146,4.162543750326336
1775705941965695000,11.738695068359375,2.3329689005583525,-8.574583655002712,4.147784864872694
1775705941975708000,11.7487080078125,2.3127391824781895,-8.58214210755825,4.143482491503656
1775705941985720800,11.758720947265624,2.283323849032074,-8.58684107902944,4.150052517543733
1775705941995734000,11.768734130859375,2.246937215268612,-8.589254569911956,4.1648990812808275
1775705942005747000,11.778746826171876,2.2061817187711594,-8.590613583305478,4.183837005984783
1775705942015760000,11.788759765625,2.163858826826513,-8.591884333893656,4.203289309951662
1775705942025772800,11.798772705078125,2.1213098710410296,-8.593607504424453,4.221416502794623
1775705942035786000,11.808785888671874,2.078937879257649,-8.596450034373998,4.236683630031347
1775705942045798000,11.8187978515625,2.0354361527919766,-8.601012227723002,4.248522536385059
1775705942055810800,11.828810791015625,1.9913583800040184,-8.607547182449698,4.25617714279145
1775705942065823700,11.83882373046875,1.9467204891152678,-8.615303203403949,4.261128627718985
1775705942075837000,11.8488369140625,1.9010987017557024,-8.62272370879352,4.266712857592106
1775705942085849600,11.858849609375,1.8545804039478302,-8.629390765467285,4.2737031548708675
1775705942095862300,11.8688623046875,1.8078214292518793,-8.636607272717356,4.279154698275029
1775705942105875500,11.87887548828125,1.762543194632977,-8.646230841109157,4.278609047091007
1775705942115888400,11.888888427734376,1.7206043335698544,-8.659066941806673,4.269712331669032
1775705942125900500,11.898900634765624,1.6822065061144529,-8.676370543307065,4.249841510029137
1775705942135913500,11.90891357421875,1.6475176161795853,-8.69812761708498,4.218841683870553
1775705942145926400,11.918926513671876,1.6167517449073492,-8.722217517724633,4.1808425003439185
1775705942155939300,11.928939208984374,1.5891414150565861,-8.746421400132775,4.14066772634387
1775705942165952500,11.938952392578125,1.5658452951431274,-8.767674031519888,4.104434675706923
1775705942175965200,11.948965087890626,1.546737274569273,-8.783953550669551,4.076777730235457
1775705942185978400,11.958978271484375,1.529254517109692,-8.794632765594125,4.060319347387552
1775705942195990300,11.968990234375,1.5117454561650752,-8.799785326051712,4.055709515504539
1775705942206003500,11.97900341796875,1.49246178676337,-8.801009899410605,4.060190460310876
1775705942216016400,11.989016357421875,1.4704083603873848,-8.801191685718297,4.0678386369764805
1775705942226029300,11.999029296875,1.448108704165369,-8.802290002349018,4.073455600075423
1775705942236042500,12.00904248046875,1.4263560143016278,-8.806023928180336,4.073064554931223
1775705942246055400,12.019055419921875,1.4050889159977435,-8.813490610799192,4.064299356934428
1775705942256068400,12.029068359375,1.3856545860789715,-8.824044738039374,4.0480356198757885
1775705942266081300,12.039081298828124,1.3699584197752177,-8.835172281253337,4.029057363161445
1775705942276093400,12.049093505859375,1.357688866919279,-8.844558533757924,4.012591089268028
1775705942286106400,12.0591064453125,1.347697195867449,-8.851202794077992,4.001291112096608
1775705942296119600,12.06911962890625,1.3379380183972418,-8.855819347962736,3.9943455307424065
1775705942306132200,12.07913232421875,1.328765408643335,-8.8588933485806,3.9905847169041633
1775705942316145400,12.0891455078125,1.3224259764887392,-8.860855588564275,3.9883381070211525
1775705942326158600,12.09915869140625,1.321877987217158,-8.86226720892787,3.9853827643468973
1775705942336171300,12.109171142578125,1.3296639649182558,-8.863765923053025,3.9794524975150822
1775705942346183400,12.119183349609376,1.3466194836333394,-8.865649837103486,3.969540467570722
1775705942356196400,12.1291962890625,1.3710399314016104,-8.86789673924744,3.9561394264668226
1775705942366209500,12.13920947265625,1.401227564394474,-8.868776444691418,3.943571329055726
1775705942376222500,12.149222412109374,1.4333774373710155,-8.86761909134984,3.934611193008721
1775705942386235400,12.1592353515625,1.4642479380615054,-8.864014929378031,3.931363881650567
1775705942396248300,12.169248291015625,1.4910865528874098,-8.858264987549186,3.934233591867983
1775705942406261500,12.179261474609374,1.5119063458152115,-8.85182180275917,3.940781990598142
1775705942416274400,12.1892744140625,1.5270587606310844,-8.845396153625845,3.9493563421979543
1775705942426286300,12.199286376953125,1.5374113739497959,-8.839528138375282,3.958467869414389
1775705942436299300,12.20929931640625,1.5433359416931867,-8.835126104024052,3.9659924197003242
1775705942446312400,12.2193125,1.5463187568962573,-8.832916026759147,3.969743588927388
1775705942456325400,12.229325439453126,1.5473801025174558,-8.833606347110868,3.9677950852081176
1775705942466338300,12.23933837890625,1.5467631396628916,-8.8368860994339,3.960729384605586
1775705942476351500,12.2493515625,1.5440646943591534,-8.8412670909971,3.951990782354772
1775705942486364400,12.259364501953126,1.5401492744810878,-8.845376864403486,3.9443189325526355
1775705942496377300,12.26937744140625,1.5355597547337412,-8.848607516887784,3.9388597903639075
1775705942506389500,12.279389404296875,1.5305995019778609,-8.850653343501687,3.9361905711546537
1775705942516402400,12.28940234375,1.525348011190444,-8.85204742820859,3.935093423567712
1775705942526415400,12.299415283203125,1.5210149504221975,-8.853652525317669,3.933155733503401
1775705942536428500,12.309428466796875,1.5193274357266724,-8.856222083544731,3.9280204164415595
1775705942546441200,12.319441162109374,1.5216963568150996,-8.859987573558092,3.91860084618926
1775705942556454400,12.329454345703125,1.5316459422908721,-8.864192039510607,3.905193959866464
1775705942566467600,12.339467529296876,1.5513916762463749,-8.867850562018155,3.8890643705815076
1775705942576479500,12.3494794921875,1.5826242882475257,-8.869978806218505,3.8715857047751543
1775705942586492400,12.359492431640625,1.6252607761859892,-8.86923938602805,3.8555803263917565
1775705942596505300,12.36950537109375,1.6767945640683173,-8.864708172339201,3.843917068865895
1775705942606518500,12.3795185546875,1.7340980213932693,-8.855117337173223,3.8405946464449165
1775705942616531500,12.389531494140625,1.7924818213008342,-8.83869285659492,3.851612299543619
1775705942626544400,12.39954443359375,1.8480794976212083,-8.815349974930285,3.878737037834525
1775705942636557300,12.409557373046875,1.9001183124162255,-8.786026849812268,3.9199063758298753
1775705942646570500,12.419570556640625,1.9479498847797512,-8.752159067001939,3.9718475754693148
1775705942656582400,12.42958251953125,1.992374717439711,-8.714554435750841,4.032045439061522
1775705942666595600,12.439595703125,2.0336779109477994,-8.674308350080251,4.097666789007187
1775705942676608300,12.449608154296875,2.072691970605403,-8.632790929299592,4.165243364673852
1775705942686621400,12.459621337890624,2.110469912596792,-8.590829856404662,4.232483840253949
1775705942696634400,12.46963427734375,2.1474786237813532,-8.549105514875054,4.297853261265159
1775705942706647300,12.479647216796875,2.182186072286218,-8.509044138121604,4.359431765560806
1775705942716660500,12.489660400390624,2.213318877174705,-8.471476331749558,4.416526402440667
1775705942726673400,12.49967333984375,2.2395080881811675,-8.435295595821739,4.472220817133784
1775705942736685600,12.509685546875,2.2597404366098344,-8.400169921904801,4.527813525018096
1775705942746698500,12.519698486328124,2.2753397184103727,-8.366290448656677,4.582398809425532
1775705942756711400,12.52971142578125,2.288059499251842,-8.333403493577242,4.635682655845582
1775705942766724400,12.539724365234376,2.2982485925719143,-8.301006952363252,4.688467612832785
1775705942776737500,12.549737548828125,2.3048466756626964,-8.269056985872984,4.741384964028001
1775705942786750200,12.559750244140625,2.307800410901755,-8.23810304468274,4.7935471129417415
1775705942796763400,12.569763427734374,2.3082342722743747,-8.208055696943402,4.844612114268541
1775705942806775300,12.579775390625,2.308733746229112,-8.179821536105871,4.891894966708123
1775705942816788500,12.58978857421875,2.311652264024317,-8.15496298918128,4.93185785152316
1775705942826801400,12.599801513671874,2.3183603833608326,-8.134048211446403,4.963147892799973
1775705942836814300,12.609814453125,2.3293913343325254,-8.117336730620265,4.985295427200198
1775705942846827500,12.61982763671875,2.34453176644966,-8.105080475637315,4.99812217554748
1775705942856840400,12.62984033203125,2.3624067380972207,-8.097043299654125,5.002732884213328
1775705942866853400,12.639853271484375,2.379664454629272,-8.092225670239328,5.002346515244246
1775705942876866300,12.6498662109375,2.394827975361049,-8.088917860865593,5.0004608476281165
1775705942886878500,12.65987841796875,2.405626725012064,-8.08454271452129,5.002348268809914
1775705942896891400,12.669891357421875,2.408872136674076,-8.076861512368916,5.013185304644703
1775705942906904600,12.679904541015626,2.4024038174428046,-8.067180660831928,5.031844996929168
1775705942916917200,12.689917236328125,2.3891567978568373,-8.058506940510869,5.052005741426348
1775705942926930400,12.699930419921875,2.3737635600224136,-8.05300074431002,5.068017549550533
1775705942936943400,12.709943359375,2.359425091937929,-8.052112271037696,5.076121361029148
1775705942946956300,12.719956298828125,2.348111816893518,-8.05693691471517,5.073709039190411
1775705942956969500,12.729969482421875,2.3411494305349887,-8.066699599316715,5.06140309984684
1775705942966981400,12.7399814453125,2.339930410134047,-8.079587137940525,5.04137153468728
1775705942976994600,12.74999462890625,2.340947478222102,-8.093560133713483,5.018428465995192
1775705942987007500,12.760007568359375,2.337772501447797,-8.106372853535413,4.999190097039937
1775705942997020400,12.7700205078125,2.326898932994902,-8.115849122411012,4.988882638037205
1775705943007033300,12.780033447265625,2.3089944429919123,-8.121322585386038,4.9882957780599595
1775705943017046500,12.790046630859376,2.2869218735240397,-8.123528570997715,4.994865219578147
1775705943027059200,12.80005908203125,2.2636976498030124,-8.123371919131278,5.005690564975142
1775705943037071400,12.8100712890625,2.2411701761744913,-8.122993148946762,5.016426478523016
1775705943047084300,12.820084228515626,2.2203872081257403,-8.124386649131774,5.023408592495322
1775705943057097500,12.830097412109374,2.205037371041626,-8.127927682739497,5.024439689108729
1775705943067110400,12.8401103515625,2.1976931457586586,-8.133414005196094,5.018775671997666
1775705943077123300,12.850123291015626,2.194898254343122,-8.140642787405849,5.00826713746488
1775705943087136800,12.86013671875,2.192111838494986,-8.149623381718992,4.994865804100036
1775705943097149700,12.870149658203125,2.184928356731683,-8.15996240490377,4.981116680210828
1775705943107162600,12.88016259765625,2.1700271401979028,-8.171976083302498,4.967915253332257
1775705943117174500,12.890174560546875,2.14549314905256,-8.185295583602786,4.956628135642409
1775705943127187700,12.900187744140625,2.1105602212287486,-8.200306105729936,4.946808167895674
1775705943137200600,12.91020068359375,2.0700636679284274,-8.216239003399014,4.937473937839269
1775705943147213800,12.9202138671875,2.02852520435974,-8.230825162634254,4.930415251499414
1775705943157226500,12.9302265625,1.9910493140548466,-8.243953524276614,4.923758131697774
1775705943167239700,12.94023974609375,1.9617938473455607,-8.256033838170767,4.915250415593386
1775705943177252900,12.9502529296875,1.9399908885993062,-8.267742396143078,4.904208797097206
1775705943187265500,12.960265625,1.9252859252899883,-8.279781793504952,4.889671153178811
