time,seconds_elapsed,z,y,x
1775705930280695600,0.053695556640625,-0.03748181834816933,-1.276047945022583,0.4563242793083191
1775705930290708200,0.063708251953125,0.08642041683197021,-1.1032516956329346,0.5266101956367493
1775705930300721400,0.073721435546875,0.11740602552890778,-0.917675793170929,0.7290011048316956
1775705930310734300,0.083734375,0.08901220560073853,-0.7556413412094116,1.0078068971633911
1775705930320747300,0.093747314453125,0.04428563266992569,-0.7266167402267456,1.3153077363967896
1775705930330760200,0.10376025390625,-0.10308997333049774,-0.9235756397247314,1.5546023845672607
1775705930340772400,0.1137724609375,-0.3333309590816498,-1.2614489793777466,1.695719838142395
1775705930350785300,0.123785400390625,-0.5949417948722839,-1.6698285341262817,1.74357008934021
1775705930360798500,0.133798583984375,-0.8182026743888855,-1.9699738025665283,1.69334876537323
1775705930370811100,0.14381103515625,-0.8159787058830261,-1.9760130643844604,1.6364461183547974
1775705930380824300,0.15382421875,-0.721027672290802,-1.7179538011550903,1.4793789386749268
1775705930390837500,0.16383740234375,-0.8170617818832397,-1.6119977235794067,1.2007502317428589
1775705930400849400,0.173849365234375,-1.0200483798980713,-1.9549353122711182,0.9493305683135986
1775705930410862300,0.1838623046875,-1.120645523071289,-2.5658440589904785,0.6927427053451538
1775705930420875300,0.193875244140625,-1.1632450819015503,-3.3589303493499756,0.49748456478118896
1775705930430888400,0.203888427734375,-1.1980842351913452,-3.5515499114990234,0.542471706867218
1775705930440901400,0.2139013671875,-1.3200305700302124,-3.401167154312134,0.717526376247406
1775705930450914300,0.223914306640625,-1.6051887273788452,-3.2308716773986816,0.9157291650772095
1775705930460926200,0.23392626953125,-2.0421817302703857,-3.172548532485962,1.1439783573150635
1775705930470939400,0.243939453125,-2.5391554832458496,-3.220451831817627,1.4205260276794434
1775705930480952300,0.253952392578125,-3.0362868309020996,-3.310537815093994,1.7093900442123413
1775705930490965200,0.26396533203125,-3.223985195159912,-2.7043230533599854,1.9332114458084106
1775705930500978200,0.273978271484375,-2.360384702682495,-2.41717267036438,1.9078145027160645
1775705930510991400,0.283991455078125,-0.07958197593688965,-2.6954801082611084,1.4045343399047852
1775705930521003300,0.294003173828125,1.9132215976715088,-2.157606363296509,1.2353777885437012
1775705930531016400,0.304016357421875,2.8678112030029297,-1.5297187566757202,1.3761489391326904
1775705930541029000,0.314029052734375,2.9530205726623535,-1.598743200302124,1.6946436166763306
1775705930551042300,0.324042236328125,2.1487302780151367,-1.690118432044983,1.875799536705017
1775705930561055500,0.334055419921875,1.2337638139724731,-1.7859171628952026,1.7899248600006104
1775705930571068200,0.344068115234375,0.6330899596214294,-1.5715245008468628,1.6591253280639648
1775705930581080300,0.354080322265625,0.20501480996608734,-1.7267953157424927,1.5645191669464111
1775705930591093200,0.36409326171875,-0.07723819464445114,-1.7380670309066772,1.4715921878814697
1775705930601106400,0.3741064453125,-0.17500890791416168,-1.5160255432128906,1.3267228603363037
1775705930611119400,0.384119384765625,-0.10009846091270447,-1.0619930028915405,1.094038963317871
1775705930621132300,0.39413232421875,0.16016870737075806,-0.4526432454586029,0.7800512313842773
1775705930631145200,0.404145263671875,0.530928373336792,-0.3228309154510498,0.4822981059551239
1775705930641157400,0.414157470703125,0.9766929745674133,-0.5436185002326965,0.3740222156047821
1775705930651170300,0.42417041015625,1.0916794538497925,-0.7603497505187988,0.3703406751155853
1775705930661183200,0.434183349609375,0.7156822085380554,-1.0629119873046875,0.4903184771537781
1775705930671196200,0.444196044921875,-0.06839876621961594,-1.2418911457061768,0.7114990949630737
1775705930681209300,0.454209228515625,-0.7389010190963745,-1.3665024042129517,0.9573383927345276
1775705930691222500,0.464222412109375,-1.0234274864196777,-1.4819320440292358,1.1169413328170776
1775705930701234400,0.474234375,-1.027757167816162,-1.5337470769882202,1.1795653104782104
1775705930711247400,0.484247314453125,-0.9023128151893616,-1.4854179620742798,1.1781303882598877
1775705930721260300,0.49426025390625,-0.5955826640129089,-1.042734146118164,1.0182642936706543
1775705930731273500,0.5042734375,-0.09637071937322617,-0.226688951253891,0.5480222702026367
1775705930741286400,0.514286376953125,0.015116676688194275,-0.2135160118341446,0.4713820517063141
1775705930751299300,0.52429931640625,-0.020551837980747223,-0.4383416771888733,0.5253502726554871
1775705930761311200,0.534311279296875,-0.12517425417900085,-0.8006489276885986,0.5291228890419006
1775705930771324400,0.544324462890625,-0.17739298939704895,-1.0750852823257446,0.4647747874259949
1775705930781337300,0.55433740234375,-0.15693441033363342,-1.1875977516174316,0.4395999312400818
1775705930791350300,0.564350341796875,-0.15040433406829834,-1.1699191331863403,0.4279341995716095
1775705930801363200,0.57436328125,-0.18688981235027313,-1.058640718460083,0.39517542719841003
1775705930811376400,0.58437646484375,-0.18292036652565002,-0.9523547887802124,0.38686424493789673
1775705930821388300,0.59438818359375,-0.13250257074832916,-0.9493255615234375,0.41566556692123413
1775705930831401500,0.6044013671875,-0.0947735607624054,-1.0056689977645874,0.4513724148273468
1775705930841414100,0.6144140625,-0.08986587822437286,-1.0696426630020142,0.4798557460308075
1775705930851427300,0.62442724609375,-0.12896454334259033,-1.1438426971435547,0.476907342672348
1775705930861440500,0.6344404296875,-0.17702661454677582,-1.2238134145736694,0.4232185482978821
1775705930871453200,0.644453125,-0.1968245506286621,-1.2274653911590576,0.3591362535953522
1775705930881465300,0.65446533203125,-0.21152162551879883,-1.1274261474609375,0.28195253014564514
1775705930891478300,0.664478271484375,-0.22999490797519684,-1.0165367126464844,0.1781315803527832
1775705930901491500,0.674491455078125,-0.23440049588680267,-0.9354479908943176,0.09633953869342804
1775705930911504400,0.68450439453125,-0.24227306246757507,-0.854586124420166,0.05848003923892975
1775705930921517300,0.694517333984375,-0.27144354581832886,-0.7654468417167664,0.04265040531754494
1775705930931530200,0.7045302734375,-0.30345234274864197,-0.6244412660598755,0.03526918962597847
1775705930941542400,0.71454248046875,-0.3078392744064331,-0.5565031170845032,0.046316854655742645
1775705930951555300,0.724555419921875,-0.26769503951072693,-0.6063300371170044,0.12752915918827057
1775705930961568300,0.734568359375,-0.21415942907333374,-0.7793655395507812,0.23145654797554016
1775705930971581200,0.744581298828125,-0.17000529170036316,-1.005256175994873,0.338241308927536
1775705930981594400,0.754594482421875,-0.14449907839298248,-1.1746302843093872,0.4509407579898834
1775705930991607600,0.764607666015625,-0.14157652854919434,-1.2376145124435425,0.5712890625
1775705931001619500,0.774619384765625,-0.17933392524719238,-1.075271487236023,0.6810546517372131
1775705931011632400,0.78463232421875,-0.2227756828069687,-0.8019202351570129,0.7766107320785522
1775705931021645300,0.794645263671875,-0.22309772670269012,-0.5865757465362549,0.8272576332092285
1775705931031658500,0.804658447265625,-0.19504718482494354,-0.4035140573978424,0.8176119327545166
1775705931041671200,0.814671142578125,-0.19003857672214508,-0.28932228684425354,0.7359927296638489
1775705931051684400,0.824684326171875,-0.17128460109233856,-0.17971934378147125,0.5521141886711121
1775705931061696300,0.8346962890625,-0.14584171772003174,0.006185730453580618,0.35894501209259033
1775705931071709400,0.84470947265625,-0.05788469314575195,0.15554273128509521,0.21114864945411682
1775705931081721600,0.8547216796875,0.08555512130260468,0.17478139698505402,0.09860029071569443
1775705931091734500,0.864734619140625,0.14947178959846497,0.07297700643539429,0.015907809138298035
1775705931101747700,0.874747802734375,0.08611046522855759,-0.12904983758926392,-0.0201471708714962
1775705931111760600,0.8847607421875,-0.002297957893460989,-0.24547019600868225,-0.010352065786719322
1775705931121772800,0.894772705078125,-0.026064179837703705,-0.24248799681663513,0.0569114126265049
1775705931131785700,0.90478564453125,0.006206675432622433,-0.2595823109149933,0.130757138133049
1775705931141798700,0.914798583984375,0.040186312049627304,-0.3048103153705597,0.18360140919685364
1775705931151811600,0.9248115234375,0.08501236885786057,-0.38145580887794495,0.22809670865535736
1775705931161824800,0.93482470703125,0.14427636563777924,-0.5029624700546265,0.30214592814445496
1775705931171837700,0.944837646484375,0.19923894107341766,-0.6727272868156433,0.39377811551094055
1775705931181849600,0.954849609375,0.18935085833072662,-0.7649588584899902,0.4943036437034607
1775705931191862500,0.964862548828125,0.083175428211689,-0.7364451885223389,0.5830351114273071
1775705931201875700,0.974875732421875,-0.0141484085470438,-0.6187249422073364,0.6288622617721558
1775705931211888600,0.984888671875,-0.0488123781979084,-0.4409451186656952,0.6414624452590942
1775705931221901600,0.994901611328125,-0.06740856915712357,-0.37021952867507935,0.6314098238945007
1775705931231914800,1.004914794921875,-0.1386294811964035,-0.4540598392486572,0.6514293551445007
1775705931241926700,1.0149267578125,-0.22912399470806122,-0.4949936866760254,0.6948501467704773
1775705931251939800,1.02493994140625,-0.2710552215576172,-0.5428829193115234,0.7211397886276245
1775705931261952500,1.034952392578125,-0.25455009937286377,-0.6438276171684265,0.7299824953079224
1775705931271965700,1.044965576171875,-0.2518097162246704,-0.7622889876365662,0.7261036038398743
1775705931281978600,1.054978515625,-0.2554545998573303,-0.8316057920455933,0.7013846635818481
1775705931291991800,1.06499169921875,-0.23050770163536072,-0.7994062900543213,0.6204461455345154
1775705931302003700,1.075003662109375,-0.2014196515083313,-0.6148070693016052,0.48229196667671204
1775705931312016600,1.0850166015625,-0.19012919068336487,-0.31423497200012207,0.30147743225097656
1775705931322029600,1.095029541015625,-0.1939278542995453,-0.04299266263842583,0.11296800523996353
1775705931332042800,1.105042724609375,-0.18104401230812073,0.165287047624588,-0.02611558325588703
1775705931342055700,1.1150556640625,-0.14568938314914703,0.3074292540550232,-0.128758043050766
1775705931352068600,1.125068603515625,-0.10118930041790009,0.34454119205474854,-0.19635094702243805
1775705931362080500,1.13508056640625,-0.07631032168865204,0.2866145074367523,-0.24124731123447418
1775705931372093700,1.14509375,-0.10387323796749115,0.21208462119102478,-0.2444271296262741
1775705931382106600,1.155106689453125,-0.18335634469985962,0.17000913619995117,-0.1909593641757965
1775705931392119600,1.16511962890625,-0.2547719478607178,0.09437429904937744,-0.08054099231958389
1775705931402132700,1.1751328125,-0.30174505710601807,-0.10645021498203278,0.07683877646923065
1775705931412145700,1.185145751953125,-0.3559646010398865,-0.3449229598045349,0.21008366346359253
1775705931422158600,1.19515869140625,-0.4239501655101776,-0.4882226884365082,0.26936396956443787
1775705931432170800,1.205170654296875,-0.5004127025604248,-0.5743077993392944,0.28376874327659607
1775705931442183700,1.21518359375,-0.575732946395874,-0.5319352746009827,0.31922876834869385
1775705931452196600,1.225196533203125,-0.623552143573761,-0.33127808570861816,0.3574773669242859
1775705931462209800,1.235209716796875,-0.6003726124763489,-0.1448918879032135,0.3767165243625641
1775705931472222500,1.245222412109375,-0.5715076923370361,-0.060192178934812546,0.36934012174606323
1775705931482235600,1.255235595703125,-0.5915110111236572,0.020902300253510475,0.301032692193985
1775705931492247600,1.26524755859375,-0.5563559532165527,-0.008901667781174183,0.16658326983451843
1775705931502260700,1.2752607421875,-0.3996088206768036,-0.13178183138370514,-0.0011329964036121964
1775705931512273700,1.285273681640625,-0.1545758992433548,-0.3048207461833954,-0.1337677389383316
1775705931522286600,1.29528662109375,0.06007573381066322,-0.4066924750804901,-0.1919170618057251
1775705931532299800,1.3052998046875,0.1729964166879654,-0.4474889039993286,-0.1964777261018753
1775705931542312700,1.315312744140625,0.15675543248653412,-0.4034009277820587,-0.17738869786262512
1775705931552324900,1.325324951171875,0.059116486459970474,-0.16117072105407715,-0.1477983146905899
1775705931562337500,1.335337646484375,-0.04515164718031883,0.16278554499149323,-0.11753443628549576
1775705931572350700,1.345350830078125,-0.10750371217727661,0.4518498480319977,-0.10197944939136505
1775705931582363600,1.35536376953125,-0.14833444356918335,0.5894914865493774,-0.06571010500192642
1775705931592376800,1.365376953125,-0.14025627076625824,0.6182182431221008,-0.05720583721995354
1775705931602389500,1.375389404296875,-0.12361201643943787,0.48121923208236694,-0.1249995231628418
1775705931612401700,1.385401611328125,-0.11869849264621735,0.3408142030239105,-0.24064862728118896
1775705931622414600,1.39541455078125,-0.12995965778827667,0.319039911031723,-0.34783151745796204
1775705931632427800,1.405427734375,-0.1348966360092163,0.32067376375198364,-0.39569091796875
1775705931642440400,1.4154404296875,-0.1128324568271637,0.33758389949798584,-0.40095576643943787
1775705931652453600,1.42545361328125,-0.08234778791666031,0.35520684719085693,-0.37988829612731934
1775705931662466800,1.435466796875,-0.04102304205298424,0.4070635139942169,-0.3488565683364868
1775705931672478700,1.445478759765625,0.003226446220651269,0.5025690197944641,-0.295194149017334
1775705931682491600,1.45549169921875,0.0012197543401271105,0.6525265574455261,-0.1858375519514084
1775705931692504600,1.465504638671875,-0.04932544752955437,0.7771984338760376,-0.04692468047142029
1775705931702517800,1.475517822265625,-0.11278793960809708,0.79850172996521,0.10099470615386963
1775705931712530700,1.48553076171875,-0.14576053619384766,0.7109130620956421,0.26535114645957947
1775705931722543600,1.495543701171875,-0.1684226542711258,0.4890805184841156,0.40119773149490356
1775705931732555500,1.505555419921875,-0.1878586709499359,0.21407665312290192,0.4909209609031677
1775705931742568700,1.515568603515625,-0.21535062789916992,0.013468664139509201,0.5695744156837463
1775705931752581600,1.52558154296875,-0.25908586382865906,-0.07253492623567581,0.6391431093215942
1775705931762594800,1.5355947265625,-0.32257935404777527,-0.07080413401126862,0.6744433045387268
1775705931772607500,1.545607421875,-0.3562694787979126,0.023499498143792152,0.6604244709014893
1775705931782620700,1.55562060546875,-0.36229586601257324,0.10631231963634491,0.5809831619262695
1775705931792632600,1.565632568359375,-0.4036438465118408,0.1939292550086975,0.48779377341270447
1775705931802645800,1.575645751953125,-0.4586201310157776,0.27136945724487305,0.40445658564567566
1775705931812658400,1.585658447265625,-0.4789576232433319,0.40223851799964905,0.30979105830192566
1775705931822671600,1.595671630859375,-0.4496918022632599,0.5267382264137268,0.19390784204006195
1775705931832684800,1.605684814453125,-0.38995125889778137,0.5368180274963379,0.06303850561380386
1775705931842697700,1.61569775390625,-0.331720769405365,0.4945463538169861,-0.07722881436347961
1775705931852710700,1.625710693359375,-0.28291380405426025,0.4175109565258026,-0.19987110793590546
1775705931862722600,1.63572265625,-0.23404614627361298,0.34556278586387634,-0.26537075638771057
1775705931872735700,1.64573583984375,-0.19079987704753876,0.30774083733558655,-0.2976778447628021
1775705931882748700,1.655748779296875,-0.18223091959953308,0.2857675552368164,-0.31940311193466187
1775705931892761600,1.66576171875,-0.2086489349603653,0.2741473615169525,-0.3200609087944031
1775705931902774500,1.6757744140625,-0.22874967753887177,0.2899608910083771,-0.2842632234096527
1775705931912787700,1.68578759765625,-0.21487461030483246,0.2959359586238861,-0.20593540370464325
1775705931922799600,1.695799560546875,-0.1818372756242752,0.26031094789505005,-0.11122459173202515
1775705931932812800,1.705812744140625,-0.16239778697490692,0.1844896823167801,-0.03230847790837288
1775705931942825500,1.715825439453125,-0.1716061681509018,0.10539655387401581,0.022791266441345215
1775705931952838700,1.725838623046875,-0.1904008984565735,0.059712689369916916,0.042590271681547165
1775705931962851800,1.735851806640625,-0.1857939213514328,0.02011246420443058,0.023364638909697533
1775705931972864500,1.745864501953125,-0.1724722683429718,-0.011370627209544182,-0.009503296576440334
1775705931982876700,1.755876708984375,-0.14264671504497528,-0.034397710114717484,-0.041532598435878754
1775705931992889600,1.7658896484375,-0.08549127727746964,-0.06389275193214417,-0.07815079391002655
1775705932002902800,1.77590283203125,-0.025955574586987495,-0.052386730909347534,-0.1124001294374466
1775705932012915700,1.785915771484375,0.024828244000673294,-0.015691038221120834,-0.1441705822944641
1775705932022928600,1.7959287109375,0.057308442890644073,0.02235742285847664,-0.16859149932861328
1775705932032941600,1.805941650390625,0.07704806327819824,0.03724955394864082,-0.1813642829656601
1775705932042953700,1.81595361328125,0.08978359401226044,0.0006655296310782433,-0.17862094938755035
1775705932052966700,1.825966552734375,0.09949561208486557,-0.08454710245132446,-0.15211370587348938
1775705932062979600,1.8359794921875,0.10282539576292038,-0.16436760127544403,-0.09976767003536224
1775705932072992500,1.845992431640625,0.10754771530628204,-0.19391004741191864,-0.052837710827589035
1775705932083005400,1.85600537109375,0.11819612234830856,-0.16614937782287598,-0.03474871814250946
1775705932093018400,1.866018310546875,0.1464461386203766,-0.1561228483915329,-0.05106457322835922
1775705932103030500,1.876030517578125,0.17194068431854248,-0.14808548986911774,-0.06966087222099304
1775705932113043200,1.886043212890625,0.17180167138576508,-0.12690670788288116,-0.08241048455238342
1775705932123056400,1.896056396484375,0.17555157840251923,-0.11481094360351562,-0.08045441657304764
1775705932133069600,1.906069580078125,0.16781535744667053,-0.14427562057971954,-0.05803965404629707
1775705932143082500,1.91608251953125,0.16025035083293915,-0.22013957798480988,-0.03537056967616081
1775705932153095400,1.926095458984375,0.14505834877490997,-0.3174131512641907,-0.009011132642626762
1775705932163108400,1.9361083984375,0.1411472111940384,-0.3426336944103241,0.04328003153204918
1775705932173120500,1.94612060546875,0.1507478952407837,-0.31040331721305847,0.10541344434022903
1775705932183133400,1.956133544921875,0.16777855157852173,-0.2644731104373932,0.1525609791278839
1775705932193146400,1.966146484375,0.18091006577014923,-0.21439236402511597,0.17517201602458954
1775705932203159300,1.9761591796875,0.1679350882768631,-0.17249669134616852,0.1793193370103836
1775705932213172500,1.98617236328125,0.13179519772529602,-0.12825307250022888,0.17288833856582642
1775705932223185400,1.996185302734375,0.10082664340734482,-0.10677485167980194,0.15997707843780518
1775705932233197600,2.006197509765625,0.09864018857479095,-0.12765483558177948,0.16552019119262695
1775705932243210200,2.016210205078125,0.12312035262584686,-0.22481805086135864,0.20890364050865173
1775705932253223400,2.026223388671875,0.17628291249275208,-0.3420757055282593,0.27878445386886597
1775705932263236600,2.036236572265625,0.2313147485256195,-0.40566200017929077,0.34421485662460327
1775705932273249300,2.046249267578125,0.27903035283088684,-0.4042007029056549,0.3721711039543152
1775705932283262500,2.056262451171875,0.31056851148605347,-0.3687741160392761,0.3513646423816681
1775705932293274400,2.0662744140625,0.328385591506958,-0.29440534114837646,0.3120257556438446
1775705932303287600,2.07628759765625,0.32950249314308167,-0.2295907586812973,0.2711472809314728
1775705932313300500,2.086300537109375,0.310164213180542,-0.12490908801555634,0.23626919090747833
1775705932323313400,2.0963134765625,0.29439806938171387,-0.06645826995372772,0.196110337972641
1775705932333326300,2.106326416015625,0.3036711812019348,-0.11485376209020615,0.16299286484718323
1775705932343339500,2.116339599609375,0.3309350311756134,-0.20832858979701996,0.13938739895820618
1775705932353351400,2.126351318359375,0.34725087881088257,-0.31826627254486084,0.14061351120471954
1775705932363364400,2.1363642578125,0.3512324094772339,-0.43005433678627014,0.15993396937847137
1775705932373377300,2.146377197265625,0.3546537756919861,-0.5237690806388855,0.14295712113380432
1775705932383390500,2.156390380859375,0.32207784056663513,-0.5250171422958374,0.07740097492933273
1775705932393403400,2.1664033203125,0.2546093165874481,-0.403581827878952,-0.03271913900971413
1775705932403416300,2.176416259765625,0.1571064591407776,-0.16515445709228516,-0.18280290067195892
1775705932413428200,2.18642822265625,0.06633208692073822,0.06344463676214218,-0.3302980661392212
1775705932423441400,2.19644140625,0.032723020762205124,0.16244854032993317,-0.41100889444351196
1775705932433454600,2.20645458984375,0.014640958979725838,0.1649809330701828,-0.4026854634284973
1775705932443467300,2.21646728515625,-0.009532627649605274,0.08459383249282837,-0.3278900682926178
1775705932453480400,2.22648046875,-0.016468830406665802,-0.029684798792004585,-0.2093953639268875
1775705932463493400,2.236493408203125,-0.018558764830231667,-0.12747326493263245,-0.08378816395998001
1775705932473505500,2.246505615234375,-0.025943977758288383,-0.20545701682567596,0.013542388565838337
1775705932483518500,2.2565185546875,-0.036260735243558884,-0.2783302366733551,0.0665891095995903
1775705932493531400,2.266531494140625,-0.05242505669593811,-0.31677138805389404,0.08433907479047775
1775705932503544300,2.27654443359375,-0.055598124861717224,-0.30396348237991333,0.09195435047149658
1775705932513557500,2.2865576171875,-0.03564145788550377,-0.2569187581539154,0.10821214318275452
1775705932523570200,2.296570068359375,-0.01899239979684353,-0.20521637797355652,0.1332772970199585
1775705932533583400,2.306583251953125,0.00001910724677145481,-0.182706817984581,0.1533500701189041
1775705932543595300,2.31659521484375,0.02909967117011547,-0.20613539218902588,0.16947636008262634
1775705932553608400,2.3266083984375,0.05328729748725891,-0.23071344196796417,0.1868492215871811
1775705932563621600,2.33662158203125,0.07790704816579819,-0.2570607662200928,0.19983530044555664
1775705932573634300,2.34663427734375,0.10865084081888199,-0.285327285528183,0.20282335579395294
1775705932583647500,2.3566474609375,0.11235398799180984,-0.276402086019516,0.18223978579044342
1775705932593660400,2.366660400390625,0.0914686843752861,-0.25007620453834534,0.12342868000268936
1775705932603672600,2.376672607421875,0.08762623369693756,-0.1990290880203247,0.06081615760922432
1775705932613685200,2.386685302734375,0.0960836410522461,-0.10123968124389648,0.023292215541005135
1775705932623698400,2.396698486328125,0.09657324850559235,-0.0002844339469447732,0.0009049115469679236
1775705932633711400,2.40671142578125,0.08364918828010559,0.07204754650592804,-0.028191454708576202
1775705932643724500,2.416724609375,0.07357393205165863,0.07654014974832535,-0.061261311173439026
1775705932653737200,2.4267373046875,0.06833495944738388,0.0455489456653595,-0.07593400031328201
1775705932663749400,2.436749267578125,0.04934215918183327,0.028793569654226303,-0.0780666396021843
1775705932673762300,2.44676220703125,0.038505490869283676,0.03409113362431526,-0.07530760765075684
1775705932683775500,2.456775390625,0.047100674360990524,0.021698368713259697,-0.0681878998875618
1775705932693788400,2.466788330078125,0.07718773186206818,0.01334935799241066,-0.05321000888943672
1775705932703801300,2.47680126953125,0.10474832355976105,0.01924790069460869,-0.02892543002963066
1775705932713814500,2.486814453125,0.11081580072641373,0.03710972145199776,-0.01402451004832983
1775705932723827500,2.496827392578125,0.12266596406698227,0.057283706963062286,0.004313196986913681
1775705932733839600,2.506839599609375,0.13641774654388428,0.056621111929416656,0.030918708071112633
1775705932743852300,2.516852294921875,0.14276784658432007,0.0711648091673851,0.054685574024915695
1775705932753865500,2.526865478515625,0.13065604865550995,0.0752761960029602,0.05513857677578926
1775705932763878400,2.53687841796875,0.09871812164783478,0.12557141482830048,0.04431949183344841
1775705932773891300,2.546891357421875,0.06826354563236237,0.17059428989887238,0.028825750574469566
1775705932783904300,2.556904296875,0.05563224479556084,0.16382969915866852,0.02677806280553341
1775705932793916400,2.56691650390625,0.05840539559721947,0.13153408467769623,0.038973212242126465
1775705932803929300,2.576929443359375,0.07017061859369278,0.07247123122215271,0.04767746850848198
1775705932813942500,2.586942626953125,0.07317200303077698,0.023525530472397804,0.03046146221458912
1775705932823955200,2.596955078125,0.05810445174574852,0.050452765077352524,-0.005715224891901016
1775705932833968400,2.606968505859375,0.026080472394824028,0.1017409935593605,-0.036515481770038605
1775705932843981600,2.616981689453125,-0.0035023384261876345,0.15938737988471985,-0.03990485891699791
1775705932853993500,2.626993408203125,-0.0433829091489315,0.1936047375202179,-0.02053249627351761
1775705932864006400,2.63700634765625,-0.08817066252231598,0.1777045726776123,0.008063186891376972
1775705932874019300,2.647019287109375,-0.11753973364830017,0.12329113483428955,0.035252731293439865
1775705932884032500,2.657032470703125,-0.13655926287174225,0.05773930251598358,0.0575098842382431
1775705932894045400,2.66704541015625,-0.1675395518541336,0.018938910216093063,0.06297442317008972
1775705932904058400,2.677058349609375,-0.2127835601568222,-0.05747522413730621,0.03260398283600807
1775705932914071300,2.6870712890625,-0.24398913979530334,-0.06565353274345398,-0.03817325085401535
1775705932924083500,2.69708349609375,-0.25181153416633606,0.043812140822410583,-0.11497752368450165
1775705932934096400,2.707096435546875,-0.24762505292892456,0.1377362310886383,-0.14832855761051178
1775705932944109300,2.717109375,-0.2554562985897064,0.17640556395053864,-0.1442863941192627
1775705932954122200,2.727122314453125,-0.2671206593513489,0.20279696583747864,-0.13829214870929718
1775705932964135400,2.737135498046875,-0.27212485671043396,0.24303984642028809,-0.1394629031419754
1775705932974148600,2.747148681640625,-0.2651202082633972,0.27224433422088623,-0.12343546748161316
1775705932984160500,2.757160400390625,-0.24472305178642273,0.25483039021492004,-0.09476061165332794
1775705932994173400,2.76717333984375,-0.20038728415966034,0.2230072170495987,-0.05595036968588829
1775705933004186400,2.777186279296875,-0.13707605004310608,0.1949857622385025,-0.009038012474775314
1775705933014199600,2.787199462890625,-0.08774205297231674,0.1831892877817154,0.0350910983979702
1775705933024212500,2.79721240234375,-0.048805348575115204,0.1497410237789154,0.06981418281793594
1775705933034225400,2.807225341796875,-0.028235360980033875,0.1086718812584877,0.100995272397995
1775705933044237300,2.8172373046875,-0.023424185812473297,0.08532001078128815,0.12697631120681763
1775705933054250500,2.82725048828125,-0.034668050706386566,0.06041732057929039,0.13698846101760864
1775705933064263400,2.837263427734375,-0.03969700261950493,-0.003378375433385372,0.13646405935287476
1775705933074276400,2.8472763671875,-0.05033446475863457,-0.040722817182540894,0.1334477663040161
1775705933084289800,2.857289794921875,-0.055493008345365524,-0.0467921607196331,0.11540885269641876
1775705933094303000,2.867302978515625,-0.04019101709127426,-0.029948201030492783,0.10094629228115082
1775705933104315600,2.877315673828125,-0.027446920052170753,0.0061441389843821526,0.0980871319770813
1775705933114327600,2.88732763671875,-0.02009260095655918,0.02168075554072857,0.1028968021273613
1775705933124340700,2.8973408203125,0.0018825836014002562,0.01790022850036621,0.10461610555648804
1775705933134354000,2.90735400390625,0.031087607145309448,-0.01617118902504444,0.10602384805679321
1775705933144366800,2.917366943359375,0.03740837424993515,-0.03992005065083504,0.10858901590108871
1775705933154379800,2.9273798828125,0.02374289557337761,-0.048756152391433716,0.09466094523668289
1775705933164392700,2.937392822265625,0.013365324586629868,-0.035827118903398514,0.05920760706067085
1775705933174404900,2.94740478515625,0.010856094770133495,-0.018020428717136383,0.023777443915605545
1775705933184417800,2.957417724609375,0.026478957384824753,-0.012338289059698582,0.006479466799646616
1775705933194430700,2.9674306640625,0.03200048953294754,-0.004990627057850361,0.00334412744268775
1775705933204443600,2.977443603515625,0.018184121698141098,0.0010425918735563755,0.003859146498143673
1775705933214456800,2.987456787109375,0.00976533629000187,0.006405132822692394,-0.0037849247455596924
1775705933224470000,2.997469970703125,0.005133144091814756,0.025996513664722443,-0.017061350867152214
1775705933234482000,3.00748193359375,-0.00908893533051014,0.07173390686511993,-0.03488508611917496
1775705933244494600,3.01749462890625,-0.019405197352170944,0.09838488698005676,-0.05687261372804642
1775705933254507800,3.0275078125,-0.027712395414710045,0.08534711599349976,-0.0680493712425232
1775705933264521000,3.03752099609375,-0.03270113468170166,0.04526633396744728,-0.05790700763463974
1775705933274533600,3.04753369140625,-0.030318135395646095,0.0004197654780000448,-0.037053924053907394
1775705933284546800,3.057546875,-0.022508500143885612,-0.011475830338895321,-0.02167418785393238
1775705933294559700,3.067559814453125,-0.015794137492775917,-0.007416107691824436,-0.02654111385345459
1775705933304572000,3.077572021484375,-0.013116654939949512,0.0062937187030911446,-0.04808071255683899
1775705933314584800,3.087584716796875,-0.013149145990610123,0.03248856961727142,-0.0694563090801239
1775705933324597800,3.09759765625,-0.024243516847491264,0.06394977122545242,-0.08851127326488495
1775705933334610700,3.107610595703125,-0.03438296914100647,0.0750434398651123,-0.10599332302808762
1775705933344623900,3.117623779296875,-0.02830830030143261,0.09397638589143753,-0.11156252771615982
1775705933354636500,3.127636474609375,-0.013223889283835888,0.11032499372959137,-0.10738322883844376
1775705933364649700,3.137649658203125,0.0144577631726861,0.09377581626176834,-0.09354198724031448
1775705933374661600,3.14766162109375,0.03760382905602455,0.05314583331346512,-0.06674313545227051
1775705933384674800,3.1576748046875,0.031975116580724716,0.021746860817074776,-0.04765329509973526
1775705933394688000,3.16768798828125,0.01713438518345356,0.011526714079082012,-0.047494303435087204
1775705933404700700,3.17770068359375,0.0034272274933755398,0.000006122281774878502,-0.06095288321375847
1775705933414713900,3.1877138671875,0.0037619872018694878,-0.0015092163812369108,-0.07620081305503845
1775705933424726800,3.197726806640625,0.0075663127936422825,0.013426323421299458,-0.07728046178817749
1775705933434739000,3.207739013671875,0.01931964047253132,0.045802902430295944,-0.05813658982515335
1775705933444751600,3.217751708984375,0.035915788263082504,0.08342386037111282,-0.02430696040391922
1775705933454764800,3.227764892578125,0.03957230597734451,0.1005069762468338,0.013391416519880295
1775705933464777700,3.23777783203125,0.03482610359787941,0.08741200715303421,0.045271072536706924
1775705933474791000,3.247791015625,0.034249261021614075,0.04341818392276764,0.07122437655925751
1775705933484803600,3.257803466796875,0.037006594240665436,-0.008818859234452248,0.07717279344797134
1775705933494815700,3.267815673828125,0.024806922301650047,-0.05065259337425232,0.0626005008816719
1775705933504828700,3.27782861328125,-0.000587190268561244,-0.0869515910744667,0.026201730594038963
1775705933514841900,3.287841796875,-0.025642741471529007,-0.09633763134479523,-0.017058923840522766
1775705933524854800,3.297854736328125,-0.043645914644002914,-0.07547985762357712,-0.051251236349344254
1775705933534867700,3.30786767578125,-0.050327252596616745,-0.05217612534761429,-0.0692422166466713
1775705933544881000,3.317880859375,-0.042013980448246,-0.034996841102838516,-0.06915886700153351
1775705933554893800,3.327893798828125,-0.021455444395542145,-0.015787461772561073,-0.059164296835660934
1775705933564906000,3.337906005859375,0.015459636226296425,0.013800666667521,-0.04579544812440872
1775705933574918700,3.347918701171875,0.03830050304532051,0.038177378475666046,-0.04222734272480011
1775705933584931800,3.357931884765625,0.04710698127746582,0.04328940436244011,-0.040367405861616135
1775705933594944800,3.36794482421875,0.0392964631319046,0.017991239205002785,-0.034349728375673294
1775705933604957700,3.377957763671875,0.03660639747977257,-0.01216074451804161,-0.02236097678542137
1775705933614970600,3.387970703125,0.038452234119176865,-0.06564287096261978,-0.012624725699424744
1775705933624983800,3.39798388671875,0.033675819635391235,-0.09787310659885406,0.00024173606652766466
1775705933634995700,3.40799560546875,0.03287474066019058,-0.11273913830518723,0.007207500282675028
1775705933645009000,3.4180087890625,0.049868322908878326,-0.11197421699762344,0.004703644663095474
1775705933655021600,3.428021484375,0.08709132671356201,-0.09385087341070175,0.008536199107766151
1775705933665034800,3.43803466796875,0.13319814205169678,-0.08785926550626755,0.012245193123817444
1775705933675048000,3.4480478515625,0.1637991964817047,-0.10346991568803787,0.019106028601527214
1775705933685060900,3.458060791015625,0.17153477668762207,-0.11422769725322723,0.01612279750406742
1775705933695072800,3.46807275390625,0.1775902807712555,-0.10414896160364151,0.004050955176353455
1775705933705085700,3.478085693359375,0.15823796391487122,-0.08265059441328049,-0.018255725502967834
1775705933715099000,3.488098876953125,0.11769400537014008,-0.05461416393518448,-0.04325535148382187
1775705933725111800,3.49811181640625,0.07050488144159317,-0.018361644819378853,-0.06675056368112564
1775705933735124700,3.508124755859375,0.0275957640260458,-0.0036327666603028774,-0.09157761931419373
1775705933745137700,3.5181376953125,0.002087145810946822,-0.018393244594335556,-0.09732739627361298
1775705933755150800,3.52815087890625,-0.008012626320123672,-0.04678067937493324,-0.07046036422252655
1775705933765162800,3.538162841796875,-0.019108891487121582,-0.06455204635858536,-0.04314563795924187
1775705933775176000,3.548176025390625,-0.03937608003616333,-0.05041598528623581,-0.03748908266425133
1775705933785188600,3.558188720703125,-0.07871339470148087,-0.03830800950527191,-0.06978444755077362
1775705933795201800,3.568201904296875,-0.10877756029367447,-0.06194622814655304,-0.11591146141290665
1775705933805215000,3.578215087890625,-0.12294944375753403,-0.0814889520406723,-0.15589773654937744
1775705933815227600,3.5882275390625,-0.12065326422452927,-0.07658527046442032,-0.18426918983459473
1775705933825239800,3.59823974609375,-0.1219092383980751,-0.06604217737913132,-0.1956763118505478
1775705933835252700,3.608252685546875,-0.1148633137345314,-0.04384073242545128,-0.21443216502666473
1775705933845266000,3.618265869140625,-0.11433243006467819,-0.009311161935329437,-0.23650361597537994
1775705933855278800,3.62827880859375,-0.11378861218690872,0.0215306393802166,-0.25029081106185913
1775705933865291800,3.638291748046875,-0.10094251483678818,0.023968027904629707,-0.2437509149312973
1775705933875304700,3.6483046875,-0.09582312405109406,0.01707496866583824,-0.21868178248405457
1775705933885318000,3.65831787109375,-0.08529438823461533,-0.0020535665098577738,-0.17554524540901184
1775705933895329800,3.668329833984375,-0.07688093185424805,-0.03708691895008087,-0.1114317774772644
1775705933905342700,3.6783427734375,-0.07948209345340729,-0.057632800191640854,-0.042867839336395264
1775705933915355600,3.688355712890625,-0.09031663835048676,-0.05923895165324211,-0.012248946353793144
1775705933925368800,3.698368896484375,-0.0994153842329979,-0.018228843808174133,-0.028595712035894394
1775705933935382000,3.708382080078125,-0.10850954800844193,0.04197457432746887,-0.08097529411315918
1775705933945394700,3.718394775390625,-0.11089053004980087,0.12075025588274002,-0.13035959005355835
1775705933955406800,3.72840673828125,-0.07691258937120438,0.17727185785770416,-0.1370593011379242
1775705933965419800,3.738419677734375,0.012966856360435486,0.1321982443332672,-0.07690544426441193
1775705933975433000,3.748432861328125,0.09364758431911469,-0.031034626066684723,-0.02113325707614422
1775705933985445600,3.758445556640625,0.14677508175373077,-0.14364905655384064,-0.01527614425867796
1775705933995458800,3.768458740234375,0.14461737871170044,-0.10518555343151093,-0.07566438615322113
1775705934005471700,3.7784716796875,0.1115996316075325,0.06480143964290619,-0.19034866988658905
1775705934015485000,3.78848486328125,0.037481460720300674,0.3078484535217285,-0.30697861313819885
1775705934025496800,3.798496826171875,-0.06815499812364578,0.5891237854957581,-0.3923558294773102
1775705934035509800,3.808509765625,-0.1859961450099945,0.8023617267608643,-0.44286561012268066
1775705934045522700,3.818522705078125,-0.28260135650634766,0.8733154535293579,-0.4317793548107147
1775705934055535900,3.828535888671875,-0.321205735206604,0.786786675453186,-0.3233855068683624
1775705934065548800,3.838548828125,-0.31996315717697144,0.5947238802909851,-0.1338970959186554
1775705934075561700,3.848561767578125,-0.2970290780067444,0.30123764276504517,0.0868762955069542
1775705934085575200,3.8585751953125,-0.26736459136009216,-0.03185248374938965,0.26758962869644165
1775705934095587000,3.868587158203125,-0.23482048511505127,-0.20366738736629486,0.3819881081581116
1775705934105600000,3.87860009765625,-0.20104575157165527,-0.2520982325077057,0.42790499329566956
1775705934115613000,3.888613037109375,-0.1976611316204071,-0.2304358184337616,0.41654929518699646
1775705934125626000,3.898626220703125,-0.19705785810947418,-0.15464864671230316,0.3491462469100952
1775705934135639300,3.908639404296875,-0.21379688382148743,-0.029385000467300415,0.23344014585018158
1775705934145652000,3.91865185546875,-0.2813568413257599,0.12480875849723816,0.09974764287471771
1775705934155665200,3.9286650390625,-0.3616088032722473,0.26441219449043274,-0.011407637037336826
1775705934165677000,3.938677001953125,-0.4199017882347107,0.3645216226577759,-0.06441469490528107
1775705934175690200,3.948690185546875,-0.4423554241657257,0.43380188941955566,-0.0548640601336956
1775705934185703000,3.958702880859375,-0.44534948468208313,0.41632670164108276,0.024194296449422836
1775705934195716000,3.968716064453125,-0.44485682249069214,0.27776774764060974,0.16091325879096985
1775705934205729000,3.97872900390625,-0.4452645480632782,0.08965876698493958,0.2954987585544586
1775705934215742200,3.9887421875,-0.43930572271347046,-0.05400146171450615,0.3910689651966095
1775705934225754000,3.998754150390625,-0.40630483627319336,-0.09690560400485992,0.43797364830970764
1775705934235767000,4.00876708984375,-0.32920339703559875,-0.05170430615544319,0.42453375458717346
1775705934245780000,4.018780029296875,-0.2222229689359665,0.004072731360793114,0.342392235994339
1775705934255793200,4.028793212890625,-0.1316150277853012,0.0522298738360405,0.22980843484401703
1775705934265806000,4.03880615234375,-0.06116919964551926,0.10892856866121292,0.11708612740039825
1775705934275819000,4.048819091796875,-0.008097724057734013,0.21064269542694092,0.026348497718572617
1775705934285832200,4.058832275390625,0.0024082830641418695,0.3455066978931427,-0.024679506197571754
1775705934295844000,4.068843994140625,-0.004242429044097662,0.41201114654541016,-0.022683467715978622
1775705934305857300,4.078857177734375,-0.013189625926315784,0.44022971391677856,0.02525315433740616
1775705934315870000,4.088869873046875,-0.03563554584980011,0.39092209935188293,0.09952045977115631
1775705934325883100,4.098883056640625,-0.07631000876426697,0.31498685479164124,0.19401021301746368
1775705934335896000,4.10889599609375,-0.12600407004356384,0.19032493233680725,0.28381094336509705
1775705934345909000,4.118908935546875,-0.1634969711303711,0.009125489741563797,0.33773332834243774
1775705934355922000,4.128921875,-0.2101566195487976,-0.2138197124004364,0.366999089717865
1775705934365934000,4.13893408203125,-0.25607338547706604,-0.35126036405563354,0.3706324100494385
1775705934375947000,4.148947021484375,-0.2889735698699951,-0.36663612723350525,0.30400410294532776
1775705934385960200,4.158960205078125,-0.3115403950214386,-0.26965245604515076,0.1971101313829422
1775705934395972900,4.168972900390625,-0.32541730999946594,-0.11311372369527817,0.10497886687517166
1775705934405986000,4.178986083984375,-0.303824782371521,0.07898979634046555,0.022141549736261368
1775705934415999200,4.188999267578125,-0.2651351988315582,0.26974189281463623,-0.0492737777531147
1775705934426012200,4.19901220703125,-0.2236502319574356,0.38714703917503357,-0.10205820947885513
1775705934436024000,4.209024169921875,-0.1785791516304016,0.3926222324371338,-0.1272311955690384
1775705934446037000,4.219037109375,-0.16520319879055023,0.29557546973228455,-0.1441476196050644
1775705934456050200,4.22905029296875,-0.16605061292648315,0.12248598784208298,-0.1453138142824173
1775705934466063000,4.23906298828125,-0.14891742169857025,-0.010611873120069504,-0.11278881877660751
1775705934476076000,4.249075927734375,-0.1390373706817627,-0.0794958621263504,-0.06556138396263123
1775705934486089000,4.2590888671875,-0.18089893460273743,-0.12532244622707367,-0.04018229618668556
1775705934496101000,4.26910107421875,-0.23343057930469513,-0.14784134924411774,-0.03842993453145027
1775705934506114000,4.279114013671875,-0.25448718667030334,-0.07433640956878662,-0.01078713871538639
1775705934516127200,4.289127197265625,-0.2384568452835083,0.08550092577934265,0.0016053495928645134
1775705934526140000,4.299139892578125,-0.1793002337217331,0.28924065828323364,-0.019681015983223915
1775705934536153000,4.309153076171875,-0.10045842826366425,0.4050271511077881,-0.052229102700948715
1775705934546166300,4.319166259765625,-0.01881382428109646,0.47693395614624023,-0.0533611997961998
1775705934556179000,4.329178955078125,0.06330288201570511,0.4780452847480774,-0.010613732971251011
1775705934566190800,4.33919091796875,0.08695162832736969,0.3632459342479706,0.06883765012025833
1775705934576204000,4.3492041015625,0.028213217854499817,0.1436523199081421,0.12147103250026703
1775705934586217200,4.35921728515625,-0.03926293924450874,-0.04493756964802742,0.12166999280452728
1775705934596230100,4.369230224609375,-0.08259336650371552,-0.1122998371720314,0.09663974493741989
1775705934606243000,4.3792431640625,-0.08995980024337769,-0.13208581507205963,0.0737365260720253
1775705934616256000,4.389256103515625,-0.09456786513328552,-0.08409218490123749,0.04121214151382446
1775705934626269200,4.399269287109375,-0.08712825924158096,-0.0296621210873127,-0.0003222365630790591
1775705934636281000,4.409281005859375,-0.05853789299726486,0.12658581137657166,-0.014127531088888645
1775705934646294000,4.4192939453125,0.00406163465231657,0.3321351408958435,-0.0005978585686534643
1775705934656307000,4.429306884765625,0.06777670234441757,0.44048425555229187,0.02851981297135353
1775705934666320100,4.439320068359375,0.11785126477479935,0.3977977931499481,0.08094731718301773
1775705934676333300,4.449333251953125,0.1286706179380417,0.2545226812362671,0.13212820887565613
1775705934686346000,4.459345947265625,0.10268526524305344,0.11859472841024399,0.18524527549743652
1775705934696359200,4.469359130859375,0.0674993172287941,0.003420737339183688,0.22536605596542358
1775705934706371000,4.47937109375,0.04256131500005722,-0.09927354007959366,0.2583537995815277
1775705934716384300,4.48938427734375,0.02384861372411251,-0.23299245536327362,0.29896485805511475
1775705934726397000,4.49939697265625,0.001547487685456872,-0.2954726815223694,0.31810101866722107
1775705934736410000,4.50941015625,-0.03857143595814705,-0.19358359277248383,0.322551965713501
1775705934746423000,4.519423095703125,-0.07787011563777924,-0.023014724254608154,0.2865065634250641
1775705934756436200,4.529436279296875,-0.09086234867572784,0.15479283034801483,0.17462319135665894
1775705934766449000,4.539448974609375,-0.11089242249727249,0.20815910398960114,0.0380730964243412
1775705934776461000,4.5494609375,-0.14633002877235413,0.17787417769432068,-0.07283823937177658
1775705934786474000,4.559473876953125,-0.19709421694278717,0.1028365045785904,-0.1268293261528015
1775705934796487200,4.569487060546875,-0.26009395718574524,0.07801558077335358,-0.14792689681053162
1775705934806499800,4.579499755859375,-0.3159885108470917,0.14980149269104004,-0.18007387220859528
1775705934816513000,4.589512939453125,-0.3353273272514343,0.26566576957702637,-0.22747601568698883
1775705934826526200,4.599526123046875,-0.3416033685207367,0.45075640082359314,-0.32200732827186584
1775705934836538000,4.6095380859375,-0.3470205068588257,0.6462723612785339,-0.45226359367370605
1775705934846551300,4.61955126953125,-0.3348276913166046,0.7015965580940247,-0.5691753029823303
1775705934856564000,4.62956396484375,-0.3130669891834259,0.5884940028190613,-0.6184229850769043
1775705934866577200,4.6395771484375,-0.32520368695259094,0.40429389476776123,-0.6545059680938721
1775705934876590000,4.649590087890625,-0.36592021584510803,0.38296812772750854,-0.7106818556785583
1775705934886603000,4.65960302734375,-0.40438586473464966,0.4720361828804016,-0.6980304718017578
1775705934896616000,4.669615966796875,-0.42117950320243835,0.5067132115364075,-0.5779029726982117
1775705934906628000,4.679628173828125,-0.39512452483177185,0.41526827216148376,-0.3957630693912506
1775705934916641000,4.68964111328125,-0.32366764545440674,0.20802080631256104,-0.26231738924980164
1775705934926654200,4.699654296875,-0.2535238265991211,-0.015152775682508945,-0.19825340807437897
1775705934936667000,4.7096669921875,-0.18069756031036377,-0.1879032552242279,-0.19312602281570435
1775705934946680000,4.71968017578125,-0.08482766896486282,-0.29954829812049866,-0.18012763559818268
1775705934956693200,4.729693359375,-0.0020092157647013664,-0.25756436586380005,-0.13431568443775177
1775705934966706000,4.739705810546875,0.054108358919620514,-0.09382296353578568,-0.035188574343919754
1775705934976718000,4.749718017578125,0.07751461863517761,0.08662404119968414,0.18303163349628448
1775705934986731000,4.75973095703125,0.08427562564611435,0.1825234442949295,0.5109772682189941
1775705934996744200,4.769744140625,0.09940637648105621,0.1271909475326538,0.8256273865699768
1775705935006757000,4.779757080078125,0.12090933322906494,-0.1566137671470642,1.0153722763061523
1775705935016770000,4.78977001953125,0.11518300324678421,-0.6033853888511658,1.0069308280944824
1775705935026783000,4.799782958984375,0.10427961498498917,-0.9989632964134216,0.8002306818962097
1775705935036796200,4.809796142578125,0.10879021137952805,-1.1595468521118164,0.5181981921195984
1775705935046808000,4.81980810546875,0.16721054911613464,-1.0178254842758179,0.2034894824028015
1775705935056821000,4.829821044921875,0.2660638988018036,-0.5680376887321472,-0.0008892236510291696
1775705935066834000,4.839833984375,0.37065842747688293,-0.1684052050113678,-0.03630528599023819
1775705935076847000,4.84984716796875,0.4738239347934723,0.031569693237543106,0.04623060300946236
1775705935086859800,4.85985986328125,0.5484857559204102,-0.005077327601611614,0.15743491053581238
1775705935096872700,4.869872802734375,0.5940622687339783,-0.25141626596450806,0.25173744559288025
1775705935106885600,4.8798857421875,0.6079636812210083,-0.6639413237571716,0.30606138706207275
1775705935116897800,4.889897705078125,0.5186247229576111,-0.9471921920776367,0.31591615080833435
1775705935126910700,4.89991064453125,0.38014253973960876,-1.0426806211471558,0.2523486316204071
1775705935136924000,4.909923828125,0.2760867178440094,-0.9332648515701294,0.14081226289272308
1775705935146936800,4.919936767578125,0.23092302680015564,-0.6892856955528259,0.020664289593696594
1775705935156949800,4.92994970703125,0.2265636920928955,-0.4047008752822876,-0.04820771887898445
1775705935166963000,4.939962890625,0.2694687843322754,-0.26677626371383667,-0.05376787856221199
1775705935176975600,4.9499755859375,0.3412518799304962,-0.23105207085609436,-0.011127209290862083
1775705935186987800,4.95998779296875,0.4306032657623291,-0.3043777048587799,0.07766176760196686
1775705935197000700,4.970000732421875,0.4971492886543274,-0.4092958867549896,0.21584202349185944
1775705935207014000,4.980013916015625,0.4953683614730835,-0.5350677371025085,0.3662512004375458
1775705935217026800,4.99002685546875,0.4606303572654724,-0.6153122186660767,0.4919007420539856
1775705935227039700,5.000039794921875,0.40771743655204773,-0.6198159456253052,0.5537625551223755
1775705935237052700,5.010052734375,0.3622162640094757,-0.5297502279281616,0.5283056497573853
1775705935247065900,5.02006591796875,0.3249596655368805,-0.4035031795501709,0.4010574221611023
1775705935257077800,5.030077880859375,0.33987894654273987,-0.2908128499984741,0.2238602638244629
1775705935267090700,5.040090576171875,0.40688639879226685,-0.18373778462409973,0.08739560097455978
1775705935277103900,5.050103759765625,0.4404430389404297,-0.1627638041973114,0.02220994047820568
1775705935287116800,5.06011669921875,0.4172634780406952,-0.20740559697151184,0.03537103161215782
1775705935297130000,5.0701298828125,0.3728342056274414,-0.24521955847740173,0.07591526210308075
1775705935307142700,5.080142578125,0.3124029338359833,-0.3236015737056732,0.11096382141113281
1775705935317155800,5.09015576171875,0.23606714606285095,-0.38407957553863525,0.16269119083881378
1775705935327167700,5.100167724609375,0.1976720541715622,-0.39062637090682983,0.20888352394104004
1775705935337181000,5.110180908203125,0.18415623903274536,-0.3183119595050812,0.2819148302078247
1775705935347193600,5.120193603515625,0.11473681032657623,-0.27625423669815063,0.3586024045944214
1775705935357206800,5.130206787109375,0.011172601953148842,-0.2673989534378052,0.3507370054721832
1775705935367219700,5.1402197265625,-0.07937774807214737,-0.22053545713424683,0.2743111550807953
1775705935377233000,5.15023291015625,-0.13670681416988373,-0.17438393831253052,0.1321931779384613
1775705935387245800,5.160245849609375,-0.12795186042785645,-0.09152095764875412,-0.07127390801906586
1775705935397257700,5.1702578125,-0.045370157808065414,-0.007575727999210358,-0.2870027422904968
1775705935407270700,5.180270751953125,0.057071711868047714,0.06086106225848198,-0.4344417452812195
1775705935417283800,5.190283935546875,0.09214074909687042,0.128874734044075,-0.4899979531764984
1775705935427296800,5.200296875,0.08396521210670471,0.2176056057214737,-0.48208487033843994
1775705935437309700,5.210309814453125,0.08139632642269135,0.3026999831199646,-0.4261675477027893
1775705935447323000,5.220322998046875,0.09101097285747528,0.36266764998435974,-0.36279386281967163
1775705935457335800,5.230335693359375,0.08483190834522247,0.4001694917678833,-0.3107772767543793
1775705935467348000,5.240347900390625,0.05367279052734375,0.3859761655330658,-0.272756963968277
1775705935477360600,5.250360595703125,0.002105471445247531,0.35695621371269226,-0.24897491931915283
1775705935487373800,5.260373779296875,0.0015148026868700981,0.304703027009964,-0.23259808123111725
1775705935497386800,5.27038671875,0.0859370082616806,0.17719726264476776,-0.19224826991558075
1775705935507399700,5.280399658203125,0.18779337406158447,0.05485853552818298,-0.13541239500045776
1775705935517412900,5.290412841796875,0.2565242350101471,0.019860602915287018,-0.10348056256771088
1775705935527425800,5.30042578125,0.2702192962169647,0.08075547218322754,-0.0910119041800499
1775705935537437700,5.310437744140625,0.2340748906135559,0.21894022822380066,-0.05642489716410637
1775705935547451000,5.320450927734375,0.1876986026763916,0.329871267080307,-0.028374886140227318
1775705935557463800,5.3304638671875,0.14123016595840454,0.3661169111728668,-0.024205708876252174
1775705935567476700,5.340476806640625,0.07984498143196106,0.3627733588218689,-0.04821673408150673
1775705935577490000,5.350489990234375,0.027105331420898438,0.3259921669960022,-0.08726400136947632
1775705935587502600,5.360502685546875,-0.006029943004250526,0.27331292629241943,-0.11321629583835602
1775705935597515800,5.370515869140625,-0.01683199033141136,0.18887926638126373,-0.16429279744625092
1775705935607527700,5.380527587890625,-0.010344120673835278,0.10872842371463776,-0.2516844570636749
1775705935617540900,5.390540771484375,-0.03724577650427818,0.09838975965976715,-0.331996887922287
1775705935627553800,5.4005537109375,-0.05311700701713562,0.15384900569915771,-0.408777117729187
1775705935637566700,5.410566650390625,-0.03614681214094162,0.23501601815223694,-0.4465194344520569
1775705935647579600,5.42057958984375,-0.002307059010490775,0.2942133843898773,-0.4251169264316559
1775705935657592800,5.4305927734375,0.051279738545417786,0.2715110182762146,-0.3593837320804596
1775705935667605800,5.440605712890625,0.05857890844345093,0.19435562193393707,-0.2661674916744232
1775705935677617700,5.45061767578125,0.011640162207186222,0.14469724893569946,-0.1846688985824585
1775705935687630800,5.460630859375,-0.023015830665826797,0.11919142305850983,-0.1462935507297516
1775705935697643800,5.470643798828125,-0.02387177012860775,0.08681882917881012,-0.11283652484416962
1775705935707657000,5.480656982421875,-0.018102893605828285,0.047055333852767944,-0.053664494305849075
1775705935717669600,5.490669677734375,0.006066625006496906,-0.019151384010910988,0.01591750979423523
1775705935727682800,5.500682861328125,0.03192457929253578,-0.07764452695846558,0.10676318407058716
1775705935737695700,5.51069580078125,0.008972657844424248,-0.11006398499011993,0.19371406733989716
1775705935747708000,5.5207080078125,-0.021926330402493477,-0.09051733464002609,0.25220829248428345
1775705935757720800,5.530720947265625,-0.040877118706703186,-0.01655336283147335,0.2598736584186554
1775705935767733800,5.540733642578125,-0.059204623103141785,0.05751228705048561,0.2213398814201355
1775705935777746700,5.55074658203125,-0.04588855430483818,0.08122081309556961,0.132893368601799
1775705935787759900,5.560759765625,-0.04361618310213089,0.08566222339868546,0.0334186889231205
1775705935797772800,5.570772705078125,-0.059035882353782654,0.09193795919418335,-0.06140795350074768
1775705935807785700,5.58078564453125,-0.04517534747719765,0.12133508175611496,-0.158657044172287
1775705935817798000,5.5907978515625,0.008050855249166489,0.17730382084846497,-0.24199187755584717
1775705935827810800,5.600810791015625,0.07699515670537949,0.2801911234855652,-0.2752757668495178
1775705935837823700,5.61082373046875,0.1700124591588974,0.3922622799873352,-0.27402302622795105
1775705935847836700,5.620836669921875,0.2739080488681793,0.46670955419540405,-0.25020262598991394
1775705935857849900,5.630849853515625,0.3297114074230194,0.4590308666229248,-0.19020532071590424
1775705935867862800,5.64086279296875,0.3375178873538971,0.3645938038825989,-0.11511378735303879
1775705935877875700,5.650875732421875,0.3125355839729309,0.24274086952209473,-0.04911213368177414
1775705935887887600,5.6608876953125,0.25703734159469604,0.16974197328090668,0.001242895727045834
1775705935897900800,5.67090087890625,0.21050605177879333,0.11849157512187958,0.033906031399965286
1775705935907913700,5.680913818359375,0.2166900634765625,0.08929605036973953,0.036767639219760895
1775705935917927000,5.690927001953125,0.2857128083705902,0.047969646751880646,0.013354457914829254
1775705935927939800,5.70093994140625,0.37243223190307617,0.04770324006676674,0.005904256831854582
1775705935937952800,5.710952880859375,0.46763303875923157,0.08806052058935165,0.011946703307330608
1775705935947964700,5.720964599609375,0.5498104095458984,0.0935949757695198,0.046457793563604355
1775705935957977900,5.730977783203125,0.6053346395492554,0.03435669094324112,0.13225871324539185
1775705935967990800,5.74099072265625,0.6001411080360413,-0.02452961727976799,0.24161872267723083
1775705935978003700,5.751003662109375,0.5449343323707581,-0.013649539090692997,0.3331105709075928
1775705935988017000,5.761016845703125,0.46418994665145874,0.04984022304415703,0.3687690496444702
1775705935998029800,5.77102978515625,0.39008960127830505,0.13728751242160797,0.33587127923965454
1775705936008042800,5.781042724609375,0.3325437307357788,0.18932965397834778,0.2780771851539612
1775705936018055700,5.7910556640625,0.2697511911392212,0.2004864364862442,0.23098690807819366
1775705936028067800,5.80106787109375,0.1996060013771057,0.14473649859428406,0.18039348721504211
1775705936038080800,5.811080810546875,0.1473183035850525,0.05759040266275406,0.13790540397167206
1775705936048093700,5.82109375,0.11377690732479095,-0.03184922784566879,0.13120409846305847
1775705936058107000,5.83110693359375,0.10976725071668625,-0.07039155811071396,0.13646304607391357
1775705936068119800,5.841119873046875,0.11656980961561203,-0.025614529848098755,0.08598843961954117
1775705936078133000,5.851133056640625,0.102944016456604,0.048633869737386703,-0.005290079861879349
1775705936088145700,5.861145751953125,0.07793339341878891,0.08950421959161758,-0.10333197563886642
1775705936098157800,5.87115771484375,0.050299376249313354,0.06662207096815109,-0.17730766534805298
1775705936108170800,5.881170654296875,0.000811051344498992,0.027722908183932304,-0.23261217772960663
1775705936118184000,5.891183837890625,-0.032489113509655,-0.005031843204051256,-0.26410752534866333
1775705936128196600,5.901196533203125,-0.014861988835036755,-0.04981594532728195,-0.23887354135513306
1775705936138209800,5.911209716796875,0.013303335756063461,-0.11944722384214401,-0.13407602906227112
1775705936148222700,5.92122265625,0.03855869919061661,-0.16827215254306793,-0.01263159979134798
1775705936158236000,5.93123583984375,0.05585779249668121,-0.2045084536075592,0.05694428086280823
1775705936168247800,5.941247802734375,0.05802690610289574,-0.18448612093925476,0.07546256482601166
1775705936178260700,5.9512607421875,0.07949703931808472,-0.14057831466197968,0.06868002563714981
1775705936188273700,5.961273681640625,0.12290628999471664,-0.10194110870361328,0.07906422019004822
1775705936198286800,5.971286865234375,0.11828038096427917,-0.08286808431148529,0.10069095343351364
1775705936208299800,5.9812998046875,0.04111690819263458,-0.13474231958389282,0.11687019467353821
1775705936218312700,5.991312744140625,-0.07189512997865677,-0.2259766310453415,0.10792596638202667
1775705936228326000,6.001325927734375,-0.16380560398101807,-0.2893870770931244,0.05141475796699524
1775705936238337800,6.011337890625,-0.1956642121076584,-0.2840096354484558,-0.034118250012397766
1775705936248351000,6.02135107421875,-0.16050994396209717,-0.20717689394950867,-0.11792180687189102
1775705936258363600,6.03136376953125,-0.12291435897350311,-0.10495438426733017,-0.1812613606452942
1775705936268376800,6.041376953125,-0.08221662789583206,-0.02343647927045822,-0.2138925939798355
1775705936278389800,6.0513896484375,-0.022322935983538628,-0.008925714530050755,-0.20937852561473846
1775705936288402700,6.061402587890625,0.02962634153664112,0.005821185186505318,-0.18545055389404297
1775705936298415900,6.071415771484375,0.07402309775352478,0.06183625012636185,-0.1607673019170761
1775705936308427800,6.081427734375,0.09722809493541718,0.11665115505456924,-0.15166619420051575
1775705936318440700,6.091440673828125,0.05816218629479408,0.1700959950685501,-0.14345380663871765
1775705936328454000,6.101453857421875,0.0015551489777863026,0.15578387677669525,-0.11232143640518188
1775705936338466800,6.111466796875,-0.027140945196151733,0.08770362287759781,-0.04916457459330559
1775705936348479700,6.121479736328125,-0.02691933885216713,0.01330085750669241,0.016596604138612747
1775705936358493000,6.131492919921875,-0.0027735228650271893,-0.035386521369218826,0.04337708279490471
1775705936368505600,6.141505615234375,0.02531994879245758,-0.06288082152605057,0.023139137774705887
1775705936378517800,6.151517822265625,0.0419418029487133,-0.06177028641104698,-0.012983979657292366
1775705936388530700,6.16153076171875,0.021428875625133514,-0.03078402392566204,-0.0494181364774704
1775705936398544000,6.1715439453125,-0.0005310173146426678,0.011689668521285057,-0.09846131503582001
1775705936408556800,6.181556884765625,-0.010832371190190315,0.05437789484858513,-0.14466609060764313
1775705936418569700,6.19156982421875,-0.034770190715789795,0.10469565540552139,-0.15982693433761597
1775705936428582700,6.201582763671875,-0.048901285976171494,0.14513282477855682,-0.16065652668476105
1775705936438595800,6.211595947265625,-0.05252557992935181,0.14289310574531555,-0.14252705872058868
1775705936448607700,6.221607666015625,-0.05311783775687218,0.08393693715333939,-0.08189699053764343
1775705936458620700,6.23162060546875,-0.06599901616573334,-0.030530253425240517,0.018334535881876945
1775705936468633900,6.2416337890625,-0.06646925210952759,-0.14379385113716125,0.09294433891773224
1775705936478646800,6.251646728515625,-0.05077338591217995,-0.18509255349636078,0.12947438657283783
1775705936488660000,6.261659912109375,-0.04070936143398285,-0.16200657188892365,0.12419066578149796
1775705936498672600,6.271672607421875,-0.014282279647886753,-0.13960380852222443,0.08205626159906387
1775705936508685800,6.281685791015625,-0.006343939807265997,-0.1232340931892395,0.06067400425672531
1775705936518697700,6.29169775390625,-0.0014165592147037387,-0.0878678411245346,0.0556747168302536
1775705936528711000,6.3017109375,0.014408733695745468,0.01579895429313183,0.03604402020573616
1775705936538723600,6.3117236328125,0.04787001758813858,0.14455346763134003,0.013282250612974167
1775705936548736800,6.32173681640625,0.09210480004549026,0.2459464967250824,0.03287198394536972
1775705936558749700,6.331749755859375,0.1261408030986786,0.28400200605392456,0.08855495601892471
1775705936568763000,6.341762939453125,0.15439671277999878,0.23928269743919373,0.19085784256458282
1775705936578775800,6.35177587890625,0.11195072531700134,0.11858584731817245,0.32058680057525635
1775705936588787700,6.36178759765625,-0.03112841211259365,-0.023879095911979675,0.4462813436985016
1775705936598801000,6.37180078125,-0.22220037877559662,-0.16338585317134857,0.5310976505279541
1775705936608813800,6.381813720703125,-0.4130641520023346,-0.260292112827301,0.5597658753395081
1775705936618826800,6.39182666015625,-0.5745869874954224,-0.28701961040496826,0.5278814435005188
1775705936628839700,6.401839599609375,-0.692268967628479,-0.24859754741191864,0.4598208963871002
1775705936638852900,6.411852783203125,-0.7452315092086792,-0.15320977568626404,0.37558671832084656
1775705936648865800,6.42186572265625,-0.7260128855705261,-0.030426863580942154,0.2780683636665344
1775705936658878000,6.4318779296875,-0.645615816116333,0.0729685053229332,0.17162954807281494
1775705936668890600,6.441890625,-0.5311883091926575,0.1472867727279663,0.08691098541021347
1775705936678903800,6.45190380859375,-0.4134710133075714,0.238689124584198,0.0190360639244318
1775705936688916700,6.461916748046875,-0.2991798520088196,0.2870005965232849,-0.038440342992544174
1775705936698929700,6.4719296875,-0.21821363270282745,0.26571929454803467,-0.04762957990169525
1775705936708942800,6.48194287109375,-0.22763368487358093,0.19437138736248016,-0.019369959831237793
1775705936718955800,6.491955810546875,-0.2688450217247009,0.07223030179738998,-0.00747761270031333
1775705936728969000,6.501968994140625,-0.3018465042114258,-0.03362425044178963,0.004276284482330084
1775705936738980900,6.51198095703125,-0.30876725912094116,-0.09204121679067612,0.020539676770567894
1775705936748993800,6.521993896484375,-0.2807033360004425,-0.05633523687720299,0.03980260342359543
1775705936759006700,6.5320068359375,-0.21125398576259613,0.03380583971738815,0.06888725608587265
1775705936769020000,6.54202001953125,-0.10636348277330399,0.13503660261631012,0.08766141533851624
1775705936779032800,6.55203271484375,0.0077617596834897995,0.18581269681453705,0.07987752556800842
1775705936789045800,6.562045654296875,0.12529557943344116,0.18888439238071442,0.026555979624390602
1775705936799058700,6.57205859375,0.26033276319503784,0.177371546626091,-0.05040138214826584
1775705936809070800,6.58207080078125,0.3588545024394989,0.1075044721364975,-0.13247063755989075
1775705936819083800,6.592083740234375,0.3082562983036041,0.04449594393372536,-0.22256352007389069
1775705936829096700,6.6020966796875,0.15911521017551422,-0.016718652099370956,-0.321897029876709
1775705936839110000,6.61210986328125,-0.017877403646707535,-0.03191171959042549,-0.3925725519657135
1775705936849122800,6.622122802734375,-0.14341774582862854,0.00994731392711401,-0.4357866048812866
1775705936859135700,6.6321357421875,-0.1906406581401825,0.05465007200837135,-0.4481644332408905
1775705936869148700,6.642148681640625,-0.17106322944164276,0.08280101418495178,-0.4280437231063843
1775705936879160800,6.652160888671875,-0.08354269713163376,0.10126230865716934,-0.36046016216278076
1775705936889173800,6.662173828125,0.045242175459861755,0.12122935801744461,-0.2492622435092926
1775705936899187000,6.67218701171875,0.1465725600719452,0.1519668698310852,-0.15620845556259155
1775705936909199600,6.68219970703125,0.16332677006721497,0.15254797041416168,-0.11227083206176758
1775705936919212800,6.692212890625,0.08981233835220337,0.11605147272348404,-0.09614299237728119
1775705936929225700,6.702225830078125,-0.044860973954200745,0.02872268296778202,-0.09176985919475555
1775705936939239000,6.712239013671875,-0.21243157982826233,-0.0674416646361351,-0.06653933972120285
1775705936949250800,6.722250732421875,-0.3222844898700714,-0.1747153401374817,-0.0029733958654105663
1775705936959263700,6.732263671875,-0.361765593290329,-0.25816789269447327,0.07996197044849396
1775705936969276700,6.742276611328125,-0.3220120072364807,-0.29449695348739624,0.1292075514793396
1775705936979289900,6.752289794921875,-0.23103336989879608,-0.30075058341026306,0.1389930695295334
1775705936989302800,6.762302734375,-0.1178046315908432,-0.2708641290664673,0.13393545150756836
1775705936999315700,6.772315673828125,-0.0010292744264006615,-0.1538488119840622,0.11625339090824127
1775705937009329000,6.782328857421875,0.10389058291912079,-0.012815581634640694,0.07473872601985931
1775705937019340800,6.7923408203125,0.1313997209072113,0.03737675026059151,0.004962312523275614
1775705937029354000,6.80235400390625,0.08152007311582565,0.024770375341176987,-0.10098521411418915
1775705937039366700,6.81236669921875,-0.05804820731282234,0.0014346931129693985,-0.19469492137432098
1775705937049379800,6.8223798828125,-0.24765123426914215,-0.021654170006513596,-0.22919639945030212
1775705937059392800,6.832392822265625,-0.3922899067401886,-0.015088946558535099,-0.19123516976833344
1775705937069405700,6.84240576171875,-0.4622783064842224,0.0026152750942856073,-0.10344752669334412
1775705937079419000,6.8524189453125,-0.43447357416152954,0.05715947598218918,0.0021369545720517635
1775705937089430800,6.8624306640625,-0.32458391785621643,0.12361249327659607,0.12237020581960678
1775705937099444000,6.87244384765625,-0.1767134964466095,0.20740832388401031,0.2010948359966278
1775705937109457000,6.882456787109375,-0.07242533564567566,0.3373270332813263,0.2238677442073822
1775705937119469800,6.8924697265625,-0.013966020196676254,0.4747762382030487,0.19350025057792664
1775705937129482800,6.902482666015625,-0.01489520724862814,0.4944586455821991,0.13973157107830048
1775705937139496000,6.912495849609375,-0.13601604104042053,0.4154088497161865,0.08756610751152039
1775705937149508600,6.922508544921875,-0.2881473898887634,0.31543800234794617,0.037172142416238785
1775705937159520800,6.932520751953125,-0.4248735308647156,0.23363156616687775,0.009571406990289688
1775705937169533700,6.94253369140625,-0.48969295620918274,0.22801007330417633,0.02875603549182415
1775705937179547000,6.952546875,-0.5086429119110107,0.25562357902526855,0.12644851207733154
1775705937189560000,6.96256005859375,-0.5037472248077393,0.3122677803039551,0.27806439995765686
1775705937199572700,6.97257275390625,-0.4765512943267822,0.335394948720932,0.4379718005657196
1775705937209586000,6.9825859375,-0.42158350348472595,0.2868599593639374,0.585992157459259
1775705937219598800,6.992598876953125,-0.3308727741241455,0.22517846524715424,0.6506931185722351
1775705937229611800,7.00261181640625,-0.24011221528053284,0.1684451699256897,0.5994431972503662
1775705937239623700,7.012623779296875,-0.1980651617050171,0.09062972664833069,0.40652355551719666
1775705937249636900,7.022636962890625,-0.23200805485248566,0.021166028454899788,0.11268079280853271
1775705937259649800,7.03264990234375,-0.34630638360977173,-0.0019635246135294437,-0.21581026911735535
1775705937269663000,7.0426630859375,-0.41636887192726135,0.039964452385902405,-0.47731301188468933
1775705937279675600,7.052675537109375,-0.4214789569377899,0.12619921565055847,-0.6379538178443909
1775705937289688800,7.062688720703125,-0.38190335035324097,0.2709517776966095,-0.687777042388916
1775705937299702000,7.072701904296875,-0.3324417769908905,0.42810890078544617,-0.5945237874984741
1775705937309714000,7.0827138671875,-0.28718751668930054,0.5134215950965881,-0.3810059130191803
1775705937319726800,7.092726806640625,-0.26371869444847107,0.4359859228134155,-0.1128048226237297
1775705937329739800,7.10273974609375,-0.27264881134033203,0.17826560139656067,0.17242132127285004
1775705937339753000,7.1127529296875,-0.268575519323349,-0.1675538569688797,0.4265654385089874
1775705937349766000,7.122765869140625,-0.24363258481025696,-0.4355880916118622,0.6113364100456238
1775705937359778800,7.13277880859375,-0.21535621583461761,-0.5279145836830139,0.6374577283859253
1775705937369791700,7.142791748046875,-0.18471702933311462,-0.3708445429801941,0.5109421610832214
1775705937379804000,7.152803955078125,-0.15127837657928467,-0.03556960076093674,0.2878701686859131
1775705937389816800,7.16281689453125,-0.10651266574859619,0.31247007846832275,0.05168828368186951
1775705937399829800,7.172829833984375,-0.053044117987155914,0.5532483458518982,-0.11566981673240662
1775705937409842700,7.1828427734375,0.009813908487558365,0.6737669110298157,-0.15999600291252136
1775705937419856000,7.19285595703125,0.03096579946577549,0.6475265026092529,-0.015130434185266495
1775705937429869000,7.202869140625,0.035445235669612885,0.4105752408504486,0.2626553773880005
1775705937439881700,7.2128818359375,0.08220422267913818,0.010167381726205349,0.5289509892463684
1775705937449893600,7.2228935546875,0.11094002425670624,-0.36677613854408264,0.6792599558830261
1775705937459906800,7.23290673828125,0.09402096271514893,-0.5171096920967102,0.6832331418991089
1775705937469920000,7.242919921875,0.061981216073036194,-0.4279368817806244,0.5673273801803589
1775705937479932700,7.2529326171875,0.0036025973968207836,-0.22567671537399292,0.40398532152175903
1775705937489945900,7.26294580078125,-0.05071994662284851,-0.016747742891311646,0.22632847726345062
1775705937499958800,7.272958740234375,-0.054046232253313065,0.1929069459438324,0.08450636267662048
1775705937509972000,7.282971923828125,-0.013595543801784515,0.3044237494468689,0.0402476042509079
1775705937519983900,7.29298388671875,0.04023226723074913,0.32803961634635925,0.07163668423891068
1775705937529996800,7.302996826171875,0.07008052617311478,0.1882777214050293,0.12109154462814331
1775705937540009700,7.313009765625,0.08595802634954453,-0.024859584867954254,0.14576385915279388
1775705937550023000,7.32302294921875,0.07153163105249405,-0.2179349958896637,0.14743870496749878
1775705937560035800,7.333035888671875,0.012560191564261913,-0.258292019367218,0.11899375170469284
1775705937570048800,7.343048828125,0.006188627798110247,-0.16657961905002594,0.07215975224971771
1775705937580062000,7.35306201171875,0.04530913010239601,-0.06858089566230774,0.03983057662844658
1775705937590073900,7.363073974609375,0.09059922397136688,0.04980181157588959,-0.018181372433900833
1775705937600087000,7.373087158203125,0.11372078955173492,0.1385663002729416,-0.07355675101280212
1775705937610099700,7.383099609375,0.12639488279819489,0.17366692423820496,-0.07948704808950424
1775705937620113000,7.39311279296875,0.13303734362125397,0.12410309910774231,-0.04721565917134285
1775705937630125800,7.403125732421875,0.1538696438074112,-0.00012777524534612894,0.008341610431671143
1775705937640138800,7.413138671875,0.18338945508003235,-0.1055266335606575,0.04026066139340401
1775705937650151700,7.423151611328125,0.17740455269813538,-0.17456521093845367,0.03829712048172951
1775705937660163800,7.433163818359375,0.14112137258052826,-0.2552645802497864,0.013966478407382965
1775705937670176800,7.4431767578125,0.14685305953025818,-0.3138023912906647,-0.027405258268117905
1775705937680190000,7.45318994140625,0.1837940365076065,-0.3219015896320343,-0.09415100514888763
1775705937690202600,7.46320263671875,0.23968830704689026,-0.30608418583869934,-0.16577056050300598
1775705937700215800,7.4732158203125,0.32695746421813965,-0.2505391538143158,-0.2233840525150299
1775705937710229000,7.48322900390625,0.41266703605651855,-0.14674390852451324,-0.27068737149238586
1775705937720241700,7.49324169921875,0.5218454599380493,-0.026705920696258545,-0.2984521687030792
1775705937730253800,7.50325390625,0.6213054060935974,0.04363378509879112,-0.30314919352531433
1775705937740266800,7.513266845703125,0.6773679256439209,0.06607916951179504,-0.3079034686088562
1775705937750280000,7.523280029296875,0.6763660907745361,0.08311618119478226,-0.28113630414009094
1775705937760292900,7.53329296875,0.6693078875541687,0.09241461008787155,-0.21093031764030457
1775705937770305800,7.543305908203125,0.6603602170944214,0.10052893310785294,-0.0956021174788475
1775705937780318700,7.553318603515625,0.6188663244247437,0.08236458152532578,0.040499527007341385
1775705937790332000,7.563331787109375,0.5635362863540649,0.04611057788133621,0.15749509632587433
1775705937800343800,7.57334375,0.5101239085197449,0.0031489995308220387,0.22079603374004364
1775705937810356700,7.583356689453125,0.4588162899017334,-0.08502325415611267,0.25248265266418457
1775705937820369700,7.59336962890625,0.3914649486541748,-0.1945934146642685,0.2548041343688965
1775705937830382800,7.6033828125,0.32014673948287964,-0.239863783121109,0.22088190913200378
1775705937840396000,7.61339599609375,0.27601948380470276,-0.264631986618042,0.16966478526592255
1775705937850408700,7.62340869140625,0.2090734988451004,-0.21466419100761414,0.10034636408090591
1775705937860422000,7.633421875,0.15560415387153625,-0.10117198526859283,0.002760685048997402
1775705937870434800,7.643434814453125,0.0749148577451706,0.06321366876363754,-0.11247830092906952
1775705937880447000,7.653447021484375,-0.06649606674909592,0.2698129117488861,-0.23439593613147736
1775705937890459600,7.663459716796875,-0.1660921275615692,0.35450202226638794,-0.35233959555625916
1775705937900472800,7.673472900390625,-0.22576743364334106,0.3477487564086914,-0.43615832924842834
1775705937910485800,7.68348583984375,-0.24763862788677216,0.2914687395095825,-0.4884501099586487
1775705937920499000,7.6934990234375,-0.24540342390537262,0.15872640907764435,-0.5093061327934265
1775705937930511600,7.70351171875,-0.2467084378004074,0.08988996595144272,-0.4847911596298218
1775705937940524800,7.71352490234375,-0.2183724045753479,0.09101089090108871,-0.423472136259079
1775705937950536700,7.72353662109375,-0.17663651704788208,0.14781084656715393,-0.32572320103645325
1775705937960550000,7.7335498046875,-0.10819273442029953,0.23146872222423553,-0.23857447504997253
1775705937970562800,7.743562744140625,-0.0383102186024189,0.2524026930332184,-0.16213266551494598
1775705937980575700,7.75357568359375,-0.028721245005726814,0.18724395334720612,-0.08601020276546478
1775705937990589000,7.7635888671875,-0.050943467766046524,0.10095012933015823,-0.05041385814547539
1775705938000601900,7.773601806640625,-0.07277792692184448,0.00771286292001605,-0.01487610675394535
1775705938010614800,7.78361474609375,-0.09375053644180298,-0.08511197566986084,0.023120490834116936
1775705938020626700,7.793626708984375,-0.12217232584953308,-0.15799736976623535,0.023416634649038315
1775705938030639900,7.803639892578125,-0.13993479311466217,-0.1523398607969284,-0.003383816219866276
1775705938040652800,7.81365283203125,-0.1011224091053009,-0.08651237934827805,-0.0331512987613678
1775705938050665700,7.823665771484375,-0.005456492770463228,-0.028142401948571205,-0.037691693753004074
1775705938060678700,7.8336787109375,0.06292150169610977,0.053984157741069794,-0.04451284930109978
1775705938070691800,7.84369189453125,0.09257901459932327,0.13694043457508087,-0.10331464558839798
1775705938080704800,7.853704833984375,0.0951329842209816,0.15051937103271484,-0.17765703797340393
1775705938090717000,7.863717041015625,0.06327242404222488,0.14827598631381989,-0.20926959812641144
1775705938100729600,7.8737294921875,0.03617022931575775,0.13556550443172455,-0.22484242916107178
1775705938110742800,7.88374267578125,0.026347681879997253,0.0726386085152626,-0.2204958200454712
1775705938120755700,7.893755615234375,-0.018769728019833565,-0.016581550240516663,-0.19634442031383514
1775705938130769000,7.903768798828125,-0.060722578316926956,-0.11773918569087982,-0.19911783933639526
1775705938140781800,7.91378173828125,-0.14385847747325897,-0.2030404955148697,-0.22558726370334625
1775705938150794800,7.923794677734375,-0.2250576615333557,-0.25857800245285034,-0.2972272038459778
1775705938160807000,7.933806884765625,-0.23522615432739258,-0.2988242208957672,-0.3824073374271393
1775705938170819800,7.94381982421875,-0.22277876734733582,-0.29136475920677185,-0.43986251950263977
1775705938180832800,7.953832763671875,-0.1704244762659073,-0.2946625351905823,-0.446224570274353
1775705938190845700,7.963845703125,-0.11422483623027802,-0.29441532492637634,-0.38128662109375
1775705938200859000,7.97385888671875,-0.09512251615524292,-0.282034307718277,-0.28395742177963257
1775705938210871800,7.983871826171875,-0.08479886502027512,-0.23309998214244843,-0.22427380084991455
1775705938220884700,7.993884765625,-0.09864943474531174,-0.0840335339307785,-0.20330113172531128
1775705938230896600,8.003896728515626,-0.1193147525191307,0.009391359984874725,-0.22959938645362854
1775705938240909800,8.013909912109375,-0.13689880073070526,-0.00011399434879422188,-0.28218722343444824
1775705938250922800,8.0239228515625,-0.1431690901517868,-0.046373870223760605,-0.3293786644935608
1775705938260935700,8.033935791015624,-0.13527759909629822,-0.08530103415250778,-0.36007532477378845
1775705938270948900,8.043948974609375,-0.11576280742883682,-0.07321629673242569,-0.36719685792922974
1775705938280961800,8.0539619140625,-0.07689797133207321,-0.02622136101126671,-0.3822213411331177
1775705938290975000,8.06397509765625,-0.007840790785849094,0.03462546691298485,-0.40765509009361267
1775705938300987000,8.07398681640625,0.10544715076684952,0.08437944203615189,-0.4227890372276306
1775705938310999800,8.083999755859375,0.2513319253921509,0.11906125396490097,-0.3811989724636078
1775705938321012700,8.0940126953125,0.36530137062072754,0.11473628133535385,-0.29259347915649414
1775705938331026000,8.10402587890625,0.42609676718711853,0.09040054678916931,-0.18420283496379852
1775705938341038600,8.11403857421875,0.4237896502017975,0.04948187991976738,-0.0791616439819336
1775705938351051800,8.1240517578125,0.38207319378852844,-0.0099076759070158,-0.012287515215575695
1775705938361064700,8.134064697265625,0.34369412064552307,-0.05857827514410019,0.02526225708425045
1775705938371076900,8.144076904296876,0.28882038593292236,-0.05731514096260071,0.05124136805534363
1775705938381089800,8.15408984375,0.2156020998954773,-0.04125654697418213,0.04862268269062042
1775705938391102700,8.164102783203125,0.1482139676809311,-0.002110107569023967,0.006244390271604061
1775705938401116000,8.174115966796874,0.12659363448619843,0.019207431003451347,-0.03922615572810173
1775705938411128800,8.18412890625,0.15038509666919708,0.04069622978568077,-0.05303708091378212
1775705938421141800,8.194141845703125,0.18393106758594513,0.08007878810167313,-0.07054043561220169
1775705938431154700,8.20415478515625,0.211488276720047,0.13500958681106567,-0.1138133779168129
1775705938441166800,8.214166748046875,0.2216237336397171,0.17643532156944275,-0.12893560528755188
1775705938451179800,8.2241796875,0.20141556859016418,0.19273799657821655,-0.11189425736665726
1775705938461193000,8.23419287109375,0.16805601119995117,0.1568114161491394,-0.0872696116566658
1775705938471205600,8.24420556640625,0.1271703690290451,0.09788871556520462,-0.07349281013011932
1775705938481218800,8.25421875,0.08262354135513306,0.05469001457095146,-0.05081415921449661
1775705938491231700,8.264231689453124,0.04650571569800377,0.035561565309762955,-0.030346978455781937
1775705938501244700,8.27424462890625,0.025006014853715897,0.012235201895236969,-0.01786181330680847
1775705938511256600,8.284256591796876,0.022024327889084816,-0.020382069051265717,-0.0021142777986824512
1775705938521269800,8.294269775390624,0.03457367792725563,-0.03140968829393387,0.02227948047220707
1775705938531283000,8.304282958984375,0.07340415567159653,-0.0022350247018039227,0.047103069722652435
1775705938541295900,8.3142958984375,0.08755166828632355,0.03483910858631134,0.07851239293813705
1775705938551308800,8.324308837890625,0.104178287088871,0.045353978872299194,0.14253798127174377
1775705938561321700,8.33432177734375,0.12970921397209167,-0.009507407434284687,0.21725216507911682
1775705938571335000,8.3443349609375,0.13172505795955658,-0.07602204382419586,0.28682541847229004
1775705938581346800,8.354346923828125,0.08866894245147705,-0.10761299729347229,0.3646906614303589
1775705938591359700,8.36435986328125,0.01790490746498108,-0.10194240510463715,0.4289170801639557
1775705938601372700,8.37437255859375,-0.08803777396678925,-0.03217024728655815,0.46922215819358826
1775705938611385900,8.3843857421875,-0.20669767260551453,0.057149238884449005,0.4791754186153412
1775705938621398800,8.394398681640626,-0.3151538074016571,0.1211782917380333,0.4568226933479309
1775705938631411700,8.40441162109375,-0.4076426327228546,0.19026757776737213,0.43021076917648315
1775705938641425000,8.4144248046875,-0.4791668653488159,0.2621931731700897,0.4203629493713379
1775705938651437800,8.424437744140626,-0.5410619974136353,0.28874513506889343,0.4029797315597534
1775705938661449700,8.43444970703125,-0.5790290832519531,0.29619479179382324,0.3994816839694977
1775705938671462700,8.444462646484375,-0.6006306409835815,0.2879405915737152,0.4237813949584961
1775705938681475800,8.454475830078126,-0.5879859328269958,0.24961239099502563,0.47180885076522827
1775705938691488800,8.46448876953125,-0.5225862860679626,0.1589186191558838,0.5469610691070557
1775705938701502000,8.474501953125,-0.4101015627384186,0.05511312931776047,0.607391893863678
1775705938711514600,8.4845146484375,-0.2843857705593109,-0.01280137524008751,0.6108327507972717
1775705938721527800,8.49452783203125,-0.1505800038576126,-0.010962462984025478,0.5724986791610718
1775705938731539700,8.504539794921875,-0.03647882863879204,0.003607361111789942,0.5267903208732605
1775705938741553000,8.514552978515624,0.017101844772696495,-0.01158623956143856,0.5018135905265808
1775705938751565600,8.524565673828125,0.02711247093975544,-0.06520892679691315,0.50592041015625
1775705938761578800,8.534578857421875,0.008892987854778767,-0.10829834640026093,0.5118483304977417
1775705938771592000,8.544592041015624,-0.053309012204408646,-0.11958366632461548,0.4942275583744049
1775705938781604900,8.55460498046875,-0.13942073285579681,-0.10671313852071762,0.45623892545700073
1775705938791617800,8.56461767578125,-0.2032720446586609,-0.08017506450414658,0.4045259356498718
1775705938801629700,8.574629638671874,-0.2445710152387619,-0.04163166508078575,0.36142268776893616
1775705938811643000,8.584642822265625,-0.24966591596603394,-0.027050267904996872,0.3475169837474823
1775705938821655800,8.59465576171875,-0.21539343893527985,-0.07556907087564468,0.33965373039245605
1775705938831668700,8.604668701171875,-0.15809185802936554,-0.15744541585445404,0.3050006628036499
1775705938841681700,8.614681640625,-0.11011714488267899,-0.21787413954734802,0.23052510619163513
1775705938851694800,8.62469482421875,-0.0891183391213417,-0.23874536156654358,0.12613080441951752
1775705938861707800,8.634707763671875,-0.07771974056959152,-0.20113806426525116,-0.004926816560328007
1775705938871720000,8.644719970703125,-0.08600061386823654,-0.1144159808754921,-0.1459966003894806
1775705938881732600,8.654732666015626,-0.15058493614196777,-0.027951393276453018,-0.2954840660095215
1775705938891745800,8.664745849609375,-0.2478662133216858,-0.025273587554693222,-0.43090447783470154
1775705938901758700,8.6747587890625,-0.331528902053833,-0.07597511261701584,-0.5270448923110962
1775705938911771600,8.684771728515624,-0.3595372438430786,-0.1520496904850006,-0.5879689455032349
1775705938921784800,8.694784912109375,-0.3405848443508148,-0.2798233926296234,-0.6027023196220398
1775705938931797800,8.7047978515625,-0.28921887278556824,-0.37505483627319336,-0.5915098786354065
1775705938941811000,8.71481103515625,-0.21333929896354675,-0.4341548979282379,-0.559048056602478
1775705938951822800,8.72482275390625,-0.12001197785139084,-0.4589770436286926,-0.48495811223983765
1775705938961835800,8.734835693359376,-0.011126773431897163,-0.4090456962585449,-0.43866199254989624
1775705938971848700,8.7448486328125,0.08852621912956238,-0.2965012788772583,-0.43340200185775757
1775705938981862000,8.75486181640625,0.17870749533176422,-0.16288116574287415,-0.42534539103507996
1775705938991874800,8.764874755859376,0.23716643452644348,-0.029573990032076836,-0.43574288487434387
1775705939001887700,8.7748876953125,0.2576802372932434,0.04398304969072342,-0.4719823896884918
1775705939011901000,8.78490087890625,0.22614753246307373,0.05442970618605614,-0.4764059782028198
1775705939021912800,8.794912841796876,0.1594689041376114,0.04252590984106064,-0.4266520142555237
1775705939031925800,8.80492578125,0.07667301595211029,0.009032811969518661,-0.3576909899711609
1775705939041938700,8.814938720703125,0.002358573954552412,-0.029832562431693077,-0.3161912262439728
1775705939051951900,8.824951904296874,-0.04056045785546303,-0.06645306944847107,-0.2586973309516907
1775705939061964800,8.83496484375,-0.018874604254961014,-0.03136219456791878,-0.16944973170757294
1775705939071977700,8.844977783203126,0.06220988556742668,-0.010246641002595425,-0.08594737946987152
1775705939081990700,8.85499072265625,0.16005335748195648,-0.03461349755525589,-0.027225211262702942
1775705939092002800,8.8650029296875,0.25815680623054504,-0.083682119846344,-0.006687959656119347
1775705939102015700,8.875015625,0.355704665184021,-0.11015953868627548,0.0052169025875627995
1775705939112029000,8.88502880859375,0.41298240423202515,-0.09791967272758484,0.013463660143315792
1775705939122041600,8.89504150390625,0.35862889885902405,-0.12159250676631927,0.03068365901708603
1775705939132054800,8.9050546875,0.21612195670604706,-0.20778720080852509,0.08830858021974564
1775705939142067700,8.915067626953125,0.05512534826993942,-0.33170223236083984,0.21122491359710693
1775705939152081000,8.925080810546875,-0.03342863917350769,-0.502898097038269,0.34456753730773926
1775705939162092800,8.9350927734375,-0.027188850566744804,-0.6296772956848145,0.385001540184021
1775705939172105700,8.945105712890625,0.02198716811835766,-0.6160126328468323,0.3240276277065277
1775705939182119000,8.955118896484375,0.11389072239398956,-0.5277615785598755,0.22761961817741394
1775705939192131800,8.9651318359375,0.24618494510650635,-0.37682515382766724,0.09564583003520966
1775705939202144800,8.975144775390625,0.3766478896141052,-0.2934114933013916,-0.0645236000418663
1775705939212157700,8.98515771484375,0.43393439054489136,-0.3082629144191742,-0.22473004460334778
1775705939222171000,8.9951708984375,0.4158845543861389,-0.3541523814201355,-0.34376055002212524
1775705939232182800,9.005182861328125,0.3401931822299957,-0.3366522490978241,-0.35318994522094727
1775705939242196000,9.015196044921876,0.2452096790075302,-0.33910128474235535,-0.2534729540348053
1775705939252208600,9.025208740234374,0.16706067323684692,-0.3341888189315796,-0.13095372915267944
1775705939262221800,9.035221923828125,0.09458594024181366,-0.20439007878303528,0.060609571635723114
1775705939272234800,9.04523486328125,-0.006689650472253561,0.0030780211091041565,0.2880779206752777
1775705939282247700,9.05524755859375,-0.11381477117538452,0.16605308651924133,0.4584488570690155
1775705939292260900,9.0652607421875,-0.1738051474094391,0.20000599324703217,0.5554874539375305
1775705939302272800,9.075272705078126,-0.17492260038852692,0.1509159505367279,0.597588837146759
1775705939312286000,9.085285888671875,-0.15845784544944763,0.051823873072862625,0.5952072739601135
1775705939322299000,9.095298828125,-0.20946776866912842,-0.033506471663713455,0.5897374153137207
1775705939332311800,9.105311767578126,-0.3706260621547699,0.03972376510500908,0.5828765034675598
1775705939342324700,9.11532470703125,-0.5459023118019104,0.24816511571407318,0.5326442122459412
1775705939352338000,9.125337890625,-0.6584924459457397,0.4782494008541107,0.4700213074684143
1775705939362350600,9.1353505859375,-0.6706979870796204,0.6231314539909363,0.3833298087120056
1775705939372362800,9.14536279296875,-0.5840438604354858,0.5882970094680786,0.24285896122455597
1775705939382375700,9.155375732421875,-0.3995094299316406,0.4257720410823822,0.07903435081243515
1775705939392388900,9.165388916015624,-0.1623256951570511,0.2162548005580902,-0.09256691485643387
1775705939402401800,9.17540185546875,0.08298607170581818,0.13123472034931183,-0.2687435448169708
1775705939412414700,9.185414794921876,0.22790369391441345,0.15586397051811218,-0.42671963572502136
1775705939422428000,9.195427978515625,0.18251889944076538,0.27575257420539856,-0.5782433748245239
1775705939432440800,9.20544091796875,0.00015644636005163193,0.5058324933052063,-0.7405986785888672
1775705939442452700,9.21545263671875,-0.1871282309293747,0.6550928354263306,-0.8317054510116577
1775705939452465700,9.225465576171874,-0.25636881589889526,0.641545295715332,-0.7594472169876099
1775705939462478800,9.235478759765625,-0.22338391840457916,0.4609292149543762,-0.5738112926483154
1775705939472491800,9.24549169921875,-0.10111411660909653,0.1848355233669281,-0.34803518652915955
1775705939482505000,9.2555048828125,0.01711505837738514,-0.123891681432724,-0.12362952530384064
1775705939492517600,9.265517578125,0.10665711760520935,-0.3044777512550354,0.045720137655735016
1775705939502530800,9.27553076171875,0.17267394065856934,-0.3755013346672058,0.16799864172935486
1775705939512543700,9.285543701171875,0.15204457938671112,-0.35079362988471985,0.21462714672088623
1775705939522556000,9.295555908203125,0.09048162400722504,-0.18469496071338654,0.17901162803173065
1775705939532568600,9.305568603515624,0.023057932034134865,0.0015664603561162949,0.10086324065923691
1775705939542581800,9.315581787109375,0.017323879525065422,0.13727688789367676,0.04120417311787605
1775705939552595000,9.325594970703126,0.09485320001840591,0.24957580864429474,0.016613388434052467
1775705939562607900,9.33560791015625,0.20999176800251007,0.2801595628261566,0.04972686618566513
1775705939572620800,9.345620849609375,0.31604090332984924,0.18372224271297455,0.15594357252120972
1775705939582633700,9.3556337890625,0.36344200372695923,0.02487933449447155,0.2744707465171814
1775705939592646000,9.36564599609375,0.3696171045303345,-0.15389956533908844,0.3490850329399109
1775705939602658800,9.375658935546875,0.36007368564605713,-0.2792433798313141,0.3711021840572357
1775705939612671700,9.385671630859376,0.33924925327301025,-0.3065858781337738,0.3446279764175415
1775705939622684700,9.3956845703125,0.32543542981147766,-0.2960948646068573,0.275214284658432
1775705939632697900,9.40569775390625,0.32427603006362915,-0.28951960802078247,0.17989173531532288
1775705939642710800,9.415710693359374,0.331344872713089,-0.29591014981269836,0.09443462640047073
1775705939652723700,9.4257236328125,0.4000578820705414,-0.33412477374076843,0.07647113502025604
1775705939662735600,9.435735595703125,0.4560614824295044,-0.32415735721588135,0.11741244792938232
1775705939672748800,9.445748779296874,0.4903770089149475,-0.25763896107673645,0.14745314419269562
1775705939682761700,9.45576171875,0.4730912148952484,-0.17873933911323547,0.1551014631986618
1775705939692774700,9.465774658203125,0.3952431380748749,-0.12563394010066986,0.14198702573776245
1775705939702787800,9.475787841796874,0.295149564743042,-0.0867222249507904,0.1327591836452484
1775705939712800800,9.48580078125,0.1981470286846161,-0.11401744931936264,0.10695338994264603
1775705939722814000,9.49581396484375,0.13310623168945312,-0.18205295503139496,0.08030527085065842
1775705939732825900,9.505825927734374,0.11246374249458313,-0.2818728983402252,0.06064259260892868
1775705939742838800,9.5158388671875,0.07236053049564362,-0.3565375506877899,0.041713111102581024
1775705939752851700,9.525851806640626,0.02544940821826458,-0.4369179904460907,0.01926344633102417
1775705939762865000,9.535864990234375,-0.025659315288066864,-0.48169928789138794,-0.02148345112800598
1775705939772877600,9.545877685546875,-0.06417069584131241,-0.4126090109348297,-0.07025283575057983
1775705939782890800,9.555890869140624,-0.050900958478450775,-0.2852153480052948,-0.12226810306310654
1775705939792904000,9.565904052734375,-0.01169074047356844,-0.15224267542362213,-0.12800289690494537
1775705939802916900,9.575916748046875,0.04375813528895378,-0.1038394570350647,-0.1386917531490326
1775705939812928800,9.5859287109375,0.04005461558699608,-0.09624576568603516,-0.13768164813518524
1775705939822941700,9.595941650390625,-0.03150319308042526,-0.06813476979732513,-0.11440563201904297
1775705939832955000,9.605954833984375,-0.0914822369813919,-0.03868156671524048,-0.09334272146224976
1775705939842967800,9.6159677734375,-0.1204872578382492,-0.057857394218444824,-0.07189548015594482
1775705939852980700,9.625980712890625,-0.14537712931632996,-0.0999714657664299,-0.09316214919090271
1775705939862993700,9.63599365234375,-0.1556531935930252,-0.11792197078466415,-0.17173738777637482
1775705939873006800,9.6460068359375,-0.1495334357023239,-0.06751472502946854,-0.26602259278297424
1775705939883018800,9.656018798828125,-0.1026223823428154,0.019940026104450226,-0.33977964520454407
1775705939893032000,9.666031982421876,0.009787225164473057,0.08875436335802078,-0.3823862075805664
1775705939903044600,9.676044677734374,0.1407811939716339,0.13212580978870392,-0.3823545277118683
1775705939913057800,9.686057861328125,0.23816639184951782,0.12031945586204529,-0.3517388105392456
1775705939923070700,9.69607080078125,0.29933732748031616,0.0857502892613411,-0.3148295283317566
1775705939933083600,9.706083740234375,0.3144794702529907,0.04575096815824509,-0.297534704208374
1775705939943096800,9.716096923828125,0.29567062854766846,-0.002611237345263362,-0.2985869348049164
1775705939953108700,9.726108642578126,0.23610006272792816,0.06291522085666656,-0.32677167654037476
1775705939963122000,9.736121826171875,0.1682504415512085,0.21984891593456268,-0.3947288691997528
1775705939973134800,9.746134765625,0.09949997812509537,0.44554898142814636,-0.43737325072288513
1775705939983147800,9.756147705078124,0.11269807070493698,0.5494998693466187,-0.4798794388771057
1775705939993160700,9.76616064453125,0.21151752769947052,0.5931111574172974,-0.5605058073997498
1775705940003174000,9.776173828125,0.37085071206092834,0.5773300528526306,-0.6005514860153198
1775705940013186800,9.786186767578124,0.5403668284416199,0.4521729052066803,-0.5716975331306458
1775705940023198700,9.79619873046875,0.6769976615905762,0.33700689673423767,-0.5102736353874207
1775705940033211600,9.806211669921876,0.7465583086013794,0.2573826313018799,-0.444441556930542
1775705940043224800,9.816224853515624,0.750095009803772,0.24515630304813385,-0.3864600360393524
1775705940053237800,9.82623779296875,0.7150413990020752,0.3118939697742462,-0.3453274965286255
1775705940063250700,9.836250732421876,0.6152669191360474,0.3747682571411133,-0.2660531997680664
1775705940073263900,9.846263916015625,0.4243839383125305,0.4004767835140228,-0.1341889202594757
1775705940083277000,9.856277099609375,0.2719070315361023,0.29348883032798767,0.02377462200820446
1775705940093289000,9.8662890625,0.18816353380680084,0.11029639840126038,0.1792275607585907
1775705940103302000,9.876302001953125,0.11402192711830139,-0.032912954688072205,0.29967620968818665
1775705940113314800,9.886314697265625,0.05262000113725662,-0.08295560628175735,0.37289294600486755
1775705940123328000,9.896327880859374,0.007117231376469135,-0.05471358075737953,0.39261817932128906
1775705940133341000,9.9063408203125,-0.004229759331792593,0.023386364802718163,0.36380913853645325
1775705940143353900,9.916353759765625,-0.015821700915694237,0.1185285896062851,0.3164690434932709
1775705940153367000,9.926366943359374,-0.08590954542160034,0.21880625188350677,0.25124743580818176
1775705940163380000,9.9363798828125,-0.1690686047077179,0.27364712953567505,0.17262639105319977
1775705940173392100,9.94639208984375,-0.23172134160995483,0.27032071352005005,0.0997764840722084
1775705940183404800,9.95640478515625,-0.249395951628685,0.24494211375713348,0.055061206221580505
1775705940193418000,9.96641796875,-0.22556988894939423,0.17197436094284058,0.02572803944349289
1775705940203431000,9.976430908203126,-0.18255558609962463,0.06729374825954437,-0.0015834765508770943
1775705940213444000,9.986444091796875,-0.16423246264457703,0.013110766187310219,-0.04788865149021149
1775705940223456800,9.996456787109375,-0.1618444174528122,0.027166662737727165,-0.107075534760952
1775705940233470000,10.006469970703124,-0.15193460881710052,0.08287040144205093,-0.1762535721063614
1775705940243481900,10.01648193359375,-0.12597517669200897,0.1209605261683464,-0.24773654341697693
1775705940253495000,10.0264951171875,-0.06848543882369995,0.11339183151721954,-0.2887990176677704
1775705940263508000,10.036508056640624,0.006899867206811905,0.04995692893862724,-0.27882760763168335
1775705940273521000,10.04652099609375,0.07646878808736801,-0.0455043762922287,-0.22997164726257324
1775705940283534000,10.0565341796875,0.12755966186523438,-0.11746405065059662,-0.1722734570503235
1775705940293547000,10.066547119140624,0.16856598854064941,-0.17307129502296448,-0.12506785988807678
1775705940303560000,10.076559814453125,0.19390037655830383,-0.19699980318546295,-0.09842772781848907
1775705940313572900,10.08657275390625,0.19949598610401154,-0.19452069699764252,-0.10863720625638962
1775705940323585000,10.0965849609375,0.18259955942630768,-0.193961963057518,-0.13306744396686554
1775705940333598000,10.106597900390625,0.15645726025104523,-0.1985657513141632,-0.17172373831272125
1775705940343611000,10.11661083984375,0.11764435470104218,-0.17955584824085236,-0.2123827487230301
1775705940353623800,10.126623779296875,0.07072630524635315,-0.12790289521217346,-0.23812595009803772
1775705940363637000,10.136636962890625,0.021186456084251404,-0.07438720762729645,-0.2529008984565735
1775705940373650000,10.14664990234375,-0.017762213945388794,-0.017057955265045166,-0.26706650853157043
1775705940383662800,10.156662841796875,-0.035352129489183426,0.017372187227010727,-0.2651735544204712
1775705940393674800,10.1666748046875,-0.03667105734348297,0.054401006549596786,-0.2376497983932495
1775705940403688000,10.17668798828125,-0.02383648417890072,0.0875491052865982,-0.21952670812606812
1775705940413701000,10.186701171875,-0.00961772259324789,0.10517887026071548,-0.19344480335712433
1775705940423714000,10.196714111328125,-0.02137078531086445,0.0882028192281723,-0.14070676267147064
1775705940433727000,10.20672705078125,-0.05501066893339157,0.029039308428764343,-0.07218014448881149
1775705940443740000,10.216739990234375,-0.08069765567779541,-0.06898126751184464,-0.020577142015099525
1775705940453753000,10.226753173828126,-0.09760362654924393,-0.14449836313724518,0.0037609657738357782
1775705940463765000,10.236764892578124,-0.09261046350002289,-0.18009203672409058,0.0075304037891328335
1775705940473778000,10.24677783203125,-0.06289181858301163,-0.16113267838954926,-0.009255526587367058
1775705940483790800,10.256790771484376,-0.010800125077366829,-0.1122753918170929,-0.05149991810321808
1775705940493804000,10.266803955078124,0.044016845524311066,-0.05569235980510712,-0.10473382472991943
1775705940503817000,10.27681689453125,0.09348825365304947,-0.009480653330683708,-0.16172415018081665
1775705940513830000,10.286829833984376,0.10998155921697617,0.023924238979816437,-0.2220045030117035
1775705940523843000,10.296843017578125,0.075435571372509,0.061705444008111954,-0.2887246906757355
1775705940533856000,10.30685595703125,0.0033538579009473324,0.11861301213502884,-0.3504194915294647
1775705940543868200,10.3168681640625,-0.08710573613643646,0.1674458086490631,-0.3917946219444275
1775705940553880800,10.326880859375,-0.18820135295391083,0.1713319718837738,-0.39926856756210327
1775705940563894000,10.33689404296875,-0.2836168110370636,0.166348397731781,-0.36079785227775574
1775705940573907000,10.346906982421874,-0.3476193845272064,0.16970418393611908,-0.27899032831192017
1775705940583920000,10.356920166015625,-0.40529412031173706,0.20330262184143066,-0.1470557302236557
1775705940593932800,10.366932861328126,-0.4498817026615143,0.2269120067358017,0.03645821288228035
1775705940603946000,10.376946044921874,-0.4749329686164856,0.17666082084178925,0.21722346544265747
1775705940613958000,10.3869580078125,-0.4822235405445099,0.10617151856422424,0.3746325671672821
1775705940623971000,10.39697119140625,-0.4829460382461548,0.03261421248316765,0.5212406516075134
1775705940633983700,10.406983642578124,-0.4898027181625366,-0.024354010820388794,0.6753878593444824
1775705940643997000,10.416996826171875,-0.5083010792732239,-0.031937360763549805,0.8127704858779907
1775705940654010000,10.427010009765626,-0.5236467719078064,0.0029211025685071945,0.9152899384498596
1775705940664023000,10.43702294921875,-0.5081692934036255,0.0369509719312191,0.9866607785224915
1775705940674036000,10.447035888671875,-0.467272013425827,0.04608279839158058,1.018899917602539
1775705940684049000,10.457048828125,-0.43475082516670227,0.05088740587234497,1.0130329132080078
1775705940694061000,10.46706103515625,-0.40691646933555603,0.02927875705063343,0.952789306640625
1775705940704074000,10.477073974609375,-0.3800867199897766,-0.0008367997361347079,0.8636351823806763
1775705940714087000,10.4870869140625,-0.33678314089775085,-0.032217711210250854,0.7870595455169678
1775705940724099800,10.497099853515625,-0.28232336044311523,-0.05545458942651749,0.7372640371322632
1775705940734113000,10.507113037109375,-0.24981869757175446,-0.03626580536365509,0.7059118747711182
1775705940744126000,10.5171259765625,-0.2323739230632782,0.03618522360920906,0.6556753516197205
1775705940754139000,10.527138916015625,-0.22510455548763275,0.13851866126060486,0.5754532217979431
1775705940764150800,10.53715087890625,-0.20389406383037567,0.25526607036590576,0.4797368347644806
1775705940774164000,10.5471640625,-0.1725471019744873,0.3011435568332672,0.38068825006484985
1775705940784177200,10.55717724609375,-0.14010155200958252,0.2486761063337326,0.3074779510498047
1775705940794189800,10.56718994140625,-0.10543406009674072,0.137889564037323,0.2601214051246643
1775705940804203000,10.577203125,-0.08138997852802277,0.04990139231085777,0.23958975076675415
1775705940814216000,10.5872158203125,-0.05471036955714226,0.05057802051305771,0.253037691116333
1775705940824229000,10.59722900390625,-0.04997127503156662,0.11150369048118591,0.2673324644565582
1775705940834241800,10.60724169921875,-0.06615766137838364,0.18683573603630066,0.2730827033519745
1775705940844254000,10.61725390625,-0.08571512252092361,0.22069649398326874,0.24486330151557922
1775705940854267000,10.627266845703126,-0.11347217857837677,0.25017184019088745,0.18340933322906494
1775705940864280000,10.637280029296875,-0.1477995216846466,0.2959502637386322,0.13602584600448608
1775705940874292700,10.647292724609375,-0.17300093173980713,0.3389331102371216,0.1450752168893814
1775705940884306000,10.657305908203124,-0.19104331731796265,0.3010999858379364,0.1897268444299698
1775705940894319000,10.667319091796875,-0.2072313278913498,0.1671815663576126,0.2338293194770813
1775705940904332000,10.67733203125,-0.20124109089374542,0.017050113528966904,0.2501526176929474
1775705940914344000,10.687343994140624,-0.16114887595176697,-0.059267807751894,0.2480703592300415
1775705940924356900,10.69735693359375,-0.12365502864122391,-0.060351982712745667,0.22039930522441864
1775705940934370000,10.7073701171875,-0.09791513532400131,0.00691972253844142,0.162978857755661
1775705940944383000,10.717383056640625,-0.10239537060260773,0.05681857094168663,0.1056055948138237
1775705940954396000,10.72739599609375,-0.14156658947467804,0.05545301362872124,0.03411433473229408
1775705940964408800,10.737408935546876,-0.18940414488315582,0.06662523746490479,-0.06037408486008644
1775705940974422000,10.747422119140625,-0.22511576116085052,0.09519853442907333,-0.16263626515865326
1775705940984434000,10.757433837890625,-0.2381753772497177,0.1496172994375229,-0.24837914109230042
1775705940994447000,10.767447021484376,-0.22828474640846252,0.21684212982654572,-0.3025369346141815
1775705941004459800,10.777459716796875,-0.18664169311523438,0.2630746066570282,-0.3012269139289856
1775705941014473000,10.787472900390625,-0.13964514434337616,0.23429825901985168,-0.24452555179595947
1775705941024486100,10.797486083984374,-0.07147620618343353,0.19104531407356262,-0.1951446831226349
1775705941034498800,10.807498779296875,-0.006049497053027153,0.19182971119880676,-0.1800871640443802
1775705941044512000,10.817511962890626,0.046046726405620575,0.19594216346740723,-0.18738901615142822
1775705941054525000,10.82752490234375,0.07249593734741211,0.1635478287935257,-0.1926141381263733
1775705941064537000,10.837537109375,0.07877247780561447,0.1128324493765831,-0.20232269167900085
1775705941074550000,10.847550048828126,0.08184123039245605,0.06864800304174423,-0.20051440596580505
1775705941084563000,10.85756298828125,0.08875159919261932,0.020330803468823433,-0.1624961793422699
1775705941094575900,10.867575927734375,0.09039858728647232,0.002530774800106883,-0.09799333661794662
1775705941104589000,10.877589111328126,0.08858977258205414,-0.011805287562310696,-0.05173902213573456
1775705941114601700,10.887601806640625,0.0952567383646965,-0.03781137987971306,-0.034441787749528885
1775705941124615000,10.897614990234375,0.10070236772298813,-0.09740706533193588,-0.032994624227285385
1775705941134626800,10.907626708984376,0.11489680409431458,-0.23918525874614716,-0.05357019230723381
1775705941144640000,10.917639892578125,0.12826454639434814,-0.34045010805130005,-0.056490883231163025
1775705941154653000,10.92765283203125,0.14866049587726593,-0.4293389916419983,-0.03376030549407005
1775705941164665900,10.937665771484374,0.16778971254825592,-0.4535875916481018,0.026997052133083344
1775705941174678800,10.9476787109375,0.17342254519462585,-0.48094937205314636,0.17346584796905518
1775705941184692000,10.95769189453125,0.18872959911823273,-0.5652690529823303,0.3614022135734558
1775705941194705000,10.967704833984374,0.2308925986289978,-0.5323692560195923,0.481118768453598
1775705941204717800,10.9777177734375,0.3034091591835022,-0.4138883948326111,0.4975893497467041
1775705941214730000,10.98772998046875,0.3801741600036621,-0.2131660133600235,0.37776175141334534
1775705941224743000,10.997742919921874,0.4350283443927765,-0.02108924835920334,0.09728240221738815
1775705941234756000,11.007756103515625,0.43826019763946533,0.08505043387413025,-0.25949546694755554
1775705941244768800,11.017768798828126,0.3687745928764343,0.15045633912086487,-0.6339550614356995
1775705941254782000,11.027781982421875,0.2783333361148834,0.16267651319503784,-0.9772665500640869
1775705941264795000,11.037794921875,0.19704779982566833,0.07796268165111542,-1.2305222749710083
1775705941274807800,11.047807861328126,0.1041993573307991,0.04161186143755913,-1.3484476804733276
1775705941284820000,11.057820068359375,0.019194185733795166,0.05016593635082245,-1.3638948202133179
1775705941294833000,11.0678330078125,-0.03211203217506409,0.1766328662633896,-1.2545874118804932
1775705941304845800,11.077845703125,-0.040225084871053696,0.3017873167991638,-1.0208300352096558
1775705941314859000,11.08785888671875,-0.026232745498418808,0.2997598946094513,-0.6767646074295044
1775705941324872000,11.097871826171875,-0.034877363592386246,0.09997272491455078,-0.29277509450912476
1775705941334884900,11.107884765625,-0.06801208853721619,-0.19855491816997528,0.024451620876789093
1775705941344898000,11.11789794921875,-0.11162055283784866,-0.43322309851646423,0.26147639751434326
1775705941354911000,11.127910888671876,-0.15553691983222961,-0.5488477349281311,0.431842565536499
1775705941364923000,11.1379228515625,-0.19856961071491241,-0.5229839086532593,0.5320817828178406
1775705941374935800,11.147935791015625,-0.22676564753055573,-0.41959118843078613,0.5907283425331116
1775705941384949000,11.157948974609376,-0.21678465604782104,-0.2514740824699402,0.6247249245643616
1775705941394962000,11.1679619140625,-0.17361415922641754,-0.051132600754499435,0.6324995160102844
1775705941404974800,11.177974853515625,-0.14145728945732117,0.1322697103023529,0.622371256351471
1775705941414987800,11.18798779296875,-0.12863729894161224,0.2566412687301636,0.5947769284248352
1775705941425001000,11.1980009765625,-0.12635841965675354,0.2913755476474762,0.5376302599906921
1775705941435012900,11.208012939453125,-0.15132036805152893,0.22013354301452637,0.437715619802475
1775705941445026000,11.218026123046876,-0.21306149661540985,0.1127687394618988,0.2909115254878998
1775705941455039000,11.2280390625,-0.29940852522850037,0.03456416726112366,0.10940299928188324
1775705941465052000,11.238052001953125,-0.369560182094574,0.06389036774635315,-0.07507656514644623
1775705941475065000,11.248065185546874,-0.390800416469574,0.1521768569946289,-0.26056790351867676
1775705941485077800,11.258077880859375,-0.3789764940738678,0.22406676411628723,-0.42261672019958496
1775705941495091000,11.268091064453126,-0.31910163164138794,0.3035200238227844,-0.5600568652153015
1775705941505104000,11.278103759765624,-0.19589076936244965,0.39472025632858276,-0.6109341979026794
1775705941515116000,11.288115966796875,-0.04981853812932968,0.3365340828895569,-0.5524162650108337
1775705941525129000,11.29812890625,0.04977516457438469,0.1792648583650589,-0.41320672631263733
1775705941535142000,11.308141845703124,0.08538907766342163,-0.006661606952548027,-0.26964208483695984
1775705941545154800,11.31815478515625,0.04826967790722847,-0.1982768476009369,-0.2152392864227295
1775705941555168000,11.32816796875,-0.03232009708881378,-0.31355446577072144,-0.20736083388328552
1775705941565181000,11.338180908203125,-0.08831625431776047,-0.3304860293865204,-0.2203325629234314
1775705941575193900,11.34819384765625,-0.10998144000768661,-0.2946890890598297,-0.26063233613967896
1775705941585207000,11.35820703125,-0.09027537703514099,-0.2773716151714325,-0.299934983253479
1775705941595219000,11.368218994140625,-0.031089797616004944,-0.21952389180660248,-0.3242395222187042
1775705941605232000,11.378232177734375,0.059404946863651276,-0.14190739393234253,-0.3493749797344208
1775705941615244800,11.388244873046874,0.16666854918003082,-0.06492174416780472,-0.3449421525001526
1775705941625258000,11.398258056640625,0.24788884818553925,0.0035779548343271017,-0.304456502199173
1775705941635271000,11.40827099609375,0.2956022024154663,0.09165241569280624,-0.20139646530151367
1775705941645283800,11.418283935546874,0.2950591742992401,0.08594206720590591,-0.03220663219690323
1775705941655296800,11.428296875,0.1952793151140213,-0.023220907896757126,0.16904444992542267
1775705941665309000,11.438308837890625,0.08675657957792282,-0.12691640853881836,0.34147879481315613
1775705941675321900,11.44832177734375,0.03475743159651756,-0.22396227717399597,0.47293514013290405
1775705941685335000,11.4583349609375,0.04456665366888046,-0.3352930545806885,0.5817884206771851
1775705941695348000,11.468347900390626,0.12987355887889862,-0.43598878383636475,0.6721696853637695
1775705941705361000,11.47836083984375,0.2750861346721649,-0.5149509906768799,0.7104121446609497
1775705941715374000,11.4883740234375,0.4205527901649475,-0.5676762461662292,0.6869789958000183
1775705941725386800,11.49838671875,0.49675115942955017,-0.4871145486831665,0.626105785369873
1775705941735400000,11.50839990234375,0.5050945281982422,-0.35785460472106934,0.5471028089523315
1775705941745411800,11.518411865234375,0.46731123328208923,-0.2214972972869873,0.4403170049190521
1775705941755425000,11.528425048828124,0.41521960496902466,-0.13990427553653717,0.3069610893726349
1775705941765438000,11.53843798828125,0.36067408323287964,-0.11442074924707413,0.18555983901023865
1775705941775451000,11.548450927734375,0.35709863901138306,-0.13334083557128906,0.09954182058572769
1775705941785463800,11.5584638671875,0.4089735448360443,-0.1933237463235855,0.07682505249977112
1775705941795477000,11.56847705078125,0.49592897295951843,-0.28030556440353394,0.10839257389307022
1775705941805490000,11.578489990234376,0.5581002235412598,-0.3267332911491394,0.1774158477783203
1775705941815501800,11.588501708984374,0.5666050314903259,-0.30241262912750244,0.25416070222854614
1775705941825514800,11.5985146484375,0.5415872931480408,-0.2066616266965866,0.3210401237010956
1775705941835528000,11.60852783203125,0.47444048523902893,-0.07552207261323929,0.3411557972431183
1775705941845541000,11.618541015625,0.34060490131378174,0.1155802384018898,0.3051818013191223
1775705941855553800,11.6285537109375,0.21724146604537964,0.3051462173461914,0.22818529605865479
1775705941865567000,11.63856689453125,0.1455925703048706,0.4355606734752655,0.16297407448291779
1775705941875580000,11.648579833984375,0.12555383145809174,0.47093045711517334,0.12862354516983032
1775705941885592800,11.6585927734375,0.15892162919044495,0.4308434724807739,0.10173999518156052
1775705941895604700,11.668604736328126,0.21637073159217834,0.3674476146697998,0.07549665868282318
1775705941905618000,11.678617919921875,0.27115970849990845,0.3093949854373932,0.06882517039775848
1775705941915630800,11.688630859375,0.30903083086013794,0.22597673535346985,0.07585835456848145
1775705941925644000,11.69864404296875,0.32627612352371216,0.1490153819322586,0.07669459283351898
1775705941935657000,11.708656982421875,0.3232421875,0.1027504950761795,0.04272435978055
1775705941945670000,11.718669921875,0.284272164106369,0.07068897038698196,-0.01601218990981579
1775705941955683000,11.72868310546875,0.20948350429534912,0.06072736158967018,-0.09875151515007019
1775705941965695000,11.738695068359375,0.10162494331598282,0.04947976768016815,-0.2011156976222992
1775705941975708000,11.7487080078125,-0.027809757739305496,0.04422573000192642,-0.3146398663520813
1775705941985720800,11.758720947265624,-0.15730729699134827,0.08938495069742203,-0.4304301142692566
1775705941995734000,11.768734130859375,-0.24073410034179688,0.13081833720207214,-0.5191258788108826
1775705942005747000,11.778746826171876,-0.2696160674095154,0.15405762195587158,-0.5621652603149414
1775705942015760000,11.788759765625,-0.26009073853492737,0.15114758908748627,-0.5699331760406494
1775705942025772800,11.798772705078125,-0.22258222103118896,0.10652348399162292,-0.5449119806289673
1775705942035786000,11.808785888671874,-0.1611841917037964,0.006125177256762981,-0.49929365515708923
1775705942045798000,11.8187978515625,-0.0896277204155922,-0.10108676552772522,-0.460311621427536
1775705942055810800,11.828810791015625,-0.02661999873816967,-0.16438578069210052,-0.43204909563064575
1775705942065823700,11.83882373046875,-0.010050610639154911,-0.19847051799297333,-0.4239214062690735
1775705942075837000,11.8488369140625,-0.034587595611810684,-0.1768225133419037,-0.44734707474708557
1775705942085849600,11.858849609375,-0.06482672691345215,-0.08420228958129883,-0.49924996495246887
1775705942095862300,11.8688623046875,-0.044854145497083664,0.04204104095697403,-0.5586687922477722
1775705942105875500,11.87887548828125,0.017354900017380714,0.1660572588443756,-0.587148904800415
1775705942115888400,11.888888427734376,0.11143572628498077,0.23719637095928192,-0.5801751613616943
1775705942125900500,11.898900634765624,0.2551489472389221,0.22807344794273376,-0.5332286953926086
1775705942135913500,11.90891357421875,0.3745720386505127,0.17169974744319916,-0.45741432905197144
1775705942145926400,11.918926513671876,0.43523886799812317,0.12883882224559784,-0.3948175311088562
1775705942155939300,11.928939208984374,0.4307980239391327,0.10473772138357162,-0.3454958200454712
1775705942165952500,11.938952392578125,0.35048186779022217,0.11516719311475754,-0.29019102454185486
1775705942175965200,11.948965087890626,0.23360709846019745,0.12219348549842834,-0.258802205324173
1775705942185978400,11.958978271484375,0.09659706056118011,0.12281240522861481,-0.25267425179481506
1775705942195990300,11.968990234375,-0.03264957293868065,0.12800347805023193,-0.26266005635261536
1775705942206003500,11.97900341796875,-0.1007082536816597,0.10768329352140427,-0.28749537467956543
1775705942216016400,11.989016357421875,-0.09525962918996811,0.06976006180047989,-0.28854915499687195
1775705942226029300,11.999029296875,-0.042882174253463745,0.039773136377334595,-0.26771098375320435
1775705942236042500,12.00904248046875,0.04792305454611778,0.012845880351960659,-0.25170329213142395
1775705942246055400,12.019055419921875,0.15140843391418457,-0.014063764363527298,-0.22824960947036743
1775705942256068400,12.029068359375,0.21578608453273773,-0.027806149795651436,-0.18964335322380066
1775705942266081300,12.039081298828124,0.2147357314825058,-0.025465231388807297,-0.1432340443134308
1775705942276093400,12.049093505859375,0.15454968810081482,0.01923949457705021,-0.13072043657302856
1775705942286106400,12.0591064453125,0.08142887055873871,0.11747924238443375,-0.16150657832622528
1775705942296119600,12.06911962890625,0.028205325827002525,0.1923794001340866,-0.19684399664402008
1775705942306132200,12.07913232421875,-0.00642295740544796,0.23771651089191437,-0.20201265811920166
1775705942316145400,12.0891455078125,-0.01691407896578312,0.2705434262752533,-0.165460005402565
1775705942326158600,12.09915869140625,0.004367241635918617,0.2850147485733032,-0.09211628884077072
1775705942336171300,12.109171142578125,0.04631469398736954,0.2651718258857727,0.02191813848912716
1775705942346183400,12.119183349609376,0.10823744535446167,0.19372610747814178,0.15094271302223206
1775705942356196400,12.1291962890625,0.1408621072769165,0.09757086634635925,0.2687133252620697
1775705942366209500,12.13920947265625,0.12103379517793655,0.02106517180800438,0.35020285844802856
1775705942376222500,12.149222412109374,0.07946454733610153,-0.03528482839465141,0.3757771849632263
1775705942386235400,12.1592353515625,0.009122209623456001,-0.0645551010966301,0.3591686487197876
1775705942396248300,12.169248291015625,-0.04492706060409546,-0.07516159862279892,0.3044417202472687
1775705942406261500,12.179261474609374,-0.07052243500947952,-0.09758727997541428,0.24257995188236237
1775705942416274400,12.1892744140625,-0.08875689655542374,-0.08952847123146057,0.18366016447544098
1775705942426286300,12.199286376953125,-0.0907614529132843,-0.0457138754427433,0.11126131564378738
1775705942436299300,12.20929931640625,-0.0749671682715416,0.03405337408185005,0.030371036380529404
1775705942446312400,12.2193125,-0.03486502543091774,0.12382134795188904,-0.033518996089696884
1775705942456325400,12.229325439453126,0.02309429459273815,0.19414174556732178,-0.08481763303279877
1775705942466338300,12.23933837890625,0.06239030137658119,0.19751757383346558,-0.10853814333677292
1775705942476351500,12.2493515625,0.07084302604198456,0.14660096168518066,-0.10448877513408661
1775705942486364400,12.259364501953126,0.06473267078399658,0.0686291977763176,-0.07990247756242752
1775705942496377300,12.26937744140625,0.050804801285266876,-0.029764613136649132,-0.04149944335222244
1775705942506389500,12.279389404296875,0.03213844075798988,-0.09531326591968536,-0.015774905681610107
1775705942516402400,12.28940234375,0.03277290612459183,-0.12268208712339401,-0.004172284156084061
