time,seconds_elapsed,z,y,x
1775705930285702100,0.0587021484375,0.03682219609618187,-1.1967442035675049,0.4692327380180359
1775705930295715300,0.06871533203125,0.11874156445264816,-1.007098913192749,0.6152333617210388
1775705930305728500,0.078728515625,0.10697305202484131,-0.8291720151901245,0.8593389391899109
1775705930315740400,0.088740478515625,0.07663139700889587,-0.7121518850326538,1.162305235862732
1775705930325753000,0.098753173828125,-0.013198359869420528,-0.7983009219169617,1.4466434717178345
1775705930335766300,0.108766357421875,-0.21105605363845825,-1.0778545141220093,1.6332474946975708
1775705930345779500,0.118779541015625,-0.45595821738243103,-1.4647332429885864,1.7342355251312256
1775705930355792400,0.12879248046875,-0.7239534258842468,-1.8441439867019653,1.7228350639343262
1775705930365805300,0.138805419921875,-0.8444396257400513,-2.014843463897705,1.667026162147522
1775705930375817200,0.148817138671875,-0.7410956621170044,-1.8497529029846191,1.579229474067688
1775705930385830400,0.158830322265625,-0.7421787977218628,-1.6049343347549438,1.3460441827774048
1775705930395843300,0.16884326171875,-0.9163247346878052,-1.7604951858520508,1.0627403259277344
1775705930405856300,0.178856201171875,-1.0927248001098633,-2.180619716644287,0.8245192170143127
1775705930415869200,0.188869140625,-1.1349793672561646,-3.026609420776367,0.5622212886810303
1775705930425882400,0.19888232421875,-1.179641842842102,-3.520022392272949,0.4935271441936493
1775705930435894300,0.208894287109375,-1.2338265180587769,-3.4939703941345215,0.6238790154457092
1775705930445907500,0.218907470703125,-1.439040184020996,-3.301213026046753,0.8123059272766113
1775705930455920000,0.228920166015625,-1.8078656196594238,-3.1886301040649414,1.0222634077072144
1775705930465933300,0.238933349609375,-2.284517526626587,-3.180788040161133,1.2755417823791504
1775705930475946500,0.248946533203125,-2.791653871536255,-3.2767696380615234,1.5651578903198242
1775705930485959200,0.258959228515625,-3.2148964405059814,-3.1328365802764893,1.8371635675430298
1775705930495971300,0.268971435546875,-2.958275318145752,-2.3597171306610107,1.967245101928711
1775705930505984300,0.278984375,-1.3444199562072754,-2.6329195499420166,1.6790649890899658
1775705930515997400,0.28899755859375,1.0767849683761597,-2.5101094245910645,1.247796654701233
1775705930526010400,0.29901025390625,2.497039556503296,-1.7477082014083862,1.2901204824447632
1775705930536023300,0.309023193359375,3.0393407344818115,-1.5710378885269165,1.51495361328125
1775705930546035200,0.31903515625,2.652043342590332,-1.5424318313598633,1.8221611976623535
1775705930556048400,0.32904833984375,1.6550965309143066,-1.7721630334854126,1.8459115028381348
1775705930566061300,0.339061279296875,0.906477153301239,-1.6972591876983643,1.724921464920044
1775705930576074200,0.34907421875,0.405230313539505,-1.6027097702026367,1.6053223609924316
1775705930586087200,0.359087158203125,0.04753289744257927,-1.7835533618927002,1.5229313373565674
1775705930596100400,0.369100341796875,-0.14475665986537933,-1.6422702074050903,1.4062968492507935
1775705930606113500,0.379113525390625,-0.15473711490631104,-1.3188892602920532,1.2197996377944946
1775705930616125400,0.38912548828125,0.01019884180277586,-0.7495110034942627,0.9435385465621948
1775705930626138000,0.39913818359375,0.3324810266494751,-0.29091545939445496,0.6115078330039978
1775705930636151300,0.4091513671875,0.7765186429023743,-0.4482976198196411,0.4099177420139313
1775705930646164500,0.41916455078125,1.0913517475128174,-0.6267033219337463,0.35838451981544495
1775705930656177400,0.429177490234375,0.9742679595947266,-0.9160839915275574,0.4104764759540558
1775705930666189300,0.439189208984375,0.34738725423812866,-1.1632461547851562,0.5907130837440491
1775705930676202200,0.4492021484375,-0.4421460032463074,-1.3057606220245361,0.8399381041526794
1775705930686215400,0.45921533203125,-0.9265542030334473,-1.4250167608261108,1.047682523727417
1775705930696228400,0.469228271484375,-1.04769766330719,-1.5190452337265015,1.1559370756149292
1775705930706241300,0.4792412109375,-0.9738772511482239,-1.5214753150939941,1.1827620267868042
1775705930716254200,0.489254150390625,-0.8007987141609192,-1.3805283308029175,1.1489428281784058
1775705930726267400,0.499267333984375,-0.26188674569129944,-0.42722535133361816,0.7166406512260437
1775705930736279300,0.509279296875,-0.01901097595691681,-0.19801774621009827,0.4914669394493103
1775705930746292500,0.51929248046875,0.01625114120543003,-0.3000338673591614,0.4927487075328827
1775705930756305200,0.52930517578125,-0.07009599357843399,-0.6076568961143494,0.5397079586982727
1775705930766318300,0.539318359375,-0.1588226705789566,-0.9539608359336853,0.49800604581832886
1775705930776331500,0.54933154296875,-0.16889847815036774,-1.1534829139709473,0.44182056188583374
1775705930786343400,0.559343505859375,-0.1435622274875641,-1.1875786781311035,0.43478846549987793
1775705930796356400,0.5693564453125,-0.16639883816242218,-1.1208653450012207,0.4106708765029907
1775705930806369300,0.579369384765625,-0.18878722190856934,-0.99322909116745,0.38527897000312805
1775705930816382500,0.589382568359375,-0.1576673984527588,-0.9386388659477234,0.39602723717689514
1775705930826395400,0.5993955078125,-0.10811608284711838,-0.9728420972824097,0.43240228295326233
1775705930836408300,0.609408203125,-0.08343710005283356,-1.0327240228652954,0.4658324122428894
1775705930846421200,0.619421142578125,-0.10383718460798264,-1.0989744663238525,0.482184499502182
1775705930856433400,0.629433349609375,-0.15200310945510864,-1.1875245571136475,0.45258665084838867
1775705930866446300,0.6394462890625,-0.18580155074596405,-1.2352111339569092,0.390850305557251
1775705930876459300,0.649459228515625,-0.1993354707956314,-1.1850690841674805,0.32280999422073364
1775705930886472200,0.65947216796875,-0.21646972000598907,-1.0648695230484009,0.22968432307243347
1775705930896485400,0.6694853515625,-0.2334122210741043,-0.9718269109725952,0.13013243675231934
1775705930906497300,0.679497314453125,-0.2328697293996811,-0.8944969177246094,0.07227472960948944
1775705930916510500,0.689510498046875,-0.25235769152641296,-0.813443660736084,0.04978246986865997
1775705930926523100,0.699523193359375,-0.2837981581687927,-0.6949958205223083,0.03810077905654907
1775705930936536300,0.709536376953125,-0.3084007203578949,-0.5696821212768555,0.03206312656402588
1775705930946549500,0.719549560546875,-0.28909599781036377,-0.5654934644699097,0.07749532163143158
1775705930956562200,0.729562255859375,-0.23838567733764648,-0.6771640777587891,0.1786712110042572
1775705930966575400,0.739575439453125,-0.18608704209327698,-0.8894867300987244,0.2844993770122528
1775705930976587300,0.749587158203125,-0.1520366668701172,-1.1006194353103638,0.39187324047088623
1775705930986600400,0.759600341796875,-0.13537301123142242,-1.227985143661499,0.5082605481147766
1775705930996613400,0.76961328125,-0.15451927483081818,-1.185023307800293,0.6275035738945007
1775705931006626300,0.779626220703125,-0.2012268453836441,-0.9292290806770325,0.7313530445098877
1775705931016639200,0.78963916015625,-0.2268078476190567,-0.686416745185852,0.8070368766784668
1775705931026652400,0.79965234375,-0.20490574836730957,-0.4877001643180847,0.8277323246002197
1775705931036664300,0.809664306640625,-0.18881572782993317,-0.3337121903896332,0.7870147228240967
1775705931046677200,0.81967724609375,-0.17697930335998535,-0.24431972205638885,0.6495122313499451
1775705931056690200,0.829690185546875,-0.15941362082958221,-0.08599799871444702,0.4498204290866852
1775705931066703400,0.839703369140625,-0.10954619944095612,0.09308706969022751,0.27756449580192566
1775705931076716500,0.849716552734375,0.016761137172579765,0.1858297884464264,0.1505277156829834
1775705931086728400,0.859728515625,0.13826972246170044,0.1385573446750641,0.04946928098797798
1775705931096740600,0.86974072265625,0.13110795617103577,-0.018069282174110413,-0.008072040975093842
1775705931106753500,0.87975341796875,0.040530916303396225,-0.20875214040279388,-0.02251116745173931
1775705931116766700,0.8897666015625,-0.022775620222091675,-0.24791260063648224,0.017544904723763466
1775705931126779600,0.899779541015625,-0.0104739461094141,-0.24426139891147614,0.09336403757333755
1775705931136792600,0.90979248046875,0.02634931541979313,-0.28008517622947693,0.15724821388721466
1775705931146805800,0.9198056640625,0.0641305148601532,-0.3336014151573181,0.20403090119361877
1775705931156817700,0.929817626953125,0.116111159324646,-0.43439406156539917,0.26085928082466125
1775705931166830800,0.939830810546875,0.17772339284420013,-0.5829933881759644,0.3491811752319336
1775705931176843500,0.949843505859375,0.21146297454833984,-0.7314614057540894,0.4425837993621826
1775705931186856700,0.959856689453125,0.14678677916526794,-0.7640351057052612,0.5419697761535645
1775705931196869600,0.96986962890625,0.03139946609735489,-0.6903017163276672,0.6112977266311646
1775705931206882800,0.9798828125,-0.03458940237760544,-0.5076602697372437,0.6396385431289673
1775705931216894700,0.989894775390625,-0.05283019319176674,-0.38596075773239136,0.6338539123535156
1775705931226907600,0.99990771484375,-0.09433076530694962,-0.4007903039455414,0.6355956196784973
1775705931236920600,1.009920654296875,-0.18428382277488708,-0.4828777015209198,0.6719405651092529
1775705931246933800,1.019933837890625,-0.25580301880836487,-0.5132350921630859,0.7100658416748047
1775705931256946700,1.02994677734375,-0.26503193378448486,-0.5850176811218262,0.723488450050354
1775705931266959600,1.039959716796875,-0.24358735978603363,-0.7055789828300476,0.728123664855957
1775705931276971500,1.049971435546875,-0.2570746839046478,-0.8007627129554749,0.7163256406784058
1775705931286984700,1.059984619140625,-0.24056893587112427,-0.8340804576873779,0.667678713798523
1775705931296997600,1.06999755859375,-0.21300095319747925,-0.7234761714935303,0.5554195642471313
1775705931307010600,1.080010498046875,-0.1900186687707901,-0.46786946058273315,0.39499631524086
1775705931317023700,1.090023681640625,-0.18834301829338074,-0.16544649004936218,0.20367935299873352
1775705931327036700,1.10003662109375,-0.18567559123039246,0.06603015214204788,0.03711514547467232
1775705931337048800,1.110048828125,-0.16311275959014893,0.25381869077682495,-0.08390342444181442
1775705931347061800,1.120061767578125,-0.12026195973157883,0.3405887484550476,-0.16808433830738068
1775705931357074700,1.13007470703125,-0.08203122019767761,0.32801195979118347,-0.22399155795574188
1775705931367087600,1.140087646484375,-0.07958510518074036,0.2468515932559967,-0.2502764165401459
1775705931377100800,1.150100830078125,-0.1371368169784546,0.18837150931358337,-0.2254142165184021
1775705931387113500,1.160113525390625,-0.21964794397354126,0.148481085896492,-0.145586758852005
1775705931397125600,1.170125732421875,-0.2764984369277954,0.007998804561793804,-0.005230714567005634
1775705931407138600,1.180138671875,-0.3251834213733673,-0.2319171279668808,0.1502731293439865
1775705931417151700,1.19015185546875,-0.3864925801753998,-0.42154058814048767,0.24866759777069092
1775705931427164700,1.20016455078125,-0.45913854241371155,-0.5385507941246033,0.27635782957077026
1775705931437177600,1.210177490234375,-0.5375542640686035,-0.5720211863517761,0.2951911687850952
1775705931447190800,1.220190673828125,-0.6051687598228455,-0.4467436671257019,0.3408025801181793
1775705931457202700,1.23020263671875,-0.6166267395019531,-0.21654269099235535,0.3692595362663269
1775705931467216000,1.2402158203125,-0.5796859860420227,-0.09706449508666992,0.3771781623363495
1775705931477228500,1.250228515625,-0.5767275094985962,-0.012502475641667843,0.34232646226882935
1775705931487241700,1.26024169921875,-0.5835002064704895,0.02456073649227619,0.23944135010242462
1775705931497254700,1.270254638671875,-0.49257293343544006,-0.06075602397322655,0.0818202942609787
1775705931507267800,1.280267822265625,-0.2797861099243164,-0.21198682487010956,-0.07521352916955948
1775705931517279700,1.29027978515625,-0.03418540209531784,-0.3670022487640381,-0.17250199615955353
1775705931527292700,1.300292724609375,0.13554531335830688,-0.42968878149986267,-0.19765369594097137
1775705931537305600,1.3103056640625,0.18472270667552948,-0.44659239053726196,-0.19097900390625
1775705931547318800,1.32031884765625,0.1154368445277214,-0.29974597692489624,-0.1646672487258911
1775705931557331500,1.33033154296875,0.006207828409969807,-0.0006487460341304541,-0.13326697051525116
1775705931567344600,1.3403447265625,-0.077387735247612,0.32526010274887085,-0.11300963908433914
1775705931577356500,1.3503564453125,-0.12845490872859955,0.5400874614715576,-0.0857764258980751
1775705931587369700,1.36036962890625,-0.14496757090091705,0.6223631501197815,-0.055217184126377106
1775705931597382700,1.370382568359375,-0.1280764788389206,0.5690432190895081,-0.08293323218822479
1775705931607395600,1.3803955078125,-0.11611568927764893,0.3987348675727844,-0.18133942782878876
1775705931617408800,1.39040869140625,-0.1198853924870491,0.3226741850376129,-0.3008325397968292
1775705931627421700,1.400421630859375,-0.12797421216964722,0.3199591040611267,-0.38141128420829773
1775705931637434600,1.4104345703125,-0.12474033236503601,0.33428505063056946,-0.4032430648803711
1775705931647446500,1.420446533203125,-0.09326416999101639,0.34542718529701233,-0.3952946066856384
1775705931657459700,1.430459716796875,-0.06016187369823456,0.37756645679473877,-0.36565467715263367
1775705931667472600,1.44047265625,-0.012478773482143879,0.4505749046802521,-0.3300634026527405
1775705931677485800,1.45048583984375,0.011809254996478558,0.5772082209587097,-0.24815760552883148
1775705931687498500,1.46049853515625,-0.018193384632468224,0.7289093136787415,-0.11705019325017929
1775705931697511700,1.47051171875,-0.08068498969078064,0.8003648519515991,0.022773755714297295
1775705931707523600,1.480523681640625,-0.12988156080245972,0.7745303511619568,0.18004779517650604
1775705931717536800,1.490536865234375,-0.15479730069637299,0.6147167086601257,0.3397751450538635
1775705931727549400,1.500549560546875,-0.17789089679718018,0.35415807366371155,0.44859111309051514
1775705931737562600,1.510562744140625,-0.19789177179336548,0.09891752898693085,0.5290537476539612
1775705931747575800,1.520575927734375,-0.23243378102779388,-0.03940173611044884,0.606843888759613
1775705931757588700,1.530588623046875,-0.28580406308174133,-0.08198487758636475,0.6607867479324341
1775705931767601000,1.540600830078125,-0.3448157012462616,-0.02712935581803322,0.6751350164413452
1775705931777613600,1.550613525390625,-0.3552664816379547,0.0706600546836853,0.6256359219551086
1775705931787626800,1.560626708984375,-0.3753539025783539,0.15110962092876434,0.5342663526535034
1775705931797639700,1.5706396484375,-0.4284115433692932,0.23446443676948547,0.44341471791267395
1775705931807652600,1.580652587890625,-0.4710705876350403,0.3294268846511841,0.35895097255706787
1775705931817665500,1.59066552734375,-0.4666222929954529,0.47790583968162537,0.25098374485969543
1775705931827677700,1.600677734375,-0.41695141792297363,0.5440664887428284,0.1261102706193924
1775705931837690600,1.610690673828125,-0.35566940903663635,0.5257425904273987,-0.008418784476816654
1775705931847703800,1.620703857421875,-0.3042360544204712,0.46053752303123474,-0.14498834311962128
1775705931857716500,1.630716552734375,-0.25729838013648987,0.37942108511924744,-0.23909114301204681
1775705931867729700,1.640729736328125,-0.20710231363773346,0.3235120177268982,-0.2861121892929077
1775705931877742800,1.650742919921875,-0.17901715636253357,0.2999803125858307,-0.3107946217060089
1775705931887754800,1.660754638671875,-0.18890707194805145,0.2780044674873352,-0.32379403710365295
1775705931897767400,1.670767333984375,-0.2192857414484024,0.28242531418800354,-0.3096763491630554
1775705931907780600,1.680780517578125,-0.22291617095470428,0.297039657831192,-0.25224024057388306
1775705931917793800,1.690793701171875,-0.19547149538993835,0.2852975130081177,-0.1601713001728058
1775705931927806700,1.700806640625,-0.16472317278385162,0.22824488580226898,-0.06828957796096802
1775705931937819600,1.710819580078125,-0.15977181494235992,0.14521364867687225,-0.004249872639775276
1775705931947831600,1.72083154296875,-0.1799817532300949,0.07897790521383286,0.03687679022550583
1775705931957844700,1.7308447265625,-0.18799732625484467,0.04177700728178024,0.03497795760631561
1775705931967857700,1.740857666015625,-0.17791514098644257,0.005690908990800381,0.005042961798608303
1775705931977870600,1.75087060546875,-0.15825222432613373,-0.018604043871164322,-0.026105104014277458
1775705931987883500,1.760883544921875,-0.1141047328710556,-0.05035797879099846,-0.060628991574048996
1775705931997896700,1.770896728515625,-0.051952946931123734,-0.06178267300128937,-0.09557712078094482
1775705932007908600,1.78090869140625,0.002727875951677561,-0.030703051015734673,-0.12966984510421753
1775705932017921800,1.790921875,0.04450994357466698,0.006615558639168739,-0.15702290832996368
1775705932027934500,1.8009345703125,0.07172292470932007,0.03721155226230621,-0.1774887591600418
1775705932037947600,1.81094775390625,0.08693835884332657,0.026918167248368263,-0.18355225026607513
1775705932047960800,1.8209609375,0.09700910747051239,-0.03630394488573074,-0.1705389767885208
1775705932057973500,1.830973388671875,0.10332772135734558,-0.12698671221733093,-0.12995214760303497
1775705932067986700,1.840986572265625,0.10826975107192993,-0.18791291117668152,-0.07650436460971832
1775705932077998600,1.85099853515625,0.11219631135463715,-0.17879743874073029,-0.03817348554730415
1775705932088011500,1.861011474609375,0.13272422552108765,-0.15775394439697266,-0.041962895542383194
1775705932098024400,1.8710244140625,0.16490931808948517,-0.15072612464427948,-0.06250492483377457
1775705932108037400,1.881037353515625,0.17658914625644684,-0.13457804918289185,-0.07820798456668854
1775705932118050300,1.89105029296875,0.1762450635433197,-0.11540382355451584,-0.08644434064626694
1775705932128063500,1.9010634765625,0.17716465890407562,-0.12459439039230347,-0.07375970482826233
1775705932138075400,1.911075439453125,0.16900792717933655,-0.16965721547603607,-0.04784581810235977
1775705932148088600,1.921088623046875,0.1551741361618042,-0.27203816175460815,-0.027893949300050735
1775705932158101200,1.931101318359375,0.14488820731639862,-0.33763450384140015,0.012338425032794476
1775705932168114400,1.941114501953125,0.14803260564804077,-0.32766175270080566,0.07402469217777252
1775705932178127600,1.951127685546875,0.16099607944488525,-0.2867361605167389,0.1311042308807373
1775705932188140300,1.961140380859375,0.17846640944480896,-0.236683651804924,0.16648857295513153
1775705932198152200,1.971152099609375,0.18170295655727386,-0.190454363822937,0.17821846902370453
1775705932208165400,1.981165283203125,0.15320312976837158,-0.1484355479478836,0.17628714442253113
1775705932218178600,1.991178466796875,0.11569277942180634,-0.1103089302778244,0.1655956208705902
1775705932228191500,2.00119140625,0.09820486605167389,-0.10588248819112778,0.15556243062019348
1775705932238204400,2.011204345703125,0.10989214479923248,-0.16705024242401123,0.17938654124736786
1775705932248217300,2.02121728515625,0.1510757952928543,-0.2837512791156769,0.23888474702835083
1775705932258229500,2.0312294921875,0.2079516053199768,-0.37892600893974304,0.3138415515422821
1775705932268242400,2.041242431640625,0.26082760095596313,-0.40717628598213196,0.3652235269546509
1775705932278255400,2.05125537109375,0.30184826254844666,-0.39253050088882446,0.36515745520591736
1775705932288268300,2.061268310546875,0.3217058479785919,-0.326697438955307,0.3314990997314453
1775705932298281500,2.071281494140625,0.33471885323524475,-0.2640468180179596,0.2895205020904541
1775705932308294400,2.08129443359375,0.3253040611743927,-0.17570658028125763,0.25249990820884705
1775705932318306600,2.091306640625,0.302829384803772,-0.08016061782836914,0.21558554470539093
1775705932328319200,2.1013193359375,0.2984450161457062,-0.07726016640663147,0.17584745585918427
1775705932338332400,2.11133251953125,0.31878864765167236,-0.15709401667118073,0.14674869179725647
1775705932348345600,2.121345703125,0.34439361095428467,-0.26015275716781616,0.13480176031589508
1775705932358358300,2.131358154296875,0.3538627326488495,-0.3732207119464874,0.15118712186813354
1775705932368371500,2.141371337890625,0.3609880208969116,-0.48049336671829224,0.15725965797901154
1775705932378384400,2.15138427734375,0.3472253382205963,-0.5367087125778198,0.11560995131731033
1775705932388396500,2.161396484375,0.29648545384407043,-0.47725602984428406,0.02618446573615074
1775705932398409500,2.171409423828125,0.2118922770023346,-0.29393094778060913,-0.10531044006347656
1775705932408422400,2.18142236328125,0.11092039197683334,-0.0350077860057354,-0.26239487528800964
1775705932418435300,2.191435302734375,0.04485029727220535,0.13021712005138397,-0.38162511587142944
1775705932428448500,2.201448486328125,0.026547720655798912,0.1766219139099121,-0.41861748695373535
1775705932438461200,2.211461181640625,0.0027305390685796738,0.13385847210884094,-0.3709027171134949
1775705932448473300,2.221473388671875,-0.012539760209619999,0.030475616455078125,-0.27296388149261475
1775705932458486300,2.231486328125,-0.01296187099069357,-0.08261685073375702,-0.144337996840477
1775705932468499500,2.24149951171875,-0.016517722979187965,-0.16361822187900543,-0.03063727170228958
1775705932478512600,2.2515126953125,-0.02791685238480568,-0.24376818537712097,0.0444771870970726
1775705932488525300,2.261525390625,-0.0400313064455986,-0.29928338527679443,0.07744579017162323
1775705932498538500,2.27153857421875,-0.0546877458691597,-0.31504395604133606,0.08706992119550705
1775705932508550400,2.28155029296875,-0.044497694820165634,-0.2792883515357971,0.0973939299583435
1775705932518563600,2.2915634765625,-0.02394235134124756,-0.22844728827476501,0.11732263118028641
1775705932528576300,2.301576171875,-0.008558334782719612,-0.18402843177318573,0.14182397723197937
1775705932538589400,2.31158935546875,0.017235711216926575,-0.19083653390407562,0.15942853689193726
1775705932548602400,2.321602294921875,0.04571715369820595,-0.21646572649478912,0.17761287093162537
1775705932558615600,2.331615478515625,0.0667707771062851,-0.2377861887216568,0.1923324316740036
1775705932568627500,2.34162744140625,0.09670763462781906,-0.2728094160556793,0.20079275965690613
1775705932578640400,2.351640380859375,0.1160656213760376,-0.2807680070400238,0.19544433057308197
1775705932588653300,2.3616533203125,0.10614880919456482,-0.2629658579826355,0.15479649603366852
1775705932598666500,2.37166650390625,0.08880230784416199,-0.22751066088676453,0.08821534365415573
1775705932608679200,2.38167919921875,0.09589456766843796,-0.15211230516433716,0.03615933656692505
1775705932618692400,2.3916923828125,0.10112182050943375,-0.04560237377882004,0.010971158742904663
1775705932628705500,2.40170556640625,0.09447403997182846,0.044500887393951416,-0.012622584588825703
1775705932638717400,2.411717529296875,0.08028791099786758,0.08568507432937622,-0.04783303663134575
1775705932648730600,2.421730712890625,0.07547637820243835,0.06392944604158401,-0.07374745607376099
1775705932658743300,2.431743408203125,0.06218081712722778,0.03494147211313248,-0.07846444845199585
1775705932668756500,2.441756591796875,0.044801026582717896,0.03389777988195419,-0.07650995254516602
1775705932678769400,2.451769287109375,0.04333043098449707,0.029336050152778625,-0.07297993451356888
1775705932688782300,2.4617822265625,0.06433264911174774,0.015451394021511078,-0.06332597881555557
1775705932698794200,2.471794189453125,0.09732495248317719,0.02041020058095455,-0.04171362519264221
1775705932708807400,2.481807373046875,0.11156461387872696,0.026553314179182053,-0.022888004779815674
1775705932718820400,2.4918203125,0.1197061613202095,0.05500652641057968,-0.005798500496894121
1775705932728833500,2.50183349609375,0.13257668912410736,0.05625847727060318,0.01555126253515482
1775705932738846200,2.51184619140625,0.1431875228881836,0.06824110448360443,0.04339700937271118
1775705932748859400,2.521859375,0.14342187345027924,0.07220202684402466,0.05808141082525253
1775705932758871300,2.531871337890625,0.12027581036090851,0.09627620130777359,0.04932600259780884
1775705932768884500,2.541884521484375,0.08439157903194427,0.15565191209316254,0.03458061441779137
1775705932778897400,2.5518974609375,0.061534468084573746,0.17580245435237885,0.024526914581656456
1775705932788910300,2.561910400390625,0.057438258081674576,0.15096767246723175,0.031436484307050705
1775705932798923500,2.571923583984375,0.0667707771062851,0.1076875776052475,0.04277942329645157
1775705932808936400,2.5819365234375,0.07705297321081161,0.04252615571022034,0.0408097468316555
1775705932818949400,2.591949462890625,0.07120147347450256,0.03291746973991394,0.013006346300244331
1775705932828961300,2.601961181640625,0.04428597167134285,0.07636294513940811,-0.024408137425780296
1775705932838974500,2.611974365234375,0.015453791245818138,0.1360427886247635,-0.04356957972049713
1775705932848987400,2.6219873046875,-0.019627230241894722,0.1827373206615448,-0.03297579288482666
1775705932859000300,2.632000244140625,-0.06233314797282219,0.19461768865585327,-0.00771704176440835
1775705932869013200,2.64201318359375,-0.10141929984092712,0.15425428748130798,0.022057099267840385
1775705932879026400,2.6520263671875,-0.12387427687644958,0.09106732904911041,0.04637682065367699
1775705932889038300,2.662038330078125,-0.14624376595020294,0.040523190051317215,0.06180823966860771
1775705932899051500,2.672051513671875,-0.18774700164794922,-0.014594655483961105,0.051543086767196655
1775705932909064200,2.682064208984375,-0.2290012240409851,-0.08066155761480331,-0.000824248360004276
1775705932919077400,2.692077392578125,-0.24795468151569366,-0.015677230432629585,-0.08076728135347366
1775705932929090600,2.702090576171875,-0.24741964042186737,0.1006443202495575,-0.13896507024765015
1775705932939103500,2.712103515625,-0.24583639204502106,0.16382542252540588,-0.14891864359378815
1775705932949115400,2.722115478515625,-0.2584216892719269,0.18902264535427094,-0.13920076191425323
1775705932959128300,2.73212841796875,-0.2678908407688141,0.22583739459514618,-0.14137816429138184
1775705932969141500,2.7421416015625,-0.2675531506538391,0.2639687955379486,-0.13607580959796906
1775705932979154400,2.752154541015625,-0.25338566303253174,0.2693585157394409,-0.11116939783096313
1775705932989167400,2.76216748046875,-0.22500728070735931,0.2421836107969284,-0.07704924792051315
1775705932999180300,2.77218017578125,-0.16721296310424805,0.20862138271331787,-0.03355636075139046
1775705933009193500,2.782193359375,-0.10784923285245895,0.19261978566646576,0.014123275876045227
1775705933019205400,2.792205322265625,-0.06393317878246307,0.171737939119339,0.05247732251882553
1775705933029218600,2.802218505859375,-0.03350229933857918,0.12873508036136627,0.08400408923625946
1775705933039231200,2.812231201171875,-0.021154021844267845,0.09656329452991486,0.1148429587483406
1775705933049244400,2.822244384765625,-0.02887825295329094,0.07829587161540985,0.1317782700061798
1775705933059257600,2.832257568359375,-0.033900707960128784,0.032893769443035126,0.13480974733829498
1775705933069270300,2.842270263671875,-0.03995061293244362,-0.026403112336993217,0.13630537688732147
1775705933079282400,2.852282470703125,-0.05198996514081955,-0.04310432821512222,0.12336960434913635
1775705933089296000,2.8622958984375,-0.04620770737528801,-0.0423719584941864,0.1046140268445015
1775705933099308800,2.872308837890625,-0.030402913689613342,-0.008134625852108002,0.09645463526248932
1775705933109321700,2.88232177734375,-0.02124403603374958,0.017371000722050667,0.10071409493684769
1775705933119334700,2.892334716796875,-0.008537028916180134,0.026972495019435883,0.10285474359989166
1775705933129347800,2.902347900390625,0.021879466250538826,0.005903162993490696,0.10277165472507477
1775705933139359700,2.91235986328125,0.04165876284241676,-0.030289195477962494,0.10721540451049805
1775705933149373000,2.922373046875,0.03496384248137474,-0.044496096670627594,0.10239215195178986
1775705933159385600,2.932385498046875,0.019599001854658127,-0.0442819781601429,0.07746709138154984
1775705933169398800,2.942398681640625,0.013440441340208054,-0.021027786657214165,0.04114051163196564
1775705933179412000,2.952411865234375,0.02040034718811512,-0.01449984684586525,0.011071027256548405
1775705933189424600,2.962424560546875,0.03576252609491348,-0.005452556069940329,0.0024916534312069416
1775705933199437800,2.972437744140625,0.02960795909166336,0.00041438787593506277,0.002700445242226124
1775705933209449700,2.98244970703125,0.014727280475199223,0.0067748152650892735,-0.0006346312584355474
1775705933219463000,2.992462890625,0.010794324800372124,0.012407400645315647,-0.01068007480353117
1775705933229475800,3.002475830078125,0.000770452490542084,0.05090365931391716,-0.02701324224472046
1775705933239488800,3.01248876953125,-0.012249208986759186,0.0910462886095047,-0.04665538668632507
1775705933249501700,3.022501708984375,-0.02057638205587864,0.09919209778308868,-0.0654359981417656
1775705933259515000,3.032514892578125,-0.027228424325585365,0.07098682224750519,-0.06530497223138809
1775705933269526800,3.04252685546875,-0.029561087489128113,0.023435018956661224,-0.05020351707935333
1775705933279539700,3.052539794921875,-0.023931965231895447,-0.007226221263408661,-0.02883084863424301
1775705933289552600,3.062552734375,-0.015789082273840904,-0.008238222450017929,-0.02243846282362938
1775705933299565800,3.07256591796875,-0.011345332488417625,-0.00016218650853261352,-0.03663763776421547
1775705933309579000,3.0825791015625,-0.007216101046651602,0.019392339512705803,-0.06094351038336754
1775705933319591700,3.092591796875,-0.0133850472047925,0.05115000158548355,-0.08021175116300583
1775705933329604900,3.10260498046875,-0.027344273403286934,0.07230668514966965,-0.10041262209415436
1775705933339616800,3.11261669921875,-0.028859877958893776,0.08494950830936432,-0.11214704066514969
1775705933349630000,3.1226298828125,-0.02039502002298832,0.10751820355653763,-0.11188045889139175
1775705933359642600,3.132642578125,0.0011137339752167463,0.10938481241464615,-0.10369523614645004
1775705933369655800,3.14265576171875,0.0297914519906044,0.07790571451187134,-0.08139818906784058
1775705933379668700,3.152668701171875,0.039688024669885635,0.03642591834068298,-0.05703026428818703
1775705933389682000,3.162681884765625,0.026444390416145325,0.01636911928653717,-0.047139283269643784
1775705933399693800,3.17269384765625,0.012711001560091972,0.00923397857695818,-0.0541098415851593
1775705933409706800,3.182706787109375,0.00455693481490016,-0.0018881811993196607,-0.07123156636953354
1775705933419719700,3.1927197265625,0.0065018413588404655,0.0065588331781327724,-0.07944289594888687
1775705933429732900,3.20273291015625,0.014446317218244076,0.030492927879095078,-0.07049094140529633
1775705933439745800,3.212745849609375,0.03208549693226814,0.06895004212856293,-0.04469956085085869
1775705933449758700,3.2227587890625,0.04339247941970825,0.09950634837150574,-0.005976399872452021
1775705933459772000,3.23277197265625,0.04187021777033806,0.09761790186166763,0.028184765949845314
1775705933469783800,3.24278369140625,0.03832102194428444,0.07161959260702133,0.057905908674001694
1775705933479797000,3.252796875,0.03746854513883591,0.01836036518216133,0.07598264515399933
1775705933489809700,3.2628095703125,0.03627864643931389,-0.02478737197816372,0.07126645743846893
1775705933499822800,3.27282275390625,0.01519786100834608,-0.07063288986682892,0.044073451310396194
1775705933509835800,3.282835693359375,-0.01064864918589592,-0.09400612115859985,0.0035483958199620247
1775705933519848700,3.2928486328125,-0.03290309011936188,-0.08696871995925903,-0.03591325879096985
1775705933529860600,3.302860595703125,-0.044984251260757446,-0.059540290385484695,-0.06510923057794571
1775705933539873800,3.312873779296875,-0.04511554539203644,-0.04024941846728325,-0.07300496846437454
1775705933549886700,3.32288671875,-0.03257125988602638,-0.02389041893184185,-0.06576250493526459
1775705933559900000,3.33289990234375,-0.003192064817994833,-0.0007582019316032529,-0.05227731913328171
1775705933569912600,3.34291259765625,0.033784061670303345,0.029149362817406654,-0.04418263956904411
1775705933579925800,3.35292578125,0.04537120833992958,0.04845328629016876,-0.04391445964574814
1775705933589939000,3.36293896484375,0.0464567132294178,0.03483148291707039,-0.039435289800167084
1775705933599950800,3.372950927734375,0.03894473612308502,0.007453655358403921,-0.0285248514264822
1775705933609963800,3.3829638671875,0.039566319435834885,-0.03634975105524063,-0.01883334293961525
1775705933619976700,3.392976806640625,0.03879772871732712,-0.08352551609277725,-0.008435030467808247
1775705933629990000,3.402989990234375,0.032468993216753006,-0.10428699105978012,0.004979046061635017
1775705933640002800,3.4130029296875,0.04008190706372261,-0.11360964924097061,0.005908755585551262
1775705933650015700,3.423015625,0.06978627294301987,-0.10379590094089508,0.004609665367752314
1775705933660027600,3.433027587890625,0.11457104980945587,-0.08434843271970749,0.007794273551553488
1775705933670040800,3.443040771484375,0.15502554178237915,-0.0919530913233757,0.014910506084561348
1775705933680053800,3.4530537109375,0.17116056382656097,-0.10937602818012238,0.01830337382853031
1775705933690066700,3.463066650390625,0.180014505982399,-0.1105336993932724,0.010481669567525387
1775705933700079600,3.47307958984375,0.1748327910900116,-0.09225323051214218,-0.007607852108776569
1775705933710092800,3.4830927734375,0.14190040528774261,-0.06889278441667557,-0.03211665898561478
1775705933720106000,3.49310595703125,0.09748474508523941,-0.034988876432180405,-0.05666860565543175
1775705933730118000,3.503117919921875,0.050214435905218124,-0.003335342975333333,-0.08012865483760834
1775705933740130800,3.513130859375,0.013433250598609447,-0.007080812472850084,-0.09959050267934799
1775705933750143700,3.523143798828125,-0.00017070861940737814,-0.028731247410178185,-0.08718177676200867
1775705933760157000,3.533156982421875,-0.010873686522245407,-0.058276887983083725,-0.05698525533080101
1775705933770169900,3.543169921875,-0.02317642606794834,-0.06046600639820099,-0.03819159418344498
1775705933780182800,3.553182861328125,-0.055440355092287064,-0.03687279671430588,-0.0495329312980175
1775705933790195700,3.56319580078125,-0.09166041016578674,-0.045643918216228485,-0.0950426235795021
1775705933800208000,3.573207763671875,-0.11484376341104507,-0.07347714900970459,-0.13830222189426422
1775705933810220800,3.583220703125,-0.12028034031391144,-0.07713979482650757,-0.17343969643115997
1775705933820233700,3.593233642578125,-0.11854848265647888,-0.07097697257995605,-0.19176410138607025
1775705933830246700,3.60324658203125,-0.11500941216945648,-0.05341315641999245,-0.20635423064231873
1775705933840259800,3.613259765625,-0.11122719198465347,-0.025561019778251648,-0.22825661301612854
1775705933850272800,3.623272705078125,-0.11384613811969757,0.011411645449697971,-0.24737410247325897
1775705933860285000,3.633284912109375,-0.10486462712287903,0.026701917871832848,-0.2506849467754364
1775705933870297600,3.643297607421875,-0.09562160074710846,0.02117479406297207,-0.23430225253105164
1775705933880310800,3.653310791015625,-0.0882054939866066,0.013613812625408173,-0.2005578726530075
1775705933890324000,3.663323974609375,-0.07688972353935242,-0.01685221679508686,-0.1468738615512848
1775705933900336600,3.673336669921875,-0.07237645983695984,-0.04585590586066246,-0.07553870230913162
1775705933910349800,3.683349853515625,-0.08242243528366089,-0.06368576735258102,-0.0238182470202446
1775705933920362800,3.69336279296875,-0.09311023354530334,-0.0401998832821846,-0.017356352880597115
1775705933930375000,3.703375,-0.10059904307126999,0.009503756649792194,-0.0544496588408947
1775705933940387800,3.713387939453125,-0.11035154014825821,0.08394256979227066,-0.10801567882299423
1775705933950400800,3.72340087890625,-0.09916067123413086,0.15635764598846436,-0.14317527413368225
1775705933960413700,3.73341357421875,-0.032575786113739014,0.17919771373271942,-0.11272228509187698
1775705933970427000,3.743427001953125,0.058026283979415894,0.0560920313000679,-0.04513125866651535
1775705933980439800,3.753439697265625,0.1292749047279358,-0.09930368512868881,-0.012367453426122665
1775705933990451700,3.76345166015625,0.15450595319271088,-0.14577451348304749,-0.03714204207062721
1775705934000464600,3.773464599609375,0.1349482238292694,-0.026518160477280617,-0.13038863241672516
1775705934010477800,3.783477783203125,0.08415349572896957,0.18008720874786377,-0.2555188536643982
1775705934020491000,3.793490966796875,-0.010865696705877781,0.4530540406703949,-0.3568052649497986
1775705934030503700,3.803503662109375,-0.12346787750720978,0.7137311697006226,-0.42280372977256775
1775705934040516900,3.813516845703125,-0.2364647388458252,0.8587471842765808,-0.4472920298576355
1775705934050529800,3.82352978515625,-0.30685579776763916,0.8491553068161011,-0.39102208614349365
1775705934060542000,3.8335419921875,-0.3211018443107605,0.70234215259552,-0.23990048468112946
1775705934070554600,3.8435546875,-0.3055250346660614,0.46189120411872864,-0.021215006709098816
1775705934080567800,3.85356787109375,-0.28026333451271057,0.12931963801383972,0.182458758354187
1775705934090581200,3.863581298828125,-0.24994246661663055,-0.14419445395469666,0.3347601592540741
1775705934100594000,3.873593994140625,-0.21324783563613892,-0.2335166186094284,0.4122503995895386
1775705934110607000,3.883607177734375,-0.19318969547748566,-0.24969477951526642,0.4295404553413391
1775705934120620000,3.8936201171875,-0.19413432478904724,-0.1976473033428192,0.38961461186408997
1775705934130632200,3.903632080078125,-0.19846995174884796,-0.09467697143554688,0.2938268184661865
1775705934140645000,3.91364501953125,-0.23950925469398499,0.04698854684829712,0.16614289581775665
1775705934150658000,3.923657958984375,-0.3199492394924164,0.2012558877468109,0.037037644535303116
1775705934160671000,3.9336708984375,-0.395108699798584,0.3229309022426605,-0.04650678113102913
1775705934170684200,3.94368408203125,-0.4344329535961151,0.40442419052124023,-0.0694752112030983
1775705934180697000,3.953697021484375,-0.44326159358024597,0.4455742835998535,-0.026096848770976067
1775705934190710000,3.9637099609375,-0.4430117905139923,0.3588806688785553,0.087467260658741
1775705934200722000,3.973721923828125,-0.4431374967098236,0.1855805218219757,0.2305506467819214
1775705934210735000,3.983735107421875,-0.44267621636390686,0.011632154695689678,0.34687885642051697
1775705934220748300,3.993748291015625,-0.42477020621299744,-0.09052830189466476,0.41940394043922424
1775705934230761000,4.003760986328125,-0.37339329719543457,-0.07731316238641739,0.43906497955322266
1775705934240774100,4.013774169921875,-0.27256283164024353,-0.018792062997817993,0.3895943760871887
1775705934250787000,4.023787109375,-0.17266099154949188,0.03257205709815025,0.28559553623199463
1775705934260799200,4.03379931640625,-0.09229504317045212,0.07895313948392868,0.17035841941833496
1775705934270812200,4.043812255859375,-0.027655329555273056,0.15424469113349915,0.06600511819124222
1775705934280825000,4.0538251953125,0.005074919667094946,0.28360775113105774,-0.007938350550830364
1775705934290838000,4.063838134765625,0.004649613052606583,0.39140692353248596,-0.03256699815392494
1775705934300851200,4.073851318359375,-0.0059907808899879456,0.4355565309524536,-0.004263454582542181
1775705934310864000,4.08386376953125,-0.01599894091486931,0.42425432801246643,0.057443853467702866
1775705934320877000,4.093876953125,-0.05236626788973808,0.35813310742378235,0.1456373631954193
1775705934330889000,4.103888916015625,-0.09875374287366867,0.26368969678878784,0.24069836735725403
1775705934340902100,4.113902099609375,-0.14308631420135498,0.10734323412179947,0.31399041414260864
1775705934350915000,4.1239150390625,-0.18239536881446838,-0.10001581162214279,0.35300493240356445
1775705934360928000,4.133927978515625,-0.23256640136241913,-0.29693499207496643,0.3738822340965271
1775705934370941200,4.143941162109375,-0.27380916476249695,-0.3694145381450653,0.34358692169189453
1775705934380954000,4.1539541015625,-0.29830706119537354,-0.32726946473121643,0.24871979653835297
1775705934390967000,4.163967041015625,-0.3188815712928772,-0.19253748655319214,0.1474831998348236
1775705934400979000,4.17397900390625,-0.31566715240478516,-0.018195515498518944,0.060206882655620575
1775705934410992000,4.1839921875,-0.2842447757720947,0.179021418094635,-0.017192302271723747
1775705934421005000,4.194005126953125,-0.24091807007789612,0.34366893768310547,-0.07938190549612045
1775705934431018200,4.204018310546875,-0.19712398946285248,0.4053514897823334,-0.11827684193849564
1775705934441031000,4.214031005859375,-0.16542358696460724,0.36001864075660706,-0.13662388920783997
1775705934451044000,4.224044189453125,-0.16267919540405273,0.21412160992622375,-0.15239833295345306
1775705934461056000,4.234055908203125,-0.15669214725494385,0.048238903284072876,-0.13594478368759155
1775705934471069200,4.244069091796875,-0.13822685182094574,-0.048822399228811264,-0.09129396080970764
1775705934481081900,4.254081787109375,-0.15067526698112488,-0.09827383607625961,-0.047875646501779556
1775705934491095000,4.264094970703125,-0.2062748670578003,-0.14720302820205688,-0.04374641552567482
1775705934501108200,4.274108154296875,-0.24649712443351746,-0.11368368566036224,-0.028798624873161316
1775705934511121200,4.28412109375,-0.2498396635055542,-0.007727161981165409,-0.0016077503096312284
1775705934521134000,4.294134033203125,-0.21009571850299835,0.19589626789093018,-0.0076187714003026485
1775705934531146000,4.30414599609375,-0.1368425339460373,0.35580524802207947,-0.03996206447482109
1775705934541159200,4.3141591796875,-0.05692480131983757,0.4489913880825043,-0.05854746699333191
1775705934551172000,4.324172119140625,0.02978932112455368,0.4910661280155182,-0.037088245153427124
1775705934561185000,4.33418505859375,0.09087637811899185,0.43788573145866394,0.026798058301210403
1775705934571198000,4.344197998046875,0.0650000348687172,0.26015356183052063,0.10212690383195877
1775705934581211100,4.354211181640625,-0.0040914141573011875,0.04075329005718231,0.12572677433490753
1775705934591224300,4.364224365234375,-0.06545411050319672,-0.08741133660078049,0.10735122114419937
1775705934601236200,4.374236328125,-0.08343897014856339,-0.12561838328838348,0.08448878675699234
1775705934611249000,4.384248779296875,-0.09050992876291275,-0.10920584946870804,0.05865399166941643
1775705934621262000,4.394261962890625,-0.09041431546211243,-0.05499454215168953,0.018066618591547012
1775705934631275300,4.404275146484375,-0.07652433216571808,0.02640497498214245,-0.014268950559198856
1775705934641288000,4.414287841796875,-0.029807696118950844,0.2380131036043167,-0.008480303920805454
1775705934651301000,4.424301025390625,0.03854925557971001,0.4018246531486511,0.008758071810007095
1775705934661314000,4.43431396484375,0.10103527456521988,0.4411022961139679,0.05314258113503456
1775705934671326200,4.444326171875,0.13120116293430328,0.332604318857193,0.10620126873254776
1775705934681339100,4.454339111328125,0.12350089848041534,0.18413308262825012,0.1556987762451172
1775705934691352000,4.46435205078125,0.0864667147397995,0.06559205800294876,0.20669539272785187
1775705934701365000,4.474364990234375,0.057669155299663544,-0.049614690244197845,0.23832282423973083
1775705934711378200,4.484378173828125,0.03471989557147026,-0.15533632040023804,0.2789517343044281
1775705934721390800,4.494390869140625,0.016688166186213493,-0.28625041246414185,0.3096199035644531
1775705934731404000,4.504404052734375,-0.014533136039972305,-0.2549726366996765,0.3206437826156616
1775705934741416000,4.514416015625,-0.05943270027637482,-0.11502299457788467,0.31333127617836
1775705934751429000,4.52442919921875,-0.08348584175109863,0.08066501468420029,0.23799578845500946
1775705934761442300,4.5344423828125,-0.09571746736764908,0.19630160927772522,0.10454238951206207
1775705934771455000,4.544455078125,-0.12397760152816772,0.20267587900161743,-0.023859793320298195
1775705934781468200,4.55446826171875,-0.16754186153411865,0.14471058547496796,-0.10985299944877625
1775705934791481000,4.564481201171875,-0.22494682669639587,0.0776447281241417,-0.13975177705287933
1775705934801494000,4.574493896484375,-0.2889077067375183,0.10985779017210007,-0.16333726048469543
1775705934811506000,4.584505859375,-0.3266971707344055,0.20310251414775848,-0.20173391699790955
1775705934821519000,4.59451904296875,-0.333462119102478,0.3507513701915741,-0.2686309218406677
1775705934831532000,4.604531982421875,-0.34329983592033386,0.5577412843704224,-0.38765478134155273
1775705934841545200,4.614545166015625,-0.342166930437088,0.699430525302887,-0.515019416809082
1775705934851558000,4.624557861328125,-0.31984591484069824,0.6692624688148499,-0.6048063039779663
1775705934861571000,4.634571044921875,-0.311420202255249,0.49159103631973267,-0.6328456401824951
1775705934871584300,4.644584228515625,-0.33931708335876465,0.36884620785713196,-0.6856446862220764
1775705934881596200,4.65459619140625,-0.38663214445114136,0.43108001351356506,-0.720127522945404
1775705934891609000,4.664609130859375,-0.41278889775276184,0.503597617149353,-0.6527101397514343
1775705934901622000,4.6746220703125,-0.4128648042678833,0.4816017746925354,-0.49028927087783813
1775705934911635200,4.68463525390625,-0.3575320243835449,0.32150718569755554,-0.3205503225326538
1775705934921648000,4.694648193359375,-0.2835606038570404,0.0954868420958519,-0.22375985980033875
1775705934931661000,4.7046611328125,-0.21820662915706635,-0.10570219159126282,-0.19221605360507965
1775705934941673000,4.7146728515625,-0.13186456263065338,-0.252691388130188,-0.19251112639904022
1775705934951686100,4.72468603515625,-0.037816088646650314,-0.2987526059150696,-0.16137796640396118
1775705934961699000,4.734698974609375,0.033300697803497314,-0.18493735790252686,-0.09726236760616302
1775705934971712000,4.7447119140625,0.0751408264040947,0.002787530655041337,0.05404485762119293
1775705934981725000,4.754724853515625,0.08375242352485657,0.15372058749198914,0.3374456763267517
1775705934991738000,4.764738037109375,0.09199091047048569,0.17820382118225098,0.6751118898391724
1775705935001751300,4.774751220703125,0.11745685338973999,0.01684609241783619,0.939338743686676
1775705935011763200,4.78476318359375,0.1225149929523468,-0.3674539029598236,1.039031982421875
1775705935021776000,4.79477587890625,0.11216994374990463,-0.8240688443183899,0.9182180166244507
1775705935031789000,4.8047890625,0.1033969596028328,-1.1078557968139648,0.6626636981964111
1775705935041802200,4.81480224609375,0.1341535449028015,-1.138543725013733,0.3596537709236145
1775705935051815000,4.82481494140625,0.21557436883449554,-0.7971288561820984,0.07808814197778702
1775705935061828000,4.834828125,0.32076096534729004,-0.3521742820739746,-0.03947124257683754
1775705935071841000,4.844841064453125,0.42523065209388733,-0.03422375023365021,-0.006428338121622801
1775705935081853200,4.854853271484375,0.5195020437240601,0.041552238166332245,0.10007254034280777
1775705935091865900,4.864865966796875,0.5757570266723633,-0.09610096365213394,0.2088637351989746
1775705935101878800,4.874878662109375,0.6120801568031311,-0.45393872261047363,0.28209587931632996
1775705935111891700,4.8848916015625,0.5781123638153076,-0.8286846280097961,0.31702643632888794
1775705935121905000,4.89490478515625,0.4514753222465515,-1.0173019170761108,0.29097166657447815
1775705935131917800,4.904917724609375,0.3210781514644623,-1.0056003332138062,0.19954879581928253
1775705935141930800,4.9149306640625,0.2506266236305237,-0.8246776461601257,0.07681195437908173
1775705935151942700,4.924942626953125,0.22815221548080444,-0.5353955030441284,-0.024817198514938354
1775705935161955800,4.934955810546875,0.24502626061439514,-0.3124993145465851,-0.060140568763017654
1775705935171968800,4.94496875,0.30463579297065735,-0.23762160539627075,-0.03954474627971649
1775705935181981700,4.954981689453125,0.38715118169784546,-0.25246739387512207,0.025217205286026
1775705935191994600,4.96499462890625,0.47506797313690186,-0.35519590973854065,0.14200666546821594
1775705935202007800,4.9750078125,0.5047609210014343,-0.4698029160499573,0.28954818844795227
1775705935212021000,4.98502099609375,0.48538002371788025,-0.5787741541862488,0.4330153465270996
1775705935222033000,4.995032958984375,0.43616214394569397,-0.6286375522613525,0.5285218954086304
1775705935232045800,5.0050458984375,0.38792482018470764,-0.5830802321434021,0.5526091456413269
1775705935242058800,5.015058837890625,0.34376004338264465,-0.4660627841949463,0.47602540254592896
1775705935252072000,5.025072021484375,0.32661673426628113,-0.34390199184417725,0.31168198585510254
1775705935262084600,5.035084716796875,0.3761773705482483,-0.2291916459798813,0.14512097835540771
1775705935272097800,5.045097900390625,0.4366990327835083,-0.1590447723865509,0.04297356680035591
1775705935282110700,5.05511083984375,0.4357847571372986,-0.18260230123996735,0.019637349992990494
1775705935292123000,5.065122802734375,0.40286463499069214,-0.22107459604740143,0.054849132895469666
1775705935302135800,5.0751357421875,0.34781283140182495,-0.2791930139064789,0.0895509198307991
1775705935312148700,5.085148681640625,0.27691787481307983,-0.35368162393569946,0.1355501115322113
1775705935322161700,5.09516162109375,0.21399511396884918,-0.39797401428222656,0.18274904787540436
1775705935332174800,5.1051748046875,0.19637510180473328,-0.35521483421325684,0.23964855074882507
1775705935342187800,5.115187744140625,0.1601174920797348,-0.2862914204597473,0.32529473304748535
1775705935352200700,5.12520068359375,0.0679047480225563,-0.2734118402004242,0.365261048078537
1775705935362212900,5.135212890625,-0.03647784888744354,-0.2444038838148117,0.31920063495635986
1775705935372225800,5.145225830078125,-0.11358435451984406,-0.19484858214855194,0.213093101978302
1775705935382239000,5.155239013671875,-0.1385677307844162,-0.1370587795972824,0.034874361008405685
1775705935392251600,5.165251708984375,-0.09292887151241302,-0.04534883797168732,-0.18461725115776062
1775705935402264800,5.175264892578125,0.013798902742564678,0.02979358099400997,-0.37192854285240173
1775705935412277800,5.18527783203125,0.08594979345798492,0.09472810477018356,-0.4738277494907379
1775705935422290700,5.195290771484375,0.0923997014760971,0.17403091490268707,-0.49445873498916626
1775705935432302600,5.205302490234375,0.0843348577618599,0.26651903986930847,-0.4597603976726532
1775705935442315800,5.215315673828125,0.09210356324911118,0.33567094802856445,-0.3956378698348999
1775705935452328700,5.22532861328125,0.09219757467508316,0.38861405849456787,-0.3349401652812958
1775705935462342000,5.235341796875,0.07672646641731262,0.3996632397174835,-0.2931341528892517
1775705935472354800,5.245354736328125,0.029221801087260246,0.3736726641654968,-0.26020416617393494
1775705935482367700,5.25536767578125,-0.006412625312805176,0.3407812714576721,-0.24626091122627258
1775705935492381000,5.265380859375,0.036791302263736725,0.24901780486106873,-0.2153698354959488
1775705935502392800,5.275392822265625,0.1421227902173996,0.11064795404672623,-0.1648121178150177
1775705935512405800,5.28540576171875,0.2321498841047287,0.028560804203152657,-0.11451459676027298
1775705935522418700,5.295418701171875,0.27481505274772644,0.04307210445404053,-0.10027600079774857
1775705935532432000,5.305431884765625,0.2592390179634094,0.14783553779125214,-0.07670330256223679
1775705935542444800,5.31544482421875,0.21502842009067535,0.284563273191452,-0.04151708260178566
1775705935552457700,5.325457763671875,0.16944175958633423,0.3574303090572357,-0.0246086735278368
1775705935562470700,5.335470703125,0.11358621716499329,0.3703101575374603,-0.03479659557342529
1775705935572482800,5.34548291015625,0.05474367365241051,0.3529338240623474,-0.06784696131944656
1775705935582495700,5.355495849609375,0.011888617649674416,0.301676481962204,-0.10370296239852905
1775705935592508700,5.3655087890625,-0.011384480632841587,0.2376336008310318,-0.13321930170059204
1775705935602521900,5.37552197265625,-0.009150621481239796,0.1450922042131424,-0.2088823765516281
1775705935612534800,5.38553466796875,-0.01593608967959881,0.09532518684864044,-0.2944939434528351
1775705935622548000,5.3955478515625,-0.04888312146067619,0.12402580678462982,-0.37291738390922546
1775705935632560600,5.405560546875,-0.04412165284156799,0.1956978589296341,-0.4365634620189667
1775705935642572800,5.41557275390625,-0.020000606775283813,0.2751418352127075,-0.4441731870174408
1775705935652585700,5.425585693359375,0.029025260359048843,0.2954188585281372,-0.3961334824562073
1775705935662599000,5.435598876953125,0.07060093432664871,0.23650094866752625,-0.3165779411792755
1775705935672611800,5.44561181640625,0.03743365779519081,0.16692987084388733,-0.22104503214359283
1775705935682624800,5.455624755859375,-0.008380169048905373,0.1336190402507782,-0.16581134498119354
1775705935692637700,5.4656376953125,-0.02340226247906685,0.10532642155885696,-0.1317814588546753
1775705935702651000,5.47565087890625,-0.017734255641698837,0.07189948856830597,-0.08820576220750809
1775705935712662800,5.485662841796875,-0.005870672408491373,0.01715608313679695,-0.0205132644623518
1775705935722675700,5.49567578125,0.027950141578912735,-0.052499160170555115,0.05956133082509041
1775705935732689000,5.50568896484375,0.026756513863801956,-0.09416777640581131,0.1531842201948166
1775705935742701800,5.515701904296875,-0.00526560191065073,-0.10754510015249252,0.22864596545696259
1775705935752714800,5.52571484375,-0.02924337238073349,-0.05191965773701668,0.2597719132900238
1775705935762727700,5.535727783203125,-0.049312420189380646,0.024824656546115875,0.24528458714485168
1775705935772740900,5.545740966796875,-0.05366029962897301,0.07745484262704849,0.18134528398513794
1775705935782752800,5.555752685546875,-0.03755376860499382,0.08610372245311737,0.08079524338245392
1775705935792766000,5.565765869140625,-0.05040937662124634,0.09039168059825897,-0.014223677106201649
1775705935802778600,5.575778564453125,-0.0564531572163105,0.10314475744962692,-0.110263392329216
1775705935812791800,5.585791748046875,-0.01913321390748024,0.14870159327983856,-0.2040519267320633
1775705935822804700,5.5958046875,0.04264999181032181,0.22678148746490479,-0.2659967839717865
1775705935832818000,5.60581787109375,0.12155519425868988,0.3389461040496826,-0.2796132564544678
1775705935842830800,5.615830810546875,0.22842970490455627,0.44195476174354553,-0.2670964002609253
1775705935852842800,5.6258427734375,0.31285297870635986,0.4772041141986847,-0.22625097632408142
1775705935862855700,5.635855712890625,0.3378960192203522,0.420956552028656,-0.15354081988334656
1775705935872868900,5.645868896484375,0.3324860632419586,0.30667898058891296,-0.0832405611872673
1775705935882881800,5.6558818359375,0.2900267541408539,0.20042550563812256,-0.023909326642751694
1775705935892894700,5.665894775390625,0.23111923038959503,0.14484693109989166,0.01942802593111992
1775705935902908000,5.675907958984375,0.20744159817695618,0.1036161407828331,0.03923475369811058
1775705935912919800,5.685919921875,0.24546648561954498,0.07459726929664612,0.02532479725778103
1775705935922932700,5.6959326171875,0.3324200212955475,0.03615374490618706,0.00433109886944294
1775705935932945700,5.705945556640625,0.42149344086647034,0.07104301452636719,0.006809968966990709
1775705935942958800,5.715958740234375,0.5138124823570251,0.09854467958211899,0.021333517506718636
1775705935952971800,5.7259716796875,0.5862911939620972,0.0727333277463913,0.08183307945728302
1775705935962984700,5.735984619140625,0.616417407989502,0.0036882117856293917,0.1843077838420868
1775705935972998000,5.745997802734375,0.5807603001594543,-0.025530127808451653,0.2903607189655304
1775705935983010800,5.7560107421875,0.5111951231956482,0.013205816969275475,0.3575376272201538
1775705935993022700,5.766022705078125,0.42703360319137573,0.10044431686401367,0.35716158151626587
1775705936003036000,5.776035888671875,0.3631816804409027,0.17040395736694336,0.3051772117614746
1775705936013048800,5.786048828125,0.3053002655506134,0.2061968445777893,0.25391456484794617
1775705936023061800,5.796061767578125,0.23569108545780182,0.18234317004680634,0.20445966720581055
1775705936033075000,5.806074951171875,0.17544612288475037,0.1051354706287384,0.15644073486328125
1775705936043087600,5.816087646484375,0.12791109085083008,0.01161511056125164,0.12582024931907654
1775705936053100800,5.826100830078125,0.11230150610208511,-0.060325391590595245,0.138693168759346
1775705936063112700,5.83611279296875,0.11781105399131775,-0.05266613885760307,0.11838629841804504
1775705936073126000,5.8461259765625,0.11564058065414429,0.012823120690882206,0.0437629260122776
1775705936083138800,5.856138916015625,0.09451638162136078,0.07732168585062027,-0.0566992312669754
1775705936093151700,5.86615185546875,0.06793830543756485,0.08754555881023407,-0.14487063884735107
1775705936103164700,5.87616455078125,0.027712320908904076,0.04894464090466499,-0.20931699872016907
1775705936113177900,5.886177734375,-0.020048541948199272,0.013055347837507725,-0.25314730405807495
1775705936123190800,5.896190673828125,-0.02593120001256466,-0.01948768086731434,-0.2622550427913666
1775705936133202700,5.90620263671875,0.004354268312454224,-0.08343257755041122,-0.19556337594985962
1775705936143215900,5.9162158203125,0.029383987188339233,-0.14185459911823273,-0.07070159912109375
1775705936153228800,5.926228759765625,0.05433168262243271,-0.18905967473983765,0.02628619782626629
1775705936163242000,5.936241943359375,0.05769019573926926,-0.1968962848186493,0.06918413192033768
1775705936173254700,5.946254638671875,0.0665806233882904,-0.1626376509666443,0.072783924639225
1775705936183267800,5.956267822265625,0.10334289819002151,-0.11845101416110992,0.07035565376281738
1775705936193280800,5.96628076171875,0.13507500290870667,-0.08888299763202667,0.08694262057542801
1775705936203293000,5.97629296875,0.09171820431947708,-0.09691882133483887,0.10937362909317017
1775705936213305600,5.9863056640625,-0.01338717807084322,-0.1782136857509613,0.11646322906017303
1775705936223318800,5.99631884765625,-0.12072828412055969,-0.26155224442481995,0.08455749601125717
1775705936233331700,6.006331787109375,-0.18612486124038696,-0.2972114384174347,0.00649731419980526
1775705936243345000,6.016344970703125,-0.179136723279953,-0.24815255403518677,-0.08024051040410995
1775705936253357800,6.02635791015625,-0.13708434998989105,-0.15534484386444092,-0.1548372507095337
1775705936263370800,6.036370849609375,-0.10405343025922775,-0.05440065637230873,-0.2021981030702591
1775705936273383000,6.0463828125,-0.050162237137556076,-0.00740252248942852,-0.21592749655246735
1775705936283395800,6.056395751953125,0.011865448206663132,-0.006688529159873724,-0.20127691328525543
1775705936293408800,6.06640869140625,0.05465472489595413,0.03460191935300827,-0.17159758508205414
1775705936303421700,6.076421630859375,0.09393741190433502,0.09242287278175354,-0.1559496521949768
1775705936313435000,6.086434814453125,0.0864424780011177,0.1488611102104187,-0.14991439878940582
1775705936323447800,6.09644775390625,0.031079355627298355,0.17508472502231598,-0.13162007927894592
1775705936333460700,6.106460693359375,-0.011084875091910362,0.12517043948173523,-0.08492261171340942
1775705936343472600,6.11647265625,-0.024950889870524406,0.05348586291074753,-0.014799985103309155
1775705936353485800,6.12648583984375,-0.012794625014066696,-0.014425810426473618,0.037028856575489044
1775705936363498800,6.136498779296875,0.014752048067748547,-0.04983653128147125,0.034212034195661545
1775705936373511700,6.14651171875,0.04048457741737366,-0.06426980346441269,0.005061870440840721
1775705936383524900,6.15652490234375,0.03592284768819809,-0.048060737550258636,-0.029745379462838173
1775705936393537800,6.166537841796875,0.010367153212428093,-0.008213188499212265,-0.07637892663478851
1775705936403551000,6.176551025390625,-0.003614175831899047,0.03923794999718666,-0.1246444582939148
1775705936413563000,6.18656298828125,-0.019423233345150948,0.07765670865774155,-0.1590663492679596
1775705936423575800,6.196575927734375,-0.03906857222318649,0.13318948447704315,-0.16268718242645264
1775705936433588700,6.206588623046875,-0.05044932663440704,0.15270565450191498,-0.15789109468460083
1775705936443602000,6.216601806640625,-0.046542201191186905,0.12214668095111847,-0.12146703898906708
1775705936453614600,6.226614501953125,-0.05480119585990906,0.03301467373967171,-0.034147582948207855
1775705936463627800,6.236627685546875,-0.06864830106496811,-0.08768617361783981,0.0582321472465992
1775705936473640700,6.246640625,-0.05524834245443344,-0.17458058893680573,0.11416199058294296
1775705936483652900,6.25665283203125,-0.04343269392848015,-0.17490257322788239,0.13228453695774078
1775705936493665800,6.266665771484375,-0.02606329135596752,-0.14452922344207764,0.10275939851999283
1775705936503678700,6.2766787109375,-0.004502340219914913,-0.1316182166337967,0.06629034131765366
1775705936513692000,6.28669189453125,-0.0017486315919086337,-0.10916297137737274,0.05729258432984352
1775705936523704800,6.296704833984375,0.006850715726613998,-0.04320233315229416,0.04845435172319412
1775705936533717800,6.3067177734375,0.03476836532354355,0.08430209755897522,0.018140655010938644
1775705936543730700,6.316730712890625,0.07386037707328796,0.20192992687225342,0.017053818330168724
1775705936553742800,6.326742919921875,0.11252760887145996,0.2777692973613739,0.05518149584531784
1775705936563755800,6.336755859375,0.14730210602283478,0.27643266320228577,0.13372930884361267
1775705936573769000,6.34676904296875,0.1508001685142517,0.18281136453151703,0.2520418167114258
1775705936583781600,6.35678173828125,0.05410664528608322,0.051245078444480896,0.3858853876590729
1775705936593794800,6.366794921875,-0.12058660387992859,-0.0975222960114479,0.4930323362350464
1775705936603807700,6.376807861328125,-0.3175036609172821,-0.21676373481750488,0.552084743976593
1775705936613820700,6.386820556640625,-0.4954957664012909,-0.28063565492630005,0.5485725402832031
1775705936623833900,6.396833740234375,-0.6374773979187012,-0.2740829586982727,0.49604731798171997
1775705936633845800,6.406845703125,-0.7245140075683594,-0.20799554884433746,0.41871097683906555
1775705936643858700,6.416858642578125,-0.740595817565918,-0.0905461460351944,0.3282060921192169
1775705936653871900,6.426871826171875,-0.6905320882797241,0.028909146785736084,0.22439661622047424
1775705936663884800,6.436884765625,-0.589148998260498,0.11302029341459274,0.12369317561388016
1775705936673897700,6.446897705078125,-0.46860581636428833,0.19225120544433594,0.0517050065100193
1775705936683911000,6.456910888671875,-0.35217028856277466,0.2755785882472992,-0.012810337357223034
1775705936693923600,6.466923583984375,-0.24636130034923553,0.28203755617141724,-0.052074119448661804
1775705936703935700,6.476935791015625,-0.2115279585123062,0.24110396206378937,-0.03461416810750961
1775705936713948700,6.48694873046875,-0.24616503715515137,0.13766039907932281,-0.013204485177993774
1775705936723961900,6.4969619140625,-0.2834586203098297,0.01703224703669548,-0.0023041670210659504
1775705936733974800,6.506974853515625,-0.3069221079349518,-0.06876175105571747,0.012207397259771824
1775705936743987700,6.51698779296875,-0.29502472281455994,-0.08340700715780258,0.02592294290661812
1775705936754001000,6.5270009765625,-0.24739834666252136,-0.013550429604947567,0.053584929555654526
1775705936764013800,6.537013916015625,-0.1594458520412445,0.0914473608136177,0.0787973403930664
1775705936774025700,6.547025634765625,-0.04652169719338417,0.16934934258460999,0.0878656730055809
1775705936784038700,6.55703857421875,0.06719288229942322,0.19224055111408234,0.05512557178735733
1775705936794051800,6.5670517578125,0.19289328157901764,0.18874195218086243,-0.010410030372440815
1775705936804064800,6.577064697265625,0.32523268461227417,0.1507333219051361,-0.09268226474523544
1775705936814078000,6.587077880859375,0.35677117109298706,0.07439354062080383,-0.1772376298904419
1775705936824090600,6.597090576171875,0.24390028417110443,0.012440690770745277,-0.2755279839038849
1775705936834103800,6.607103759765625,0.0717543512582779,-0.025859028100967407,-0.3609427511692047
1775705936844115700,6.61711572265625,-0.08781000971794128,-0.014388526789844036,-0.4183429181575775
1775705936854129000,6.62712890625,-0.17255260050296783,0.03630687668919563,-0.4468672275543213
1775705936864141800,6.637141845703125,-0.1858159452676773,0.07332348078489304,-0.44615378975868225
1775705936874154800,6.64715478515625,-0.13179345428943634,0.09478829056024551,-0.4036473333835602
1775705936884167700,6.657167724609375,-0.021198496222496033,0.11338941007852554,-0.3096923530101776
1775705936894180900,6.667180908203125,0.1038299947977066,0.1363344043493271,-0.19799883663654327
1775705936904193800,6.67719384765625,0.17261944711208344,0.15882186591625214,-0.12991884350776672
1775705936914205700,6.687205810546875,0.1356784701347351,0.14123807847499847,-0.10173089057207108
1775705936924219000,6.697218994140625,0.03284822776913643,0.07967858016490936,-0.09638991951942444
1775705936934231800,6.707231689453125,-0.12817448377609253,-0.02003496140241623,-0.08520437777042389
1775705936944244700,6.71724462890625,-0.27386295795440674,-0.11642008274793625,-0.04219965264201164
1775705936954257700,6.727257568359375,-0.3477875292301178,-0.22045807540416718,0.038657914847135544
1775705936964270800,6.737270751953125,-0.34876224398612976,-0.27743667364120483,0.10823725908994675
1775705936974283800,6.74728369140625,-0.2792649269104004,-0.2977227568626404,0.1367804855108261
1775705936984296000,6.7572958984375,-0.1735430210828781,-0.2905636429786682,0.13544490933418274
1775705936994308600,6.76730859375,-0.05711787939071655,-0.2221614271402359,0.12499120086431503
1775705937004321800,6.77732177734375,0.05898555740714073,-0.07331708818674088,0.09610602259635925
1775705937014334700,6.787334716796875,0.1332494020462036,0.02214045636355877,0.04223214089870453
1775705937024348000,6.797347900390625,0.11810187250375748,0.04081880301237106,-0.04350326955318451
1775705937034360800,6.80736083984375,0.028251877054572105,0.011436413042247295,-0.15547561645507812
1775705937044373800,6.817373779296875,-0.1520656943321228,-0.007626228034496307,-0.22354653477668762
1775705937054386000,6.827385986328125,-0.3226749897003174,-0.019512714818120003,-0.22108018398284912
1775705937064398800,6.83739892578125,-0.4371885061264038,-0.006674414500594139,-0.15027126669883728
1775705937074411800,6.847411865234375,-0.4566229283809662,0.024828650057315826,-0.05628058314323425
1775705937084424700,6.8574248046875,-0.38677459955215454,0.09590655565261841,0.061888135969638824
1775705937094438000,6.86743798828125,-0.24570722877979279,0.1591518372297287,0.16733573377132416
1775705937104450800,6.877450927734375,-0.115830197930336,0.27027222514152527,0.21756614744663239
1775705937114463700,6.887463623046875,-0.03603683039546013,0.41169193387031555,0.2133977711200714
1775705937124475600,6.8974755859375,0.002282329136505723,0.5111295580863953,0.16803774237632751
1775705937134488800,6.90748876953125,-0.058751195669174194,0.4599848985671997,0.11040347069501877
1775705937144502000,6.917501953125,-0.20936547219753265,0.3701111972332001,0.06047213077545166
1775705937154514700,6.9275146484375,-0.35711684823036194,0.2683872580528259,0.018130799755454063
1775705937164527900,6.93752783203125,-0.462726891040802,0.22478145360946655,0.008922655135393143
1775705937174540800,6.947540771484375,-0.4983922243118286,0.23910126090049744,0.0650000348687172
1775705937184554000,6.957553955078125,-0.5059851408004761,0.2846493124961853,0.1973751187324524
1775705937194566000,6.96756591796875,-0.49050286412239075,0.33625710010528564,0.355538934469223
1775705937204578800,6.977578857421875,-0.44915837049484253,0.3189268410205841,0.5158202052116394
1775705937214591700,6.987591796875,-0.37825649976730347,0.2568874657154083,0.6325154304504395
1775705937224605000,6.99760498046875,-0.27903082966804504,0.20189423859119415,0.6398686766624451
1775705937234617600,7.00761767578125,-0.21126404404640198,0.13140542805194855,0.5190836191177368
1775705937244630800,7.017630859375,-0.19743824005126953,0.05669869855046272,0.2670458257198334
1775705937254644000,7.02764404296875,-0.2856368124485016,0.0010090717114508152,-0.05387361720204353
1775705937264657000,7.037656982421875,-0.38864442706108093,0.017140638083219528,-0.35873499512672424
1775705937274669000,7.0476689453125,-0.42310652136802673,0.0789046660065651,-0.571367621421814
1775705937284681700,7.057681640625,-0.4020174741744995,0.19498786330223083,-0.6807476282119751
1775705937294695000,7.06769482421875,-0.3559282720088959,0.35641831159591675,-0.6608615517616272
1775705937304707800,7.077707763671875,-0.30585500597953796,0.4868761897087097,-0.4989970326423645
1775705937314720800,7.087720703125,-0.2686343789100647,0.5013067722320557,-0.2524458169937134
1775705937324733700,7.097733642578125,-0.2653440535068512,0.3276207447052002,0.0305698923766613
1775705937334747000,7.107746826171875,-0.2711358964443207,0.008296012878417969,0.30311301350593567
1775705937344758800,7.1177587890625,-0.25155261158943176,-0.317730575799942,0.5316439270973206
1775705937354772000,7.12777197265625,-0.2277279645204544,-0.5080142021179199,0.6457305550575256
1775705937364784600,7.13778466796875,-0.19920657575130463,-0.4781649708747864,0.5894486308097839
1775705937374797800,7.1477978515625,-0.16902124881744385,-0.21245473623275757,0.40662261843681335
1775705937384811000,7.15781103515625,-0.12453340739011765,0.14507196843624115,0.16314418613910675
1775705937394823700,7.16782373046875,-0.07850546389818192,0.4538378119468689,-0.044391434639692307
1775705937404836900,7.1778369140625,-0.017067933455109596,0.6280394196510315,-0.15926368534564972
1775705937414848800,7.187848876953125,0.030002107843756676,0.6900308728218079,-0.11331483721733093
1775705937424862000,7.197862060546875,0.033071666955947876,0.5519278645515442,0.11735725402832031
1775705937434875000,7.207875,0.05830565094947815,0.22473910450935364,0.4011506140232086
1775705937444887800,7.2178876953125,0.10697918385267258,-0.19384430348873138,0.6227445006370544
1775705937454900700,7.227900634765625,0.11007031053304672,-0.47587573528289795,0.6974866986274719
1775705937464914000,7.237913818359375,0.07947538793087006,-0.49337801337242126,0.6357857584953308
1775705937474926600,7.247926513671875,0.0390629805624485,-0.3292362093925476,0.4846644103527069
1775705937484938800,7.257938720703125,-0.02611522376537323,-0.11717215925455093,0.3149440884590149
1775705937494951700,7.26795166015625,-0.058341071009635925,0.09596328437328339,0.1455145925283432
1775705937504964900,7.27796484375,-0.03346474841237068,0.2607783377170563,0.04801413044333458
1775705937514978000,7.28797802734375,0.015958992764353752,0.3355385959148407,0.049245577305555344
1775705937524990700,7.29799072265625,0.06191077083349228,0.2771194875240326,0.09644877165555954
1775705937535004000,7.30800390625,0.08207836002111435,0.08640573173761368,0.13496127724647522
1775705937545016800,7.318016845703125,0.08862920105457306,-0.1282477229833603,0.14702433347702026
1775705937555029000,7.328029052734375,0.0430353507399559,-0.26268675923347473,0.13741272687911987
1775705937565041700,7.338041748046875,0.00336144189350307,-0.21059665083885193,0.0936652421951294
1775705937575054800,7.348054931640625,0.026915503665804863,-0.11937939375638962,0.0531977079808712
1775705937585067800,7.35806787109375,0.07104913890361786,-0.003600327530875802,0.014133395627140999
1775705937595081000,7.3680810546875,0.10961544513702393,0.09840673208236694,-0.05083068832755089
1775705937605093600,7.37809375,0.12434778362512589,0.1708391159772873,-0.08502247929573059
1775705937615106800,7.38810693359375,0.13263873755931854,0.15940935909748077,-0.07045632600784302
1775705937625118700,7.39811865234375,0.14430737495422363,0.06835296005010605,-0.020556939765810966
1775705937635132000,7.4081318359375,0.17284874618053436,-0.06156935542821884,0.028111262246966362
1775705937645144800,7.418144775390625,0.19051268696784973,-0.13870994746685028,0.04164571315050125
1775705937655157800,7.42815771484375,0.156401589512825,-0.20840699970722198,0.027064906433224678
1775705937665171000,7.4381708984375,0.13786599040031433,-0.2907668650150299,-0.004400074947625399
1775705937675183900,7.448183837890625,0.16641613841056824,-0.3223460912704468,-0.060147758573293686
1775705937685196800,7.45819677734375,0.2113436758518219,-0.3124180734157562,-0.13161395490169525
1775705937695208700,7.468208740234375,0.2858152389526367,-0.28410547971725464,-0.1991668939590454
1775705937705222000,7.478221923828125,0.37245452404022217,-0.1994185596704483,-0.2501046359539032
1775705937715234800,7.48823486328125,0.46609580516815186,-0.08180990815162659,-0.29186302423477173
1775705937725247700,7.498247802734375,0.5793190002441406,0.016214389353990555,-0.30203068256378174
1775705937735260700,7.5082607421875,0.6605427861213684,0.061108093708753586,-0.3080848455429077
1775705937745273900,7.51827392578125,0.6856228113174438,0.07834114134311676,-0.2999635636806488
1775705937755287000,7.528287109375,0.673506498336792,0.0924694761633873,-0.2535880506038666
1775705937765299000,7.538298828125,0.6707983613014221,0.09627620130777359,-0.15872998535633087
1775705937775311600,7.5483115234375,0.6449965834617615,0.10033325850963593,-0.03177763521671295
1775705937785324800,7.55832470703125,0.5929206013679504,0.06642962247133255,0.10411068797111511
1775705937795338000,7.568337890625,0.5399726629257202,0.028250813484191895,0.19459956884384155
1775705937805350700,7.5783505859375,0.48906636238098145,-0.03063514083623886,0.23825252056121826
1775705937815363800,7.58836376953125,0.4299282133579254,-0.1437065750360489,0.2559944987297058
1775705937825376800,7.598376708984375,0.3564009964466095,-0.22254812717437744,0.24151328206062317
1775705937835389000,7.608388916015625,0.2986535429954529,-0.2532186806201935,0.19599853456020355
1775705937845401900,7.61840185546875,0.24868784844875336,-0.2521020174026489,0.13610750436782837
1775705937855414800,7.628414794921875,0.1834726184606552,-0.15685538947582245,0.05651121214032173
1775705937865427700,7.638427734375,0.12784583866596222,-0.027833495289087296,-0.05530187115073204
1775705937875441000,7.64844091796875,0.008431035093963146,0.17293235659599304,-0.17359070479869843
1775705937885453800,7.658453857421875,-0.1197892501950264,0.33444562554359436,-0.2975512444972992
1775705937895466800,7.668466796875,-0.1960696429014206,0.3562060594558716,-0.3994816243648529
1775705937905478700,7.678478759765625,-0.24008236825466156,0.33472737669944763,-0.4673149883747101
1775705937915491800,7.688491943359375,-0.24329787492752075,0.22767017781734467,-0.5067915916442871
1775705937925505000,7.698505126953125,-0.2463245540857315,0.1147385686635971,-0.5028759241104126
1775705937935517700,7.708517578125,-0.2348940074443817,0.08545577526092529,-0.460968941450119
1775705937945531000,7.71853076171875,-0.19568614661693573,0.11499156802892685,-0.3791489005088806
1775705937955543800,7.728543701171875,-0.1439848691225052,0.1947851926088333,-0.27857303619384766
1775705937965556700,7.738556640625,-0.06539738178253174,0.2560807764530182,-0.20312994718551636
1775705937975569700,7.748569580078125,-0.02063923142850399,0.22663074731826782,-0.12133868038654327
1775705937985581800,7.758581787109375,-0.03680648282170296,0.14884407818317413,-0.06588873267173767
1775705937995594800,7.7685947265625,-0.05811337009072304,0.05432875081896782,-0.03755483031272888
1775705938005608000,7.77860791015625,-0.0806245356798172,-0.034454114735126495,0.006773217581212521
1775705938015620600,7.78862060546875,-0.1021822914481163,-0.1271028220653534,0.02526247873902321
1775705938025633800,7.7986337890625,-0.13153699040412903,-0.16526485979557037,0.011411112733185291
1775705938035647000,7.80864697265625,-0.13031086325645447,-0.12006595730781555,-0.02237801067531109
1775705938045660000,7.818659912109375,-0.049727875739336014,-0.054537542164325714,-0.03820304572582245
1775705938055671800,7.828671875,0.03720302879810333,0.011139736510813236,-0.03687252849340439
1775705938065684700,7.838684814453125,0.0823444053530693,0.10217297077178955,-0.06932900846004486
1775705938075698000,7.848697998046875,0.10061635822057724,0.15423084795475006,-0.1453699767589569
1775705938085710800,7.8587109375,0.0853085070848465,0.14798946678638458,-0.201085165143013
1775705938095723800,7.868723876953125,0.04812039062380791,0.1484597772359848,-0.22044768929481506
1775705938105736700,7.87873681640625,0.03822967782616615,0.11478783190250397,-0.2293865829706192
1775705938115750000,7.88875,0.00836685299873352,0.031213313341140747,-0.21047094464302063
1775705938125761800,7.89876171875,-0.035650670528411865,-0.06618807464838028,-0.19480490684509277
1775705938135775000,7.90877490234375,-0.09362316131591797,-0.16120167076587677,-0.21024031937122345
1775705938145787600,7.91878759765625,-0.1889137327671051,-0.2292824536561966,-0.25789758563041687
1775705938155800800,7.92880078125,-0.2348969280719757,-0.2827126681804657,-0.3435951769351959
1775705938165813800,7.938813720703125,-0.2229827493429184,-0.29660263657569885,-0.4185945987701416
1775705938175826700,7.94882666015625,-0.20248332619667053,-0.2860594391822815,-0.45187637209892273
1775705938185839900,7.95883984375,-0.1332792341709137,-0.2969893217086792,-0.42295870184898376
1775705938195851800,7.968851806640625,-0.09974683076143265,-0.28540536761283875,-0.3319489061832428
1775705938205864700,7.97886474609375,-0.08345947414636612,-0.2673853635787964,-0.2514263689517975
1775705938215878000,7.9888779296875,-0.08651065826416016,-0.16307707130908966,-0.20993778109550476
1775705938225890800,7.998890869140625,-0.10872994363307953,-0.018151307478547096,-0.2113620489835739
1775705938235903700,8.00890380859375,-0.12415177375078201,0.01236479077488184,-0.25744378566741943
1775705938245917000,8.0189169921875,-0.139123797416687,-0.01720215566456318,-0.30875465273857117
1775705938255929600,8.0289296875,-0.1376342922449112,-0.07098443061113358,-0.3500610589981079
1775705938265941800,8.038941650390624,-0.1265438199043274,-0.08231271803379059,-0.36725470423698425
1775705938275954700,8.04895458984375,-0.09655237197875977,-0.05157903954386711,-0.3730880916118622
1775705938285968000,8.0589677734375,-0.04297942668199539,0.009884322062134743,-0.3938029706478119
1775705938295980800,8.068980712890625,0.045940060168504715,0.060632988810539246,-0.42115575075149536
1775705938305993700,8.07899365234375,0.17935217916965485,0.11018509417772293,-0.41065409779548645
1775705938316007000,8.0890068359375,0.317767858505249,0.12316320836544037,-0.34285083413124084
1775705938326019800,8.099019775390625,0.40430140495300293,0.10704176127910614,-0.2417423278093338
1775705938336031700,8.10903173828125,0.4365307092666626,0.07234636694192886,-0.12998303771018982
1775705938346044700,8.119044677734376,0.4049203395843506,0.02455913834273815,-0.040346089750528336
1775705938356057900,8.129057861328125,0.3670333921909332,-0.041483260691165924,0.007130879908800125
1775705938366070800,8.13907080078125,0.3207617700099945,-0.05700070038437843,0.03889333829283714
1775705938376084000,8.149083984375,0.2578941285610199,-0.053831007331609726,0.052860017865896225
1775705938386096600,8.1590966796875,0.17979852855205536,-0.017199760302901268,0.032589368522167206
1775705938396109800,8.16910986328125,0.13351091742515564,0.009581254795193672,-0.021616611629724503
1775705938406121700,8.179121826171874,0.13992567360401154,0.03218004107475281,-0.0511300303041935
1775705938416135000,8.189135009765625,0.16933070123195648,0.05927610769867897,-0.06047799065709114
1775705938426147600,8.199147705078126,0.20360052585601807,0.11126793175935745,-0.09333740174770355
1775705938436160800,8.209160888671875,0.22169111669063568,0.1601545214653015,-0.13095055520534515
1775705938446173700,8.219173583984375,0.21908734738826752,0.19152656197547913,-0.12527082860469818
1775705938456187000,8.229186767578126,0.1874529868364334,0.183354914188385,-0.09747888892889023
1775705938466199800,8.23919970703125,0.1528739631175995,0.12831082940101624,-0.08043412119150162
1775705938476211700,8.249211669921875,0.10567343235015869,0.07709851115942001,-0.06283462047576904
1775705938486225000,8.259224853515626,0.06572069227695465,0.043596211820840836,-0.041740790009498596
1775705938496237800,8.26923779296875,0.03699130564928055,0.029867883771657944,-0.024982048198580742
1775705938506250800,8.279250732421875,0.023850737139582634,-0.0023869911674410105,-0.01121989730745554
1775705938516263700,8.289263671875,0.02690565027296543,-0.02973366156220436,0.006394782569259405
1775705938526276900,8.29927685546875,0.05783400312066078,-0.015431953594088554,0.03399498388171196
1775705938536289800,8.309289794921876,0.08538386970758438,0.014460165984928608,0.05832855403423309
1775705938546302700,8.319302734375,0.09561493992805481,0.049672480672597885,0.10593948513269424
1775705938556314600,8.329314697265625,0.12114666402339935,0.024028636515140533,0.17883525788784027
1775705938566327800,8.339327880859376,0.13952301442623138,-0.04351605102419853,0.25032010674476624
1775705938576340700,8.3493408203125,0.11628053337335587,-0.09592919051647186,0.324539452791214
1775705938586353700,8.359353759765625,0.05808141082525253,-0.10881649702787399,0.3993186354637146
1775705938596366800,8.369366943359376,-0.02623266912996769,-0.07153943181037903,0.4495232105255127
1775705938606379800,8.3793798828125,-0.14638197422027588,0.016768859699368477,0.4784664511680603
1775705938616393000,8.38939306640625,-0.2601993680000305,0.09372169524431229,0.46759381890296936
1775705938626404900,8.39940478515625,-0.36109668016433716,0.1514342576265335,0.4395754933357239
1775705938636417800,8.409417724609375,-0.442549467086792,0.23589402437210083,0.4229762852191925
1775705938646430700,8.4194306640625,-0.5099069476127625,0.2818647027015686,0.4088117480278015
1775705938656444000,8.42944384765625,-0.5604305267333984,0.29653313755989075,0.39805868268013
1775705938666456600,8.43945654296875,-0.5905783176422119,0.297446608543396,0.4085424840450287
1775705938676469800,8.4494697265625,-0.5988224148750305,0.27502143383026123,0.44254040718078613
1775705938686482700,8.459482666015624,-0.5593541264533997,0.21411681175231934,0.5075135231018066
1775705938696494800,8.469494873046875,-0.4688817262649536,0.10628169775009155,0.5809736251831055
1775705938706507800,8.4795078125,-0.34504660964012146,0.017536649480462074,0.6152945756912231
1775705938716520700,8.489520751953124,-0.2160705178976059,-0.01576458103954792,0.5918494462966919
1775705938726534000,8.499533935546875,-0.08373191207647324,0.0014239922165870667,0.5472465753555298
1775705938736546800,8.509546875,0.0003278351214248687,0.0014034858904778957,0.5100795030593872
1775705938746559700,8.519559814453125,0.03123009018599987,-0.03453294187784195,0.4992052912712097
1775705938756572700,8.52957275390625,0.024686170741915703,-0.08864278346300125,0.5099154710769653
1775705938766584800,8.539584716796876,-0.012982377782464027,-0.11549650132656097,0.5061220526695251
1775705938776597800,8.54959765625,-0.09570948034524918,-0.11281656473875046,0.47572311758995056
1775705938786611000,8.55961083984375,-0.1734255850315094,-0.09090354293584824,0.4303835928440094
1775705938796623600,8.56962353515625,-0.22431139647960663,-0.06051580607891083,0.37827858328819275
1775705938806636800,8.57963671875,-0.24891874194145203,-0.0268276184797287,0.35251784324645996
1775705938816649700,8.589649658203125,-0.234667107462883,-0.04180683568120003,0.34418612718582153
1775705938826662700,8.59966259765625,-0.18334372341632843,-0.11325997859239578,0.32398900389671326
1775705938836674800,8.6096748046875,-0.12743119895458221,-0.18999497592449188,0.27043601870536804
1775705938846687700,8.619687744140625,-0.09449481219053268,-0.23107263445854187,0.17918413877487183
1775705938856701000,8.629700927734374,-0.0798729956150055,-0.22569997608661652,0.06258881092071533
1775705938866713900,8.6397138671875,-0.07425878196954727,-0.1569688469171524,-0.07610515505075455
1775705938876726800,8.649726806640626,-0.10941970348358154,-0.06367644667625427,-0.22165489196777344
1775705938886739700,8.65973974609375,-0.19448745250701904,-0.012588229961693287,-0.36912983655929565
1775705938896753000,8.6697529296875,-0.2915194630622864,-0.047089479863643646,-0.48530250787734985
1775705938906764800,8.679764892578126,-0.35133644938468933,-0.10501323640346527,-0.56202632188797
1775705938916777700,8.68977783203125,-0.35256683826446533,-0.21220973134040833,-0.6009321808815002
1775705938926790700,8.699790771484375,-0.3142213225364685,-0.3313497006893158,-0.6006259322166443
1775705938936803800,8.709803955078126,-0.2506266236305237,-0.40742236375808716,-0.5834706425666809
1775705938946816800,8.719816650390625,-0.16717220842838287,-0.4504936635494232,-0.5250310301780701
1775705938956829700,8.72982958984375,-0.0627984032034874,-0.44226184487342834,-0.4564777910709381
1775705938966843000,8.7398427734375,0.04255811125040054,-0.35395169258117676,-0.4359416365623474
1775705938976854800,8.749854736328125,0.1380273699760437,-0.2338937222957611,-0.43297991156578064
1775705938986867700,8.75986767578125,0.21642178297042847,-0.08775914460420609,-0.428725004196167
1775705938996881000,8.769880859375,0.25321441888809204,0.018812304362654686,-0.4568815231323242
1775705939006893800,8.779893798828125,0.2515028119087219,0.05402488633990288,-0.48327744007110596
1775705939016906800,8.78990673828125,0.19792373478412628,0.05360330641269684,-0.4590410888195038
1775705939026920000,8.799919921875,0.12276186794042587,0.030129140242934227,-0.39051583409309387
1775705939036932600,8.8099326171875,0.03952983394265175,-0.007364972028881311,-0.33665284514427185
1775705939046945800,8.81994580078125,-0.02412823960185051,-0.05133402720093727,-0.2946995496749878
1775705939056957700,8.829957763671874,-0.0356631875038147,-0.05715196952223778,-0.21704576909542084
1775705939066971000,8.839970947265625,0.021460019052028656,-0.00609357887879014,-0.1280817985534668
1775705939076983800,8.84998388671875,0.11277554929256439,-0.020535901188850403,-0.055156730115413666
1775705939086996700,8.859996826171875,0.212421715259552,-0.053587861359119415,-0.014509167522192001
1775705939097010000,8.870010009765625,0.3092350661754608,-0.10478553175926208,-0.003614974906668067
1775705939107022800,8.88002294921875,0.3973281979560852,-0.09627433866262436,0.009268066845834255
1775705939117035800,8.890035888671875,0.4040883481502533,-0.10433519631624222,0.01679202914237976
1775705939127047700,8.900047607421875,0.2987787127494812,-0.1492840200662613,0.052256278693675995
1775705939137060900,8.910060791015624,0.13432851433753967,-0.2670319676399231,0.14023567736148834
1775705939147073800,8.92007373046875,0.0015901734586805105,-0.41200780868530273,0.28288015723228455
1775705939157087000,8.9300869140625,-0.03704909607768059,-0.5798655152320862,0.37815210223197937
1775705939167099600,8.940099609375,-0.002469016704708338,-0.6349756121635437,0.36138537526130676
1775705939177112800,8.95011279296875,0.06720380485057831,-0.5791600346565247,0.2770259976387024
1775705939187125800,8.960125732421876,0.18146327137947083,-0.45194268226623535,0.16647659242153168
1775705939197138000,8.970137939453124,0.3199276626110077,-0.3170836865901947,0.01702319271862507
1775705939207150600,8.980150634765625,0.4184372127056122,-0.2902770936489105,-0.14878042042255402
1775705939217163800,8.990163818359376,0.437244713306427,-0.333388090133667,-0.294951468706131
1775705939227176700,9.0001767578125,0.3860241174697876,-0.3485100567340851,-0.36757880449295044
1775705939237190000,9.01018994140625,0.2947136461734772,-0.3306442201137543,-0.3122258186340332
1775705939247202800,9.020202880859374,0.20671217143535614,-0.3461262583732605,-0.19511623680591583
1775705939257215700,9.0302158203125,0.13500255346298218,-0.28443437814712524,-0.04920429736375809
1775705939267228000,9.040227783203125,0.05104001611471176,-0.10182436555624008,0.17698170244693756
1775705939277240800,9.05024072265625,-0.06042872369289398,0.10264887660741806,0.3800003230571747
1775705939287253800,9.060253662109375,-0.14930719137191772,0.1996779590845108,0.5118433237075806
1775705939297266700,9.0702666015625,-0.1771782487630844,0.18844154477119446,0.5822434425354004
1775705939307280000,9.08027978515625,-0.16309811174869537,0.10691792517900467,0.5986884832382202
1775705939317292800,9.090292724609375,-0.16626593470573425,-0.00023462448734790087,0.5889000296592712
1775705939327305700,9.1003056640625,-0.27750536799430847,-0.018247978761792183,0.5893290638923645
1775705939337317600,9.110317626953124,-0.46233487129211426,0.1446187049150467,0.5617405772209167
1775705939347330800,9.120330810546875,-0.6105983853340149,0.35908812284469604,0.5012468695640564
1775705939357343700,9.13034375,-0.6728971600532532,0.5780771970748901,0.4318166673183441
1775705939367356700,9.140356689453125,-0.6381149888038635,0.6241719722747803,0.314861536026001
1775705939377369900,9.150369873046875,-0.49834373593330383,0.5279948711395264,0.16074654459953308
1775705939387382800,9.1603828125,-0.2798875868320465,0.31153684854507446,-0.004865062423050404
1775705939397396000,9.17039599609375,-0.03152010962367058,0.15832865238189697,-0.18300098180770874
1775705939407407900,9.180407958984375,0.1783934384584427,0.13517938554286957,-0.35044828057289124
1775705939417420800,9.1904208984375,0.2320082038640976,0.1992449313402176,-0.5017086267471313
1775705939427433700,9.200433837890625,0.1048545092344284,0.39316272735595703,-0.6611942052841187
1775705939437447000,9.210447021484375,-0.0999942421913147,0.5934436321258545,-0.8041380047798157
1775705939447459600,9.22045947265625,-0.2350205034017563,0.6803119778633118,-0.8172271847724915
1775705939457472800,9.23047265625,-0.2478281706571579,0.5636508464813232,-0.6770610213279724
1775705939467485700,9.240485595703126,-0.16620175540447235,0.34109872579574585,-0.463583379983902
1775705939477499000,9.250498779296874,-0.032337166368961334,0.022362031042575836,-0.23368625342845917
1775705939487510800,9.2605107421875,0.061942994594573975,-0.23264363408088684,-0.03443174436688423
1775705939497523700,9.270523681640626,0.1513833999633789,-0.3445698916912079,0.11207140982151031
1775705939507537000,9.280536865234374,0.17839929461479187,-0.38000378012657166,0.2028663009405136
1775705939517549800,9.2905498046875,0.12678377330303192,-0.27560627460479736,0.20350651443004608
1775705939527562800,9.300562744140626,0.056656088680028915,-0.08701452612876892,0.13809609413146973
1775705939537575700,9.31057568359375,0.010762100107967854,0.07619942724704742,0.06544052809476852
1775705939547588900,9.3205888671875,0.05179288983345032,0.20310358703136444,0.02305258810520172
1775705939557600800,9.330600830078126,0.15234985947608948,0.27897384762763977,0.021705029532313347
1775705939567614000,9.340614013671875,0.2713039517402649,0.24846573173999786,0.09421544522047043
1775705939577626600,9.350626708984375,0.34959954023361206,0.11157659441232681,0.21644309163093567
1775705939587639800,9.360639892578124,0.37250274419784546,-0.06670765578746796,0.3146847188472748
1775705939597652700,9.37065283203125,0.3666808009147644,-0.22181494534015656,0.3675340712070465
1775705939607665700,9.380665771484376,0.35416659712791443,-0.30380168557167053,0.36116087436676025
1775705939617678800,9.390678955078124,0.33223146200180054,-0.2974167764186859,0.3131589889526367
1775705939627690800,9.400690673828125,0.32879573106765747,-0.29038602113723755,0.227645143866539
1775705939637704000,9.410703857421876,0.3227221369743347,-0.289191871881485,0.12904959917068481
1775705939647716900,9.420716796875,0.3657556176185608,-0.3103288412094116,0.07395704835653305
1775705939657729800,9.430729736328125,0.43400976061820984,-0.3366331458091736,0.09291929006576538
1775705939667742700,9.44074267578125,0.4821666479110718,-0.294876366853714,0.13456393778324127
1775705939677756000,9.450755859375,0.49332448840141296,-0.21194954216480255,0.15282203257083893
1775705939687768600,9.4607685546875,0.4442802369594574,-0.1479385942220688,0.14578570425510406
1775705939697780700,9.47078076171875,0.34715157747268677,-0.09625276923179626,0.1368345469236374
1775705939707793700,9.480793701171875,0.24934883415699005,-0.0922100841999054,0.12023746222257614
1775705939717806800,9.490806884765625,0.1614874303340912,-0.1414567232131958,0.09126652777194977
1775705939727819800,9.50081982421875,0.1250455379486084,-0.2291271984577179,0.07068216055631638
1775705939737832700,9.510832763671875,0.09772389382123947,-0.32163289189338684,0.04914544150233269
1775705939747846000,9.520845947265625,0.052678391337394714,-0.3931068181991577,0.03081117570400238
1775705939757858800,9.53085888671875,0.003638144349679351,-0.46881622076034546,-0.00040719733806326985
1775705939767871000,9.54087109375,-0.04753263294696808,-0.45761629939079285,-0.04651903361082077
1775705939777883600,9.550883544921875,-0.0607946403324604,-0.3492083251476288,-0.09889808297157288
1775705939787896800,9.560896728515624,-0.03238776698708534,-0.21177589893341064,-0.12946318089962006
1775705939797909800,9.57090966796875,0.020120181143283844,-0.11591088771820068,-0.1351327896118164
1775705939807923000,9.5809228515625,0.05883588641881943,-0.09702668339014053,-0.14425970613956451
1775705939817935600,9.590935546875,0.009935987181961536,-0.08173108100891113,-0.12736700475215912
1775705939827948800,9.60094873046875,-0.06362025439739227,-0.05043627694249153,-0.10529579967260361
1775705939837961700,9.610961669921876,-0.10381294786930084,-0.03879639878869057,-0.08165837824344635
1775705939847974000,9.620973876953125,-0.131128191947937,-0.07818029075860977,-0.07435625791549683
1775705939857986800,9.63098681640625,-0.14776203036308289,-0.11129962652921677,-0.12924320995807648
1775705939867999700,9.640999755859376,-0.15273521840572357,-0.10390961915254593,-0.22128045558929443
1775705939878013000,9.651012939453125,-0.13108691573143005,-0.019659722223877907,-0.3069074749946594
1775705939888025900,9.66102587890625,-0.04832039400935173,0.060150157660245895,-0.36575746536254883
1775705939898038800,9.671038818359374,0.08177235722541809,0.11534816026687622,-0.3901064991950989
1775705939908051700,9.6810517578125,0.19979140162467957,0.13544811308383942,-0.3708329200744629
1775705939918063900,9.69106396484375,0.27569255232810974,0.1042046993970871,-0.33301791548728943
1775705939928076800,9.701076904296874,0.31428709626197815,0.07044300436973572,-0.30366480350494385
1775705939938089700,9.71108984375,0.3132796287536621,0.01727672480046749,-0.2960047721862793
1775705939948102700,9.7211025390625,0.2715122103691101,0.013882792554795742,-0.3088936507701874
1775705939958115800,9.73111572265625,0.20447510480880737,0.1344400942325592,-0.3595573604106903
1775705939968128800,9.741128662109375,0.13253380358219147,0.33684274554252625,-0.4235009253025055
1775705939978141700,9.7511416015625,0.09630869328975677,0.5185770988464355,-0.45137012004852295
1775705939988153600,9.761153564453124,0.1557275503873825,0.5720744132995605,-0.5229100584983826
1775705939998166800,9.771166748046875,0.28951942920684814,0.6044163703918457,-0.5883514285087585
1775705940008180000,9.781179931640626,0.4605276584625244,0.525790274143219,-0.5945232510566711
1775705940018193000,9.79119287109375,0.6194102764129639,0.3893352448940277,-0.5452207326889038
1775705940028205800,9.801205810546875,0.7224543690681458,0.29849720001220703,-0.4784962832927704
1775705940038218800,9.81121875,0.7578533291816711,0.23312966525554657,-0.4158874750137329
1775705940048232000,9.82123193359375,0.7376753687858582,0.28035682439804077,-0.368877112865448
1775705940058243800,9.831243896484375,0.6860079169273376,0.3403828740119934,-0.3145773708820343
1775705940068256800,9.8412568359375,0.5252933502197266,0.40725192427635193,-0.20750205218791962
1775705940078269700,9.851269775390625,0.34144413471221924,0.3620910942554474,-0.057437993586063385
1775705940088283100,9.861283203125,0.22764354944229126,0.2069838047027588,0.10278789699077606
1775705940098295800,9.8712958984375,0.15336079895496368,0.02857412025332451,0.24406352639198303
1775705940108309000,9.88130908203125,0.08351673185825348,-0.06467433273792267,0.3417099416255951
1775705940118322000,9.891322021484376,0.030788006260991096,-0.07877230644226074,0.38940662145614624
1775705940128335000,9.901335205078125,0.00130894361063838,-0.01611878164112568,0.37968873977661133
1775705940138347000,9.911346923828125,-0.0005350290448404849,0.0694001168012619,0.3404638469219208
1775705940148360000,9.92135986328125,-0.040776725858449936,0.17103007435798645,0.2870083451271057
1775705940158372900,9.931372802734375,-0.12610547244548798,0.2581245005130768,0.2116565853357315
1775705940168386000,9.941385986328125,-0.19963668286800385,0.2759000360965729,0.13201768696308136
1775705940178398700,9.951398681640624,-0.24358390271663666,0.26779869198799133,0.07318286597728729
1775705940188412000,9.961411865234375,-0.2373901903629303,0.21554480493068695,0.03727094084024429
1775705940198425000,9.971425048828126,-0.2017722725868225,0.1222609281539917,0.014366156421601772
1775705940208437000,9.98143701171875,-0.16493089497089386,0.03339311107993126,-0.025182850658893585
1775705940218450200,9.9914501953125,-0.15913638472557068,0.015919044613838196,-0.07793580740690231
1775705940228462800,10.001462890625,-0.15515203773975372,0.0537889301776886,-0.14150919020175934
1775705940238476000,10.01147607421875,-0.14211346209049225,0.10918108373880386,-0.21407367289066315
1775705940248489000,10.021489013671875,-0.09800618886947632,0.12672439217567444,-0.27460598945617676
1775705940258502000,10.031501953125,-0.02949663996696472,0.09157279133796692,-0.29146328568458557
1775705940268514800,10.041514892578125,0.04905063286423683,0.000847950461320579,-0.26042279601097107
1775705940278527000,10.05152685546875,0.10676159709692001,-0.08074305206537247,-0.20226415991783142
1775705940288540000,10.061539794921876,0.15199299156665802,-0.14757001399993896,-0.149342879652977
1775705940298553000,10.071552978515625,0.18593019247055054,-0.1883600503206253,-0.10789024829864502
1775705940308565800,10.081565673828125,0.2014244645833969,-0.19362592697143555,-0.10066003352403641
1775705940318579000,10.091578857421876,0.1955878734588623,-0.1917334794998169,-0.12071976065635681
1775705940328592100,10.101592041015625,0.17272409796714783,-0.19273696839809418,-0.15254266560077667
1775705940338604800,10.111604736328125,0.14313718676567078,-0.1921534687280655,-0.19459664821624756
1775705940348618000,10.121617919921874,0.09691349416971207,-0.15257781744003296,-0.2297261357307434
1775705940358630000,10.1316298828125,0.04788630083203316,-0.10016415268182755,-0.24709448218345642
1775705940368643000,10.14164306640625,0.003918308764696121,-0.04201988875865936,-0.26078763604164124
1775705940378656000,10.151656005859374,-0.026554645970463753,0.003234142903238535,-0.27187252044677734
1775705940388669000,10.1616689453125,-0.03440537676215172,0.03664775937795639,-0.2537238895893097
1775705940398681900,10.171681884765626,-0.028616996482014656,0.07445106655359268,-0.22755299508571625
1775705940408695000,10.181695068359375,-0.011562113650143147,0.10327126085758209,-0.2115553915500641
1775705940418708000,10.1917080078125,-0.007184942252933979,0.10216844826936722,-0.1705632209777832
1775705940428719900,10.201719970703126,-0.03459659218788147,0.06745147705078125,-0.1066683903336525
1775705940438732800,10.21173291015625,-0.06667942553758621,-0.017185112461447716,-0.04308142513036728
1775705940448746000,10.22174609375,-0.08848059922456741,-0.10983994603157043,-0.007387608755379915
1775705940458759200,10.23175927734375,-0.09568870812654495,-0.16705450415611267,0.007813714444637299
1775705940468771800,10.241771728515625,-0.07633445411920547,-0.17590577900409698,0.0005494101205840707
1775705940478785000,10.251784912109375,-0.03440511226654053,-0.13419029116630554,-0.03116084821522236
1775705940488798000,10.2617978515625,0.018998458981513977,-0.0816144347190857,-0.07932598143815994
1775705940498811000,10.271810791015625,0.07502976804971695,-0.03057228960096836,-0.13290798664093018
1775705940508823000,10.281822998046875,0.10815869271755219,0.009798302315175533,-0.19169726967811584
1775705940518836000,10.2918359375,0.10286539793014526,0.043348539620637894,-0.25729650259017944
1775705940528849000,10.301848876953125,0.04490462318062782,0.08932215720415115,-0.3247016668319702
1775705940538862000,10.311862060546876,-0.03900385648012161,0.15177755057811737,-0.37562820315361023
1775705940548874800,10.321874755859374,-0.13579031825065613,0.17462293803691864,-0.40120360255241394
1775705940558888000,10.331887939453125,-0.23450544476509094,0.1698542833328247,-0.38660070300102234
1775705940568901000,10.341901123046876,-0.3184610605239868,0.16935200989246368,-0.32792168855667114
1775705940578913000,10.3519130859375,-0.3722792863845825,0.1811884343624115,-0.22188445925712585
1775705940588926000,10.361926025390625,-0.4274442791938782,0.22626535594463348,-0.060977332293987274
1775705940598939000,10.37193896484375,-0.46022167801856995,0.2109133005142212,0.12915745377540588
1775705940608952000,10.3819521484375,-0.477403849363327,0.14491510391235352,0.2978689670562744
1775705940618965000,10.391965087890625,-0.4786302447319031,0.07190535217523575,0.44704434275627136
1775705940628978000,10.40197802734375,-0.48173946142196655,0.0018255969043821096,0.5966119766235352
1775705940638990800,10.411990966796875,-0.4940485954284668,-0.0326322466135025,0.7455348968505859
1775705940649003000,10.4220029296875,-0.5172348618507385,-0.01561251562088728,0.8668203353881836
1775705940659016000,10.432015869140624,-0.5162370204925537,0.02305338717997074,0.9529261589050293
1775705940669029000,10.442029052734375,-0.48653075098991394,0.04615844041109085,1.0069159269332886
1775705940679041800,10.452041748046875,-0.44707655906677246,0.0492788664996624,1.0189507007598877
1775705940689055000,10.462054931640624,-0.4182049632072449,0.046064164489507675,0.988288938999176
1775705940699068200,10.472068115234375,-0.39080238342285156,0.014819160103797913,0.9079171419143677
1775705940709080800,10.482080810546876,-0.35794907808303833,-0.014419951476156712,0.8190250992774963
1775705940719094000,10.492093994140625,-0.30579906702041626,-0.042993273586034775,0.7559813857078552
1775705940729106000,10.50210595703125,-0.26018205285072327,-0.052926331758499146,0.7195581793785095
1775705940739119000,10.512119140625,-0.23384498059749603,-0.00307675008662045,0.6828672289848328
1775705940749132000,10.522132080078125,-0.22683368623256683,0.08747711777687073,0.6171543002128601
1775705940759145000,10.53214501953125,-0.21518900990486145,0.20080846548080444,0.5276100039482117
1775705940769158000,10.542157958984374,-0.18809187412261963,0.29328781366348267,0.4264668822288513
1775705940779171000,10.552171142578125,-0.1521455943584442,0.2871233820915222,0.33762410283088684
1775705940789183700,10.562183837890625,-0.12115838378667831,0.19878579676151276,0.2807672321796417
1775705940799196000,10.57219580078125,-0.08885051310062408,0.08631038665771484,0.24592188000679016
1775705940809208800,10.582208740234375,-0.0668133869767189,0.04109310731291771,0.24220171570777893
1775705940819222000,10.592221923828125,-0.045935798436403275,0.07738693058490753,0.25996819138526917
1775705940829235000,10.60223486328125,-0.056952498853206635,0.15505535900592804,0.27226534485816956
1775705940839248000,10.612247802734375,-0.07263106107711792,0.2109207659959793,0.2640968859195709
1775705940849261000,10.622260986328126,-0.09311822801828384,0.23559628427028656,0.21468140184879303
1775705940859274000,10.63227392578125,-0.1267630010843277,0.27064961194992065,0.1534593254327774
1775705940869287000,10.642286865234375,-0.1598850041627884,0.3253006041049957,0.13264726102352142
1775705940879298800,10.652298828125,-0.1799231618642807,0.33713647723197937,0.16418041288852692
1775705940889312000,10.66231201171875,-0.1985333263874054,0.2425077110528946,0.21503853797912598
1775705940899325000,10.672324951171875,-0.20753908157348633,0.08862893283367157,0.24338389933109283
1775705940909338000,10.682338134765626,-0.18118657171726227,-0.027661455795168877,0.2502862811088562
1775705940919350800,10.692350830078125,-0.13956588506698608,-0.06688901782035828,0.23829911649227142
1775705940929364000,10.702364013671875,-0.10699089616537094,-0.03117443062365055,0.19361793994903564
1775705940939377200,10.712377197265624,-0.09130674600601196,0.04440155252814293,0.13262541592121124
1775705940949389000,10.72238916015625,-0.11734206974506378,0.0599227212369442,0.07165421545505524
1775705940959401700,10.732401611328125,-0.16355377435684204,0.06076215207576752,-0.012470518238842487
1775705940969415000,10.742414794921874,-0.20761869847774506,0.0816786140203476,-0.11131241172552109
1775705940979428000,10.752427978515625,-0.23162204027175903,0.12226253002882004,-0.20957054197788239
1775705940989441000,10.76244091796875,-0.23516350984573364,0.18270963430404663,-0.27957066893577576
1775705940999454000,10.772453857421874,-0.20827864110469818,0.2508796155452728,-0.31282368302345276
1775705941009467000,10.782466796875,-0.16171406209468842,0.25710582733154297,-0.2791176438331604
1775705941019480000,10.79247998046875,-0.10571524500846863,0.21113914251327515,-0.21787028014659882
1775705941029492000,10.802491943359374,-0.036746297031641006,0.18723221123218536,-0.18595868349075317
1775705941039505000,10.8125048828125,0.02665957435965538,0.19820789992809296,-0.18300071358680725
1775705941049517800,10.822517822265626,0.0687369853258133,0.18796829879283905,-0.19353777170181274
1775705941059531000,10.832531005859375,0.08078406006097794,0.13952407240867615,-0.19848139584064484
1775705941069544000,10.8425439453125,0.08169139921665192,0.09652520716190338,-0.2070850133895874
1775705941079556900,10.852556884765624,0.08828805387020111,0.0435783714056015,-0.19108712673187256
1775705941089569800,10.86256982421875,0.09383594989776611,0.011216435581445694,-0.13174284994602203
1775705941099582000,10.87258203125,0.09412623196840286,0.0005816344055347145,-0.07189735770225525
1775705941109595000,10.882594970703124,0.09494355320930481,-0.025539448484778404,-0.039437420666217804
1775705941119607800,10.89260791015625,0.09977027028799057,-0.04965570196509361,-0.03147909790277481
1775705941129621000,10.90262109375,0.11016591638326645,-0.16798047721385956,-0.04279087483882904
1775705941139634000,10.912634033203124,0.12277065962553024,-0.29210561513900757,-0.059293948113918304
1775705941149647000,10.922647216796875,0.13918398320674896,-0.3886220455169678,-0.048114266246557236
1775705941159659800,10.93265966796875,0.1646914780139923,-0.4454949200153351,-0.012011122889816761
1775705941169673000,10.9426728515625,0.174054354429245,-0.45688632130622864,0.08747152239084244
1775705941179684900,10.952684814453125,0.18079695105552673,-0.5189840197563171,0.26981231570243835
1775705941189698000,10.962697998046876,0.20614731311798096,-0.5675220489501953,0.43003472685813904
1775705941199710700,10.972710693359375,0.2693920433521271,-0.4783625900745392,0.5039930939674377
1775705941209724000,10.982723876953125,0.3450181186199188,-0.31751111149787903,0.45717981457710266
1775705941219736800,10.99273681640625,0.4162065386772156,-0.10692298412322998,0.2502628266811371
1775705941229750000,11.00275,0.44646111130714417,0.045955508947372437,-0.07530301064252853
1775705941239763000,11.012762939453125,0.4131369888782501,0.12239968031644821,-0.4504814147949219
1775705941249774800,11.02277490234375,0.32631659507751465,0.1698947697877884,-0.8131581544876099
1775705941259787800,11.032787841796875,0.24330240488052368,0.1262149214744568,-1.121070146560669
1775705941269801000,11.042801025390625,0.15298981964588165,0.05498681962490082,-1.3065303564071655
1775705941279814000,11.05281396484375,0.060499563813209534,0.037105292081832886,-1.3681784868240356
1775705941289826800,11.062826904296875,-0.008536496199667454,0.10445982962846756,-1.325640082359314
1775705941299840000,11.072840087890626,-0.036383308470249176,0.2510106563568115,-1.154072880744934
1775705941309853000,11.08285302734375,-0.029390113428235054,0.3254963457584381,-0.8627728223800659
1775705941319865900,11.092865966796875,-0.02159983478486538,0.22741344571113586,-0.4838431179523468
1775705941329877800,11.102877685546876,-0.04789535328745842,-0.04833930358290672,-0.12462102621793747
1775705941339891000,11.112890869140625,-0.08652956783771515,-0.3252566456794739,0.15040601789951324
1775705941349904000,11.12290380859375,-0.1302834302186966,-0.509942889213562,0.3530968129634857
1775705941359916800,11.132916748046876,-0.1765523999929428,-0.5481975674629211,0.4885513186454773
1775705941369930000,11.142929931640625,-0.21146456897258759,-0.4756259322166443,0.5635480284690857
1775705941379943000,11.15294287109375,-0.22438757121562958,-0.3375154435634613,0.6088960766792297
1775705941389956000,11.1629560546875,-0.19122081995010376,-0.15644127130508423,0.6293491721153259
1775705941399968000,11.172968017578125,-0.15210483968257904,0.04993000999093056,0.62673419713974
1775705941409981000,11.18298095703125,-0.1299433559179306,0.20496326684951782,0.6093688011169434
1775705941419993900,11.192993896484374,-0.12244841456413269,0.2947717308998108,0.5704395174980164
1775705941430007000,11.203007080078125,-0.13112446665763855,0.2663395404815674,0.49048876762390137
1775705941440020000,11.21302001953125,-0.17447219789028168,0.1693621277809143,0.36940279603004456
1775705941450033000,11.223032958984374,-0.25318220257759094,0.06386766582727432,0.19855889678001404
1775705941460045800,11.2330458984375,-0.33700039982795715,0.04054449498653412,0.018341457471251488
1775705941470059000,11.24305908203125,-0.38503289222717285,0.10918347537517548,-0.1713099628686905
1775705941480071000,11.25307080078125,-0.38639989495277405,0.19278942048549652,-0.3451288938522339
1775705941490083800,11.263083740234375,-0.35406672954559326,0.2596968114376068,-0.4985269606113434
1775705941500096800,11.2730966796875,-0.2605777978897095,0.3618711233139038,-0.6016994118690491
1775705941510110000,11.28310986328125,-0.11871093511581421,0.38989317417144775,-0.5950119495391846
1775705941520123000,11.293122802734375,0.010585532523691654,0.2670860290527344,-0.4912794530391693
1775705941530135800,11.3031357421875,0.0783802941441536,0.09167292714118958,-0.3327830135822296
1775705941540149000,11.31314892578125,0.07964449375867844,-0.1065131276845932,-0.23434779047966003
1775705941550161000,11.323160888671875,0.009524795226752758,-0.26342710852622986,-0.20913803577423096
1775705941560174000,11.333174072265624,-0.06145084276795387,-0.33117181062698364,-0.21136976778507233
1775705941570186800,11.343186767578125,-0.10077294707298279,-0.3073785901069641,-0.23928262293338776
1775705941580200000,11.353199951171876,-0.10407181084156036,-0.2894797623157501,-0.28505969047546387
1775705941590212900,11.363212890625,-0.06220052391290665,-0.24777624011039734,-0.31080713868141174
1775705941600226000,11.37322607421875,0.013877732679247856,-0.18200735747814178,-0.34011122584342957
1775705941610239000,11.383239013671876,0.11531593650579453,-0.0956391766667366,-0.35217562317848206
1775705941620252000,11.393251953125,0.21509206295013428,-0.03200347349047661,-0.33135342597961426
1775705941630263800,11.403263916015625,0.27733707427978516,0.050267163664102554,-0.2639448344707489
1775705941640277000,11.413277099609376,0.30995145440101624,0.11058750003576279,-0.1255829632282257
1775705941650290000,11.4232900390625,0.2572839856147766,0.039507728070020676,0.06775161623954773
1775705941660302800,11.433302734375,0.14035923779010773,-0.08022692799568176,0.2600440979003906
1775705941670316000,11.44331591796875,0.057206299155950546,-0.17379815876483917,0.4095819294452667
1775705941680329000,11.453328857421875,0.03423839807510376,-0.2740110456943512,0.5271013379096985
1775705941690342000,11.463341796875,0.08033452183008194,-0.38778847455978394,0.6298199892044067
1775705941700353800,11.473353759765626,0.19921164214611053,-0.4714125394821167,0.6976616382598877
1775705941710367000,11.483366943359375,0.3556539714336395,-0.5507209300994873,0.7050870656967163
1775705941720380000,11.4933798828125,0.47234436869621277,-0.5388602614402771,0.6582556366920471
1775705941730392800,11.503392822265624,0.5118518471717834,-0.42375633120536804,0.5879138708114624
1775705941740405800,11.51340576171875,0.49111831188201904,-0.2855726182460785,0.49613624811172485
1775705941750419000,11.5234189453125,0.44785022735595703,-0.1696351021528244,0.3724694550037384
1775705941760432000,11.53343212890625,0.3876475989818573,-0.11759746819734573,0.24131648242473602
1775705941770444800,11.54344482421875,0.3541346490383148,-0.11869069933891296,0.13218866288661957
1775705941780457000,11.55345703125,0.3786250650882721,-0.15362125635147095,0.079097218811512
1775705941790470000,11.563469970703125,0.4547927975654602,-0.23830337822437286,0.086504265666008
1775705941800483000,11.573483154296875,0.5361337661743164,-0.3088662326335907,0.13907426595687866
1775705941810495700,11.583495849609376,0.5704264640808105,-0.3227948248386383,0.21457114815711975
1775705941820509000,11.593509033203125,0.5588355660438538,-0.2580485939979553,0.289603054523468
1775705941830521900,11.60352197265625,0.5186695456504822,-0.14600567519664764,0.3359343409538269
1775705941840535000,11.61353515625,0.4148150384426117,0.01768551953136921,0.32996484637260437
1775705941850547000,11.623546875,0.27576714754104614,0.21628543734550476,0.26914623379707336
1775705941860560000,11.633559814453125,0.17839796841144562,0.38257479667663574,0.18833822011947632
1775705941870572800,11.64357275390625,0.1302107274532318,0.4667155146598816,0.14301307499408722
1775705941880586000,11.6535859375,0.13949131965637207,0.4581393301486969,0.11629651486873627
1775705941890599000,11.663598876953126,0.18885567784309387,0.40198445320129395,0.0869213193655014
1775705941900611800,11.67361181640625,0.24895362555980682,0.34409958124160767,0.06886934489011765
1775705941910625000,11.683625,0.2950494885444641,0.27367228269577026,0.06928027421236038
1775705941920638000,11.693637939453126,0.32270482182502747,0.18345345556735992,0.07709318399429321
1775705941930650000,11.703650146484375,0.33192893862724304,0.12802720069885254,0.06494065374135971
1775705941940662800,11.713662841796875,0.311835378408432,0.08465176820755005,0.01380822341889143
1775705941950676000,11.723676025390626,0.253214955329895,0.06798384338617325,-0.05393513664603233
1775705941960689000,11.73368896484375,0.1611982136964798,0.05722014605998993,-0.14965154230594635
1775705941970701800,11.743701904296875,0.04205717146396637,0.04390407353639603,-0.25723206996917725
1775705941980714800,11.75371484375,-0.09184390306472778,0.06355074793100357,-0.37505483627319336
1775705941990728000,11.76372802734375,-0.2024516463279724,0.11571700870990753,-0.4810672998428345
1775705942000741000,11.7737412109375,-0.2568219304084778,0.14683471620082855,-0.5477914810180664
1775705942010753000,11.7837529296875,-0.26331499218940735,0.15903519093990326,-0.5703058242797852
1775705942020766000,11.793765869140625,-0.24317003786563873,0.1375647932291031,-0.5624132752418518
1775705942030779000,11.80377880859375,-0.18968898057937622,0.06652256846427917,-0.5232605338096619
1775705942040792000,11.8137919921875,-0.12264469265937805,-0.051954012364149094,-0.4818340241909027
1775705942050804700,11.8238046875,-0.05404858663678169,-0.1333378106355667,-0.44582515954971313
1775705942060818000,11.83381787109375,-0.00956900417804718,-0.1846340298652649,-0.4265369474887848
1775705942070830800,11.843830810546875,-0.01798619143664837,-0.19685740768909454,-0.4316118657588959
1775705942080843000,11.853843017578125,-0.050756387412548065,-0.13622042536735535,-0.4720191955566406
1775705942090855400,11.86385546875,-0.059361860156059265,-0.01956438086926937,-0.5329334139823914
1775705942100868400,11.873868408203125,-0.01404844131320715,0.10758425295352936,-0.5786862373352051
1775705942110881300,11.88388134765625,0.06028357893228531,0.2155032604932785,-0.5907729864120483
1775705942120894500,11.89389453125,0.18434932827949524,0.2437940239906311,-0.5626710653305054
1775705942130907400,11.903907470703125,0.32413172721862793,0.20161807537078857,-0.49826517701148987
1775705942140920300,11.91392041015625,0.4134267270565033,0.14999829232692719,-0.42452090978622437
1775705942150933500,11.92393359375,0.4464222192764282,0.11460833996534348,-0.37170350551605225
1775705942160945400,11.9339453125,0.39936789870262146,0.11006178706884384,-0.31729432940483093
1775705942170958600,11.94395849609375,0.2975102365016937,0.12446709722280502,-0.27394208312034607
1775705942180971300,11.95397119140625,0.16920313239097595,0.12274429202079773,-0.2553308308124542
1775705942190984400,11.963984375,0.03225380927324295,0.1269979029893875,-0.2565721273422241
1775705942200997400,11.973997314453126,-0.0736292153596878,0.12679655849933624,-0.2756326496601105
1775705942211010600,11.984010498046874,-0.10223954916000366,0.0882803276181221,-0.2944750487804413
1775705942221023200,11.994023193359375,-0.07401563972234726,0.058387674391269684,-0.2804811894893646
1775705942231035400,12.004035400390626,0.000532365869730711,0.028599420562386513,-0.25949254631996155
1775705942241048300,12.01404833984375,0.1023079976439476,-0.00017124126316048205,-0.24214152991771698
1775705942251061500,12.0240615234375,0.19476282596588135,-0.02245524153113365,-0.21150238811969757
1775705942261074400,12.034074462890626,0.22529835999011993,-0.025308553129434586,-0.1650664508342743
1775705942271087400,12.04408740234375,0.19294682145118713,-0.012031096033751965,-0.1337743103504181
1775705942281100500,12.0541005859375,0.11878231167793274,0.07200974225997925,-0.1431497037410736
1775705942291113500,12.064113525390624,0.057008158415555954,0.1615028828382492,-0.18411417305469513
1775705942301126400,12.07412646484375,0.011481952853500843,0.2204684615135193,-0.20388469099998474
1775705942311138300,12.08413818359375,-0.010823885910212994,0.2558019459247589,-0.18909642100334167
1775705942321151500,12.0941513671875,-0.007649930194020271,0.28313344717025757,-0.13618233799934387
1775705942331164400,12.104164306640625,0.027760790660977364,0.2843233346939087,-0.04104197397828102
1775705942341177300,12.11417724609375,0.0787171795964241,0.2377595603466034,0.08591890335083008
1775705942351190300,12.124190185546874,0.13617435097694397,0.1436181515455246,0.21074499189853668
1775705942361203500,12.134203369140625,0.1363447904586792,0.06176057085394859,0.3162176311016083
1775705942371216400,12.14421630859375,0.10749690234661102,-0.0102553004398942,0.3685615062713623
1775705942381229300,12.154229248046875,0.04869776591658592,-0.05213377624750137,0.37301406264305115
1775705942391241200,12.1642412109375,-0.020596088841557503,-0.06829250603914261,0.33421552181243896
1775705942401254400,12.17425439453125,-0.0580020509660244,-0.08352471888065338,0.27147358655929565
1775705942411267600,12.184267578125,-0.07788468152284622,-0.09784986078739166,0.21396422386169434
1775705942421280500,12.194280517578125,-0.08915571123361588,-0.0695178285241127,0.14745044708251953
1775705942431293400,12.20429345703125,-0.08139259368181229,-0.00930055696517229,0.0694965198636055
1775705942441306400,12.214306396484375,-0.05480679124593735,0.0814751535654068,-0.0032176312524825335
1775705942451319600,12.224319580078125,-0.0038037928752601147,0.1660182625055313,-0.06312251091003418
1775705942461331500,12.23433154296875,0.049002695828676224,0.21045629680156708,-0.09988265484571457
1775705942471344400,12.244344482421875,0.0729122906923294,0.17741446197032928,-0.11110787838697433
1775705942481357300,12.254357421875,0.06979559361934662,0.11529756337404251,-0.09609776735305786
1775705942491370500,12.26437060546875,0.06156828999519348,0.021205952391028404,-0.06132727488875389
1775705942501383400,12.274383544921875,0.04394349083304405,-0.06452679634094238,-0.027055053040385246
1775705942511396400,12.284396240234376,0.03374917432665825,-0.1127992495894432,-0.010182330384850502
1775705942521409500,12.294409423828125,0.04296344518661499,-0.11726564168930054,0.0017185378819704056
1775705942531422500,12.30442236328125,0.07483749091625214,-0.08702357858419418,0.019508186727762222
