time,seconds_elapsed,z,y,x
1775714561861615000,0.065614990234375,0.12914937734603882,-0.6257206797599792,0.6027382016181946
1775714561871631000,0.075631103515625,0.16480962932109833,-0.6886375546455383,0.6214197278022766
1775714561881648000,0.085648193359375,0.221945121884346,-0.8802407383918762,0.6498010158538818
1775714561891664400,0.095664306640625,0.2833158075809479,-1.0929125547409058,0.6765750646591187
1775714561901680000,0.10568017578125,0.31456369161605835,-1.2798281908035278,0.6770070791244507
1775714561911697200,0.115697265625,0.32297343015670776,-1.4177157878875732,0.6971783638000488
1775714561921714000,0.1257138671875,0.37039461731910706,-1.5407644510269165,0.7593194246292114
1775714561931730000,0.13572998046875,0.4745234251022339,-1.9063825607299805,0.8724262714385986
1775714561941746700,0.14574658203125,0.6547821760177612,-2.137199640274048,1.0351669788360596
1775714561951762700,0.1557626953125,0.9576171636581421,-2.099938154220581,1.1781315803527832
1775714561961779000,0.165779052734375,1.3340846300125122,-2.020597457885742,1.3049647808074951
1775714561971795700,0.175795654296875,1.4655425548553467,-2.0340988636016846,1.4580172300338745
1775714561981811700,0.185811767578125,1.2780919075012207,-2.0371930599212646,1.5819460153579712
1775714561991827700,0.19582763671875,1.1293787956237793,-2.1321942806243896,1.6464104652404785
1775714562001843700,0.20584375,1.0851784944534302,-2.269338369369507,1.6555520296096802
1775714562011860700,0.21586083984375,1.0143741369247437,-2.3991806507110596,1.6304258108139038
1775714562021876700,0.225876708984375,0.8374350666999817,-2.5565717220306396,1.5291138887405396
1775714562031892700,0.235892822265625,0.5568279027938843,-2.602834939956665,1.4180949926376343
1775714562041909800,0.24590966796875,0.25267529487609863,-2.3895649909973145,1.315846562385559
1775714562051925800,0.25592578125,0.032862767577171326,-1.8873863220214844,1.131959080696106
1775714562061941800,0.265941650390625,-0.05081195756793022,-1.20775306224823,0.9506142139434814
1775714562071958800,0.275958740234375,-0.19585968554019928,-0.4483940303325653,0.8368725180625916
1775714562081974800,0.285974853515625,-0.39622968435287476,0.02727471850812435,0.8026621341705322
1775714562091990800,0.29599072265625,-0.4857342839241028,-0.04187612235546112,0.8122361898422241
1775714562102006800,0.3060068359375,-0.6350398659706116,-0.4240603446960449,0.7798610329627991
1775714562112023800,0.31602392578125,-0.8606069087982178,-1.0091369152069092,0.6773064732551575
1775714562122039800,0.326039794921875,-1.0292408466339111,-1.5246212482452393,0.5329076051712036
1775714562132055800,0.336055908203125,-1.0940134525299072,-1.8480477333068848,0.3701402544975281
1775714562142072600,0.346072509765625,-1.0332515239715576,-1.913482666015625,0.1288299560546875
1775714562152088800,0.3560888671875,-0.9101676344871521,-1.7399052381515503,-0.1679963916540146
1775714562162104800,0.366104736328125,-0.7833728194236755,-1.3354400396347046,-0.3820202648639679
1775714562172121900,0.376121826171875,-0.6691437363624573,-0.7690601944923401,-0.5876080393791199
1775714562182137600,0.3861376953125,-0.5920552015304565,-0.2271515429019928,-0.7751912474632263
1775714562192153600,0.396153564453125,-0.527317464351654,-0.03418661281466484,-0.778212308883667
1775714562202169900,0.406169921875,-0.4932997226715088,0.014576698653399944,-0.6719222068786621
1775714562212187000,0.416186767578125,-0.5078757405281067,-0.23749281466007233,-0.4208921492099762
1775714562222203000,0.426202880859375,-0.5481318235397339,-0.6934730410575867,-0.06325478106737137
1775714562232218600,0.436218505859375,-0.6235256195068359,-1.225506067276001,0.27756431698799133
1775714562242235600,0.446235595703125,-0.6875454187393188,-1.7652850151062012,0.5148131251335144
1775714562252252000,0.456251953125,-0.7190409898757935,-2.0676393508911133,0.645310640335083
1775714562262268000,0.466267822265625,-0.6815153360366821,-1.8642702102661133,0.6754339337348938
1775714562272284700,0.47628466796875,-0.5879166722297668,-1.4313485622406006,0.7077468633651733
1775714562282300700,0.48630078125,-0.5104539394378662,-0.9449052214622498,0.755325198173523
1775714562292316700,0.496316650390625,-0.553358256816864,-0.519673764705658,0.7758962512016296
1775714562302334000,0.506333984375,-0.7504791021347046,-0.23505772650241852,0.7804170250892639
1775714562312349700,0.516349609375,-0.9906964898109436,0.055455323308706284,0.7475575804710388
1775714562322365700,0.52636572265625,-1.2893701791763306,0.10388842225074768,0.7609453201293945
1775714562332381700,0.536381591796875,-1.637076735496521,0.008921689353883266,0.8214163780212402
1775714562342399000,0.54639892578125,-1.8743008375167847,-0.1482723206281662,0.8454123139381409
1775714562352414700,0.556414794921875,-1.9734444618225098,-0.37376776337623596,0.9048998951911926
1775714562362430700,0.5664306640625,-1.9985207319259644,-0.5857012867927551,1.0420562028884888
1775714562372447700,0.57644775390625,-1.9783906936645508,-0.7081260085105896,1.1707252264022827
1775714562382463700,0.586463623046875,-1.8618966341018677,-0.7200272083282471,1.3014106750488281
1775714562392480000,0.59647998046875,-1.6428484916687012,-0.5566989779472351,1.4120272397994995
1775714562402496800,0.606496826171875,-1.3667709827423096,-0.34646695852279663,1.4916894435882568
1775714562412512800,0.6165126953125,-1.1098726987838745,-0.2248406708240509,1.5195143222808838
1775714562422528800,0.62652880859375,-0.8753674030303955,-0.19823157787322998,1.4895286560058594
1775714562432544800,0.636544677734375,-0.6756588220596313,-0.33594125509262085,1.4747529029846191
1775714562442561800,0.646561767578125,-0.568622350692749,-0.4684424102306366,1.4656215906143188
1775714562452577800,0.656577880859375,-0.5054575204849243,-0.46286043524742126,1.436988115310669
1775714562462593800,0.66659375,-0.5161043405532837,-0.3601192831993103,1.417049527168274
1775714562472610800,0.67661083984375,-0.5203238129615784,-0.35733550786972046,1.432876706123352
1775714562482626600,0.68662646484375,-0.5150487422943115,-0.35063672065734863,1.4767893552780151
1775714562492642800,0.696642822265625,-0.4931144416332245,-0.35836654901504517,1.483333706855774
1775714562502659800,0.706659912109375,-0.43403375148773193,-0.4044398367404938,1.45889151096344
1775714562512675800,0.71667578125,-0.35918399691581726,-0.4455225467681885,1.4172593355178833
1775714562522691800,0.72669189453125,-0.2787914574146271,-0.5196419954299927,1.3302332162857056
1775714562532707600,0.73670751953125,-0.20902620255947113,-0.48102453351020813,1.1861099004745483
1775714562542724900,0.746724853515625,-0.16212855279445648,-0.33278244733810425,1.032468557357788
1775714562552740900,0.756740966796875,-0.12645204365253448,-0.13919727504253387,0.8652865886688232
1775714562562756900,0.7667568359375,-0.10624171048402786,0.11607546359300613,0.6820064187049866
1775714562572773600,0.776773681640625,-0.03775186464190483,0.2726416289806366,0.48234227299690247
1775714562582789600,0.78678955078125,0.03161477670073509,0.33753448724746704,0.3040439784526825
1775714562592806000,0.796805908203125,0.020335223525762558,0.27341434359550476,0.16284319758415222
1775714562602822700,0.80682275390625,-0.026311608031392097,-0.011359593831002712,0.03182484954595566
1775714562612838700,0.816838623046875,-0.08415919542312622,-0.2865581512451172,-0.06892945617437363
1775714562622854700,0.826854736328125,-0.09597370773553848,-0.39801469445228577,-0.13459588587284088
1775714562632870700,0.83687060546875,-0.04903123155236244,-0.37901943922042847,-0.16659696400165558
1775714562642888000,0.846887939453125,-0.00883515551686287,-0.2536327838897705,-0.22167110443115234
1775714562652903700,0.856903564453125,-0.0546330027282238,-0.15439221262931824,-0.3530730903148651
1775714562662919700,0.866919677734375,-0.17657499015331268,-0.07049822807312012,-0.5070586800575256
1775714562672936700,0.876936767578125,-0.24164345860481262,-0.05416479334235191,-0.6303920149803162
1775714562682953000,0.886952880859375,-0.2133374959230423,-0.09177102148532867,-0.6805431246757507
1775714562692969000,0.896968994140625,-0.15741723775863647,-0.13276825845241547,-0.6600072383880615
1775714562702985700,0.90698583984375,-0.16609495878219604,-0.1776144951581955,-0.5934444069862366
1775714562713001700,0.917001708984375,-0.24310877919197083,-0.2837044298648834,-0.4791007936000824
1775714562723017700,0.927017822265625,-0.3522125780582428,-0.5390543937683105,-0.3429776430130005
1775714562733034000,0.937033935546875,-0.46731680631637573,-0.8216341137886047,-0.19976426661014557
1775714562743050800,0.94705078125,-0.5075897574424744,-1.030971646308899,-0.09408029168844223
1775714562753066800,0.957066650390625,-0.46969833970069885,-1.0136419534683228,-0.06288855522871017
1775714562763082800,0.967082763671875,-0.39923804998397827,-0.8143352270126343,-0.11922115832567215
1775714562773099800,0.977099853515625,-0.30896514654159546,-0.5677952170372009,-0.25595158338546753
1775714562783115800,0.98711572265625,-0.22048911452293396,-0.2449764460325241,-0.4526277482509613
1775714562793131800,0.9971318359375,-0.1653212010860443,0.054398007690906525,-0.6882925033569336
1775714562803148800,1.007148681640625,-0.13801006972789764,0.25913184881210327,-0.9117166996002197
1775714562813164800,1.017164794921875,-0.10502788424491882,0.38791990280151367,-1.0914541482925415
1775714562823180800,1.027180908203125,-0.0691676214337349,0.4353364408016205,-1.204217791557312
1775714562833196800,1.03719677734375,-0.05424033850431442,0.4501739740371704,-1.2301676273345947
1775714562843213800,1.0472138671875,-0.03635217249393463,0.4259265065193176,-1.1876921653747559
1775714562853229800,1.057229736328125,0.01431632973253727,0.36967310309410095,-1.0932703018188477
1775714562863245800,1.067245849609375,0.07822058349847794,0.34801939129829407,-0.9818819761276245
1775714562873262800,1.077262939453125,0.1238490492105484,0.36687830090522766,-0.8626500964164734
1775714562883278800,1.08727880859375,0.11000049114227295,0.4698558747768402,-0.7249636054039001
1775714562893294800,1.097294921875,0.06370915472507477,0.5552040934562683,-0.5551964044570923
1775714562903311600,1.1073115234375,0.009665084071457386,0.5175583362579346,-0.3742123246192932
1775714562913327600,1.11732763671875,-0.05117083713412285,0.3763039708137512,-0.2121243178844452
1775714562923344100,1.12734423828125,-0.09089334309101105,0.20996299386024475,-0.07038287818431854
1775714562933360000,1.137360107421875,-0.12559886276721954,0.11959049105644226,0.06310753524303436
1775714562943377000,1.147376953125,-0.1504201889038086,0.09502270072698593,0.14881965517997742
1775714562953393000,1.157392822265625,-0.1522093117237091,0.09537370502948761,0.1726701259613037
1775714562963409000,1.167408935546875,-0.13483844697475433,0.10496795922517776,0.16861091554164886
1775714562973426200,1.17742626953125,-0.09882663935422897,0.17728477716445923,0.15076640248298645
1775714562983442200,1.187442138671875,-0.06985748559236526,0.3230085074901581,0.13092292845249176
1775714562993458000,1.1974580078125,-0.046580128371715546,0.4267045557498932,0.11142886430025101
1775714563003474000,1.207473876953125,-0.041283018887043,0.45183685421943665,0.1269470751285553
1775714563013491000,1.217490966796875,-0.05935603007674217,0.3766337037086487,0.17214731872081757
1775714563023507200,1.227507080078125,-0.08973193913698196,0.24956899881362915,0.24387118220329285
1775714563033523200,1.237523193359375,-0.13337822258472443,0.14894917607307434,0.31751638650894165
1775714563043540000,1.2475400390625,-0.14744463562965393,0.1299923062324524,0.3733288049697876
1775714563053556000,1.257555908203125,-0.1368761509656906,0.14436937868595123,0.379578173160553
1775714563063572000,1.267572021484375,-0.11766290664672852,0.20505265891551971,0.34145551919937134
1775714563073589000,1.277589111328125,-0.07400090992450714,0.26161447167396545,0.2652475833892822
1775714563083605000,1.28760498046875,-0.01820540614426136,0.3142724931240082,0.20003695785999298
1775714563093621000,1.29762109375,0.06173097342252731,0.34919318556785583,0.16160941123962402
1775714563103637000,1.307636962890625,0.1537540853023529,0.3992578685283661,0.15062488615512848
1775714563113654000,1.317654052734375,0.2124568223953247,0.42254936695098877,0.13791468739509583
1775714563123670000,1.327669921875,0.24688369035720825,0.38787922263145447,0.11679531633853912
1775714563133686000,1.33768603515625,0.26470237970352173,0.3536778390407562,0.08311139047145844
1775714563143703000,1.347703125,0.2716785669326782,0.28521081805229187,0.046287257224321365
1775714563153719000,1.357718994140625,0.2788459360599518,0.18184369802474976,0.03500663861632347
1775714563163735000,1.367735107421875,0.25509312748908997,0.08134716004133224,0.0555863231420517
1775714563173752000,1.377751953125,0.1827739030122757,0.009845273569226265,0.08271754533052444
1775714563183768000,1.38776806640625,0.11593744158744812,-0.02206762507557869,0.09805279970169067
1775714563193784000,1.3977841796875,0.08294406533241272,0.022137921303510666,0.09308360517024994
1775714563203800000,1.407800048828125,0.08610983192920685,0.08340617269277573,0.0559515617787838
1775714563213817000,1.417817138671875,0.1090921014547348,0.17171072959899902,0.018264368176460266
1775714563223833000,1.4278330078125,0.13549451529979706,0.23196576535701752,-0.012256460264325142
1775714563233849000,1.43784912109375,0.15008491277694702,0.2352486401796341,-0.03695647791028023
1775714563243865900,1.447865966796875,0.15856105089187622,0.23631109297275543,-0.04174882173538208
1775714563253881900,1.4578818359375,0.18520517647266388,0.22937515377998352,-0.03946409747004509
1775714563263898000,1.467898193359375,0.20002852380275726,0.20642775297164917,-0.030288677662611008
1775714563273915100,1.4779150390625,0.14473837614059448,0.16624784469604492,-0.001967558404430747
1775714563283931100,1.48793115234375,0.05660155415534973,0.12480424344539642,0.04154329374432564
1775714563293947000,1.49794677734375,-0.020219193771481514,0.05328717827796936,0.0772075429558754
1775714563303963000,1.507962890625,-0.07544142007827759,0.012887481600046158,0.1049220934510231
1775714563313980200,1.517980224609375,-0.10522061586380005,-0.008303291164338589,0.11276936531066895
1775714563323996200,1.52799609375,-0.1155160665512085,-0.03373592346906662,0.1034451574087143
1775714563334012000,1.538011962890625,-0.10176777094602585,-0.03314603492617607,0.08794263005256653
1775714563344029000,1.54802880859375,-0.08194682747125626,-0.008937953971326351,0.0507202185690403
1775714563354045000,1.558044921875,-0.06859879940748215,-0.018315477296710014,0.00030311569571495056
1775714563364061200,1.568061279296875,-0.05395989492535591,-0.028170591220259666,-0.03576748073101044
1775714563374077200,1.5780771484375,-0.01688176766037941,-0.073595330119133,-0.09335248172283173
1775714563384094000,1.588093994140625,-0.0029717781580984592,-0.10924651473760605,-0.14117366075515747
1775714563394110000,1.59810986328125,-0.01235276274383068,-0.1279624104499817,-0.15884186327457428
1775714563404126000,1.6081259765625,-0.04460042715072632,-0.13236895203590393,-0.15019848942756653
1775714563414143000,1.61814306640625,-0.08487088233232498,-0.15519224107265472,-0.1356661468744278
1775714563424159000,1.628158935546875,-0.12570396065711975,-0.1274506002664566,-0.1332278847694397
1775714563434175000,1.638175048828125,-0.1565484255552292,-0.09379783272743225,-0.16314023733139038
1775714563444192000,1.64819189453125,-0.17280103266239166,-0.07905960828065872,-0.18867163360118866
1775714563454208300,1.658208251953125,-0.18770700693130493,-0.08564400672912598,-0.20696915686130524
1775714563464224000,1.66822412109375,-0.2008959949016571,-0.10419207811355591,-0.21486833691596985
1775714563474240000,1.678239990234375,-0.20357567071914673,-0.09035588800907135,-0.19741956889629364
1775714563484257000,1.688257080078125,-0.18408818542957306,-0.06165613979101181,-0.20055578649044037
1775714563494273000,1.69827294921875,-0.13821442425251007,-0.06503968685865402,-0.2295490950345993
1775714563504289000,1.7082890625,-0.0787690132856369,-0.03391285985708237,-0.2511640191078186
1775714563514306000,1.71830615234375,-0.029694411903619766,-0.028200911357998848,-0.26226407289505005
1775714563524322000,1.728322021484375,0.00904233381152153,-0.025137130171060562,-0.2580929398536682
1775714563534338000,1.738338134765625,0.01988166570663452,-0.008570936508476734,-0.23454900085926056
1775714563544354000,1.74835400390625,0.018496356904506683,-0.011127452366054058,-0.18931378424167633
1775714563554371000,1.75837109375,0.020566964522004128,-0.02911071479320526,-0.12978202104568481
1775714563564387000,1.768386962890625,0.027333226054906845,-0.05694796144962311,-0.08332676440477371
1775714563574403000,1.778403076171875,0.03977178782224655,-0.09038367867469788,-0.03959207236766815
1775714563584419800,1.788419921875,0.056200094521045685,-0.11406225711107254,0.011944994330406189
1775714563594435800,1.798435791015625,0.06550091505050659,-0.11691796034574509,0.07095371931791306
1775714563604452000,1.8084521484375,0.06599180400371552,-0.10437143594026566,0.11716951429843903
1775714563614469000,1.81846923828125,0.06346872448921204,-0.09885762631893158,0.1347714066505432
1775714563624485000,1.828485107421875,0.07106740772724152,-0.08399510383605957,0.12281877547502518
1775714563634500900,1.8385009765625,0.061276037245988846,-0.03549627214670181,0.08167559653520584
1775714563644516900,1.848516845703125,0.05971568822860718,-0.0008530725026503205,0.010084767825901508
1775714563654534100,1.8585341796875,0.06874407082796097,0.00926773902028799,-0.06681613624095917
1775714563664550100,1.868550048828125,0.08671342581510544,0.017923973500728607,-0.11813433468341827
1775714563674566100,1.878566162109375,0.11277245730161667,0.02117915451526642,-0.14743417501449585
1775714563684583000,1.8885830078125,0.13893084228038788,0.03642752766609192,-0.15026070177555084
1775714563694599000,1.898598876953125,0.1617799699306488,0.05481159687042236,-0.13605301082134247
1775714563704615200,1.908615234375,0.16049878299236298,0.06437147408723831,-0.12121714651584625
1775714563714632000,1.9186318359375,0.13974690437316895,0.04840049520134926,-0.10479076951742172
1775714563724648000,1.92864794921875,0.1085093766450882,0.024720992892980576,-0.08549733459949493
1775714563734664000,1.938663818359375,0.07184749841690063,0.014363163150846958,-0.06113047897815704
1775714563744680000,1.948679931640625,0.04321695491671562,0.018096940591931343,-0.03965752199292183
1775714563754697000,1.958697021484375,0.02008979767560959,0.06315789371728897,-0.028857337310910225
1775714563764713000,1.968712890625,0.01160900667309761,0.09754429012537003,-0.03176763281226158
1775714563774729000,1.97872900390625,0.010835092514753342,0.08942297846078873,-0.04854581132531166
1775714563784746000,1.98874609375,0.020698176696896553,0.08141417056322098,-0.05648725852370262
1775714563794762200,1.99876220703125,0.0404692217707634,0.09389400482177734,-0.04190219193696976
1775714563804778000,2.008778076171875,0.05649423971772194,0.12342274934053421,-0.016740402206778526
1775714563814794000,2.0187939453125,0.05621647089719772,0.14060813188552856,0.00817293580621481
1775714563824811000,2.02881103515625,0.04669921100139618,0.12247462570667267,0.02679232694208622
1775714563834827000,2.038826904296875,0.03134289011359215,0.11822395026683807,0.05500638857483864
1775714563844843000,2.048843017578125,0.011467928066849709,0.111533984541893,0.08167700469493866
1775714563854860000,2.058860107421875,0.00003977073356509209,0.10055989772081375,0.09393446892499924
1775714563864876000,2.0688759765625,0.0036136291455477476,0.11494635045528412,0.10011773556470871
1775714563874892000,2.07889208984375,0.00616254098713398,0.16892117261886597,0.12302278727293015
1775714563884908800,2.08890869140625,0.003031369997188449,0.259357213973999,0.15397348999977112
1775714563894925000,2.098925048828125,0.016810297966003418,0.3379170000553131,0.16929891705513
1775714563904941000,2.108941162109375,0.0322924368083477,0.38556399941444397,0.15469487011432648
1775714563914957000,2.11895703125,0.03673085942864418,0.4030769467353821,0.12243254482746124
1775714563924973600,2.1289736328125,0.03265785798430443,0.36860135197639465,0.08533386141061783
1775714563934989600,2.138989501953125,0.04096425697207451,0.30735716223716736,0.044227972626686096
1775714563945005600,2.149005615234375,0.06294629722833633,0.26139724254608154,0.0005275879520922899
1775714563955022600,2.159022705078125,0.11138573288917542,0.20802216231822968,-0.04653366282582283
1775714563965038600,2.16903857421875,0.167609304189682,0.17392073571681976,-0.10762856155633926
1775714563975054600,2.1790546875,0.22940555214881897,0.16767695546150208,-0.14990997314453125
1775714563985070600,2.189070556640625,0.2830840051174164,0.19771486520767212,-0.1730336993932724
1775714563995087600,2.199087646484375,0.31902068853378296,0.25494512915611267,-0.19551824033260345
1775714564005103600,2.209103515625,0.33549764752388,0.2957015037536621,-0.21754947304725647
1775714564015119600,2.21911962890625,0.2948644757270813,0.3319636583328247,-0.222925066947937
1775714564025136400,2.229136474609375,0.20685115456581116,0.36085233092308044,-0.20768599212169647
1775714564035152600,2.239152587890625,0.1153063178062439,0.3475620746612549,-0.16891302168369293
1775714564045168600,2.249168701171875,0.017593247815966606,0.32847750186920166,-0.12420709431171417
1775714564055184600,2.2591845703125,-0.10348710417747498,0.31060636043548584,-0.08732204139232635
1775714564065201400,2.269201416015625,-0.2254977971315384,0.271575391292572,-0.060967206954956055
1775714564075217400,2.279217529296875,-0.3487720489501953,0.24925144016742706,-0.0003944075433537364
1775714564085233700,2.289233642578125,-0.44240090250968933,0.25898587703704834,0.08176233619451523
1775714564095250700,2.299250732421875,-0.48630738258361816,0.2960195243358612,0.18743044137954712
1775714564105266700,2.3092666015625,-0.49383509159088135,0.30293408036231995,0.30108967423439026
1775714564115282400,2.319282470703125,-0.49562472105026245,0.2154170125722885,0.40447118878364563
1775714564125299500,2.329299560546875,-0.5083486437797546,0.041205815970897675,0.502172589302063
1775714564135315700,2.339315673828125,-0.5786712765693665,-0.13448186218738556,0.6108803749084473
1775714564145331700,2.349331787109375,-0.6972913146018982,-0.25848016142845154,0.713071346282959
1775714564155347700,2.35934765625,-0.8135931491851807,-0.3344894349575043,0.7809313535690308
1775714564165364500,2.369364501953125,-0.9109417796134949,-0.30259251594543457,0.8014882206916809
1775714564175380500,2.37938037109375,-0.9493837356567383,-0.22160445153713226,0.7581572532653809
1775714564185396700,2.389396728515625,-0.8947573304176331,-0.08973824977874756,0.6679366827011108
1775714564195413500,2.39941357421875,-0.7451981902122498,0.021295055747032166,0.5429681539535522
1775714564205429500,2.409429443359375,-0.5694953799247742,0.08741265535354614,0.4161286950111389
1775714564215445500,2.419445556640625,-0.44042450189590454,0.1502147912979126,0.32849180698394775
1775714564225461500,2.42946142578125,-0.35289913415908813,0.2247498333454132,0.29860231280326843
1775714564235478500,2.439478515625,-0.32249462604522705,0.3301745355129242,0.33865705132484436
1775714564245494500,2.44949462890625,-0.31677523255348206,0.33951929211616516,0.38962048292160034
1775714564255510500,2.459510498046875,-0.29944393038749695,0.22387363016605377,0.4143892228603363
1775714564265527600,2.469527587890625,-0.2527889311313629,0.0646616593003273,0.4122256636619568
1775714564275543600,2.47954345703125,-0.179799422621727,-0.037430088967084885,0.3943910002708435
1775714564285559600,2.4895595703125,-0.08046618849039078,-0.07465675473213196,0.36628392338752747
1775714564295575600,2.499575439453125,0.014929569326341152,0.01370373647660017,0.32601532340049744
1775714564305592600,2.509592529296875,0.05327681452035904,0.24429821968078613,0.27167263627052307
1775714564315608600,2.519608642578125,0.07327369600534439,0.43637311458587646,0.20978794991970062
1775714564325624600,2.52962451171875,0.07930338382720947,0.5678722858428955,0.1510307937860489
1775714564335641600,2.5396416015625,0.05760021507740021,0.6392537951469421,0.07280656695365906
1775714564345657600,2.54965771484375,0.020304156467318535,0.6322519779205322,-0.0319819375872612
1775714564355673600,2.559673583984375,-0.016568107530474663,0.6186911463737488,-0.1214979737997055
1775714564365689600,2.569689697265625,-0.04189433157444,0.6317464113235474,-0.18511421978473663
1775714564375706600,2.57970654296875,-0.019940566271543503,0.5998901724815369,-0.22408345341682434
1775714564385722600,2.58972265625,0.011344082653522491,0.6463625431060791,-0.27190765738487244
1775714564395738600,2.599738525390625,0.03666568547487259,0.6648107767105103,-0.3300156891345978
1775714564405755400,2.60975537109375,0.0532543770968914,0.6438246965408325,-0.3556763529777527
1775714564415771400,2.619771484375,0.022466637194156647,0.6432508230209351,-0.33287596702575684
1775714564425787600,2.62978759765625,-0.047965846955776215,0.5697394013404846,-0.26925143599510193
1775714564435803600,2.6398037109375,-0.13204476237297058,0.45598161220550537,-0.19126127660274506
1775714564445820700,2.649820556640625,-0.1974639892578125,0.32278069853782654,-0.10711579024791718
1775714564455836400,2.65983642578125,-0.24835778772830963,0.20485804975032806,-0.023882413282990456
1775714564465852400,2.669852294921875,-0.2606760263442993,0.2797955870628357,0.039240140467882156
1775714564475869700,2.67986962890625,-0.20275387167930603,0.37975573539733887,0.017092227935791016
1775714564485885700,2.6898857421875,-0.1238039955496788,0.4542827308177948,-0.09333272278308868
1775714564495901700,2.699901611328125,-0.04954894259572029,0.45752567052841187,-0.2374134659767151
1775714564505917400,2.70991748046875,0.0024894014932215214,0.44252023100852966,-0.3485216200351715
1775714564515934500,2.7199345703125,0.0212313961237669,0.3828366696834564,-0.38663625717163086
1775714564525950700,2.72995068359375,0.01933577097952366,0.3159511983394623,-0.3331862986087799
1775714564535966700,2.739966796875,-0.05358930304646492,0.2859160602092743,-0.20646564662456512
1775714564545983500,2.7499833984375,-0.18255627155303955,0.3495582938194275,-0.07780633866786957
1775714564555999500,2.75999951171875,-0.26153284311294556,0.3544017970561981,-0.04261532798409462
1775714564566015500,2.770015380859375,-0.22154313325881958,0.24282009899616241,-0.09793787449598312
1775714564576031700,2.78003173828125,-0.13150537014007568,0.14707733690738678,-0.26202666759490967
1775714564586048500,2.790048583984375,-0.002950223395600915,0.0634942427277565,-0.43482181429862976
1775714564596064500,2.800064453125,0.12737582623958588,0.0412382073700428,-0.5505385994911194
1775714564606080500,2.81008056640625,0.1763172149658203,0.030674319714307785,-0.6164219975471497
1775714564616097800,2.820097900390625,0.14467912912368774,0.042115259915590286,-0.6686418056488037
1775714564626113500,2.830113525390625,0.16120874881744385,0.03453418239951134,-0.7352524995803833
1775714564636129500,2.840129638671875,0.24704429507255554,0.1394382268190384,-0.8027721643447876
1775714564646145500,2.8501455078125,0.3678533732891083,0.21943826973438263,-0.9281354546546936
1775714564656162600,2.86016259765625,0.48223212361335754,0.26862072944641113,-1.0723450183868408
1775714564666178600,2.870178466796875,0.5526261329650879,0.21167589724063873,-1.1504008769989014
1775714564676194600,2.880194580078125,0.5595775246620178,0.06651870161294937,-1.144839882850647
1775714564686211600,2.890211669921875,0.5393747687339783,-0.0933990553021431,-1.0238245725631714
1775714564696227600,2.9002275390625,0.5501962900161743,-0.23080112040042877,-0.870448887348175
1775714564706243600,2.91024365234375,0.6028703451156616,-0.289141446352005,-0.7572284936904907
1775714564716259600,2.920259521484375,0.6350522637367249,-0.2205277532339096,-0.688612163066864
1775714564726276600,2.930276611328125,0.6178728938102722,-0.08588073402643204,-0.6802823543548584
1775714564736292600,2.940292724609375,0.584729015827179,0.07518590986728668,-0.6631177067756653
1775714564746308600,2.95030859375,0.4992178678512573,0.19710272550582886,-0.6566163897514343
1775714564756325400,2.960325439453125,0.3571547567844391,0.21717789769172668,-0.6212405562400818
1775714564766341600,2.970341552734375,0.23806427419185638,0.21740508079528809,-0.5362865924835205
1775714564776357600,2.980357666015625,0.2031201273202896,0.18642692267894745,-0.39344367384910583
1775714564786373600,2.99037353515625,0.19829438626766205,0.24242520332336426,-0.26841825246810913
1775714564796390700,3.000390625,0.22936494648456573,0.27877524495124817,-0.215716153383255
1775714564806406400,3.010406494140625,0.2959952652454376,0.2167188674211502,-0.2046038806438446
1775714564816422400,3.02042236328125,0.35956519842147827,0.04209886118769646,-0.1678011268377304
1775714564826438700,3.030438720703125,0.34060436487197876,-0.0834466889500618,-0.06628194451332092
1775714564836455700,3.04045556640625,0.2384290099143982,-0.07895100116729736,0.052799440920352936
1775714564846471400,3.050471435546875,0.1005142480134964,-0.15901930630207062,0.08656410872936249
1775714564856487400,3.0604873046875,-0.009829039685428143,-0.3411577045917511,0.03349663317203522
1775714564866504700,3.070504638671875,-0.04844449833035469,-0.405762255191803,-0.08049027621746063
1775714564876520700,3.080520751953125,0.004662393592298031,-0.24055862426757812,-0.17018847167491913
1775714564886536700,3.09053662109375,0.09635478258132935,-0.21575427055358887,-0.2368352860212326
1775714564896552400,3.100552490234375,0.12773774564266205,-0.28683242201805115,-0.25681352615356445
1775714564906569500,3.110569580078125,0.08644230663776398,-0.333589106798172,-0.2530692219734192
1775714564916585700,3.120585693359375,0.05321324244141579,-0.3367425501346588,-0.2688439190387726
1775714564926601200,3.130601318359375,0.07690592855215073,-0.30539605021476746,-0.3199600875377655
1775714564936618000,3.140617919921875,0.1107001081109047,-0.2655458450317383,-0.4111855924129486
1775714564946634200,3.15063427734375,0.14213033020496368,-0.20955708622932434,-0.4363950490951538
1775714564956650200,3.160650146484375,0.2020125836133957,-0.21684135496616364,-0.34850195050239563
1775714564966666200,3.170666259765625,0.22279489040374756,-0.21482473611831665,-0.2124880850315094
1775714564976683300,3.180683349609375,0.16739927232265472,-0.22057530283927917,-0.08339320868253708
1775714564986699000,3.190698974609375,0.07372447103261948,-0.31512102484703064,-0.017823925241827965
1775714564996715300,3.20071533203125,0.00046277232468128204,-0.4251175820827484,0.03177878260612488
1775714565006732300,3.210732177734375,-0.08060725778341293,-0.40198078751564026,0.06246379390358925
1775714565016748300,3.220748291015625,-0.1702926605939865,-0.30636534094810486,0.040455162525177
1775714565026764000,3.230763916015625,-0.24016191065311432,-0.20774826407432556,-0.029405439272522926
1775714565036780000,3.240780029296875,-0.266353577375412,-0.1137506514787674,-0.09337722510099411
1775714565046797300,3.25079736328125,-0.2128288596868515,-0.12744173407554626,-0.086788110435009
1775714565056813300,3.260813232421875,-0.12337169051170349,-0.1901991218328476,-0.030529096722602844
1775714565066829300,3.270829345703125,-0.05688786879181862,-0.17303605377674103,0.04371426999568939
1775714565076846000,3.28084619140625,-0.016385184600949287,-0.0646134465932846,0.10596352815628052
1775714565086862000,3.290862060546875,-0.0019148978171870112,0.030470989644527435,0.16053515672683716
1775714565096878300,3.30087841796875,-0.011855678632855415,0.09619726985692978,0.2071322202682495
1775714565106894300,3.310894287109375,-0.05454258620738983,0.05409611761569977,0.18772797286510468
1775714565116911000,3.3209111328125,-0.06313527375459671,-0.04042533040046692,0.15931178629398346
1775714565126927000,3.330927001953125,-0.008189130574464798,-0.07784868031740189,0.1390247941017151
1775714565136943000,3.340943115234375,0.04671512916684151,-0.01735338196158409,0.047782763838768005
1775714565146959400,3.35095947265625,0.09131553024053574,0.04822870343923569,-0.12095034867525101
1775714565156976000,3.36097607421875,0.16049779951572418,0.13358061015605927,-0.31536269187927246
1775714565166992100,3.3709921875,0.21672821044921875,0.20973491668701172,-0.512787401676178
1775714565177008000,3.381008056640625,0.27229616045951843,0.22595863044261932,-0.6513250470161438
1775714565187025400,3.391025390625,0.3620535731315613,0.13971573114395142,-0.6662609577178955
1775714565197041200,3.401041259765625,0.45900729298591614,-0.014788362197577953,-0.5220749974250793
1775714565207057200,3.41105712890625,0.46334078907966614,-0.12829537689685822,-0.23800751566886902
1775714565217073200,3.4210732421875,0.3511636555194855,-0.1389104723930359,0.04878297075629234
1775714565227090200,3.431090087890625,0.17104601860046387,-0.09885454177856445,0.22922450304031372
1775714565237106200,3.441106201171875,-0.035962823778390884,-0.11628306657075882,0.2615414261817932
1775714565247122200,3.4511220703125,-0.2018142193555832,-0.25651314854621887,0.17898786067962646
1775714565257138200,3.46113818359375,-0.22005420923233032,-0.4120105803012848,0.0664844885468483
1775714565267155200,3.4711552734375,-0.15159842371940613,-0.2951878607273102,0.06096603348851204
1775714565277171200,3.481171142578125,-0.07507196068763733,-0.09764015674591064,0.1300625503063202
1775714565287187200,3.491187255859375,-0.04726627096533775,0.013367317616939545,0.21313603222370148
1775714565297204200,3.501204345703125,-0.10675595700740814,0.04289724677801132,0.28142932057380676
1775714565307220200,3.51122021484375,-0.19609013199806213,0.06768137961626053,0.3342167139053345
1775714565317236200,3.521236328125,-0.28164443373680115,0.07722748070955276,0.34636977314949036
1775714565327252200,3.531252197265625,-0.3944256007671356,0.03304073214530945,0.2842554748058319
1775714565337269200,3.541269287109375,-0.5239665508270264,0.029755989089608192,0.16378524899482727
1775714565347285200,3.55128515625,-0.6093465685844421,0.08587811887264252,0.06348384916782379
1775714565357301200,3.56130126953125,-0.6212742924690247,0.13313856720924377,0.006306583061814308
1775714565367317200,3.571317138671875,-0.5563291311264038,0.13542088866233826,-0.018100755289196968
1775714565377334000,3.581333984375,-0.45867258310317993,0.116785429418087,-0.02208537608385086
1775714565387350000,3.59135009765625,-0.3499775230884552,0.05717678368091583,-0.030842440202832222
1775714565397366300,3.6013662109375,-0.2832197844982147,0.04100021347403526,-0.028095124289393425
1775714565407383300,3.61138330078125,-0.23549805581569672,0.03422054648399353,-0.019579799845814705
1775714565417399300,3.6213994140625,-0.25158435106277466,0.08717909455299377,-0.005627764388918877
1775714565427415000,3.6314150390625,-0.3543868958950043,0.11142154037952423,-0.002363729989156127
1775714565437431000,3.64143115234375,-0.49694564938545227,0.0839688777923584,-0.010260002687573433
1775714565447448300,3.6514482421875,-0.6328191757202148,0.0056540812365710735,-0.026054099202156067
1775714565457464300,3.66146435546875,-0.6695694327354431,-0.09588373452425003,-0.04790506884455681
1775714565467480000,3.67147998046875,-0.5831140279769897,-0.1004575565457344,-0.07025980949401855
1775714565477496000,3.68149609375,-0.4269731640815735,-0.04239744320511818,-0.10983891040086746
1775714565487513300,3.691513427734375,-0.22047552466392517,0.0073567782528698444,-0.16161507368087769
1775714565497529300,3.701529296875,-0.016620125621557236,0.10989007353782654,-0.22637276351451874
1775714565507545300,3.71154541015625,0.12422919273376465,0.19890333712100983,-0.3322945833206177
1775714565517562000,3.72156201171875,0.18694370985031128,0.25791552662849426,-0.4028685986995697
1775714565527578000,3.731578125,0.15620586276054382,0.29293566942214966,-0.4360789954662323
1775714565537594000,3.741593994140625,0.05646248534321785,0.3141075372695923,-0.4481590986251831
1775714565547610400,3.7516103515625,-0.07365845888853073,0.33680230379104614,-0.4302275478839874
1775714565557627100,3.761627197265625,-0.17808739840984344,0.3094657361507416,-0.39085859060287476
1775714565567643100,3.77164306640625,-0.25649294257164,0.272680401802063,-0.3583534359931946
1775714565577659100,3.7816591796875,-0.3329424560070038,0.2193833440542221,-0.36372262239456177
1775714565587675100,3.791675048828125,-0.31278347969055176,0.16836793720722198,-0.36230385303497314
1775714565597692200,3.801692138671875,-0.21306805312633514,0.15697146952152252,-0.2932558059692383
1775714565607708200,3.811708251953125,-0.08890406042337418,0.07094898819923401,-0.19613659381866455
1775714565617724200,3.82172412109375,0.005270109511911869,-0.006474700756371021,-0.10107158124446869
1775714565627740200,3.831740234375,0.05153420567512512,0.0029470459558069706,-0.05993049964308739
1775714565637757200,3.841757080078125,0.060698140412569046,0.05954694002866745,-0.11273939162492752
1775714565647773200,3.851773193359375,0.023210467770695686,0.12669289112091064,-0.26294031739234924
1775714565657789200,3.8617890625,-0.07742638885974884,0.2128669172525406,-0.4612009525299072
1775714565667806200,3.87180615234375,-0.19044911861419678,0.3066367208957672,-0.6529761552810669
1775714565677822200,3.881822265625,-0.23820652067661285,0.3788089156150818,-0.8116166591644287
1775714565687838000,3.891837890625,-0.23156261444091797,0.43265652656555176,-0.9006979465484619
1775714565697854200,3.901854248046875,-0.10060779750347137,0.32820257544517517,-0.8971031904220581
1775714565707871200,3.911871337890625,0.16582341492176056,0.19833633303642273,-0.7231371402740479
1775714565717887200,3.92188720703125,0.36820584535598755,0.08520100265741348,-0.38368579745292664
1775714565727903200,3.9319033203125,0.4592176675796509,-0.13239453732967377,-0.009311993606388569
1775714565737919000,3.9419189453125,0.4329037666320801,-0.34922298789024353,0.2955102324485779
1775714565747936300,3.951936279296875,0.3107198178768158,-0.5361341834068298,0.48021864891052246
1775714565757952300,3.9619521484375,0.16353514790534973,-0.6402526497840881,0.5082827806472778
1775714565767968300,3.97196826171875,-0.0185525082051754,-0.5687516927719116,0.39994609355926514
1775714565777984300,3.981984375,-0.15454548597335815,-0.4285953640937805,0.16171300411224365
1775714565788001300,3.992001220703125,-0.12788048386573792,-0.2529527246952057,-0.08351531624794006
1775714565798017300,4.002017333984375,0.025154607370495796,-0.06584489345550537,-0.2633551359176636
1775714565808033300,4.012033203125,0.20679384469985962,0.06983815133571625,-0.3889146149158478
1775714565818050000,4.022050048828125,0.3676280081272125,0.1409197747707367,-0.477215975522995
1775714565828066000,4.032066162109375,0.47680625319480896,0.1991722136735916,-0.5075225830078125
1775714565838082300,4.042082275390625,0.4851483404636383,0.25899747014045715,-0.48726311326026917
1775714565848098300,4.052098388671875,0.38875898718833923,0.22308436036109924,-0.40815627574920654
1775714565858115000,4.062114990234375,0.23013365268707275,0.15988755226135254,-0.2565009891986847
1775714565868131000,4.072131103515625,0.06728807091712952,0.09274423867464066,-0.06460628658533096
1775714565878147000,4.08214697265625,-0.07464136928319931,0.021663406863808632,0.14322520792484283
1775714565888163000,4.0921630859375,-0.17560049891471863,-0.05790641903877258,0.33148670196533203
1775714565898180400,4.102180419921875,-0.19647996127605438,-0.15727055072784424,0.497629851102829
1775714565908196000,4.112196044921875,-0.14096254110336304,-0.2410091608762741,0.6468276977539062
1775714565918212000,4.122212158203125,-0.05313654616475105,-0.2924838066101074,0.7599167227745056
1775714565928228600,4.132228515625,0.018713470548391342,-0.2948320209980011,0.8082106113433838
1775714565938245600,4.14224560546875,0.048269230872392654,-0.2722473442554474,0.761263370513916
1775714565948261600,4.15226171875,0.05570944771170616,-0.25777843594551086,0.6275238394737244
1775714565958277600,4.162277587890625,0.030470937490463257,-0.24014218151569366,0.48062577843666077
1775714565968293600,4.172293701171875,-0.031400952488183975,-0.17234982550144196,0.3360736668109894
1775714565978310700,4.182310546875,-0.09308748692274094,-0.04280461370944977,0.202229842543602
1775714565988326700,4.19232666015625,-0.15002110600471497,0.11577402800321579,0.11846710741519928
1775714565998342700,4.2023427734375,-0.20259031653404236,0.21803222596645355,0.09491091221570969
1775714566008359700,4.212359619140625,-0.26550665497779846,0.24805262684822083,0.130514457821846
1775714566018375700,4.222375732421875,-0.31758636236190796,0.18370667099952698,0.22365371882915497
1775714566028391700,4.2323916015625,-0.3502880930900574,0.05567505583167076,0.346156507730484
1775714566038407700,4.24240771484375,-0.3574589192867279,-0.1087985709309578,0.4472532868385315
1775714566048424700,4.2524248046875,-0.369792640209198,-0.19542600214481354,0.460477739572525
1775714566058440700,4.262440673828125,-0.3929927945137024,-0.19696851074695587,0.4075506031513214
1775714566068456700,4.272456787109375,-0.4213119447231293,-0.1168195977807045,0.3404465913772583
1775714566078472700,4.28247265625,-0.42219212651252747,-0.031179526820778847,0.25221768021583557
1775714566088489700,4.29248974609375,-0.39667198061943054,0.051683176308870316,0.14621862769126892
1775714566098505700,4.302505615234375,-0.3634583652019501,0.0943848267197609,0.03889323025941849
1775714566108521700,4.312521728515625,-0.33228638768196106,0.10583329945802689,-0.04993784800171852
1775714566118537700,4.322537841796875,-0.2988980710506439,0.12355344742536545,-0.1146547943353653
1775714566128554500,4.332554443359375,-0.2619274854660034,0.15349625051021576,-0.1512582004070282
1775714566138570500,4.342570556640625,-0.20742402970790863,0.1786159873008728,-0.15862609446048737
1775714566148586800,4.352586669921875,-0.15251687169075012,0.14709538221359253,-0.14974109828472137
1775714566158602800,4.362602783203125,-0.10023661702871323,0.09355146437883377,-0.13116875290870667
1775714566168619500,4.37261962890625,-0.04061947390437126,0.04418445751070976,-0.10182957351207733
1775714566178635500,4.382635498046875,0.0033357315696775913,0.008220598101615906,-0.07551035284996033
1775714566188651500,4.392651611328125,0.029219215735793114,-0.006245622411370277,-0.07279526442289352
1775714566198667800,4.402667724609375,0.05126991868019104,0.01996760629117489,-0.08820857852697372
1775714566208684800,4.412684814453125,0.07694768160581589,0.05947492644190788,-0.09456365555524826
1775714566218700500,4.422700439453125,0.0881875529885292,0.08699390292167664,-0.09240436553955078
1775714566228716500,4.432716552734375,0.07779980450868607,0.08716198056936264,-0.06617718935012817
1775714566238732500,4.442732666015625,0.06489146500825882,0.06850174814462662,-0.002936702221632004
1775714566248749800,4.452749755859375,0.03248640149831772,0.025669027119874954,0.06439963728189468
1775714566258765800,4.462765869140625,-0.004343515262007713,-0.04085753485560417,0.12520919740200043
1775714566268781600,4.472781494140625,-0.04595954716205597,-0.10979070514440536,0.1917654573917389
1775714566278797600,4.482797607421875,-0.07763677835464478,-0.13187575340270996,0.25719425082206726
1775714566288814600,4.492814697265625,-0.10444989800453186,-0.11141625046730042,0.3054734766483307
1775714566298830800,4.502830810546875,-0.11346762627363205,-0.08000107109546661,0.33570754528045654
1775714566308846600,4.5128466796875,-0.10058984160423279,-0.06303960829973221,0.34612002968788147
1775714566318863600,4.522863525390625,-0.08738216012716293,-0.07130419462919235,0.35277286171913147
1775714566328879600,4.532879638671875,-0.06988714635372162,-0.10279327630996704,0.3543819189071655
1775714566338895600,4.5428955078125,-0.06958514451980591,-0.11686355620622635,0.3518681526184082
1775714566348911900,4.552911865234375,-0.09602878242731094,-0.105342797935009,0.34015271067619324
1775714566358927600,4.562927734375,-0.11984968930482864,-0.13013282418251038,0.33483490347862244
1775714566368944600,4.572944580078125,-0.12048464268445969,-0.16606062650680542,0.3489803671836853
1775714566378960600,4.582960693359375,-0.09839851409196854,-0.1843498796224594,0.364546537399292
1775714566388976600,4.5929765625,-0.07243145257234573,-0.1741262972354889,0.360899955034256
1775714566398992600,4.60299267578125,-0.06234792619943619,-0.1519368290901184,0.34785017371177673
1775714566409009700,4.613009765625,-0.06440707296133041,-0.15031325817108154,0.35206499695777893
1775714566419025700,4.623025634765625,-0.06300491839647293,-0.17591609060764313,0.37025970220565796
1775714566429041700,4.633041748046875,-0.05194885656237602,-0.17556965351104736,0.4144052267074585
1775714566439058400,4.643058349609375,-0.05085030570626259,-0.17802615463733673,0.47102323174476624
1775714566449074700,4.65307470703125,-0.05392806977033615,-0.1952732801437378,0.5360772013664246
1775714566459090700,4.663090576171875,-0.05168595165014267,-0.25913533568382263,0.5916794538497925
1775714566469106700,4.673106689453125,-0.061772339046001434,-0.32425811886787415,0.614651620388031
1775714566479123700,4.683123779296875,-0.06955862045288086,-0.3155756890773773,0.6060379147529602
1775714566489139500,4.693139404296875,-0.05179568752646446,-0.25628039240837097,0.5663219690322876
1775714566499155700,4.70315576171875,-0.020594891160726547,-0.16437365114688873,0.5125445127487183
1775714566509171700,4.713171630859375,-0.010847227647900581,-0.05634552985429764,0.4384160041809082
1775714566519188700,4.723188720703125,-0.0248048547655344,0.008746388368308544,0.3680177330970764
1775714566529204500,4.73320458984375,-0.03545164689421654,0.008535349741578102,0.31800588965415955
1775714566539220500,4.743220458984375,-0.02837323024868965,0.027380943298339844,0.30692368745803833
1775714566549236500,4.753236572265625,0.0018830075860023499,0.0778912603855133,0.31285375356674194
1775714566559253800,4.763253662109375,0.02301439270377159,0.1047910526394844,0.30169937014579773
1775714566569269800,4.773269775390625,0.01577695459127426,0.11174265295267105,0.298962265253067
1775714566579285500,4.783285400390625,-0.014953527599573135,0.07860680669546127,0.32730576395988464
1775714566589301500,4.793301513671875,-0.03726716712117195,-0.032250095158815384,0.395306795835495
1775714566599318800,4.80331884765625,-0.043068330734968185,-0.1268996298313141,0.4937500059604645
1775714566609334800,4.813334716796875,-0.055533118546009064,-0.16076529026031494,0.5888002514839172
1775714566619350800,4.823350830078125,-0.06507868319749832,-0.15679584443569183,0.678182065486908
1775714566629366500,4.833366455078125,-0.07145998626947403,-0.13296344876289368,0.7524993419647217
1775714566639382500,4.843382568359375,-0.057276517152786255,-0.12406770139932632,0.823468804359436
1775714566649399800,4.85339990234375,-0.058178555220365524,-0.07981708645820618,0.8901939392089844
1775714566659415800,4.863415771484375,-0.0944066047668457,0.0061468216590583324,0.9372349381446838
1775714566669431800,4.873431884765625,-0.14913618564605713,0.09920980781316757,0.9697628021240234
1775714566679447600,4.883447509765625,-0.23276875913143158,0.17254208028316498,0.9992096424102783
1775714566689464600,4.893464599609375,-0.32092711329460144,0.1959581971168518,1.0326119661331177
1775714566699480800,4.903480712890625,-0.39580056071281433,0.11340978741645813,1.0996911525726318
1775714566709496800,4.913496826171875,-0.4319944381713867,-0.07219350337982178,1.1957573890686035
1775714566719512600,4.9235126953125,-0.414532333612442,-0.1982174813747406,1.2747342586517334
1775714566729529600,4.933529541015625,-0.36596712470054626,-0.1564541906118393,1.2679541110992432
1775714566739545600,4.943545654296875,-0.3084478974342346,0.038244448602199554,1.1828287839889526
1775714566749561600,4.9535615234375,-0.2526601552963257,0.20951353013515472,1.0366469621658325
1775714566759577900,4.963577880859375,-0.2139473855495453,0.311654269695282,0.8727906942367554
1775714566769594600,4.9735947265625,-0.15793147683143616,0.31414470076560974,0.7061172127723694
1775714566779610600,4.983610595703125,-0.10159550607204437,0.2545793652534485,0.5552113056182861
1775714566789626600,4.993626708984375,-0.07100498676300049,0.20902206003665924,0.41498327255249023
1775714566799642600,5.003642578125,-0.019293317571282387,0.19675393402576447,0.2660315930843353
1775714566809659600,5.01365966796875,0.022686192765831947,0.24023012816905975,0.1329890787601471
1775714566819675600,5.023675537109375,0.018710890784859657,0.2727814316749573,-0.0038084588013589382
1775714566829691600,5.033691650390625,0.014796916395425797,0.37640106678009033,-0.13381782174110413
1775714566839707600,5.043707763671875,0.01710081659257412,0.5316804051399231,-0.23921002447605133
1775714566849724700,5.053724609375,0.010619210079312325,0.5922413468360901,-0.3596230745315552
1775714566859740700,5.06374072265625,-0.05252806842327118,0.5547512769699097,-0.48490428924560547
1775714566869756700,5.073756591796875,-0.16071388125419617,0.41909921169281006,-0.5572319030761719
1775714566879772700,5.083772705078125,-0.24492889642715454,0.2998793423175812,-0.5654658675193787
1775714566889789700,5.093789794921875,-0.2606523931026459,0.3254879117012024,-0.560316801071167
1775714566899805400,5.103805419921875,-0.17863233387470245,0.4182727038860321,-0.6323580145835876
1775714566909821700,5.11382177734375,-0.06403398513793945,0.5478801727294922,-0.7887344360351562
1775714566919837700,5.123837646484375,0.11776670813560486,0.6191884279251099,-0.9411263465881348
1775714566929855200,5.133855224609375,0.326870322227478,0.7151694893836975,-1.0147428512573242
1775714566939871000,5.14387109375,0.4963829219341278,0.8457054495811462,-1.0032094717025757
1775714566949887000,5.153886962890625,0.5548588633537292,0.8220277428627014,-0.893369734287262
1775714566959903200,5.1639033203125,0.497832328081131,0.718953013420105,-0.6809130907058716
1775714566969919200,5.173919189453125,0.3895722031593323,0.6182693839073181,-0.43927472829818726
1775714566979936000,5.18393603515625,0.2656300365924835,0.4332859218120575,-0.2366313636302948
1775714566989952000,5.193951904296875,0.142179474234581,0.20591534674167633,-0.09988213330507278
1775714566999968000,5.203968017578125,0.05808350443840027,-0.029759228229522705,-0.025205496698617935
1775714567009984300,5.213984375,0.03576501086354256,-0.13483485579490662,0.023827534168958664
1775714567020001300,5.224001220703125,0.08736348152160645,-0.04613162577152252,0.02361235022544861
1775714567030017000,5.23401708984375,0.20142516493797302,0.17400220036506653,-0.06867972761392593
1775714567040033000,5.244032958984375,0.3402315378189087,0.33202648162841797,-0.2075159102678299
1775714567050049000,5.254049072265625,0.4146023094654083,0.3922601342201233,-0.3197156488895416
1775714567060066300,5.26406640625,0.36466991901397705,0.36794254183769226,-0.33994340896606445
1775714567070082300,5.274082275390625,0.20553570985794067,0.1289321482181549,-0.30247607827186584
1775714567080098000,5.28409814453125,0.026925750076770782,-0.11909762769937515,-0.22362573444843292
1775714567090114000,5.294114013671875,-0.08853254467248917,-0.25083091855049133,-0.18378402292728424
1775714567100131000,5.304131103515625,-0.10352534800767899,-0.24564547836780548,-0.20993652939796448
1775714567110147300,5.314147216796875,-0.08044441044330597,-0.20486973226070404,-0.28833988308906555
1775714567120163300,5.324163330078125,-0.09602496773004532,-0.2043629288673401,-0.39663946628570557
1775714567130179000,5.334178955078125,-0.13298830389976501,-0.23317037522792816,-0.5183292031288147
1775714567140196000,5.344196044921875,-0.1838187277317047,-0.23498612642288208,-0.5990536212921143
1775714567150212000,5.354212158203125,-0.19994474947452545,-0.27533742785453796,-0.6347910165786743
1775714567160228400,5.364228271484375,-0.19517210125923157,-0.33329129219055176,-0.5899481773376465
1775714567170244000,5.374244140625,-0.1831488311290741,-0.3693271577358246,-0.46602338552474976
1775714567180260000,5.384260009765625,-0.13944901525974274,-0.3137997090816498,-0.2996988594532013
1775714567190277000,5.394277099609375,-0.042137693613767624,-0.24143320322036743,-0.18626902997493744
1775714567200293000,5.404293212890625,0.06579622626304626,-0.20312470197677612,-0.14027197659015656
1775714567210309400,5.414309326171875,0.13560959696769714,-0.10580682754516602,-0.14011985063552856
1775714567220325000,5.4243251953125,0.14716479182243347,-0.013305657543241978,-0.14854636788368225
1775714567230342100,5.434342041015625,0.09731268882751465,-0.03877006471157074,-0.1176295131444931
1775714567240358100,5.444358154296875,0.014012997969985008,-0.1624683141708374,-0.051976729184389114
1775714567250374100,5.4543740234375,-0.05104079097509384,-0.177332803606987,0.013328521512448788
1775714567260390100,5.46439013671875,-0.03329428285360336,-0.11286486685276031,0.03540053591132164
1775714567270407200,5.4744072265625,0.05179661512374878,-0.025045884773135185,0.036935556679964066
1775714567280423200,5.484423095703125,0.11931654065847397,-0.02784060686826706,0.023150501772761345
1775714567290439200,5.494439208984375,0.16779816150665283,-0.03531532362103462,0.065898098051548
1775714567300455200,5.504455078125,0.20258064568042755,-0.11951915174722672,0.14517401158809662
1775714567310472200,5.51447216796875,0.18016484379768372,-0.24871380627155304,0.21660764515399933
1775714567320488200,5.52448828125,0.12894107401371002,-0.3188910484313965,0.2649775445461273
1775714567330504200,5.534504150390625,0.05108426883816719,-0.3056190311908722,0.2552655041217804
1775714567340520200,5.544520263671875,-0.04347286373376846,-0.254338800907135,0.17104463279247284
1775714567350536200,5.5545361328125,-0.09557976573705673,-0.26420363783836365,0.04478568211197853
1775714567360553200,5.56455322265625,-0.10143046826124191,-0.25890475511550903,-0.062177520245313644
1775714567370569200,5.5745693359375,-0.05203456059098244,-0.26872920989990234,-0.11757451295852661
1775714567380585200,5.584585205078125,0.04880443587899208,-0.27611762285232544,-0.10729311406612396
1775714567390601200,5.594601318359375,0.11622469872236252,-0.3026566207408905,-0.06512073427438736
1775714567400618000,5.604617919921875,0.13703224062919617,-0.3423904478549957,-0.021122919395565987
1775714567410634000,5.614634033203125,0.12286017835140228,-0.355327308177948,-0.004332068841904402
1775714567420650200,5.624650146484375,0.0715184286236763,-0.3627775013446808,-0.025074098259210587
1775714567430666200,5.634666259765625,0.0048444634303450584,-0.40255972743034363,-0.04602726548910141
1775714567440683000,5.64468310546875,-0.07785973697900772,-0.44630056619644165,-0.021530447527766228
1775714567450699000,5.654698974609375,-0.14489972591400146,-0.4504241347312927,0.03474739193916321
1775714567460715000,5.664715087890625,-0.1606757640838623,-0.4431965947151184,0.09425971657037735
1775714567470731300,5.674731201171875,-0.12170577794313431,-0.43605348467826843,0.11568697541952133
1775714567480747300,5.684747314453125,-0.07246233522891998,-0.4407166838645935,0.1356993019580841
1775714567490764000,5.694763916015625,-0.037075474858284,-0.46219298243522644,0.20128180086612701
1775714567500780000,5.704780029296875,-0.028597034513950348,-0.5294631123542786,0.28255027532577515
1775714567510796000,5.714796142578125,-0.04660000279545784,-0.5997905135154724,0.36610350012779236
1775714567520812000,5.72481201171875,-0.07592114061117172,-0.553873598575592,0.4281783103942871
1775714567530829300,5.734829345703125,-0.09933586418628693,-0.41950565576553345,0.41768476366996765
1775714567540845000,5.744844970703125,-0.1032499149441719,-0.31955641508102417,0.3398541510105133
1775714567550861000,5.754861083984375,-0.10187096148729324,-0.27434560656547546,0.23276907205581665
1775714567560877000,5.764876953125,-0.09364472329616547,-0.3020259737968445,0.1295263171195984
1775714567570894300,5.774894287109375,-0.08036830276250839,-0.29821544885635376,0.07307573407888412
1775714567580910000,5.78491015625,-0.02400968410074711,-0.28244897723197937,0.04180010408163071
1775714567590926000,5.794926025390625,0.05455802381038666,-0.24859212338924408,-0.0019128617132082582
1775714567600942000,5.804942138671875,0.13310343027114868,-0.19136185944080353,-0.07631572335958481
1775714567610958000,5.8149580078125,0.16647592186927795,-0.13252340257167816,-0.17251038551330566
1775714567620975400,5.824975341796875,0.14083687961101532,-0.07148774713277817,-0.256316602230072
1775714567630991000,5.8349912109375,0.09082888811826706,-0.045714423060417175,-0.3063289225101471
1775714567641007000,5.845007080078125,0.02772422507405281,-0.051683105528354645,-0.32288578152656555
1775714567651023000,5.855023193359375,-0.05256189405918121,-0.04224022850394249,-0.3399695158004761
1775714567661040000,5.8650400390625,-0.13314755260944366,-0.02852547913789749,-0.3800796568393707
1775714567671056400,5.875056396484375,-0.233934685587883,-0.04095875844359398,-0.4287887215614319
1775714567681072000,5.885072021484375,-0.3584883213043213,-0.05963018164038658,-0.4606372117996216
1775714567691088100,5.895088134765625,-0.47144803404808044,-0.11326973140239716,-0.44040343165397644
1775714567701104000,5.905104248046875,-0.5158530473709106,-0.1384667009115219,-0.370311975479126
1775714567711121200,5.91512109375,-0.4977675676345825,-0.08385840058326721,-0.2767658233642578
1775714567721137200,5.92513720703125,-0.45295748114585876,-0.005899149924516678,-0.2235310673713684
1775714567731153200,5.935153076171875,-0.4109404683113098,0.04681840166449547,-0.20362959802150726
1775714567741169200,5.945169189453125,-0.3821847140789032,0.045723576098680496,-0.17285330593585968
1775714567751186200,5.955186279296875,-0.348755419254303,-0.009890345856547356,-0.14688260853290558
1775714567761202200,5.9652021484375,-0.3247472941875458,-0.036363232880830765,-0.18226003646850586
1775714567771218200,5.97521826171875,-0.2893606722354889,-0.04065805301070213,-0.2748844623565674
1775714567781234200,5.985234130859375,-0.22622856497764587,0.03235197439789772,-0.3532351851463318
1775714567791250200,5.995250244140625,-0.15622466802597046,0.09949536621570587,-0.3827563524246216
1775714567801267200,6.00526708984375,-0.08544423431158066,0.0924190878868103,-0.36095675826072693
1775714567811283200,6.015283203125,-0.04588498920202255,0.08599883317947388,-0.28544339537620544
1775714567821299200,6.02529931640625,-0.041322994977235794,0.028745392337441444,-0.20562367141246796
1775714567831315000,6.03531494140625,-0.082194484770298,-0.06667520850896835,-0.15392035245895386
1775714567841332200,6.045332275390625,-0.10890332609415054,-0.1962238848209381,-0.12229505181312561
1775714567851348200,6.05534814453125,-0.10717400908470154,-0.27082517743110657,-0.07718327641487122
1775714567861364200,6.0653642578125,-0.0793897807598114,-0.2675707936286926,-0.06102961301803589
1775714567871380000,6.0753798828125,-0.028668884187936783,-0.16505739092826843,-0.12731073796749115
1775714567881396000,6.08539599609375,0.011341383680701256,0.007677900139242411,-0.26669150590896606
1775714567891413200,6.095413330078125,0.046162791550159454,0.1461334377527237,-0.43432125449180603
1775714567901429200,6.10542919921875,0.10836038738489151,0.2390119880437851,-0.5874567627906799
1775714567911445200,6.1154453125,0.19679884612560272,0.293151319026947,-0.727215588092804
1775714567921461000,6.1254609375,0.33623793721199036,0.33238714933395386,-0.8174282908439636
1775714567931477200,6.135477294921875,0.5292832851409912,0.3232256770133972,-0.7712563276290894
1775714567941494300,6.145494384765625,0.6867496371269226,0.2370114028453827,-0.5695525407791138
1775714567951510300,6.15551025390625,0.753046452999115,0.07105596363544464,-0.26285886764526367
1775714567961526300,6.1655263671875,0.7016764879226685,-0.06005677580833435,0.02725098468363285
1775714567971542000,6.1755419921875,0.5759310722351074,-0.1361464411020279,0.16673901677131653
1775714567981559300,6.185559326171875,0.4139453172683716,-0.13755498826503754,0.1096712052822113
1775714567991575300,6.1955751953125,0.26099586486816406,-0.06906893849372864,-0.11137866973876953
1775714568001591300,6.20559130859375,0.15958693623542786,0.03850865736603737,-0.41414889693260193
1775714568011607300,6.215607177734375,0.14909760653972626,0.14695143699645996,-0.6647478342056274
1775714568021623000,6.225623046875,0.23254910111427307,0.21997584402561188,-0.760280966758728
1775714568031640300,6.235640380859375,0.3232646584510803,0.28621748089790344,-0.7015169262886047
1775714568041656300,6.24565625,0.374280720949173,0.3133825361728668,-0.5478978157043457
1775714568051672300,6.25567236328125,0.3513842821121216,0.2362392246723175,-0.3563639521598816
1775714568061688000,6.26568798828125,0.21828511357307434,0.08405449241399765,-0.15116313099861145
1775714568071705000,6.275705078125,0.029381543397903442,-0.07415743917226791,0.00701987836509943
1775714568081721300,6.285721435546875,-0.15901899337768555,-0.19266463816165924,0.09060345590114594
1775714568091737300,6.2957373046875,-0.2891620099544525,-0.2820892930030823,0.1023048534989357
1775714568101753300,6.30575341796875,-0.3129690885543823,-0.23623976111412048,0.06625843793153763
1775714568111769000,6.31576904296875,-0.23991940915584564,-0.10504458099603653,0.03465167433023453
1775714568121786000,6.3257861328125,-0.11624886095523834,-0.015805251896381378,0.01674404926598072
1775714568131802000,6.335802001953125,0.0014810333959758282,0.05993589386343956,0.009784258902072906
1775714568141818400,6.345818359375,0.10078099370002747,0.09946919232606888,0.024381045252084732
1775714568151834400,6.35583447265625,0.17397117614746094,0.08597702533006668,0.06220491603016853
1775714568161850000,6.36585009765625,0.17283160984516144,-0.023078888654708862,0.09522944688796997
1775714568171867100,6.3758671875,0.1217881292104721,-0.10236743837594986,0.10904423147439957
1775714568181883100,6.385883056640625,0.039808571338653564,-0.08487845957279205,0.11759111285209656
1775714568191899400,6.3958994140625,-0.031884223222732544,-0.07497556507587433,0.1379633992910385
1775714568201915400,6.405915283203125,-0.07944508641958237,-0.084769606590271,0.15409843623638153
1775714568211931100,6.41593115234375,-0.08646522462368011,-0.0859835222363472,0.1583925038576126
1775714568221948200,6.4259482421875,-0.05225532129406929,-0.04633837193250656,0.1527702957391739
1775714568231964200,6.435964111328125,-0.002492089755833149,0.04245030879974365,0.12371004372835159
1775714568241980200,6.445980224609375,0.02353338524699211,0.1545102596282959,0.06568455696105957
1775714568251996200,6.45599609375,0.02846076712012291,0.24427157640457153,0.00876668281853199
1775714568262013200,6.46601318359375,-0.0006952548865228891,0.319140762090683,-0.04869448021054268
1775714568272029200,6.476029296875,-0.03895418345928192,0.32329681515693665,-0.09968600422143936
1775714568282045200,6.486045166015625,-0.06010819971561432,0.26922160387039185,-0.11062680184841156
1775714568292061200,6.496061279296875,-0.08758118748664856,0.20687726140022278,-0.06083814427256584
1775714568302077200,6.5060771484375,-0.13529011607170105,0.17401544749736786,0.02117922529578209
1775714568312094200,6.51609423828125,-0.16686925292015076,0.0968356803059578,0.09673765301704407
1775714568322110200,6.526110107421875,-0.1781381517648697,0.032506756484508514,0.14899979531764984
1775714568332126200,6.536126220703125,-0.1889917403459549,0.08935761451721191,0.15023759007453918
1775714568342142200,6.54614208984375,-0.1890985369682312,0.17808935046195984,0.09640365093946457
1775714568352158200,6.556158203125,-0.151615709066391,0.22127115726470947,0.028935085982084274
1775714568362175200,6.56617529296875,-0.09446346759796143,0.2228245884180069,-0.017033204436302185
1775714568372191200,6.576191162109375,-0.06203204020857811,0.25927984714508057,-0.0457749217748642
1775714568382207200,6.586207275390625,-0.06920046359300613,0.2873538136482239,-0.07467421144247055
1775714568392223200,6.59622314453125,-0.09707105904817581,0.29067263007164,-0.08562267571687698
1775714568402239000,6.606239013671875,-0.12486780434846878,0.22537964582443237,-0.06416744738817215
1775714568412256300,6.61625634765625,-0.1433306634426117,0.11754380911588669,-0.030470019206404686
1775714568422272300,6.626272216796875,-0.1499776542186737,0.03961572051048279,0.001360348891466856
1775714568432288300,6.636288330078125,-0.1368522197008133,0.042844999581575394,0.029630085453391075
1775714568442304300,6.64630419921875,-0.0987682119011879,0.08947055786848068,0.047373395413160324
1775714568452320000,6.656320068359375,-0.07158860564231873,0.08177492767572403,0.041486527770757675
1775714568462337300,6.666337158203125,-0.05056880787014961,0.09763884544372559,0.030948136001825333
1775714568472353300,6.676353271484375,-0.02646707557141781,0.13886798918247223,0.0229926910251379
1775714568482369300,6.686369384765625,-0.009503539651632309,0.16024865210056305,-0.003132652025669813
1775714568492385000,6.696385009765625,0.0013155406340956688,0.18927818536758423,-0.04149716719985008
1775714568502402300,6.70640234375,0.011694944463670254,0.1703561693429947,-0.0873275101184845
1775714568512418300,6.716418212890625,0.01654864475131035,0.14396528899669647,-0.11860578507184982
1775714568522434300,6.726434326171875,0.015928393229842186,0.11106006801128387,-0.12776252627372742
1775714568532450300,6.7364501953125,-0.000564165529794991,0.06997451186180115,-0.1191650852560997
1775714568542466000,6.746466064453125,-0.007051093503832817,0.03213924169540405,-0.09925049543380737
1775714568552483000,6.756483154296875,0.004476682282984257,0.052482977509498596,-0.06822163611650467
1775714568562499300,6.766499267578125,0.014018788933753967,0.05015484243631363,-0.04379459470510483
1775714568572515300,6.776515380859375,0.01721941865980625,0.02037489414215088,-0.011800176464021206
1775714568582531300,6.78653125,0.014575697481632233,-0.019112594425678253,0.03712901845574379
1775714568592547000,6.796547119140625,-0.005418091081082821,-0.0636046975851059,0.08950775116682053
1775714568602564000,6.806564208984375,-0.026651209220290184,-0.10856844484806061,0.13158249855041504
1775714568612580400,6.816580322265625,-0.032194141298532486,-0.11756055802106857,0.14966578781604767
1775714568622596400,6.826596435546875,-0.029603149741888046,-0.09346374124288559,0.12747101485729218
1775714568632612400,6.8366123046875,-0.02109265699982643,-0.06679019331932068,0.08161567151546478
1775714568642628000,6.846628173828125,0.0005593746900558472,-0.03920251131057739,0.04517803713679314
1775714568652645000,6.85664501953125,0.032816506922245026,0.011639365926384926,0.019194206222891808
1775714568662661000,6.8666611328125,0.06483568996191025,0.05196335166692734,0.0031846128404140472
1775714568672677400,6.876677490234375,0.08744443207979202,0.10024543106555939,0.0006401983555406332
1775714568682693000,6.886693115234375,0.0858990028500557,0.08579645305871964,0.01769188605248928
1775714568692709000,6.896709228515625,0.06408624351024628,0.059255748987197876,0.06771746277809143
1775714568702726100,6.90672607421875,0.03296268358826637,0.04020935297012329,0.12110878527164459
1775714568712742100,6.9167421875,-0.0009227978298440576,0.04987557977437973,0.16696318984031677
1775714568722758400,6.92675830078125,-0.038747671991586685,0.06313678622245789,0.2019326239824295
1775714568732774100,6.936774169921875,-0.07351773232221603,0.04070672020316124,0.23499998450279236
1775714568742790100,6.9467900390625,-0.09003466367721558,0.014932647347450256,0.2768515646457672
1775714568752807200,6.95680712890625,-0.08288625627756119,-0.024037819355726242,0.32456570863723755
1775714568762823200,6.9668232421875,-0.061631038784980774,-0.07617559283971786,0.37397506833076477
1775714568772839400,6.97683935546875,-0.03808090090751648,-0.07459282130002975,0.42316457629203796
1775714568782855200,6.986855224609375,-0.03566301614046097,-0.02976357191801071,0.47539475560188293
1775714568792871200,6.99687109375,-0.05330672487616539,-0.006610048934817314,0.5176394581794739
1775714568802888200,7.00688818359375,-0.12291377037763596,0.036707065999507904,0.5408813953399658
1775714568812904200,7.016904296875,-0.2509044110774994,0.003087331773713231,0.5434246063232422
1775714568822920200,7.026920166015625,-0.38998880982398987,-0.10228808969259262,0.549197256565094
1775714568832936200,7.036936279296875,-0.4937695562839508,-0.23633533716201782,0.548047661781311
1775714568842952200,7.0469521484375,-0.5539873838424683,-0.3768919110298157,0.5309703946113586
1775714568852968200,7.05696826171875,-0.5534000992774963,-0.4979151785373688,0.477504700422287
1775714568862985200,7.066985107421875,-0.468769371509552,-0.49674713611602783,0.3860727846622467
1775714568873001200,7.077001220703125,-0.36319324374198914,-0.35229912400245667,0.26077932119369507
1775714568883017200,7.087017333984375,-0.25382065773010254,-0.16200508177280426,0.11186811327934265
1775714568893033200,7.097033203125,-0.18234477937221527,-0.017398830503225327,-0.04259369149804115
1775714568903049200,7.10704931640625,-0.15526121854782104,0.0544322170317173,-0.1629163771867752
1775714568913066200,7.117066162109375,-0.13134503364562988,0.09158394485712051,-0.2326231300830841
1775714568923082200,7.127082275390625,-0.1277734637260437,0.11114219576120377,-0.24483078718185425
1775714568933097500,7.137097412109375,-0.14813166856765747,0.10538236051797867,-0.18255850672721863
1775714568943113200,7.14711328125,-0.15079137682914734,0.07707349210977554,-0.032216135412454605
1775714568953129500,7.15712939453125,-0.13572610914707184,0.01652669906616211,0.15608051419258118
1775714568963146500,7.167146484375,-0.09762241691350937,-0.04124046117067337,0.31844785809516907
1775714568973162500,7.17716259765625,-0.05758960545063019,-0.052569083869457245,0.4308210611343384
1775714568983178500,7.187178466796875,-0.05711556598544121,-0.025320416316390038,0.49839451909065247
1775714568993194200,7.1971943359375,-0.05070746690034866,0.02184469811618328,0.533297598361969
1775714569003210500,7.20721044921875,-0.022984227165579796,0.06293807923793793,0.5348792672157288
1775714569013227500,7.2172275390625,0.02879912778735161,0.11762464791536331,0.4874301254749298
1775714569023243500,7.227243408203125,0.09821601957082748,0.21261641383171082,0.40937578678131104
1775714569033259300,7.23725927734375,0.15709376335144043,0.28578081727027893,0.3263140320777893
1775714569043275300,7.247275146484375,0.1893174797296524,0.3228304386138916,0.2666797339916229
1775714569053291500,7.25729150390625,0.20684930682182312,0.332694947719574,0.24231775104999542
1775714569063308500,7.26730859375,0.21007466316223145,0.35927942395210266,0.24488796293735504
1775714569073324500,7.277324462890625,0.1799178421497345,0.3960960805416107,0.2557927370071411
1775714569083340300,7.28734033203125,0.13668274879455566,0.37665900588035583,0.2966269850730896
1775714569093356300,7.297356201171875,0.10271178930997849,0.36190885305404663,0.41046154499053955
1775714569103372300,7.307372314453125,0.08108958601951599,0.30898916721343994,0.5467024445533752
1775714569113388500,7.317388427734375,0.10502971708774567,0.23179037868976593,0.6542550921440125
1775714569123405600,7.327405517578125,0.15715816617012024,0.1822047084569931,0.7029173970222473
1775714569133421300,7.33742138671875,0.18611782789230347,0.14161543548107147,0.6929906606674194
1775714569143437300,7.347437255859375,0.19346655905246735,0.0980551689863205,0.6433668732643127
1775714569153453300,7.357453369140625,0.19357846677303314,0.11618272960186005,0.5670464634895325
1775714569163469600,7.367469482421875,0.2000613957643509,0.2308342158794403,0.4832703471183777
1775714569173486600,7.377486572265625,0.2125452309846878,0.3515166640281677,0.4138452708721161
1775714569183502300,7.38750244140625,0.21929767727851868,0.4696619510650635,0.39167553186416626
1775714569193518300,7.397518310546875,0.18459133803844452,0.5164961218833923,0.4178900718688965
1775714569203534300,7.407534423828125,0.1143328845500946,0.40283483266830444,0.5135414600372314
1775714569213550300,7.41755029296875,0.03546518832445145,0.19416753947734833,0.6562187671661377
1775714569223566600,7.427566650390625,0.013702099211513996,-0.02750893123447895,0.7976325750350952
1775714569233583400,7.437583251953125,0.03625759854912758,-0.15846993029117584,0.8718665838241577
1775714569243599400,7.447599365234375,0.07913368940353394,-0.18040426075458527,0.818952739238739
1775714569253615400,7.457615478515625,0.11768215149641037,-0.12129995971918106,0.6536331176757812
1775714569263631400,7.46763134765625,0.1664736568927765,-0.0004843260394409299,0.4483097791671753
1775714569273647600,7.477647705078125,0.2240235060453415,0.17491759359836578,0.2614070177078247
1775714569283664400,7.487664306640625,0.3093152344226837,0.33367180824279785,0.07164907455444336
1775714569293680400,7.497680419921875,0.39562684297561646,0.418009877204895,-0.15082354843616486
1775714569303696400,7.5076962890625,0.4254606366157532,0.4104315936565399,-0.3516485393047333
1775714569313712400,7.51771240234375,0.38639020919799805,0.33570414781570435,-0.4887165427207947
1775714569323728600,7.527728759765625,0.3222239911556244,0.23475651443004608,-0.5576463341712952
1775714569333744600,7.53774462890625,0.25662997364997864,0.08683917671442032,-0.5786534547805786
1775714569343761400,7.547761474609375,0.19743964076042175,-0.07124819606542587,-0.5762457251548767
1775714569353777400,7.55777734375,0.1567976176738739,-0.12895062565803528,-0.5954562425613403
1775714569363793400,7.56779345703125,0.13159692287445068,-0.09463686496019363,-0.6290552020072937
1775714569373809400,7.577809326171875,0.14206913113594055,0.031760457903146744,-0.6968450546264648
1775714569383825700,7.58782568359375,0.17520897090435028,0.17408457398414612,-0.7777407169342041
1775714569393842400,7.597842529296875,0.22522687911987305,0.24529753625392914,-0.8329033851623535
1775714569403858400,7.6078583984375,0.3144531548023224,0.18344801664352417,-0.8216006755828857
1775714569413874400,7.61787451171875,0.4090663194656372,0.0669996440410614,-0.7253924608230591
1775714569423890400,7.627890380859375,0.46090397238731384,-0.03216102719306946,-0.5587677955627441
1775714569433906400,7.637906494140625,0.47440120577812195,-0.09732797741889954,-0.34046879410743713
1775714569443922400,7.64792236328125,0.47832804918289185,-0.16349127888679504,-0.09312397241592407
1775714569453939500,7.657939453125,0.4411804974079132,-0.27621355652809143,0.13795338571071625
1775714569463955500,7.66795556640625,0.3518490195274353,-0.3706788122653961,0.3262532651424408
1775714569473971500,7.677971435546875,0.2809845507144928,-0.3632982075214386,0.4339086413383484
1775714569483987500,7.687987548828125,0.23817262053489685,-0.3130054771900177,0.40163540840148926
1775714569494003500,7.69800341796875,0.2572988271713257,-0.23405605554580688,0.23664376139640808
1775714569504020500,7.7080205078125,0.3668128252029419,-0.044809967279434204,-0.007313775829970837
1775714569514036500,7.718036376953125,0.5180001854896545,0.2332620918750763,-0.24215976893901825
1775714569524052500,7.728052490234375,0.6518626809120178,0.46399277448654175,-0.3938624858856201
1775714569534068200,7.738068115234375,0.7332713007926941,0.5382182598114014,-0.45983755588531494
1775714569544084500,7.74808447265625,0.7595649361610413,0.5129477977752686,-0.4007872939109802
1775714569554100500,7.7581005859375,0.7037198543548584,0.38981032371520996,-0.2505657374858856
1775714569564117500,7.768117431640625,0.6029098629951477,0.2558820843696594,-0.07663308084011078
1775714569574133500,7.778133544921875,0.4973415434360504,0.16878025233745575,0.08882402628660202
1775714569584149200,7.788149169921875,0.3917386829853058,0.10119136422872543,0.20063604414463043
1775714569594165500,7.79816552734375,0.3166360855102539,0.025608623400330544,0.25912559032440186
1775714569604181500,7.808181396484375,0.2597096860408783,-0.07581466436386108,0.2790042459964752
1775714569614197500,7.818197509765625,0.1940189152956009,-0.1544228345155716,0.2503926753997803
1775714569624214500,7.828214599609375,0.16153554618358612,-0.17193977534770966,0.16784746944904327
1775714569634230300,7.838230224609375,0.1682354360818863,-0.0805724635720253,0.033736053854227066
1775714569644246300,7.848246337890625,0.1991206407546997,0.039608269929885864,-0.15898706018924713
1775714569654262500,7.858262451171875,0.23533688485622406,0.14643506705760956,-0.3481602966785431
1775714569664278500,7.868278564453125,0.2631669342517853,0.18038718402385712,-0.45420628786087036
1775714569674294500,7.87829443359375,0.24403339624404907,0.13378702104091644,-0.4369949400424957
1775714569684311300,7.888311279296875,0.17374059557914734,0.035785093903541565,-0.3481556177139282
1775714569694327300,7.898327392578125,0.1040421649813652,-0.05071880668401718,-0.27339625358581543
1775714569704343600,7.908343505859375,0.07046955078840256,-0.138254776597023,-0.26021385192871094
1775714569714359600,7.918359619140625,0.059336841106414795,-0.12236090749502182,-0.2824365794658661
1775714569724375600,7.92837548828125,0.08796742558479309,-0.022246291860938072,-0.33122435212135315
1775714569734392300,7.938392333984375,0.1021738350391388,0.11216257512569427,-0.39865928888320923
1775714569744408300,7.948408203125,0.09176114201545715,0.17817755043506622,-0.4493192732334137
1775714569754424300,7.95842431640625,0.07997562736272812,0.18831607699394226,-0.44529905915260315
1775714569764440600,7.968440673828125,0.05610891059041023,0.13949021697044373,-0.39893874526023865
1775714569774456600,7.97845654296875,0.02452569268643856,0.05417028069496155,-0.32631710171699524
1775714569784472600,7.98847265625,-0.008483655750751495,-0.0010945700341835618,-0.26533469557762146
1775714569794488300,7.99848828125,-0.03155150264501572,-0.021270187571644783,-0.22528567910194397
1775714569804505300,8.00850537109375,-0.016324345022439957,-0.03948008269071579,-0.16710439324378967
1775714569814521600,8.018521484375,0.017553893849253654,-0.09549687057733536,-0.09799246490001678
1775714569824537600,8.02853759765625,0.04154365137219429,-0.09755603224039078,-0.0329120010137558
1775714569834553600,8.0385537109375,0.050708867609500885,-0.044942282140254974,-0.00778429489582777
1775714569844569300,8.0485693359375,0.02769649401307106,0.011216860264539719,-0.03375384211540222
1775714569854585300,8.05858544921875,-0.01236057374626398,0.028576688840985298,-0.08587037026882172
1775714569864602400,8.068602294921876,-0.019228601828217506,0.03429609537124634,-0.15286539494991302
1775714569874618600,8.07861865234375,0.009668589569628239,0.11113426089286804,-0.21710073947906494
1775714569884634400,8.08863427734375,0.046496644616127014,0.19741402566432953,-0.26624563336372375
1775714569894650400,8.098650390625,0.07967004925012589,0.22308823466300964,-0.28560468554496765
1775714569904666400,8.108666259765625,0.11087670177221298,0.20651671290397644,-0.2634117603302002
1775714569914682400,8.118682373046875,0.1242656484246254,0.1689809411764145,-0.23411153256893158
1775714569924699600,8.12869970703125,0.12780234217643738,0.11105826497077942,-0.20572808384895325
1775714569934715600,8.138715576171874,0.15135274827480316,0.03704136610031128,-0.1644534170627594
1775714569944731600,8.148731689453125,0.19021758437156677,-0.026778094470500946,-0.09877108037471771
1775714569954747600,8.15874755859375,0.2053433656692505,-0.06645187735557556,-0.03921903669834137
1775714569964763600,8.168763671875,0.19335141777992249,-0.05832896754145622,-0.02014068327844143
1775714569974779600,8.178779541015626,0.15450794994831085,0.009224703535437584,-0.03298749029636383
1775714569984796700,8.188796630859375,0.11832570284605026,0.07821522653102875,-0.06752735376358032
1775714569994812700,8.198812744140625,0.10991162061691284,0.0902819037437439,-0.11191809922456741
1775714570004828700,8.20882861328125,0.13260787725448608,0.06625619530677795,-0.15055978298187256
1775714570014844700,8.2188447265625,0.1957588940858841,0.036039501428604126,-0.15956366062164307
1775714570024860700,8.228860595703125,0.2514794170856476,0.06757292151451111,-0.1398746371269226
1775714570034876700,8.238876708984375,0.25264543294906616,0.13651031255722046,-0.10939952731132507
1775714570044893700,8.248893798828124,0.1930505633354187,0.1994413286447525,-0.056218329817056656
1775714570054909700,8.25890966796875,0.09018375724554062,0.22418823838233948,-0.01757173053920269
1775714570064925700,8.26892578125,-0.03376961871981621,0.25236475467681885,-0.03392700478434563
1775714570074941700,8.278941650390625,-0.11528322845697403,0.2438783496618271,-0.12024352699518204
1775714570084957700,8.288957763671876,-0.07576458156108856,0.22786928713321686,-0.20094211399555206
1775714570094973400,8.298973388671875,0.028503362089395523,0.2024771273136139,-0.19490239024162292
1775714570104990700,8.30899072265625,0.12016963213682175,0.1713370531797409,-0.1335303783416748
1775714570115006700,8.3190068359375,0.18251103162765503,0.11747188121080399,-0.05883108824491501
1775714570125022700,8.329022705078126,0.2278079390525818,0.06298893690109253,0.015937158837914467
1775714570135038700,8.339038818359375,0.24874232709407806,0.039101194590330124,0.04592321813106537
1775714570145054500,8.349054443359375,0.23122696578502655,0.03803646191954613,-0.047967057675123215
1775714570155070500,8.359070556640624,0.16717933118343353,0.10207215696573257,-0.2789755165576935
1775714570165087700,8.369087646484376,0.10225865989923477,0.21242131292819977,-0.5755589604377747
1775714570175103700,8.379103759765625,0.13199344277381897,0.27959898114204407,-0.7995724081993103
1775714570185119700,8.38911962890625,0.2815387547016144,0.32137277722358704,-0.8366217613220215
1775714570195135500,8.399135498046874,0.4269154369831085,0.31270772218704224,-0.7224447131156921
1775714570205151500,8.4091513671875,0.4961717426776886,0.26967450976371765,-0.5421864986419678
1775714570215167700,8.419167724609375,0.47695258259773254,0.22713537514209747,-0.364242285490036
1775714570225183700,8.429183837890625,0.3910461962223053,0.14971515536308289,-0.2283204048871994
1775714570235200800,8.43920068359375,0.2622958719730377,0.046824321150779724,-0.15148530900478363
1775714570245216500,8.449216552734375,0.1284874677658081,0.013352647423744202,-0.13779720664024353
1775714570255232500,8.459232421875,0.03457898274064064,0.04604741185903549,-0.22176271677017212
1775714570265248500,8.46924853515625,0.004876479506492615,0.15255334973335266,-0.37019237875938416
1775714570275264800,8.4792646484375,0.08395350724458694,0.3090331554412842,-0.48755842447280884
1775714570285280800,8.48928076171875,0.2350117266178131,0.36803683638572693,-0.5285871028900146
1775714570295296800,8.499296875,0.39324328303337097,0.37092915177345276,-0.4694468379020691
1775714570305313500,8.5093134765625,0.483352392911911,0.33497753739356995,-0.3415583670139313
1775714570315329500,8.51932958984375,0.48255133628845215,0.21075306832790375,-0.18632744252681732
1775714570325345800,8.529345703125,0.40055951476097107,0.0013135506305843592,-0.022597897797822952
1775714570335361800,8.53936181640625,0.26289716362953186,-0.24840131402015686,0.11732207238674164
1775714570345377800,8.549377685546874,0.12092885375022888,-0.3993985652923584,0.2220170646905899
1775714570355393500,8.5593935546875,-0.02595159038901329,-0.3976069390773773,0.2526523172855377
1775714570365410600,8.56941064453125,-0.17861995100975037,-0.28653714060783386,0.19352029263973236
1775714570375426800,8.5794267578125,-0.31814634799957275,-0.07406443357467651,0.09383154660463333
1775714570385442800,8.58944287109375,-0.4185594916343689,0.11433770507574081,-0.00713688088580966
1775714570395458800,8.599458740234375,-0.45668354630470276,0.1778172105550766,-0.05636065453290939
1775714570405474600,8.609474609375,-0.44224467873573303,0.10569028556346893,-0.04863722249865532
1775714570415490600,8.619490478515624,-0.4067782759666443,0.004535942804068327,0.01026266161352396
1775714570425506600,8.629506591796876,-0.36679357290267944,-0.1107267364859581,0.0825461819767952
1775714570435523800,8.63952392578125,-0.3592624366283417,-0.21867841482162476,0.1485249549150467
1775714570445539800,8.649539794921875,-0.3675483167171478,-0.27828502655029297,0.1924186497926712
1775714570455555600,8.6595556640625,-0.3630135953426361,-0.293613463640213,0.19887524843215942
1775714570465571600,8.669571533203126,-0.3622865378856659,-0.2630550265312195,0.16642490029335022
1775714570475587600,8.679587646484375,-0.3753907084465027,-0.22916321456432343,0.11258765310049057
1775714570485603600,8.689603515625,-0.3833908438682556,-0.171309232711792,0.06427498161792755
1775714570495620600,8.69962060546875,-0.36671024560928345,-0.13270463049411774,0.04895183444023132
1775714570505636600,8.70963671875,-0.33437466621398926,-0.14529284834861755,0.06813511252403259
1775714570515652600,8.719652587890625,-0.29539671540260315,-0.19090059399604797,0.1264563649892807
1775714570525668600,8.729668701171875,-0.25552013516426086,-0.2390414923429489,0.210532084107399
1775714570535684600,8.7396845703125,-0.23504231870174408,-0.2863909602165222,0.30242374539375305
1775714570545700600,8.74970068359375,-0.23928073048591614,-0.3628695011138916,0.4001478850841522
1775714570555716900,8.759716796875,-0.24535980820655823,-0.4152662456035614,0.4932325482368469
1775714570565733600,8.769733642578124,-0.26519662141799927,-0.4409870505332947,0.5389882922172546
1775714570575749600,8.77974951171875,-0.277514785528183,-0.43221062421798706,0.5140305757522583
1775714570585765600,8.789765625,-0.2796618342399597,-0.3706231713294983,0.42921343445777893
1775714570595781600,8.79978173828125,-0.2558761239051819,-0.30297020077705383,0.28513380885124207
1775714570605798000,8.8097978515625,-0.20422226190567017,-0.23829956352710724,0.11819836497306824
1775714570615813600,8.819813720703126,-0.12821577489376068,-0.15600425004959106,-0.04846488684415817
1775714570625829600,8.82982958984375,-0.062033817172050476,-0.049947064369916916,-0.19263137876987457
1775714570635846700,8.8398466796875,-0.005342570133507252,0.050942473113536835,-0.2812530994415283
1775714570645862700,8.849862548828124,0.04983173683285713,0.09416637569665909,-0.3282877206802368
1775714570655878700,8.859878662109375,0.1132248193025589,0.03360236436128616,-0.3494105935096741
1775714570665894700,8.869894775390625,0.15942160785198212,0.009660545736551285,-0.33378690481185913
1775714570675910700,8.87991064453125,0.1868833303451538,-0.008006392046809196,-0.29644298553466797
1775714570685926700,8.8899267578125,0.20884083211421967,-0.06674187630414963,-0.23672080039978027
1775714570695942700,8.899942626953125,0.24868518114089966,-0.12913861870765686,-0.19618481397628784
1775714570705959700,8.909959716796875,0.26751160621643066,-0.13036367297172546,-0.17980611324310303
1775714570715975700,8.9199755859375,0.2520887553691864,-0.0933355987071991,-0.19153635203838348
1775714570725991700,8.92999169921875,0.24360767006874084,-0.06419715285301208,-0.23556452989578247
1775714570736007700,8.940007568359375,0.20038405060768127,0.04564015567302704,-0.2839089632034302
1775714570746023700,8.950023681640625,0.14335085451602936,0.12179005146026611,-0.33684301376342773
1775714570756039700,8.960039794921874,0.10895490646362305,0.16511383652687073,-0.345960408449173
1775714570766055700,8.9700556640625,0.09580262005329132,0.17718380689620972,-0.3047405481338501
1775714570776072700,8.98007275390625,0.07731743156909943,0.18883945047855377,-0.21553756296634674
1775714570786088700,8.990088623046875,0.0441506952047348,0.2033051997423172,-0.11016480624675751
1775714570796104700,9.000104736328124,-0.003577612340450287,0.15125693380832672,-0.016386456787586212
1775714570806120700,9.01012060546875,-0.07815597951412201,0.06405304372310638,0.06578138470649719
1775714570816136700,9.02013671875,-0.17273397743701935,-0.02165905013680458,0.13925716280937195
1775714570826152400,9.03015234375,-0.235634908080101,-0.07303488999605179,0.20254746079444885
1775714570836168700,9.040168701171876,-0.27122870087623596,-0.03926672786474228,0.23138253390789032
1775714570846184700,9.050184814453125,-0.26312416791915894,0.023336466401815414,0.19941501319408417
1775714570856201700,9.06020166015625,-0.21752464771270752,0.06344135105609894,0.13014185428619385
1775714570866217700,9.0702177734375,-0.16963942348957062,0.0982629805803299,0.05986982583999634
1775714570876233500,9.0802333984375,-0.13330505788326263,0.11814162880182266,0.02451149746775627
1775714570886249500,9.09024951171875,-0.1086532399058342,0.11366911977529526,0.0305214524269104
1775714570896265700,9.100265625,-0.117164246737957,0.0749618336558342,0.06212134659290314
1775714570906281700,9.11028173828125,-0.15628474950790405,0.05007299780845642,0.10583926737308502
1775714570916297700,9.120297607421875,-0.1911403238773346,0.008025381714105606,0.15019115805625916
1775714570926314500,9.130314453125,-0.22894735634326935,0.00044149719178676605,0.20524801313877106
1775714570936330800,9.140330810546875,-0.2673141062259674,-0.0337430015206337,0.24101518094539642
1775714570946347000,9.150346923828126,-0.3003237247467041,-0.0789131447672844,0.2614773213863373
1775714570956363000,9.160363037109375,-0.2993808686733246,-0.11837591975927353,0.2727820873260498
1775714570966379000,9.17037890625,-0.27831631898880005,-0.11176914721727371,0.27309873700141907
1775714570976395000,9.18039501953125,-0.26421162486076355,-0.06763824820518494,0.24505116045475006
1775714570986410800,9.19041064453125,-0.25964272022247314,-0.019365254789590836,0.18568691611289978
1775714570996426800,9.2004267578125,-0.2783232033252716,0.012945704162120819,0.1094740554690361
1775714571006444000,9.210444091796875,-0.3169185519218445,0.004456611815840006,0.04935825616121292
1775714571016460000,9.2204599609375,-0.34423989057540894,-0.0034824281465262175,0.03373359516263008
1775714571026476000,9.23047607421875,-0.36314165592193604,-0.0047181351110339165,0.04014568775892258
1775714571036491800,9.24049169921875,-0.3913559913635254,-0.019322823733091354,0.03635406121611595
1775714571046507800,9.2505078125,-0.4069061875343323,-0.056519195437431335,0.010568269528448582
1775714571056523800,9.260523681640626,-0.40468522906303406,-0.10019074380397797,-0.04153209179639816
1775714571066540000,9.2705400390625,-0.41660502552986145,-0.14574943482875824,-0.10660190135240555
1775714571076556800,9.280556884765625,-0.44690775871276855,-0.16565316915512085,-0.16572566330432892
1775714571086572800,9.29057275390625,-0.45585304498672485,-0.15586338937282562,-0.2169552892446518
1775714571096588800,9.3005888671875,-0.4324564039707184,-0.16283971071243286,-0.25833797454833984
1775714571106604800,9.310604736328125,-0.39308983087539673,-0.16879694163799286,-0.2985796630382538
1775714571116621000,9.32062109375,-0.3417547047138214,-0.14146874845027924,-0.3383488357067108
1775714571126637000,9.330636962890624,-0.2609695792198181,-0.07000841200351715,-0.35671213269233704
1775714571136653000,9.340653076171876,-0.1685425341129303,0.02805899642407894,-0.33740511536598206
1775714571146668800,9.350668701171875,-0.07967577129602432,0.05278884246945381,-0.289325475692749
1775714571156685800,9.360685791015625,-0.029930464923381805,-0.02826271951198578,-0.2408280223608017
1775714571166701800,9.370701904296874,-0.012219643220305443,-0.13515055179595947,-0.21160835027694702
1775714571176718000,9.380718017578126,0.013943694531917572,-0.21098090708255768,-0.2143123894929886
1775714571186734000,9.390734130859375,0.04075480252504349,-0.2116355001926422,-0.26363199949264526
1775714571196749800,9.400749755859374,0.08436685800552368,-0.1643127053976059,-0.32471227645874023
1775714571206765800,9.410765869140626,0.15998651087284088,-0.08245618641376495,-0.36935004591941833
1775714571216781800,9.42078173828125,0.2686571180820465,-0.014119524508714676,-0.38835281133651733
1775714571226797800,9.4307978515625,0.37627679109573364,0.0725671648979187,-0.3808400332927704
1775714571236814800,9.44081494140625,0.47105661034584045,0.15334145724773407,-0.35438400506973267
1775714571246830800,9.450830810546876,0.5543858408927917,0.19938218593597412,-0.31563714146614075
1775714571256846800,9.460846923828125,0.5996440052986145,0.18747809529304504,-0.25253739953041077
1775714571266862800,9.47086279296875,0.6212507486343384,0.11621695756912231,-0.15690197050571442
1775714571276878800,9.48087890625,0.618611216545105,0.035786110907793045,-0.048611998558044434
1775714571286894800,9.490894775390625,0.606341540813446,0.017066750675439835,0.046144600957632065
1775714571296911000,9.5009111328125,0.6083819270133972,0.017345348373055458,0.10734603554010391
1775714571306926800,9.5109267578125,0.6328042149543762,0.012629156932234764,0.13455207645893097
1775714571316944000,9.52094384765625,0.6643370985984802,0.027540195733308792,0.10109452903270721
1775714571326959900,9.5309599609375,0.7112111449241638,0.10187727212905884,0.029058953747153282
1775714571336976000,9.540975830078125,0.7714590430259705,0.2468525916337967,-0.0638929009437561
1775714571346992000,9.5509921875,0.8147127628326416,0.41354838013648987,-0.1541021466255188
1775714571357008000,9.5610078125,0.7994229793548584,0.5404396057128906,-0.20459792017936707
1775714571367023900,9.57102392578125,0.7448561787605286,0.5972951650619507,-0.21997153759002686
1775714571377040000,9.581039794921875,0.7181128263473511,0.5743335485458374,-0.17084531486034393
1775714571387055900,9.591055908203124,0.7008044123649597,0.4838012754917145,-0.09147539734840393
1775714571397073000,9.601072998046876,0.6609834432601929,0.3676491677761078,0.016412971541285515
1775714571407089000,9.6110888671875,0.6050014495849609,0.2559511065483093,0.10407331585884094
1775714571417105000,9.62110498046875,0.5542861819267273,0.15884795784950256,0.1143522560596466
1775714571427121000,9.631120849609376,0.526668906211853,0.11855991929769516,0.09070365130901337
1775714571437137000,9.641136962890625,0.5079992413520813,0.15093888342380524,0.06751079112291336
1775714571447153000,9.65115283203125,0.4873528480529785,0.23083984851837158,0.04017504304647446
1775714571457169000,9.6611689453125,0.4775412082672119,0.2755125164985657,0.021075649186968803
1775714571467185000,9.671184814453126,0.45799168944358826,0.2817700505256653,0.02345300279557705
1775714571477202000,9.681201904296875,0.4193917214870453,0.22885480523109436,0.04907497391104698
1775714571487218000,9.691218017578125,0.3583986759185791,0.1464933454990387,0.09496256709098816
1775714571497234000,9.70123388671875,0.2856351137161255,0.04085636883974075,0.13793547451496124
1775714571507250000,9.71125,0.20969612896442413,-0.01566895842552185,0.1700795739889145
1775714571517266000,9.721265869140625,0.17193123698234558,-0.011558884754776955,0.1675391048192978
1775714571527282000,9.731281982421875,0.17334164679050446,0.03276277333498001,0.12381266057491302
1775714571537298000,9.7412978515625,0.19214223325252533,0.10238712280988693,0.01854829490184784
1775714571547314000,9.75131396484375,0.21856825053691864,0.1728152185678482,-0.11980851739645004
1775714571557330000,9.761329833984375,0.2360561490058899,0.203562393784523,-0.24165897071361542
1775714571567346700,9.7713466796875,0.22564797103405,0.21074174344539642,-0.3138250410556793
1775714571577363000,9.781363037109376,0.17347915470600128,0.22383184731006622,-0.3302668035030365
1775714571587379000,9.79137890625,0.10279539972543716,0.25504061579704285,-0.29865562915802
1775714571597395000,9.80139501953125,0.053765393793582916,0.23283787071704865,-0.2561778128147125
1775714571607411000,9.811410888671874,0.03423696756362915,0.15410737693309784,-0.20728644728660583
1775714571617427000,9.821427001953126,0.052112359553575516,0.07524627447128296,-0.18185150623321533
1775714571627443000,9.83144287109375,0.10900067538022995,0.08203653246164322,-0.22267615795135498
1775714571637458700,9.841458740234375,0.2109002023935318,0.2059386968612671,-0.29633304476737976
1775714571647476000,9.85147607421875,0.30108362436294556,0.33591294288635254,-0.37904950976371765
1775714571657492000,9.861491943359376,0.33748430013656616,0.4015065133571625,-0.43550264835357666
1775714571667508000,9.871508056640625,0.3327835500240326,0.45270952582359314,-0.45431894063949585
1775714571677524000,9.88152392578125,0.3364500105381012,0.42067068815231323,-0.40487563610076904
1775714571687539700,9.891539794921876,0.3359975516796112,0.3392016589641571,-0.31492817401885986
1775714571697556000,9.901555908203125,0.2966559827327728,0.2965366542339325,-0.2086314707994461
1775714571707572000,9.911572021484375,0.2802796959877014,0.2119693160057068,-0.10370345413684845
1775714571717588000,9.921587890625,0.300730437040329,0.1466694325208664,-0.027976082637906075
1775714571727604000,9.93160400390625,0.284962922334671,0.1322191208600998,-0.0324011892080307
1775714571737620700,9.941620849609375,0.22775450348854065,0.16553844511508942,-0.07197009772062302
1775714571747636700,9.95163671875,0.16400347650051117,0.17979487776756287,-0.09999880194664001
1775714571757653000,9.961653076171874,0.1332378387451172,0.13685016334056854,-0.12396787106990814
1775714571767669000,9.9716689453125,0.134839728474617,0.04452875256538391,-0.13279065489768982
1775714571777685000,9.98168505859375,0.1513754427433014,-0.0018919522408396006,-0.12746135890483856
1775714571787701000,9.991700927734374,0.15207718312740326,0.03100980632007122,-0.11176574975252151
1775714571797716700,10.001716796875,0.10720312595367432,0.07976561039686203,-0.08837220817804337
1775714571807732700,10.011732666015625,0.0004588360898196697,0.07342994958162308,-0.04565723240375519
1775714571817748700,10.021748779296875,-0.11273233592510223,-0.046201277524232864,0.03716159239411354
1775714571827766000,10.03176611328125,-0.173068106174469,-0.19812369346618652,0.14598208665847778
1775714571837782000,10.041781982421876,-0.1626233011484146,-0.2967208921909332,0.21006320416927338
1775714571847797800,10.0517978515625,-0.11444244533777237,-0.2707774341106415,0.2310267984867096
1775714571857813800,10.061813720703125,-0.0856618657708168,-0.17094773054122925,0.2148711383342743
1775714571867829800,10.071829833984374,-0.10084108263254166,-0.09540823101997375,0.16801682114601135
1775714571877846000,10.081845947265625,-0.11716390401124954,-0.055359724909067154,0.11765952408313751
1775714571887862000,10.091862060546875,-0.0806005671620369,-0.005749295465648174,0.0652807354927063
1775714571897878000,10.1018779296875,0.0005915923975408077,0.06581556051969528,0.020925823599100113
1775714571907894000,10.11189404296875,0.08951933681964874,0.10849271714687347,-0.011304018087685108
1775714571917910800,10.121910888671875,0.15012000501155853,0.11146245896816254,0.012200028635561466
1775714571927927000,10.131927001953125,0.15017752349376678,0.07057894021272659,0.09887047857046127
1775714571937942800,10.14194287109375,0.06981726735830307,0.015721233561635017,0.20715801417827606
1775714571947958800,10.151958740234376,-0.0073129357770085335,-0.082179494202137,0.29015809297561646
1775714571957974800,10.161974853515625,-0.05937538295984268,-0.17706510424613953,0.3180069029331207
1775714571967990500,10.171990478515625,-0.09422071278095245,-0.2537952959537506,0.2899813950061798
1775714571978006500,10.182006591796876,-0.09681330621242523,-0.3419111371040344,0.2409822791814804
1775714571988022500,10.1920224609375,-0.09006725251674652,-0.3912411332130432,0.1888737976551056
1775714571998038800,10.202038818359375,-0.0719091072678566,-0.3545571267604828,0.15182209014892578
1775714572008055800,10.212055908203125,-0.0402076430618763,-0.30035459995269775,0.1482161581516266
1775714572018071600,10.222071533203126,-0.01750270649790764,-0.2410360872745514,0.1629328578710556
1775714572028087600,10.232087646484375,-0.01925559900701046,-0.2298678457736969,0.1786942332983017
1775714572038103600,10.242103515625,-0.05795744061470032,-0.2567674517631531,0.19358378648757935
1775714572048119600,10.25211962890625,-0.14228349924087524,-0.29020264744758606,0.21229010820388794
1775714572058135800,10.2621357421875,-0.24054312705993652,-0.3147144317626953,0.2072926163673401
1775714572068151800,10.27215185546875,-0.2947842478752136,-0.33383089303970337,0.16647514700889587
1775714572078167600,10.28216748046875,-0.284589558839798,-0.32138296961784363,0.11794902384281158
1775714572088183600,10.29218359375,-0.21782919764518738,-0.2882322072982788,0.07173652201890945
1775714572098199600,10.302199462890625,-0.13465067744255066,-0.2583843469619751,0.0402335487306118
1775714572108216800,10.312216796875,-0.08547594398260117,-0.23406092822551727,-0.015713343396782875
1775714572118232800,10.32223291015625,-0.08141018450260162,-0.21117064356803894,-0.09669265151023865
1775714572128248600,10.33224853515625,-0.1411089301109314,-0.14093004167079926,-0.1869186908006668
1775714572138264600,10.3422646484375,-0.2616936266422272,-0.03519614040851593,-0.2872815728187561
1775714572148280600,10.352280517578125,-0.37572646141052246,0.10791841149330139,-0.41743531823158264
1775714572158296600,10.362296630859374,-0.4217754900455475,0.2600247263908386,-0.6291178464889526
1775714572168312600,10.3723125,-0.4409627914428711,0.4574406147003174,-0.9317885041236877
1775714572178328800,10.382328857421875,-0.41385024785995483,0.5186474919319153,-1.250091314315796
1775714572188344800,10.3923447265625,-0.25684332847595215,0.4118081331253052,-1.3737295866012573
1775714572198361600,10.402361572265624,-0.06410977244377136,0.2340838611125946,-1.2107068300247192
1775714572208377600,10.412377685546875,0.07079025357961655,0.0213036946952343,-0.9005295634269714
1775714572218393600,10.4223935546875,0.07214656472206116,-0.0876489132642746,-0.6136588454246521
1775714572228409900,10.432409912109375,-0.04642961174249649,-0.06899559497833252,-0.465991348028183
1775714572238425900,10.44242578125,-0.2570004463195801,0.10197215527296066,-0.4733051657676697
1775714572248441600,10.452441650390625,-0.5042373538017273,0.33636388182640076,-0.6287512183189392
1775714572258457600,10.46245751953125,-0.7502615451812744,0.5320530533790588,-0.8888609409332275
1775714572268473600,10.4724736328125,-0.8806086182594299,0.6045235395431519,-1.1807316541671753
1775714572278489600,10.482489501953125,-0.8433790802955627,0.604297935962677,-1.365556001663208
1775714572288505600,10.492505615234375,-0.6683265566825867,0.5699580907821655,-1.378713607788086
1775714572298521900,10.50252197265625,-0.4658401608467102,0.6073745489120483,-1.2199058532714844
1775714572308538600,10.51253857421875,-0.3179473876953125,0.6778098344802856,-0.9579365253448486
1775714572318554600,10.5225546875,-0.24870410561561584,0.6884266138076782,-0.694127082824707
1775714572328570600,10.532570556640625,-0.28861236572265625,0.6319947838783264,-0.46716243028640747
1775714572338586600,10.542586669921874,-0.44575637578964233,0.47199124097824097,-0.29015547037124634
1775714572348603000,10.552602783203126,-0.6710776090621948,0.2900608479976654,-0.15215101838111877
1775714572358618600,10.56261865234375,-0.8340017795562744,0.20986929535865784,-0.07169343531131744
1775714572368634600,10.572634521484375,-0.8752802610397339,0.2218916118144989,-0.0909142717719078
1775714572378650600,10.582650634765624,-0.811147153377533,0.2595670521259308,-0.24369096755981445
1775714572388666600,10.59266650390625,-0.5908758044242859,0.26380735635757446,-0.42006492614746094
1775714572398682600,10.6026826171875,-0.29149216413497925,0.30185890197753906,-0.5310022234916687
1775714572408699600,10.61269970703125,-0.03372799605131149,0.4259664714336395,-0.5811916589736938
1775714572418715600,10.622715576171874,0.17047405242919922,0.49869289994239807,-0.5971031785011292
1775714572428731600,10.632731689453125,0.3029252886772156,0.5056760311126709,-0.5722135305404663
1775714572438747600,10.64274755859375,0.33467981219291687,0.40522077679634094,-0.5051397681236267
1775714572448763600,10.652763671875,0.25695493817329407,0.2812250554561615,-0.4264755845069885
1775714572458779600,10.662779541015626,0.1263418048620224,0.20398592948913574,-0.35961559414863586
1775714572468795600,10.672795654296875,0.0012707149144262075,0.19883111119270325,-0.3300324082374573
1775714572478811600,10.682811767578125,-0.07479843497276306,0.18060961365699768,-0.3523338735103607
1775714572488827600,10.69282763671875,-0.028133997693657875,0.043044283986091614,-0.3515666127204895
1775714572498843600,10.70284375,0.11561686545610428,-0.07739599049091339,-0.20370681583881378
1775714572508859600,10.712859619140625,0.26090216636657715,-0.18011197447776794,0.02581533044576645
1775714572518876700,10.722876708984375,0.3700920343399048,-0.2725379467010498,0.22334828972816467
1775714572528892700,10.732892578125,0.4036329388618469,-0.3480321764945984,0.3342159390449524
1775714572538908700,10.74290869140625,0.3773694634437561,-0.44302278757095337,0.3560103178024292
1775714572548924700,10.752924560546875,0.29745012521743774,-0.4514423608779907,0.3236028254032135
1775714572558940700,10.762940673828124,0.14286965131759644,-0.3788863718509674,0.26620444655418396
1775714572568956700,10.772956787109376,0.004135725554078817,-0.33638525009155273,0.18544462323188782
1775714572578972700,10.78297265625,-0.07866398990154266,-0.29190805554389954,0.11539694666862488
1775714572588988400,10.792988525390625,-0.09388475120067596,-0.23312567174434662,0.07421862334012985
1775714572599004700,10.803004638671876,-0.019748829305171967,-0.22200319170951843,0.037104859948158264
1775714572609020700,10.813020751953125,0.10085348039865494,-0.17828740179538727,0.006828447803854942
1775714572619036700,10.82303662109375,0.2202601432800293,-0.15140347182750702,-0.035559721291065216
1775714572629052700,10.833052734375,0.3169534206390381,-0.16757366061210632,-0.06282702833414078
1775714572639069400,10.8430693359375,0.37222611904144287,-0.15810394287109375,-0.07691536843776703
1775714572649085700,10.853085693359375,0.36073142290115356,-0.15664532780647278,-0.07467032223939896
1775714572659101700,10.863101806640625,0.30033090710639954,-0.216298446059227,-0.02369697205722332
1775714572669117700,10.87311767578125,0.2047324776649475,-0.28729110956192017,0.053062256425619125
1775714572679133700,10.8831337890625,0.10622812062501907,-0.3531249761581421,0.10106559097766876
1775714572689149700,10.893149658203125,0.05194544419646263,-0.32230445742607117,0.12772943079471588
1775714572699165700,10.903165771484375,0.04093993082642555,-0.23328538239002228,0.11299468576908112
1775714572709181400,10.913181396484376,0.06778086721897125,-0.1637534350156784,0.05212680995464325
1775714572719197700,10.92319775390625,0.09489269554615021,-0.07206247746944427,-0.03093263879418373
1775714572729213700,10.933213623046875,0.10764630883932114,0.038172949105501175,-0.1092468872666359
1775714572739229700,10.943229736328124,0.1309243142604828,0.1274780035018921,-0.174259215593338
1775714572749246700,10.953246826171876,0.153998464345932,0.18947187066078186,-0.2141917198896408
1775714572759262500,10.963262451171875,0.15705609321594238,0.18082007765769958,-0.21658331155776978
1775714572769278700,10.97327880859375,0.13731540739536285,0.0925418809056282,-0.1873633861541748
1775714572779294700,10.983294677734374,0.09282480180263519,0.025491174310445786,-0.14561393857002258
1775714572789310700,10.993310791015626,0.034589994698762894,0.020381368696689606,-0.11331963539123535
1775714572799326700,11.00332666015625,-0.008865373209118843,0.03698056563735008,-0.08765522390604019
1775714572809342700,11.0133427734375,-0.05042213574051857,0.032836686819791794,-0.061750926077365875
1775714572819358500,11.0233583984375,-0.07459059357643127,0.003304538782685995,-0.04729759320616722
1775714572829374500,11.03337451171875,-0.061703555285930634,-0.002674523973837495,-0.044009651988744736
1775714572839390700,11.043390625,-0.03837188333272934,0.01489585917443037,-0.04470224678516388
1775714572849406700,11.05340673828125,-0.0379343256354332,0.03899214044213295,-0.035530321300029755
1775714572859422700,11.063422607421876,-0.0408746562898159,0.06097406521439552,-0.017133455723524094
1775714572869439500,11.073439453125,-0.03335681930184364,0.040885843336582184,-0.015804804861545563
1775714572879455500,11.08345556640625,-0.031230943277478218,-0.016977757215499878,-0.015370561741292477
1775714572889471700,11.0934716796875,-0.03491329401731491,-0.07395156472921371,-0.004927508067339659
1775714572899487700,11.10348779296875,-0.050105392932891846,-0.07421374320983887,-0.0008028438314795494
1775714572909503700,11.113503662109375,-0.06338684260845184,-0.07590991258621216,-0.01115907821804285
1775714572919519700,11.123519775390625,-0.05360589548945427,-0.09294137358665466,-0.004457165487110615
1775714572929535700,11.13353564453125,-0.04580416530370712,-0.05825316905975342,0.015314674936234951
1775714572939551700,11.1435517578125,-0.041672106832265854,-0.03492364659905434,0.021776974201202393
1775714572949567700,11.153567626953125,-0.038551416248083115,-0.023069916293025017,0.02591233141720295
1775714572959584000,11.163583984375,-0.03766923025250435,-0.04839661717414856,0.033721134066581726
1775714572969600000,11.17360009765625,-0.05044574663043022,-0.06837005168199539,0.05457288399338722
1775714572979616000,11.183615966796875,-0.05950266495347023,-0.09053272008895874,0.07029048353433609
1775714572989632000,11.193632080078125,-0.0579226128757,-0.1312740296125412,0.07397789508104324
1775714572999648800,11.203648681640624,-0.06412074714899063,-0.1660480499267578,0.0690011978149414
1775714573009665000,11.2136650390625,-0.06976451724767685,-0.1593235582113266,0.06562670320272446
1775714573019681000,11.223680908203125,-0.04803759232163429,-0.11312240362167358,0.0585598424077034
1775714573029697000,11.233697021484375,-0.01906958967447281,-0.056784823536872864,0.05381302535533905
1775714573039713000,11.243713134765626,0.007477331906557083,-0.0053293583914637566,0.05428094416856766
1775714573049728800,11.253728759765625,0.035115618258714676,0.023759018629789352,0.0571233332157135
1775714573059744800,11.263744873046875,0.06157160550355911,0.006525312550365925,0.0690516009926796
1775714573069760800,11.2737607421875,0.07436276972293854,-0.015307282097637653,0.08029653131961823
1775714573079777000,11.283777099609376,0.08958268910646439,-0.05046156048774719,0.07525844126939774
1775714573089793000,11.29379296875,0.09143491834402084,-0.04202386736869812,0.05479497089982033
1775714573099809000,11.30380908203125,0.07196225225925446,-0.018882380798459053,0.03127441555261612
1775714573109824800,11.31382470703125,0.05356965959072113,-0.01567566767334938,0.017657939344644547
1775714573119840800,11.3238408203125,0.03881671652197838,-0.0008937390521168709,0.008137451484799385
1775714573129856800,11.333856689453125,0.01331348903477192,0.005596917122602463,-0.010331304743885994
1775714573139874000,11.3438740234375,-0.020173687487840652,0.007522542029619217,-0.027169244363904
1775714573149890000,11.35389013671875,-0.02997625060379505,0.003352031810209155,-0.0605839267373085
1775714573159905800,11.36390576171875,-0.022078754380345345,0.0333629809319973,-0.0901324450969696
1775714573169921800,11.373921875,0.0017554722726345062,0.05028870329260826,-0.10565467923879623
1775714573179937800,11.383937744140624,0.0344640389084816,0.023572899401187897,-0.09589511156082153
1775714573189953800,11.393953857421875,0.05711955204606056,0.005314799956977367,-0.07069788128137589
1775714573199970000,11.403969970703125,0.07114771008491516,-0.033440690487623215,-0.05823546648025513
1775714573209986000,11.413986083984375,0.059554435312747955,-0.06191946938633919,-0.054610371589660645
1775714573220002000,11.424001953125,0.025690000504255295,-0.06172903627157211,-0.06337784230709076
1775714573230017800,11.434017822265625,-0.02164209447801113,-0.0024169767275452614,-0.08209880441427231
1775714573240033800,11.44403369140625,-0.05268140137195587,0.03208049014210701,-0.1166514977812767
1775714573250049800,11.4540498046875,-0.05483589693903923,0.024943219497799873,-0.15035220980644226
1775714573260065800,11.464065673828125,-0.030345309525728226,-0.01438034139573574,-0.15969699621200562
1775714573270083000,11.4740830078125,-0.017336566001176834,-0.03846890106797218,-0.14682701230049133
1775714573280098800,11.484098876953125,-0.006598756182938814,-0.056008230894804,-0.12405531108379364
1775714573290114800,11.49411474609375,0.005937275942414999,-0.06508508324623108,-0.09518344700336456
1775714573300130800,11.504130859375,0.008198942989110947,-0.033391475677490234,-0.06768947839736938
1775714573310146800,11.514146728515625,-0.01595992222428322,-0.003261004574596882,-0.06171227619051933
1775714573320163000,11.5241630859375,-0.035564783960580826,0.014320919290184975,-0.07010416686534882
1775714573330179000,11.534178955078126,-0.022152571007609367,0.006942631211131811,-0.08031339198350906
1775714573340194800,11.54419482421875,-0.00003752647899091244,-0.005790333729237318,-0.07420146465301514
1775714573350210800,11.5542109375,0.010373037308454514,-0.01767096109688282,-0.057115692645311356
1775714573360226800,11.564226806640624,0.024918800219893456,-0.03310758247971535,-0.0403345488011837
1775714573370242800,11.574242919921875,0.05097782984375954,-0.06232192739844322,-0.01758342981338501
1775714573380258800,11.5842587890625,0.07405034452676773,-0.07655095309019089,0.00808764435350895
1775714573390275000,11.594275146484375,0.08512856066226959,-0.04870040714740753,0.019533377140760422
1775714573400291000,11.604291015625,0.08118186146020889,-0.021084992215037346,0.02085896022617817
1775714573410306800,11.614306884765625,0.07251567393541336,-0.01178470067679882,0.034791018813848495
1775714573420322800,11.62432275390625,0.050646163523197174,-0.009797945618629456,0.06338443607091904
1775714573430339800,11.63433984375,0.024639062583446503,-0.024671699851751328,0.08930471539497375
1775714573440356000,11.644356201171876,0.0193686131387949,-0.06636182218790054,0.11098310351371765
1775714573450372000,11.6543720703125,0.03924804553389549,-0.09182137250900269,0.13371877372264862
1775714573460387800,11.664387939453125,0.0724792331457138,-0.10390760004520416,0.14126591384410858
1775714573470403800,11.67440380859375,0.10557838529348373,-0.09600171446800232,0.1408221423625946
1775714573480419800,11.684419921875,0.13995926082134247,-0.08878153562545776,0.14707303047180176
1775714573490435800,11.694435791015625,0.16368909180164337,-0.09597979485988617,0.15928815305233002
1775714573500451800,11.704451904296874,0.16979604959487915,-0.0862920805811882,0.16383685171604156
1775714573510468000,11.714468017578126,0.161871537566185,-0.06927341222763062,0.15426412224769592
1775714573520484000,11.724484130859375,0.14195391535758972,-0.05014787241816521,0.13293172419071198
1775714573530499800,11.734499755859375,0.10846120864152908,-0.027460137382149696,0.11298437416553497
1775714573540515800,11.744515869140624,0.08044789731502533,-0.03187505528330803,0.10374106466770172
1775714573550531800,11.75453173828125,0.07014598697423935,-0.05763101950287819,0.10318925231695175
1775714573560547800,11.7645478515625,0.07597090303897858,-0.09087222069501877,0.10942541807889938
1775714573570563800,11.774563720703124,0.097560353577137,-0.09698791056871414,0.1248999759554863
1775714573580580900,11.784580810546874,0.12898650765419006,-0.06998042017221451,0.1434311717748642
1775714573590596900,11.794596923828125,0.1494092345237732,-0.0350344181060791,0.16347572207450867
1775714573600612900,11.80461279296875,0.15966862440109253,-0.04657642915844917,0.18144568800926208
1775714573610628900,11.81462890625,0.14540234208106995,-0.08176291733980179,0.1883224993944168
1775714573620644900,11.824644775390626,0.11506760120391846,-0.07635509967803955,0.1836254894733429
1775714573630661000,11.8346611328125,0.08378531038761139,-0.06549180299043655,0.18604816496372223
1775714573640676900,11.8446767578125,0.049317616969347,-0.06776569038629532,0.1997281014919281
1775714573650692900,11.85469287109375,0.015524497255682945,-0.06971751898527145,0.2180487960577011
1775714573660708900,11.864708984375,0.004241646267473698,-0.055240973830223083,0.24323320388793945
1775714573670724900,11.874724853515625,0.0033249857369810343,-0.05299033597111702,0.26554492115974426
1775714573680740900,11.884740966796874,-0.002437625778838992,-0.09064389020204544,0.2791445851325989
1775714573690756900,11.8947568359375,-0.024264894425868988,-0.14116379618644714,0.28298112750053406
1775714573700773000,11.904773193359375,-0.06732649356126785,-0.17506366968154907,0.2803391218185425
1775714573710788900,11.914788818359375,-0.11886557936668396,-0.21886734664440155,0.28810784220695496
1775714573720804900,11.924804931640624,-0.20335133373737335,-0.2762434482574463,0.3315999507904053
1775714573730820900,11.93482080078125,-0.3165271580219269,-0.332383394241333,0.403347373008728
1775714573740836900,11.9448369140625,-0.4100731909275055,-0.3595373034477234,0.4983600378036499
1775714573750852900,11.954852783203124,-0.4679096043109894,-0.30999770760536194,0.5961417555809021
1775714573760870000,11.964869873046876,-0.48340752720832825,-0.2543639838695526,0.6429405808448792
1775714573770886000,11.974885986328125,-0.4650548994541168,-0.2264561802148819,0.6455086469650269
1775714573780902000,11.98490185546875,-0.430839866399765,-0.20695871114730835,0.6482677459716797
1775714573790918000,11.99491796875,-0.40252673625946045,-0.16944783926010132,0.6715269684791565
1775714573800934000,12.004933837890626,-0.38209769129753113,-0.15106706321239471,0.7107797265052795
1775714573810950000,12.014949951171875,-0.4042685031890869,-0.15397417545318604,0.7775976061820984
1775714573820966000,12.0249658203125,-0.44268161058425903,-0.16077879071235657,0.8709267377853394
1775714573830982000,12.03498193359375,-0.4750291705131531,-0.16931875050067902,0.9755753874778748
1775714573840998000,12.044997802734375,-0.5216649770736694,-0.1749381422996521,1.073880672454834
1775714573851014000,12.055013916015625,-0.5538594126701355,-0.2001979649066925,1.1718891859054565
1775714573861030000,12.06502978515625,-0.5297455787658691,-0.25321105122566223,1.2694919109344482
1775714573871046000,12.0750458984375,-0.48124438524246216,-0.30481138825416565,1.3479382991790771
1775714573881062000,12.085061767578125,-0.4482022225856781,-0.3916294276714325,1.3842734098434448
1775714573891078000,12.095077880859375,-0.4733531177043915,-0.48140913248062134,1.393683910369873
1775714573901094000,12.105093994140624,-0.5379850268363953,-0.5023722648620605,1.363867163658142
1775714573911110000,12.11510986328125,-0.5714249610900879,-0.4105052053928375,1.2854557037353516
1775714573921126000,12.1251259765625,-0.5431234240531921,-0.2925459146499634,1.1628912687301636
1775714573931142000,12.135141845703124,-0.49748560786247253,-0.16062623262405396,1.0251861810684204
1775714573941157600,12.14515771484375,-0.4497475326061249,-0.08094441890716553,0.8864948153495789
1775714573951173600,12.155173583984375,-0.4238645136356354,-0.09095843881368637,0.7670876979827881
1775714573961190400,12.1651904296875,-0.4066481590270996,-0.15231870114803314,0.6778224110603333
1775714573971206400,12.175206298828124,-0.37565988302230835,-0.23441916704177856,0.6372392773628235
1775714573981222700,12.18522265625,-0.3555169999599457,-0.2329724282026291,0.6558327674865723
1775714573991238700,12.19523876953125,-0.3655685782432556,-0.16774149239063263,0.6789537668228149
1775714574001254700,12.205254638671875,-0.38939541578292847,-0.06416096538305283,0.6761319041252136
1775714574011270400,12.2152705078125,-0.3949888348579407,0.008369162678718567,0.6494672298431396
1775714574021286400,12.225286376953125,-0.39038264751434326,0.033139668405056,0.6195019483566284
1775714574031302400,12.235302490234375,-0.3999154269695282,0.03211088851094246,0.6158143281936646
1775714574041318400,12.245318359375,-0.4284566640853882,0.004845217801630497,0.6227144002914429
1775714574051334700,12.255334716796876,-0.4445408284664154,-0.005128853023052216,0.6047311425209045
1775714574061350700,12.2653505859375,-0.436129093170166,-0.034271594136953354,0.5477527379989624
1775714574071366700,12.27536669921875,-0.4600363075733185,-0.07643609493970871,0.4637613892555237
1775714574081382400,12.28538232421875,-0.4713580012321472,-0.16506044566631317,0.3239324390888214
1775714574091398400,12.2953984375,-0.44111594557762146,-0.12776927649974823,0.16412973403930664
1775714574101414400,12.305414306640625,-0.36822056770324707,0.03817049041390419,0.018633829429745674
1775714574111430700,12.3154306640625,-0.29173457622528076,0.24665074050426483,-0.09189054369926453
1775714574121446700,12.32544677734375,-0.22508837282657623,0.4250916838645935,-0.17204174399375916
