time,seconds_elapsed,z,y,x
1775340925936370700,0.07737060546875,4.488935470581055,8.72901725769043,-0.23449662327766418
1775340925953159000,0.094158935546875,4.553541660308838,8.72183895111084,-0.29431718587875366
1775340925969947400,0.110947509765625,4.491328239440918,8.719446182250977,-0.20578274130821228
1775340925986735600,0.127735595703125,4.5583271980285645,8.726624488830566,-0.28953152894973755
1775340926003523800,0.14452392578125,4.527220249176025,8.72901725769043,-0.22492532432079315
1775340926020312300,0.161312255859375,4.527220249176025,8.707481384277344,-0.2560320198535919
1775340926037100500,0.1781005859375,4.560719966888428,8.72183895111084,-0.2919243574142456
1775340926053888800,0.194888671875,4.491328239440918,8.73619556427002,-0.2560320198535919
1775340926070677200,0.21167724609375,4.563112735748291,8.717052459716797,-0.2967100143432617
1775340926087465500,0.228465576171875,4.5391845703125,8.726624488830566,-0.24885354936122894
1775340926104254000,0.24525390625,4.5200419425964355,8.762516975402832,-0.2919243574142456
1775340926121042200,0.262042236328125,4.503292083740234,8.731410026550293,-0.2392822653055191
1775340926137830400,0.278830322265625,4.565505504608154,8.700303077697754,-0.2153540402650833
1775340926154619000,0.295618896484375,4.536791801452637,8.733802795410156,-0.2871387302875519
1775340926171407000,0.312406982421875,4.527220249176025,8.731410026550293,-0.22492532432079315
1775340926188195300,0.3291953125,4.517649173736572,8.702695846557617,-0.2799602448940277
1775340926204983800,0.34598388671875,4.541577339172363,8.709874153137207,-0.2727817893028259
1775340926221772000,0.36277197265625,4.450650215148926,8.74337387084961,-0.2632105052471161
1775340926238560500,0.379560546875,4.53200626373291,8.733802795410156,-0.30628129839897156
1775340926255348700,0.3963486328125,4.577469825744629,8.702695846557617,-0.2512463629245758
1775340926272137000,0.413136962890625,4.4650068283081055,8.755337715148926,-0.27038896083831787
1775340926288925400,0.429925537109375,4.567898273468018,8.709874153137207,-0.2584248483181
1775340926305713700,0.446713623046875,4.579862594604492,8.707481384277344,-0.2225325107574463
1775340926322502100,0.463502197265625,4.474578380584717,8.752944946289062,-0.28953152894973755
1775340926339290400,0.480290283203125,4.587040901184082,8.702695846557617,-0.2392822653055191
1775340926356078600,0.49707861328125,4.479363918304443,8.74337387084961,-0.27756741642951965
1775340926372867000,0.5138671875,4.515256404876709,8.726624488830566,-0.28953152894973755
1775340926389655300,0.5306552734375,4.589433670043945,8.69791030883789,-0.2632105052471161
1775340926406443500,0.547443603515625,4.493721008300781,8.738588333129883,-0.275174617767334
1775340926423232000,0.56423193359375,4.5583271980285645,8.714659690856934,-0.2560320198535919
1775340926440020200,0.581020263671875,4.551148891448975,8.724231719970703,-0.24646073579788208
1775340926456808700,0.59780859375,4.498506546020508,8.7505521774292,-0.22971096634864807
1775340926473597000,0.614596923828125,4.560719966888428,8.71226692199707,-0.25363919138908386
1775340926490385200,0.63138525390625,4.524827480316162,8.719446182250977,-0.2560320198535919
1775340926507173600,0.648173583984375,4.53200626373291,8.707481384277344,-0.26560330390930176
1775340926523961900,0.6649619140625,4.517649173736572,8.72183895111084,-0.29431718587875366
1775340926540750000,0.68175,4.505684852600098,8.726624488830566,-0.2679961323738098
1775340926557538600,0.69853857421875,4.563112735748291,8.695517539978027,-0.2799602448940277
1775340926574326800,0.715326904296875,4.500899314880371,8.724231719970703,-0.28235307335853577
1775340926591115300,0.732115234375,4.543970108032227,8.719446182250977,-0.24167509377002716
1775340926607903500,0.748903564453125,4.524827480316162,8.71226692199707,-0.2632105052471161
1775340926624691700,0.765691650390625,4.529613494873047,8.731410026550293,-0.2560320198535919
1775340926641480200,0.782480224609375,4.529613494873047,8.719446182250977,-0.24646073579788208
1775340926658268400,0.799268310546875,4.534399032592773,8.714659690856934,-0.24646073579788208
1775340926675056600,0.816056640625,4.529613494873047,8.72901725769043,-0.24885354936122894
1775340926691845000,0.83284521484375,4.543970108032227,8.724231719970703,-0.2799602448940277
1775340926708633300,0.84963330078125,4.493721008300781,8.72901725769043,-0.2560320198535919
1775340926725421800,0.866421875,4.53200626373291,8.714659690856934,-0.28235307335853577
1775340926742210000,0.8832099609375,4.5391845703125,8.695517539978027,-0.2584248483181
1775340926758998300,0.899998291015625,4.529613494873047,8.719446182250977,-0.24885354936122894
1775340926775786800,0.916786865234375,4.555934429168701,8.714659690856934,-0.2919243574142456
1775340926792575000,0.933574951171875,4.500899314880371,8.73619556427002,-0.2679961323738098
1775340926809363200,0.95036328125,4.5583271980285645,8.709874153137207,-0.2584248483181
1775340926826151700,0.967151611328125,4.529613494873047,8.731410026550293,-0.26560330390930176
1775340926842940000,0.98393994140625,4.491328239440918,8.724231719970703,-0.2799602448940277
1775340926859728100,1.00072802734375,4.53200626373291,8.72901725769043,-0.24167509377002716
1775340926876516600,1.0175166015625,4.503292083740234,8.740981101989746,-0.27038896083831787
1775340926893304800,1.034304931640625,4.579862594604492,8.707481384277344,-0.275174617767334
1775340926910093000,1.051093017578125,4.5391845703125,8.714659690856934,-0.29431718587875366
1775340926926881500,1.067881591796875,4.48414945602417,8.726624488830566,-0.2799602448940277
1775340926943669800,1.084669677734375,4.4961137771606445,8.719446182250977,-0.24885354936122894
1775340926960458000,1.1014580078125,4.560719966888428,8.717052459716797,-0.24885354936122894
1775340926977246500,1.11824658203125,4.443471431732178,8.760123252868652,-0.25363919138908386
1775340926994034700,1.13503466796875,4.632504463195801,8.6907320022583,-0.26560330390930176
1775340927010823200,1.1518232421875,4.503292083740234,8.745766639709473,-0.27038896083831787
1775340927027611400,1.168611328125,4.498506546020508,8.73619556427002,-0.26560330390930176
1775340927044399600,1.185399658203125,4.599005222320557,8.685946464538574,-0.29431718587875366
1775340927061188000,1.20218798828125,4.450650215148926,8.745766639709473,-0.2679961323738098
1775340927077976300,1.218976318359375,4.551148891448975,8.70508861541748,-0.26560330390930176
1775340927094764500,1.2357646484375,4.541577339172363,8.72901725769043,-0.2727817893028259
1775340927111553000,1.252552978515625,4.479363918304443,8.752944946289062,-0.24167509377002716
1775340927128341200,1.26934130859375,4.570291042327881,8.688339233398438,-0.26081767678260803
1775340927145129700,1.286129638671875,4.474578380584717,8.72901725769043,-0.2584248483181
1775340927161918000,1.30291796875,4.551148891448975,8.707481384277344,-0.2512463629245758
1775340927178706200,1.3197060546875,4.541577339172363,8.695517539978027,-0.2679961323738098
1775340927195494700,1.33649462890625,4.491328239440918,8.767302513122559,-0.2919243574142456
1775340927212283000,1.353282958984375,4.534399032592773,8.714659690856934,-0.2560320198535919
1775340927229071000,1.370071044921875,4.505684852600098,8.700303077697754,-0.2560320198535919
1775340927245859600,1.386859619140625,4.5200419425964355,8.726624488830566,-0.25363919138908386
1775340927262647800,1.403647705078125,4.5391845703125,8.73619556427002,-0.2847459018230438
1775340927279436000,1.42043603515625,4.54636287689209,8.73619556427002,-0.275174617767334
1775340927296224500,1.437224609375,4.541577339172363,8.71226692199707,-0.23688943684101105
1775340927313012700,1.4540126953125,4.493721008300781,8.755337715148926,-0.26560330390930176
1775340927329801000,1.470801025390625,4.529613494873047,8.726624488830566,-0.24885354936122894
1775340927346589400,1.48758935546875,4.522434711456299,8.738588333129883,-0.24885354936122894
1775340927363377700,1.504377685546875,4.5583271980285645,8.726624488830566,-0.2512463629245758
1775340927380166100,1.521166259765625,4.555934429168701,8.733802795410156,-0.27038896083831787
1775340927396954400,1.537954345703125,4.500899314880371,8.733802795410156,-0.25363919138908386
1775340927413742600,1.55474267578125,4.548755645751953,8.726624488830566,-0.25363919138908386
1775340927430530800,1.57153076171875,4.462614059448242,8.772088050842285,-0.2679961323738098
1775340927447319300,1.5883193359375,4.577469825744629,8.681160926818848,-0.27756741642951965
1775340927464107500,1.605107421875,4.536791801452637,8.724231719970703,-0.26560330390930176
1775340927480895700,1.621895751953125,4.500899314880371,8.731410026550293,-0.275174617767334
1775340927497684200,1.638684326171875,4.529613494873047,8.719446182250977,-0.22971096634864807
1775340927514472400,1.655472412109375,4.560719966888428,8.709874153137207,-0.30149564146995544
1775340927531261000,1.672260986328125,4.453042984008789,8.764909744262695,-0.2679961323738098
1775340927548049200,1.689049072265625,4.512863636016846,8.709874153137207,-0.23210379481315613
1775340927564837400,1.70583740234375,4.615755081176758,8.740981101989746,-0.2799602448940277
1775340927581625900,1.7226259765625,4.462614059448242,8.757730484008789,-0.27038896083831787
1775340927598414000,1.7394140625,4.543970108032227,8.72901725769043,-0.2512463629245758
1775340927615202300,1.756202392578125,4.4721856117248535,8.726624488830566,-0.2727817893028259
1775340927631990800,1.77299072265625,4.493721008300781,8.695517539978027,-0.275174617767334
1775340927648779000,1.789779052734375,4.570291042327881,8.745766639709473,-0.2584248483181
1775340927665567200,1.806567138671875,4.4482574462890625,8.764909744262695,-0.22971096634864807
1775340927682355700,1.823355712890625,4.589433670043945,8.772088050842285,-0.2273181527853012
1775340927699144000,1.84014404296875,4.534399032592773,8.726624488830566,-0.28953152894973755
1775340927715932200,1.85693212890625,4.450650215148926,8.752944946289062,-0.24167509377002716
1775340927732720600,1.873720703125,4.5583271980285645,8.702695846557617,-0.2847459018230438
1775340927749508900,1.8905087890625,4.503292083740234,8.760123252868652,-0.1818545162677765
1775340927766297300,1.90729736328125,4.548755645751953,8.73619556427002,-0.2560320198535919
1775340927783085600,1.92408544921875,4.54636287689209,8.72901725769043,-0.3158525824546814
1775340927799873800,1.940873779296875,4.479363918304443,8.709874153137207,-0.2871387302875519
1775340927816662300,1.957662353515625,4.534399032592773,8.709874153137207,-0.2991028428077698
1775340927833450500,1.974450439453125,4.53200626373291,8.745766639709473,-0.24885354936122894
1775340927850238700,1.99123876953125,4.460221290588379,8.752944946289062,-0.26560330390930176
1775340927867027000,2.00802685546875,4.505684852600098,8.760123252868652,-0.20099709928035736
1775340927883815400,2.0248154296875,4.536791801452637,8.726624488830566,-0.2392822653055191
1775340927900603600,2.041603759765625,4.553541660308838,8.714659690856934,-0.30628129839897156
1775340927917392100,2.05839208984375,4.512863636016846,8.7505521774292,-0.24406790733337402
1775340927934180400,2.075180419921875,4.563112735748291,8.719446182250977,-0.27756741642951965
1775340927950968600,2.091968505859375,4.498506546020508,8.738588333129883,-0.28953152894973755
1775340927967756800,2.1087568359375,4.436293125152588,8.769695281982422,-0.25363919138908386
1775340927984545300,2.125545166015625,4.589433670043945,8.693124771118164,-0.2679961323738098
1775340928001333500,2.14233349609375,4.467400074005127,8.74337387084961,-0.24646073579788208
1775340928018122000,2.1591220703125,4.536791801452637,8.731410026550293,-0.27038896083831787
1775340928034910200,2.17591015625,4.60857629776001,8.71226692199707,-0.2679961323738098
1775340928051698400,2.192698486328125,4.426722049713135,8.755337715148926,-0.24646073579788208
1775340928068487000,2.20948681640625,4.565505504608154,8.709874153137207,-0.2871387302875519
1775340928085275100,2.226275146484375,4.517649173736572,8.726624488830566,-0.27038896083831787
1775340928102063400,2.2430634765625,4.443471431732178,8.755337715148926,-0.24646073579788208
1775340928118851800,2.259851806640625,4.567898273468018,8.673981666564941,-0.3158525824546814
1775340928135640000,2.27664013671875,4.500899314880371,8.755337715148926,-0.2679961323738098
1775340928152428300,2.29342822265625,4.491328239440918,8.719446182250977,-0.2847459018230438
1775340928169216800,2.310216796875,4.656432628631592,8.666803359985352,-0.26081767678260803
1775340928186005000,2.3270048828125,4.479363918304443,8.752944946289062,-0.24406790733337402
1775340928202793200,2.343793212890625,4.479363918304443,8.748159408569336,-0.24406790733337402
1775340928219581700,2.360581787109375,4.400400638580322,8.800801277160645,-0.27756741642951965
1775340928236370000,2.377369873046875,4.634897232055664,8.688339233398438,-0.25363919138908386
1775340928253158100,2.394158203125,4.445864677429199,8.6907320022583,-0.275174617767334
1775340928269946600,2.410946533203125,4.409972190856934,8.805587768554688,-0.2871387302875519
1775340928286734800,2.42773486328125,4.713860511779785,8.61176872253418,-0.27038896083831787
1775340928303523000,2.444523193359375,4.443471431732178,8.774480819702148,-0.2727817893028259
1775340928320311600,2.4613115234375,4.5200419425964355,8.745766639709473,-0.22971096634864807
1775340928337099800,2.478099853515625,4.572684288024902,8.714659690856934,-0.2512463629245758
1775340928353888000,2.494887939453125,4.395615100860596,8.764909744262695,-0.26081767678260803
1775340928370676500,2.511676513671875,4.536791801452637,8.693124771118164,-0.22013968229293823
1775340928387464700,2.528464599609375,4.510470867156982,8.719446182250977,-0.28235307335853577
1775340928404253000,2.5452529296875,4.46979284286499,8.767302513122559,-0.27756741642951965
1775340928421041400,2.56204150390625,4.60857629776001,8.673981666564941,-0.2512463629245758
1775340928437829600,2.57882958984375,4.398007869720459,8.786444664001465,-0.29431718587875366
1775340928454617900,2.595617919921875,4.579862594604492,8.693124771118164,-0.2584248483181
1775340928471406300,2.61240625,4.4243292808532715,8.772088050842285,-0.3326023519039154
1775340928488194600,2.629194580078125,4.5200419425964355,8.7505521774292,-0.26560330390930176
1775340928504982800,2.645982666015625,4.6372904777526855,8.714659690856934,-0.31106695532798767
1775340928521771300,2.662771240234375,4.429114818572998,8.786444664001465,-0.2225325107574463
1775340928538559500,2.6795595703125,4.529613494873047,8.69791030883789,-0.2679961323738098
1775340928555347700,2.69634765625,4.362115859985352,8.767302513122559,-0.24167509377002716
1775340928572136200,2.71313623046875,4.493721008300781,8.69791030883789,-0.21296121180057526
1775340928588924400,2.72992431640625,4.4650068283081055,8.745766639709473,-0.275174617767334
1775340928605712600,2.746712646484375,4.560719966888428,8.748159408569336,-0.27038896083831787
1775340928622501000,2.763501220703125,4.567898273468018,8.676374435424805,-0.23449662327766418
1775340928639289300,2.780289306640625,4.359723091125488,8.73619556427002,-0.2273181527853012
1775340928656077600,2.79707763671875,4.555934429168701,8.6907320022583,-0.33020952343940735
1775340928672866000,2.813865966796875,4.383651256561279,8.769695281982422,-0.2584248483181
1775340928689654300,2.830654296875,4.53200626373291,8.748159408569336,-0.2225325107574463
1775340928706442500,2.8474423828125,4.457828521728516,8.752944946289062,-0.2584248483181
1775340928723231000,2.86423095703125,4.436293125152588,8.755337715148926,-0.28235307335853577
1775340928740019200,2.881019287109375,4.579862594604492,8.685946464538574,-0.2105683982372284
1775340928756807400,2.897807373046875,4.42193603515625,8.760123252868652,-0.2871387302875519
1775340928773596000,2.914595947265625,4.589433670043945,8.673981666564941,-0.3158525824546814
1775340928790384000,2.931384033203125,4.481756687164307,8.745766639709473,-0.22971096634864807
1775340928807172400,2.94817236328125,4.338187217712402,8.774480819702148,-0.3158525824546814
1775340928823960800,2.9649609375,4.694717884063721,8.609375953674316,-0.2560320198535919
1775340928840749000,2.9817490234375,4.374079704284668,8.82951545715332,-0.28953152894973755
1775340928857537300,2.998537353515625,4.563112735748291,8.702695846557617,-0.28235307335853577
1775340928874325500,3.015325439453125,4.4721856117248535,8.69791030883789,-0.18903298676013947
1775340928891114000,3.032114013671875,4.579862594604492,8.71226692199707,-0.2991028428077698
1775340928907902200,3.048902099609375,4.587040901184082,8.659625053405762,-0.21296121180057526
1775340928924690400,3.0656904296875,4.35254430770874,8.83669376373291,-0.30149564146995544
1775340928941479000,3.08247900390625,4.579862594604492,8.681160926818848,-0.26081767678260803
1775340928958267100,3.09926708984375,4.610969066619873,8.72183895111084,-0.29431718587875366
1775340928975055400,3.116055419921875,4.395615100860596,8.760123252868652,-0.24406790733337402
1775340928991843800,3.13284375,4.548755645751953,8.733802795410156,-0.28235307335853577
1775340929008632000,3.149632080078125,4.543970108032227,8.755337715148926,-0.2967100143432617
1775340929025420300,3.166420166015625,4.541577339172363,8.72183895111084,-0.24406790733337402
1775340929042208800,3.183208740234375,4.579862594604492,8.683553695678711,-0.23449662327766418
1775340929058997000,3.1999970703125,4.541577339172363,8.70508861541748,-0.275174617767334
1775340929075785200,3.21678515625,4.620540618896484,8.767302513122559,-0.32542386651039124
1775340929092573700,3.23357373046875,4.7234320640563965,8.640482902526855,-0.17228323221206665
1775340929109362000,3.25036181640625,4.41475772857666,8.772088050842285,-0.2919243574142456
1775340929126150100,3.267150146484375,4.60857629776001,8.638090133666992,-0.24167509377002716
1775340929142938600,3.283938720703125,4.570291042327881,8.695517539978027,-0.39481574296951294
1775340929159726800,3.300726806640625,4.211368083953857,8.69791030883789,-0.24646073579788208
1775340929176515000,3.31751513671875,4.584648132324219,8.774480819702148,-0.2153540402650833
1775340929193303300,3.33430322265625,4.500899314880371,8.738588333129883,-0.36610186100006104
1775340929210091800,3.351091796875,4.677968502044678,8.669196128845215,-0.19142581522464752
1775340929226880000,3.3678798828125,4.462614059448242,8.781659126281738,-0.2225325107574463
1775340929243668500,3.38466845703125,4.622933387756348,8.714659690856934,-0.21296121180057526
1775340929260456700,3.401456787109375,4.646861553192139,8.693124771118164,-0.2871387302875519
1775340929277245000,3.418244873046875,4.6061835289001465,8.63330364227295,-0.21296121180057526
1775340929294033200,3.435033203125,4.438685894012451,8.774480819702148,-0.2799602448940277
1775340929310821600,3.451821533203125,4.398007869720459,8.671588897705078,-0.3158525824546814
1775340929327609900,3.46860986328125,4.945964336395264,8.62612533569336,-0.27756741642951965
1775340929344398000,3.485398193359375,4.450650215148926,8.779266357421875,-0.27756741642951965
1775340929361186600,3.5021865234375,4.508078098297119,8.767302513122559,-0.2679961323738098
1775340929377974800,3.518974853515625,4.60857629776001,8.688339233398438,-0.26560330390930176
1775340929394763000,3.535762939453125,4.60857629776001,8.69791030883789,-0.28235307335853577
1775340929411551500,3.552551513671875,4.579862594604492,8.717052459716797,-0.22492532432079315
1775340929428339700,3.569339599609375,4.534399032592773,8.719446182250977,-0.24885354936122894
1775340929445128000,3.5861279296875,4.596612453460693,8.683553695678711,-0.23449662327766418
1775340929461916200,3.602916259765625,4.565505504608154,8.695517539978027,-0.26081767678260803
1775340929478704600,3.61970458984375,4.596612453460693,8.659625053405762,-0.25363919138908386
1775340929495492900,3.636492919921875,4.5822553634643555,8.700303077697754,-0.2919243574142456
1775340929512281000,3.653281005859375,4.579862594604492,8.659625053405762,-0.2871387302875519
1775340929529069600,3.670069580078125,4.59421968460083,8.678768157958984,-0.25363919138908386
1775340929545857800,3.68685791015625,4.565505504608154,8.702695846557617,-0.27038896083831787
1775340929562646000,3.70364599609375,4.603790760040283,8.683553695678711,-0.26560330390930176
1775340929579434200,3.720434326171875,4.59421968460083,8.709874153137207,-0.2273181527853012
1775340929596222700,3.73722265625,4.634897232055664,8.685946464538574,-0.23449662327766418
1775340929613011000,3.754010986328125,4.555934429168701,8.717052459716797,-0.23210379481315613
1775340929629799400,3.77079931640625,4.563112735748291,8.69791030883789,-0.27756741642951965
1775340929646587600,3.787587646484375,4.543970108032227,8.709874153137207,-0.27756741642951965
1775340929663376000,3.8043759765625,4.656432628631592,8.657232284545898,-0.2153540402650833
1775340929680164000,3.8211640625,4.591826438903809,8.707481384277344,-0.32542386651039124
1775340929696952600,3.83795263671875,4.5583271980285645,8.707481384277344,-0.2871387302875519
1775340929713740800,3.85474072265625,4.673182487487793,8.654839515686035,-0.27038896083831787
1775340929730529000,3.871529052734375,4.500899314880371,8.72901725769043,-0.2679961323738098
1775340929747317500,3.8883173828125,4.59421968460083,8.678768157958984,-0.20578274130821228
1775340929764105700,3.905105712890625,4.6301116943359375,8.688339233398438,-0.3038884699344635
1775340929780894000,3.92189404296875,4.622933387756348,8.702695846557617,-0.19621145725250244
1775340929797682200,3.93868212890625,4.610969066619873,8.69791030883789,-0.24646073579788208
1775340929814470700,3.955470703125,4.589433670043945,8.683553695678711,-0.29431718587875366
1775340929831259000,3.9722587890625,4.5200419425964355,8.695517539978027,-0.24167509377002716
1775340929848047000,3.989047119140625,4.560719966888428,8.693124771118164,-0.28953152894973755
1775340929864835600,4.005835693359375,4.498506546020508,8.752944946289062,-0.28953152894973755
1775340929881623800,4.022623779296875,4.756931304931641,8.645268440246582,-0.3326023519039154
1775340929898412000,4.039412109375,4.479363918304443,8.752944946289062,-0.2679961323738098
1775340929915200500,4.056200439453125,4.591826438903809,8.652446746826172,-0.2105683982372284
1775340929931988700,4.07298876953125,4.551148891448975,8.671588897705078,-0.24885354936122894
1775340929948777000,4.08977685546875,4.529613494873047,8.70508861541748,-0.26560330390930176
1775340929965565200,4.106565185546875,4.6301116943359375,8.683553695678711,-0.21296121180057526
1775340929982353700,4.123353759765625,4.555934429168701,8.740981101989746,-0.21296121180057526
1775340929999142000,4.140141845703125,4.5583271980285645,8.74337387084961,-0.31106695532798767
1775340930015930000,4.15693017578125,4.486542224884033,8.745766639709473,-0.275174617767334
1775340930032718600,4.173718505859375,4.503292083740234,8.717052459716797,-0.24167509377002716
1775340930049506800,4.1905068359375,4.599005222320557,8.669196128845215,-0.3278166949748993
1775340930066295000,4.207294921875,4.625326156616211,8.676374435424805,-0.31106695532798767
1775340930083083300,4.224083251953125,4.575077056884766,8.678768157958984,-0.2679961323738098
1775340930099871700,4.240871826171875,4.579862594604492,8.678768157958984,-0.2632105052471161
1775340930116660000,4.257659912109375,4.436293125152588,8.757730484008789,-0.20099709928035736
1775340930133448200,4.2744482421875,4.534399032592773,8.738588333129883,-0.26081767678260803
1775340930150236700,4.291236572265625,4.572684288024902,8.7505521774292,-0.18903298676013947
1775340930167025000,4.30802490234375,4.649254322052002,8.69791030883789,-0.23210379481315613
1775340930183813000,4.324813232421875,4.589433670043945,8.707481384277344,-0.3445664644241333
1775340930200601600,4.3416015625,4.5822553634643555,8.693124771118164,-0.2991028428077698
1775340930217389800,4.358389892578125,4.445864677429199,8.726624488830566,-0.32303106784820557
1775340930234178000,4.375177978515625,4.553541660308838,8.662017822265625,-0.28953152894973755
1775340930250966300,4.39196630859375,4.419543266296387,8.762516975402832,-0.33020952343940735
1775340930267754800,4.408754638671875,4.591826438903809,8.73619556427002,-0.2392822653055191
1775340930284543000,4.42554296875,4.515256404876709,8.755337715148926,-0.24885354936122894
1775340930301331200,4.442331298828125,4.67078971862793,8.659625053405762,-0.34695929288864136
1775340930318119700,4.45911962890625,4.503292083740234,8.714659690856934,-0.23688943684101105
1775340930334908000,4.475907958984375,4.5822553634643555,8.673981666564941,-0.30628129839897156
1775340930351696100,4.492696044921875,4.551148891448975,8.714659690856934,-0.29431718587875366
1775340930368484400,4.509484375,4.555934429168701,8.709874153137207,-0.26081767678260803
1775340930385272800,4.52627294921875,4.575077056884766,8.688339233398438,-0.24885354936122894
1775340930402061000,4.54306103515625,4.54636287689209,8.724231719970703,-0.1339980661869049
1775340930418849300,4.559849365234375,4.462614059448242,8.74337387084961,-0.2847459018230438
1775340930435637800,4.5766376953125,4.527220249176025,8.695517539978027,-0.11724831163883209
1775340930452426000,4.593426025390625,4.541577339172363,8.72183895111084,-0.24646073579788208
1775340930469214200,4.610214111328125,4.59421968460083,8.709874153137207,-0.24646073579788208
1775340930486002400,4.62700244140625,4.584648132324219,8.6907320022583,-0.24167509377002716
1775340930502791000,4.643791015625,4.6061835289001465,8.707481384277344,-0.380458801984787
1775340930519579100,4.6605791015625,4.486542224884033,8.724231719970703,-0.24167509377002716
1775340930536367400,4.677367431640625,4.493721008300781,8.714659690856934,-0.2847459018230438
1775340930553155800,4.69415576171875,4.54636287689209,8.72183895111084,-0.26560330390930176
1775340930569944000,4.710944091796875,4.534399032592773,8.740981101989746,-0.20817556977272034
1775340930586732300,4.727732177734375,4.529613494873047,8.731410026550293,-0.2679961323738098
1775340930603520500,4.7445205078125,4.555934429168701,8.700303077697754,-0.1746760457754135
1775340930620309000,4.76130908203125,4.510470867156982,8.71226692199707,-0.33738797903060913
1775340930637097200,4.77809716796875,4.577469825744629,8.702695846557617,-0.29431718587875366
1775340930653885400,4.794885498046875,4.560719966888428,8.714659690856934,-0.23210379481315613
1775340930670673700,4.811673583984375,4.510470867156982,8.724231719970703,-0.27038896083831787
1775340930687462100,4.828462158203125,4.728217601776123,8.683553695678711,-0.3158525824546814
1775340930704250400,4.84525048828125,4.47697114944458,8.788837432861328,-0.2153540402650833
1775340930721038600,4.86203857421875,4.615755081176758,8.702695846557617,-0.12921242415905
1775340930737827000,4.8788271484375,4.622933387756348,8.714659690856934,-0.23688943684101105
1775340930754615300,4.895615234375,4.304687976837158,8.879764556884766,-0.25363919138908386
1775340930771403500,4.912403564453125,4.72582483291626,8.599804878234863,-0.19381862878799438
1775340930788191700,4.929191650390625,4.333401679992676,8.762516975402832,-0.37806597352027893
1775340930804980200,4.945980224609375,4.4410786628723145,8.695517539978027,-0.2512463629245758
1775340930821768400,4.9627685546875,4.666004180908203,8.638090133666992,-0.41156548261642456
1775340930838556700,4.979556640625,4.48414945602417,8.726624488830566,-0.37806597352027893
1775340930855345200,4.99634521484375,4.768895626068115,8.657232284545898,-0.3038884699344635
1775340930872133400,5.01313330078125,4.431507587432861,8.798408508300781,-0.31106695532798767
1775340930888921600,5.029921630859375,4.5200419425964355,8.709874153137207,-0.20578274130821228
1775340930905709800,5.046709716796875,4.350151538848877,8.796015739440918,-0.19142581522464752
1775340930922498300,5.063498291015625,4.524827480316162,8.719446182250977,-0.06939185410737991
1775340930939286500,5.08028662109375,4.661218643188477,8.700303077697754,-0.2727817893028259
1775340930956074800,5.09707470703125,4.4650068283081055,8.769695281982422,-0.18424734473228455
1775340930972863000,5.113863037109375,4.816751956939697,8.606983184814453,-0.2512463629245758
1775340930989651500,5.1306513671875,4.431507587432861,8.760123252868652,-0.363709032535553
1775340931006439700,5.147439697265625,4.405186653137207,8.776873588562012,-0.41874396800994873
1775340931023228000,5.164227783203125,4.596612453460693,8.654839515686035,-0.34695929288864136
1775340931040016100,5.18101611328125,4.398007869720459,8.752944946289062,-0.3038884699344635
1775340931056804600,5.1978046875,4.548755645751953,8.681160926818848,-0.2871387302875519
1775340931073592800,5.2145927734375,4.445864677429199,8.724231719970703,-0.24167509377002716
1775340931090381000,5.231381103515625,4.649254322052002,8.685946464538574,-0.13878370821475983
1775340931107169500,5.24816943359375,4.393222332000732,8.810373306274414,-0.1579262912273407
1775340931123957800,5.264957763671875,4.644468784332275,8.707481384277344,-0.20338992774486542
1775340931140746000,5.28174609375,4.5391845703125,8.752944946289062,-0.32542386651039124
1775340931157534200,5.2985341796875,4.445864677429199,8.748159408569336,-0.3038884699344635
1775340931174322700,5.31532275390625,4.584648132324219,8.70508861541748,-0.3278166949748993
1775340931191111000,5.33211083984375,4.524827480316162,8.73619556427002,-0.3613162338733673
1775340931207899100,5.348899169921875,4.567898273468018,8.731410026550293,-0.275174617767334
1775340931224687400,5.365687255859375,4.567898273468018,8.740981101989746,-0.20338992774486542
1775340931241475800,5.382475830078125,4.60857629776001,8.683553695678711,-0.27038896083831787
1775340931258264000,5.39926416015625,4.366901397705078,8.738588333129883,-0.11724831163883209
1775340931275052300,5.41605224609375,4.467400074005127,8.717052459716797,-0.25363919138908386
1775340931291840500,5.432840576171875,4.486542224884033,8.72901725769043,-0.20578274130821228
1775340931308629000,5.44962890625,4.481756687164307,8.781659126281738,-0.2727817893028259
1775340931325417200,5.466417236328125,4.704289436340332,8.693124771118164,-0.35892340540885925
1775340931342205400,5.483205322265625,4.474578380584717,8.745766639709473,-0.37088751792907715
1775340931358993700,5.49999365234375,4.443471431732178,8.7505521774292,-0.34217363595962524
1775340931375782100,5.5167822265625,4.515256404876709,8.709874153137207,-0.28953152894973755
1775340931392570400,5.5335703125,4.4482574462890625,8.760123252868652,-0.27756741642951965
1775340931409358600,5.550358642578125,4.529613494873047,8.740981101989746,-0.20099709928035736
1775340931426146800,5.567146728515625,4.579862594604492,8.726624488830566,-0.17228323221206665
1775340931442935300,5.583935302734375,4.529613494873047,8.745766639709473,-0.25363919138908386
1775340931459723500,5.6007236328125,4.584648132324219,8.685946464538574,-0.1986042857170105
1775340931476511700,5.61751171875,4.273581027984619,8.851051330566406,-0.27038896083831787
1775340931493300000,5.634300048828125,4.5391845703125,8.681160926818848,-0.2584248483181
1775340931510088400,5.65108837890625,4.512863636016846,8.752944946289062,-0.41156548261642456
1775340931526876700,5.667876708984375,4.402793884277344,8.772088050842285,-0.3326023519039154
1775340931543665000,5.684664794921875,4.752145767211914,8.647661209106445,-0.2584248483181
1775340931560453400,5.701453369140625,4.364508628845215,8.784051895141602,-0.349352091550827
1775340931577241600,5.71824169921875,4.510470867156982,8.748159408569336,-0.19621145725250244
1775340931594029800,5.73502978515625,4.486542224884033,8.733802795410156,-0.27756741642951965
1775340931610818000,5.751818115234375,4.371686935424805,8.80798053741455,-0.15553347766399384
1775340931627606300,5.768606201171875,4.445864677429199,8.784051895141602,-0.27756741642951965
1775340931644394800,5.785394775390625,4.613361835479736,8.688339233398438,-0.2392822653055191
1775340931661183000,5.802182861328125,4.376472473144531,8.774480819702148,-0.24167509377002716
1775340931677971200,5.81897119140625,4.555934429168701,8.69791030883789,-0.3326023519039154
1775340931694759700,5.835759765625,4.4410786628723145,8.724231719970703,-0.3397808074951172
1775340931711548000,5.8525478515625,4.460221290588379,8.764909744262695,-0.380458801984787
1775340931728336100,5.869336181640625,4.453042984008789,8.757730484008789,-0.19381862878799438
1775340931745124400,5.886124267578125,4.481756687164307,8.764909744262695,-0.28953152894973755
1775340931761912600,5.90291259765625,4.527220249176025,8.760123252868652,-0.27756741642951965
1775340931778701000,5.919701171875,4.48414945602417,8.812766075134277,-0.20099709928035736
1775340931795489300,5.9364892578125,4.575077056884766,8.784051895141602,-0.23449662327766418
1775340931812277500,5.953277587890625,4.438685894012451,8.798408508300781,-0.2727817893028259
1775340931829066000,5.97006591796875,4.362115859985352,8.831908226013184,-0.28953152894973755
1775340931845854200,5.986854248046875,4.4243292808532715,8.769695281982422,-0.2799602448940277
1775340931862642400,6.003642333984375,4.316651821136475,8.863015174865723,-0.08853443711996078
1775340931879430700,6.0204306640625,4.938786029815674,8.889336585998535,-0.4546363055706024
1775340931896219000,6.037218994140625,4.823930263519287,8.870193481445312,-0.3517449200153351
1775340931913007400,6.05400732421875,4.517649173736572,8.733802795410156,-0.35892340540885925
1775340931929795600,6.070795654296875,4.376472473144531,8.556734085083008,-0.20099709928035736
1775340931946583800,6.087583740234375,4.249652862548828,8.73619556427002,-0.3086741268634796
1775340931963372000,6.1043720703125,4.180261135101318,8.86062240600586,-0.3158525824546814
1775340931980160500,6.121160400390625,4.613361835479736,8.693124771118164,-0.18903298676013947
1775340931996948700,6.13794873046875,3.9361932277679443,9.090332984924316,-0.30149564146995544
1775340932013737000,6.154737060546875,4.438685894012451,8.72183895111084,-0.2991028428077698
1775340932030525200,6.171525146484375,3.5054850578308105,9.231510162353516,-0.23688943684101105
1775340932047313700,6.188313720703125,5.041677474975586,8.549555778503418,-0.38285163044929504
1775340932064102000,6.205101806640625,3.9864425659179688,8.920442581176758,-0.10049854964017868
1775340932080890000,6.22189013671875,3.838087558746338,9.186046600341797,-0.36610186100006104
1775340932097678300,6.23867822265625,4.5200419425964355,8.848658561706543,-0.3086741268634796
1775340932114466800,6.255466796875,4.1036906242370605,9.22433090209961,-0.24646073579788208
1775340932131255000,6.272255126953125,5.355136871337891,8.757730484008789,-0.48813581466674805
1775340932148043300,6.289043212890625,3.9361932277679443,9.28893756866455,-0.064606212079525
1775340932164831500,6.30583154296875,4.826323509216309,9.20279598236084,-0.29431718587875366
1775340932181620000,6.322619873046875,4.768895626068115,9.432506561279297,-0.12921242415905
1775340932198408200,6.339408203125,4.335794448852539,9.66221809387207,-0.2847459018230438
1775340932215196400,6.356196533203125,4.094119548797607,9.875179290771484,-0.3565305769443512
1775340932231984600,6.372984619140625,4.027120590209961,9.92542839050293,-0.01196411345154047
1775340932248773000,6.389773193359375,4.575077056884766,9.611968994140625,-0.363709032535553
1775340932265561300,6.406561279296875,4.271188259124756,9.872786521911621,-0.43549370765686035
1775340932282349600,6.423349609375,-0.8925228714942932,12.2799654006958,-0.07896314561367035
1775340932299137800,6.4401376953125,-3.6610186100006104,12.856636047363281,-0.4043870270252228
1775340932315926000,6.456926025390625,4.572684288024902,8.69791030883789,-0.4737788736820221
1775340932332714500,6.473714599609375,7.190432071685791,7.259823799133301,-0.31824541091918945
1775340932349502700,6.490502685546875,8.958727836608887,6.608976364135742,-0.576670229434967
1775340932366291000,6.507291015625,11.956934928894043,5.290530681610107,-0.4043870270252228
1775340932383079200,6.5240791015625,11.808579444885254,5.601597785949707,-0.672383189201355
1775340932399867600,6.54086767578125,10.389636039733887,6.628118515014648,-0.4498506486415863
1775340932416656000,6.55765576171875,7.429714202880859,7.671389579772949,-0.2727817893028259
1775340932433444000,6.574444091796875,4.335794448852539,9.29611587524414,-0.2727817893028259
1775340932450232300,6.591232421875,4.278367042541504,9.219545364379883,-0.4546363055706024
1775340932467020800,6.608020751953125,4.426722049713135,8.6907320022583,-0.5216353535652161
1775340932483809000,6.62480908203125,4.584648132324219,8.372486114501953,-0.19381862878799438
1775340932500597200,6.64159716796875,5.876772403717041,7.822137355804443,-0.5551348328590393
1775340932517385500,6.658385498046875,5.994020938873291,7.255038261413574,-0.35413774847984314
1775340932534173700,6.675173583984375,5.881557941436768,6.783652305603027,-0.4378865361213684
1775340932550962200,6.691962158203125,6.8482584953308105,6.305087566375732,-0.32542386651039124
1775340932567750400,6.70875048828125,7.125825881958008,5.702096462249756,-0.2105683982372284
1775340932584538600,6.72553857421875,7.692924976348877,5.106283664703369,-0.5718846321105957
1775340932601326800,6.742326904296875,6.427121639251709,4.910071849822998,-0.0526420995593071
1775340932618115000,6.759114990234375,5.970092296600342,5.182853698730469,-0.15074782073497772
1775340932634903600,6.775903564453125,5.1804609298706055,4.804787635803223,-0.21774685382843018
1775340932651691800,6.79269189453125,6.027520179748535,4.486542224884033,-0.2919243574142456
1775340932668480000,6.80947998046875,6.276373863220215,4.034298896789551,-0.24406790733337402
1775340932685268200,6.826268310546875,6.867401123046875,4.192225456237793,-0.31345975399017334
1775340932702056700,6.843056640625,6.479763507843018,4.395615100860596,-0.33020952343940735
1775340932718845000,6.859844970703125,6.269195556640625,4.555934429168701,-0.33738797903060913
1775340932735633200,6.876633056640625,17.4412841796875,0.4163511395454407,-0.7657032608985901
1775340932752421400,6.89342138671875,13.380663871765137,2.7182464599609375,0.5742774605751038
1775340932769209600,6.910209716796875,-3.3547372817993164,9.43489933013916,-0.5694918036460876
1775340932785998000,6.926998046875,16.687545776367188,1.466800332069397,-1.2562319040298462
1775340932802786300,6.943786376953125,1.5074782371520996,7.310073375701904,0.39960137009620667
1775340932819574500,6.960574462890625,13.007384300231934,3.373879909515381,-1.34476637840271
1775340932836363000,6.977363037109375,6.104090690612793,6.697510719299316,-0.11724831163883209
1775340932853151200,6.994151123046875,10.045069694519043,5.091926574707031,0.007178467698395252
1775340932869939500,7.010939453125,8.449056625366211,5.84566593170166,-1.196411371231079
1775340932886727700,7.027727783203125,8.408378601074219,5.883950710296631,-0.05742774158716202
1775340932903516000,7.044515869140625,9.257830619812012,5.570491313934326,-0.4737788736820221
1775340932920304000,7.06130419921875,8.15234661102295,6.034698486328125,-0.8015955686569214
1775340932937092600,7.078092529296875,9.513862609863281,5.395814895629883,-0.12681959569454193
1775340932953880800,7.094880859375,8.288737297058105,5.714060306549072,-0.6771687865257263
1775340932970669000,7.1116689453125,8.181060791015625,5.314459323883057,-0.06699903309345245
1775340932987457300,7.128457275390625,8.34855842590332,5.213960647583008,-0.4091726839542389
1775340933004245800,7.145245849609375,7.661818027496338,5.340780258178711,-0.5383850932121277
1775340933021034000,7.162033935546875,8.248059272766113,5.151747226715088,-0.46420758962631226
1775340933037822200,7.178822265625,7.740781307220459,5.314459323883057,-0.729810893535614
1775340933054610400,7.1956103515625,8.054241180419922,5.13739013671875,-0.363709032535553
1775340933071399000,7.21239892578125,8.212167739868164,5.06799840927124,-0.3397808074951172
1775340933088187100,7.229187255859375,8.310273170471191,5.144568920135498,-0.33499518036842346
1775340933104975400,7.245975341796875,7.817351341247559,5.441278457641602,-0.24885354936122894
1775340933121763600,7.262763671875,8.396414756774902,5.292923450469971,-0.48574298620224
1775340933138551800,7.2795517578125,7.982456207275391,5.501099109649658,-0.34217363595962524
1775340933155340300,7.29634033203125,8.614161491394043,5.290530681610107,-0.2919243574142456
1775340933172128500,7.31312841796875,8.327022552490234,5.505885124206543,-0.4139583110809326
1775340933188916700,7.329916748046875,8.48734188079834,5.407779216766357,-0.41156548261642456
1775340933205705000,7.346705078125,8.688339233398438,5.2115678787231445,-0.5264210104942322
1775340933222493200,7.3634931640625,7.824530124664307,5.551348686218262,-0.5264210104942322
1775340933239281700,7.38028173828125,8.3629150390625,5.350351333618164,-0.5000999569892883
1775340933256070000,7.39706982421875,8.047062873840332,5.587240695953369,-0.31106695532798767
1775340933272858000,7.413858154296875,8.762516975402832,5.151747226715088,-0.4713860750198364
1775340933289646300,7.430646240234375,7.798209190368652,5.429314613342285,-0.33020952343940735
1775340933306434600,7.4474345703125,8.520841598510742,5.168497085571289,-0.31345975399017334
1775340933323223000,7.46422314453125,8.015955924987793,5.364708423614502,-0.26081767678260803
1775340933340011300,7.48101123046875,7.752745151519775,5.4628143310546875,-0.33020952343940735
1775340933356799500,7.497799560546875,8.212167739868164,5.278566837310791,-0.4618147611618042
1775340933373587700,7.514587646484375,8.303094863891602,5.237888813018799,-0.44027936458587646
1775340933390376000,7.5313759765625,8.413164138793945,5.300102233886719,-0.4666004180908203
1775340933407164400,7.548164306640625,7.992027759552002,5.252245903015137,-0.5264210104942322
1775340933423952600,7.56495263671875,8.037490844726562,5.223531723022461,-0.3924229145050049
1775340933440740900,7.581740966796875,7.9728851318359375,5.300102233886719,-0.45224347710609436
1775340933457529000,7.598529052734375,8.063812255859375,5.209175109863281,-0.4163511395454407
1775340933474317300,7.6153173828125,7.994420528411865,5.115854740142822,-0.40677985548973083
1775340933491105800,7.632105712890625,8.226524353027344,4.922036170959473,-0.38285163044929504
1775340933507894000,7.64889404296875,7.877171993255615,4.993820667266846,-0.2847459018230438
1775340933524682200,7.66568212890625,7.599604606628418,5.039284706115723,-0.3206382393836975
1775340933541470500,7.682470458984375,7.728816986083984,4.867001056671143,-0.34695929288864136
1775340933558258700,7.6992587890625,6.565905570983887,5.089533805847168,-0.275174617767334
1775340933575047200,7.716047119140625,7.812565803527832,4.721039295196533,-0.4163511395454407
1775340933591835400,7.73283544921875,7.7216386795043945,4.754538536071777,-0.4570291340351105
1775340933608623600,7.74962353515625,7.144968509674072,4.780859470367432,-0.3397808074951172
1775340933625411800,7.766411865234375,7.846065521240234,4.570291042327881,-0.2679961323738098
1775340933642200300,7.783200439453125,7.137789726257324,4.871787071228027,-0.1579262912273407
1775340933658988500,7.799988525390625,7.6043901443481445,4.776073932647705,-0.44745782017707825
1775340933675776800,7.81677685546875,7.645068168640137,4.73300313949585,-0.38285163044929504
1775340933692565000,7.83356494140625,7.10429048538208,4.7473602294921875,-0.5742774605751038
1775340933709353200,7.850353271484375,7.733603000640869,4.563112735748291,-0.5910272002220154
1775340933726141400,7.867141357421875,7.424928665161133,4.718646049499512,-0.1818545162677765
1775340933742930000,7.883929931640625,8.059026718139648,4.66361141204834,-0.25363919138908386
1775340933759718100,7.90071826171875,7.460821151733398,4.989035129547119,-0.23210379481315613
1775340933776506400,7.91750634765625,7.652246952056885,5.245067119598389,-0.6029912829399109
1775340933793294600,7.934294677734375,7.312466144561768,5.362315654754639,-0.5144568681716919
1775340933810083000,7.9510830078125,9.042476654052734,4.431507587432861,-0.8470591902732849
1775340933826871300,7.967871337890625,6.8171515464782715,5.2283172607421875,-0.3445664644241333
1775340933843659500,7.984659423828125,8.126026153564453,4.807180881500244,0.035892341285943985
1775340933860447700,8.00144775390625,8.358129501342773,4.706682205200195,-0.19142581522464752
1775340933877236000,8.018236083984375,6.190232276916504,5.290530681610107,-0.4019941985607147
1775340933894024200,8.035024169921876,9.33440113067627,4.5822553634643555,-0.5335994362831116
1775340933910812400,8.0518125,6.805187702178955,5.649454116821289,-0.605384111404419
1775340933927601000,8.068600830078125,8.755337715148926,4.9052863121032715,-0.5000999569892883
1775340933944389000,8.08538916015625,7.8795647621154785,5.474778175354004,-0.3517449200153351
1775340933961177300,8.10217724609375,8.73619556427002,5.481956481933594,-0.2584248483181
1775340933977965600,8.118965576171876,8.080561637878418,5.4867424964904785,-0.16271193325519562
1775340933994753800,8.13575390625,8.257631301879883,5.376672267913818,-0.4737788736820221
1775340934011542300,8.152542236328125,8.499305725097656,5.824130535125732,-0.5240281820297241
1775340934028330500,8.16933056640625,8.4562349319458,5.7858452796936035,-0.6675975322723389
1775340934045118700,8.18611865234375,8.973084449768066,5.6590256690979,-0.3565305769443512
1775340934061907000,8.202906982421876,8.458627700805664,5.280959606170654,-0.11964113265275955
1775340934078695400,8.2196953125,8.34855842590332,5.391029357910156,-0.22013968229293823
1775340934095483600,8.236483642578126,8.391629219055176,5.575276851654053,-0.39960137009620667
1775340934112272000,8.25327197265625,8.583054542541504,5.477170944213867,-0.6891329288482666
1775340934129060000,8.27006005859375,8.233702659606934,5.6590256690979,-0.6819544434547424
1775340934145848300,8.286848388671874,8.779266357421875,5.613562107086182,-0.5048855543136597
1775340934162636500,8.303636474609375,8.489734649658203,5.934200286865234,-0.17228323221206665
1775340934179425000,8.320425048828126,8.02791976928711,5.86002254486084,-0.4570291340351105
1775340934196213200,8.337213134765625,8.286344528198242,5.163711071014404,-0.12681959569454193
1775340934213001500,8.35400146484375,8.319844245910645,5.407779216766357,-0.19621145725250244
1775340934229789700,8.370789794921874,7.76470947265625,5.474778175354004,-0.48813581466674805
1775340934246578000,8.387577880859375,9.372686386108398,5.283352375030518,-0.6532405614852905
1775340934263366100,8.4043662109375,7.824530124664307,5.7619171142578125,-0.07896314561367035
1775340934280154600,8.421154541015625,8.97787094116211,5.352744102478027,-0.13639089465141296
1775340934296942800,8.43794287109375,8.09252643585205,5.714060306549072,-0.1866401731967926
1775340934313731000,8.45473095703125,8.48734188079834,5.582455158233643,-0.641276478767395
1775340934330519300,8.471519287109375,8.094919204711914,5.319244861602783,-0.7489534616470337
1775340934347307500,8.4883076171875,8.102097511291504,5.290530681610107,-0.46899324655532837
1775340934364095700,8.505095703125,8.300702095031738,5.2354960441589355,-0.5934200286865234
1775340934380884200,8.52188427734375,8.02791976928711,5.383851051330566,-0.4043870270252228
1775340934397672400,8.53867236328125,8.295916557312012,5.3455657958984375,-0.19381862878799438
1775340934414460700,8.555460693359375,8.01356315612793,5.381458282470703,-0.49292147159576416
1775340934431249000,8.572248779296874,8.283951759338379,5.663811206817627,-0.035892341285943985
1775340934448037000,8.589037109375,8.484949111938477,5.637490272521973,-0.7058826684951782
1775340934464825300,8.605825439453126,8.26241683959961,5.642275810241699,-0.7848458290100098
1775340934481613800,8.62261376953125,8.413164138793945,5.60399055480957,-0.2273181527853012
1775340934498402000,8.639402099609375,8.489734649658203,5.376672267913818,-0.10289137065410614
1775340934515190300,8.656190185546874,8.336593627929688,5.840879917144775,-0.2584248483181
1775340934531978500,8.672978515625,8.635697364807129,5.407779216766357,-0.4498506486415863
1775340934548766700,8.6897666015625,8.221738815307617,5.735595703125,-0.39960137009620667
1775340934565555000,8.706554931640625,8.731410026550293,5.402993679046631,-0.7489534616470337
1775340934582343400,8.723343505859376,8.212167739868164,5.491528034210205,-0.23688943684101105
1775340934599131600,8.740131591796874,8.638090133666992,5.347958564758301,-0.4426721930503845
1775340934615919900,8.756919921875,8.221738815307617,5.6685967445373535,-0.28235307335853577
1775340934632708000,8.7737080078125,8.528019905090332,5.556134223937988,-0.31345975399017334
1775340934649496300,8.790496337890625,8.37727165222168,5.5968122482299805,-0.6197410821914673
1775340934666284800,8.807284912109376,8.207381248474121,5.374279499053955,-0.39481574296951294
1775340934683073000,8.824072998046875,8.338987350463867,5.3455657958984375,-0.45942193269729614
1775340934699861200,8.840861328125,8.02791976928711,5.376672267913818,-0.2871387302875519
1775340934716649500,8.8576494140625,8.46580696105957,5.5345988273620605,-0.1746760457754135
1775340934733437700,8.874437744140625,8.48016357421875,5.402993679046631,-0.4953143000602722
1775340934750226000,8.891225830078126,8.429914474487305,5.505885124206543,-0.380458801984787
1775340934767014100,8.90801416015625,8.638090133666992,5.592026710510254,-0.5240281820297241
1775340934783802600,8.924802734375,8.453842163085938,5.639883041381836,-0.6675975322723389
1775340934800590800,8.9415908203125,8.437092781066895,5.302495002746582,-0.19142581522464752
1775340934817379000,8.958379150390625,8.212167739868164,5.443671703338623,-0.47617170214653015
1775340934834167300,8.975167236328126,8.398807525634766,5.465207099914551,-0.08853443711996078
1775340934850955500,8.99195556640625,8.329415321350098,5.283352375030518,-0.5455635786056519
1775340934867743700,9.00874365234375,7.877171993255615,5.108676433563232,-0.5575276613235474
1775340934884532200,9.0255322265625,8.070990562438965,5.295316696166992,-0.5144568681716919
1775340934901320400,9.042320556640625,8.13081169128418,5.37906551361084,-0.5120640397071838
1775340934918108700,9.059108642578124,8.22413158416748,5.254638671875,-0.19142581522464752
1775340934934897000,9.07589697265625,8.405985832214355,5.764309883117676,-0.29431718587875366
1775340934951685000,9.09268505859375,8.329415321350098,5.556134223937988,-0.48813581466674805
1775340934968473300,9.109473388671875,8.176275253295898,5.374279499053955,-0.3900300860404968
1775340934985261800,9.12626171875,8.116454124450684,5.513063430786133,-0.39960137009620667
1775340935002050000,9.143050048828124,8.695517539978027,5.438885688781738,-0.6293123364448547
1775340935018838300,9.15983837890625,8.173882484436035,5.429314613342285,-0.22013968229293823
1775340935035626500,9.17662646484375,8.15234661102295,5.20678186416626,-0.3613162338733673
1775340935052414700,9.193414794921875,8.078168869018555,5.333601474761963,-0.44027936458587646
1775340935069203000,9.210202880859375,8.315058708190918,5.481956481933594,-0.41874396800994873
1775340935085991200,9.2269912109375,8.166703224182129,5.32403039932251,-0.45224347710609436
1775340935102779400,9.243779296875,8.250452041625977,5.450850009918213,-0.4977070987224579
1775340935119568000,9.26056787109375,8.372486114501953,5.656632900238037,-0.21296121180057526
1775340935136356000,9.277356201171875,8.61176872253418,5.498706340789795,-0.26081767678260803
1775340935153144300,9.294144287109376,8.02074146270752,5.460421085357666,-0.29431718587875366
1775340935169932500,9.3109326171875,8.578269004821777,5.292923450469971,-0.17946170270442963
1775340935186720800,9.327720703125,8.082955360412598,5.474778175354004,-0.5335994362831116
1775340935203509200,9.34450927734375,8.126026153564453,5.2115678787231445,-0.6269195079803467
1775340935220297500,9.36129736328125,8.279166221618652,5.429314613342285,-0.4331009089946747
1775340935237085700,9.378085693359376,7.9728851318359375,5.37906551361084,-0.3086741268634796
1775340935253874000,9.3948740234375,8.4562349319458,5.426921844482422,-0.41874396800994873
1775340935270662100,9.411662109375,8.544769287109375,6.001199245452881,-0.2847459018230438
1775340935287450400,9.428450439453124,8.796015739440918,5.565705299377441,-0.4666004180908203
1775340935304238600,9.445238525390625,8.508877754211426,5.364708423614502,-0.7154539823532104
1775340935321027000,9.462027099609376,8.353343963623047,5.6685967445373535,-0.3852444589138031
1775340935337815300,9.478815185546875,8.391629219055176,5.4795637130737305,-0.37088751792907715
1775340935354603500,9.495603515625,8.319844245910645,5.6590256690979,-0.6819544434547424
1775340935371391700,9.512391845703124,8.405985832214355,5.553741455078125,-0.2679961323738098
1775340935388180000,9.529179931640625,8.678768157958984,5.414957523345947,-0.48095735907554626
1775340935404968200,9.54596826171875,8.286344528198242,5.599205017089844,-0.41874396800994873
1775340935421756400,9.56275634765625,8.360522270202637,5.201996326446533,-0.5096712112426758
1775340935438545000,9.579544921875,8.087740898132324,5.522634506225586,-0.5264210104942322
1775340935455333000,9.5963330078125,8.669196128845215,5.266602516174316,-0.23688943684101105
1775340935472121300,9.613121337890625,7.884350776672363,5.517848968505859,-0.2153540402650833
1775340935488909600,9.62990966796875,8.640482902526855,5.38624382019043,-0.2727817893028259
1775340935505697800,9.64669775390625,8.149953842163086,5.6207404136657715,-0.41874396800994873
1775340935522486000,9.663486083984376,8.504091262817383,5.66620397567749,-0.5144568681716919
1775340935539274200,9.680274169921875,8.681160926818848,5.773880958557129,-0.5407779216766357
1775340935556062500,9.6970625,8.453842163085938,5.5968122482299805,-0.4378865361213684
1775340935572851000,9.713850830078124,8.492127418518066,5.647061347961426,-0.2392822653055191
1775340935589639200,9.73063916015625,8.37727165222168,5.706881999969482,-0.5910272002220154
1775340935606427400,9.747427490234376,8.353343963623047,5.563312530517578,-0.37088751792907715
1775340935623215600,9.764215576171875,8.638090133666992,5.565705299377441,-0.22013968229293823
1775340935640003800,9.78100390625,8.994620323181152,5.613562107086182,-0.38285163044929504
1775340935656792000,9.7977919921875,8.86780071258545,5.92223596572876,-0.4546363055706024
1775340935673580300,9.814580322265625,8.951549530029297,6.116054534912109,-0.3900300860404968
1775340935690368800,9.83136865234375,8.915657043457031,6.041877269744873,-0.4666004180908203
1775340935707157000,9.848156982421875,9.121439933776855,5.946164131164551,-0.6005984544754028
1775340935723945200,9.8649453125,8.647661209106445,6.118447303771973,-0.4713860750198364
1775340935740733400,9.8817333984375,9.312865257263184,6.049055576324463,-0.5168496966362
1775340935757521700,9.898521728515625,9.080761909484863,6.209374904632568,-0.4307080805301666
1775340935774310000,9.915309814453124,9.162117958068848,6.1950178146362305,-0.37088751792907715
1775340935791098400,9.932098388671875,9.446864128112793,6.049055576324463,-0.5790630578994751
1775340935807886600,9.948886474609376,8.834300994873047,6.03948450088501,-0.5694918036460876
1775340935824674800,9.9656748046875,9.65503978729248,5.5034918785095215,-0.45942193269729614
1775340935841463000,9.982463134765625,8.547162055969238,6.3840508460998535,-0.24646073579788208
1775340935858251300,9.999251220703124,9.023334503173828,6.0370917320251465,-0.4139583110809326
1775340935875039500,10.01603955078125,8.941978454589844,5.793023586273193,-0.3852444589138031
1775340935891827700,10.03282763671875,8.776873588562012,5.91505765914917,-0.5551348328590393
1775340935908616000,10.049615966796875,9.176474571228027,5.982056617736816,-0.3445664644241333
1775340935925404400,10.066404296875,8.396414756774902,5.740381717681885,-0.2991028428077698
1775340935942192600,10.083192626953124,8.855836868286133,6.180660724639893,-0.4043870270252228
1775340935958980900,10.09998095703125,8.767302513122559,5.733202934265137,-0.1986042857170105
1775340935975769000,10.11676904296875,8.654839515686035,6.0538411140441895,-0.23688943684101105
1775340935992557300,10.133557373046875,9.068798065185547,5.699703693389893,-0.3326023519039154
1775340936009345500,10.150345458984376,8.563912391662598,6.0370917320251465,-0.30628129839897156
1775340936026133800,10.1671337890625,9.10229778289795,5.687739372253418,-0.33738797903060913
1775340936042922000,10.183921875,8.458627700805664,5.876772403717041,-0.3900300860404968
1775340936059710200,10.200710205078124,8.834300994873047,5.649454116821289,-0.6340979933738708
1775340936076498700,10.217498779296875,8.889336585998535,5.704489231109619,-0.3900300860404968
1775340936093287000,10.234286865234376,8.563912391662598,5.979663848876953,-0.5024927258491516
1775340936110075100,10.2510751953125,9.19561767578125,6.0466628074646,-0.5551348328590393
1775340936126863400,10.26786328125,8.63330364227295,5.78345251083374,-0.45942193269729614
1775340936143651600,10.284651611328124,9.008976936340332,5.994020938873291,-0.4211367964744568
1775340936160439800,10.301439697265625,8.796015739440918,6.008377552032471,-0.4019941985607147
1775340936177228000,10.31822802734375,8.659625053405762,5.819344520568848,-0.7322037220001221
1775340936194016500,10.3350166015625,8.934800148010254,5.737988471984863,-0.3732803463935852
1775340936210804700,10.3518046875,8.798408508300781,5.9198431968688965,-0.35892340540885925
1775340936227593000,10.368593017578124,8.915657043457031,5.816951751708984,-0.5096712112426758
1775340936244381200,10.385381103515625,9.138189315795898,5.764309883117676,-0.4713860750198364
1775340936261169400,10.40216943359375,8.638090133666992,6.017949104309082,-0.17706887423992157
1775340936277957600,10.41895751953125,8.922835350036621,5.7786664962768555,-0.4666004180908203
1775340936294745900,10.435745849609376,8.429914474487305,5.771488189697266,-0.0023928226437419653
1775340936311534000,10.4525341796875,8.731410026550293,5.635097503662109,-0.3445664644241333
1775340936328322600,10.469322509765625,8.508877754211426,5.508277893066406,-0.37088751792907715
1775340936345110800,10.48611083984375,7.8077802658081055,5.077569484710693,-0.4713860750198364
1775340936361899000,10.50289892578125,8.57348346710205,5.388636589050293,-0.5072783827781677
1775340936378687200,10.519687255859376,8.664410591125488,6.032305717468262,-0.6101697683334351
1775340936395475500,10.536475341796875,8.212167739868164,5.513063430786133,-0.2967100143432617
1775340936412263700,10.553263671875,8.066205024719238,5.201996326446533,-0.7704889178276062
1775340936429052000,10.570052001953124,7.81974458694458,5.178068161010742,-0.3158525824546814
1775340936445840100,10.586840087890625,7.905886173248291,5.242674350738525,-0.8470591902732849
1775340936462628400,10.60362841796875,7.712067604064941,5.158925533294678,-0.3086741268634796
1775340936479416800,10.620416748046875,7.728816986083984,5.024927616119385,-0.2799602448940277
1775340936496205000,10.637205078125,7.539783954620361,5.395814895629883,-0.1986042857170105
1775340936512993300,10.6539931640625,7.530212879180908,4.823930263519287,-0.2105683982372284
1775340936529781500,10.670781494140625,7.061219692230225,4.651647090911865,-0.2560320198535919
1775340936546569700,10.68756982421875,7.551748275756836,4.579862594604492,-0.3756731450557709
1775340936563358000,10.70435791015625,6.69990348815918,4.07258415222168,-0.2273181527853012
1775340936580146200,10.721146240234376,6.654439926147461,4.012763500213623,-0.2847459018230438
1775340936596934400,10.737934326171874,5.986842155456543,3.933800458908081,-0.40677985548973083
1775340936613722600,10.75472265625,6.072983741760254,3.7471601963043213,-0.3924229145050049
1775340936630510800,10.7715107421875,6.173482418060303,3.658625841140747,-0.1579262912273407
1775340936647299300,10.78829931640625,5.864808082580566,3.792623996734619,-0.5958128571510315
1775340936664087600,10.805087646484376,6.692724704742432,3.562912940979004,-0.4713860750198364
1775340936680875800,10.821875732421875,5.745167255401611,3.5772697925567627,-0.1818545162677765
1775340936697664000,10.8386640625,6.537191390991211,3.4337005615234375,-0.3924229145050049
1775340936714452200,10.8554521484375,5.955735683441162,3.830909013748169,-0.27038896083831787
1775340936731240400,10.872240478515625,6.147161483764648,3.6921253204345703,-0.349352091550827
1775340936748028700,10.889028564453126,6.199803352355957,3.737588882446289,-0.32303106784820557
1775340936764817000,10.90581689453125,6.125626087188721,3.814159393310547,-0.2679961323738098
1775340936781605000,10.922605224609375,6.496513366699219,3.6610186100006104,-0.43549370765686035
1775340936798393600,10.9393935546875,6.104090690612793,3.713660717010498,-0.18424734473228455
1775340936815181800,10.956181884765625,6.300302028656006,3.78544545173645,-0.5000999569892883
1775340936831970000,10.972969970703126,6.752545356750488,3.94815731048584,-0.3756731450557709
1775340936848758300,10.98975830078125,6.893722057342529,4.40757942199707,-0.363709032535553
1775340936865546500,11.00654638671875,7.195217609405518,4.488935470581055,-0.2632105052471161
1775340936882334700,11.023334716796874,7.089933395385742,4.53200626373291,-0.3445664644241333
1775340936899123000,11.040123046875,7.178467750549316,4.47697114944458,-0.3206382393836975
1775340936915911200,11.0569111328125,7.795815944671631,4.563112735748291,-0.27756741642951965
1775340936932699400,11.073699462890625,7.334001541137695,4.814359188079834,-0.5240281820297241
1775340936949487600,11.090487548828126,7.81974458694458,4.9531426429748535,-0.4091726839542389
1775340936966276000,11.107276123046875,7.735995769500732,4.780859470367432,-0.33738797903060913
1775340936983064300,11.124064208984375,7.2095746994018555,5.041677474975586,-0.39481574296951294
1775340936999852500,11.1408525390625,8.3629150390625,4.8813581466674805,-0.16271193325519562
1775340937016640800,11.157640869140625,7.482356548309326,5.010570526123047,-0.6628118753433228
1775340937033429000,11.174428955078126,7.841279983520508,4.974678039550781,-0.5814558863639832
1775340937050217200,11.19121728515625,8.073383331298828,4.73300313949585,-0.34217363595962524
1775340937067005400,11.20800537109375,7.812565803527832,5.276174068450928,-0.48574298620224
1775340937083793700,11.224793701171874,8.097311973571777,5.338387489318848,0.04307080805301666
1775340937100582000,11.241581787109375,8.169096946716309,5.3455657958984375,-0.5096712112426758
1775340937117370000,11.2583701171875,7.81974458694458,5.706881999969482,-0.02153540402650833
1775340937134158600,11.27515869140625,8.841479301452637,5.862415313720703,-0.4307080805301666
1775340937150946800,11.29194677734375,8.350951194763184,5.580062389373779,-0.6149554252624512
1775340937167735000,11.308735107421874,8.755337715148926,5.838487148284912,-0.7106683254241943
1775340937184523300,11.325523193359375,8.700303077697754,5.548955917358398,-0.20338992774486542
1775340937201311500,11.3423115234375,9.28893756866455,6.216553211212158,-0.1818545162677765
1775340937218099700,11.359099609375,8.858229637145996,6.017949104309082,-0.26560330390930176
1775340937234888000,11.375887939453126,9.028120040893555,5.938985824584961,-0.4259224236011505
1775340937251676200,11.39267626953125,8.755337715148926,5.687739372253418,-0.3397808074951172
1775340937268464400,11.40946435546875,8.516056060791016,5.72123908996582,-0.4546363055706024
1775340937285252600,11.426252685546874,8.499305725097656,5.781059741973877,-0.3517449200153351
1775340937302040800,11.443040771484375,8.585447311401367,5.888736724853516,-0.24167509377002716
1775340937318829000,11.4598291015625,8.69791030883789,5.364708423614502,-0.34217363595962524
1775340937335617500,11.476617431640625,7.980063438415527,5.637490272521973,-0.33738797903060913
1775340937352405800,11.49340576171875,8.666803359985352,5.656632900238037,-0.5910272002220154
1775340937369194000,11.510194091796874,9.111868858337402,5.225924491882324,-0.5718846321105957
1775340937385982200,11.526982177734375,7.810173034667969,5.656632900238037,-0.4307080805301666
1775340937402770400,11.5437705078125,9.004191398620605,5.630311489105225,-0.5120640397071838
1775340937419558700,11.56055859375,8.882157325744629,5.776273727416992,-0.33499518036842346
1775340937436347000,11.577346923828125,7.731209754943848,5.900700569152832,-0.30149564146995544
1775340937453135000,11.594135009765624,9.355937004089355,5.37906551361084,-0.349352091550827
1775340937469923300,11.61092333984375,8.58784008026123,6.216553211212158,-0.39960137009620667
1775340937486711600,11.627711669921876,9.061619758605957,5.532206058502197,-0.5479564070701599
1775340937503499800,11.644499755859375,8.504091262817383,5.544169902801514,-0.44027936458587646
1775340937520288000,11.6612880859375,8.568697929382324,5.606383323669434,-0.3852444589138031
1775340937537076200,11.678076171875,8.417949676513672,5.91505765914917,-0.380458801984787
1775340937553864700,11.69486474609375,8.973084449768066,5.879165172576904,-0.397208571434021
1775340937570653000,11.71165283203125,8.662017822265625,6.001199245452881,-0.363709032535553
1775340937587441200,11.728441162109375,8.73619556427002,5.654240131378174,-0.26560330390930176
1775340937604229400,11.7452294921875,8.49452018737793,5.749952793121338,-0.4307080805301666
1775340937621017600,11.762017578125,8.791230201721191,5.682953834533691,-0.4713860750198364
1775340937637805800,11.778805908203125,8.688339233398438,5.66620397567749,-0.2991028428077698
1775340937654594000,11.795593994140624,8.396414756774902,5.606383323669434,-0.3900300860404968
1775340937671382300,11.81238232421875,8.709874153137207,5.419743061065674,-0.41156548261642456
1775340937688170500,11.82917041015625,8.334200859069824,5.876772403717041,-0.45224347710609436
1775340937704958700,11.845958740234375,8.925228118896484,5.733202934265137,-0.5168496966362
1775340937721747000,11.862746826171875,8.539983749389648,5.568098068237305,-0.4307080805301666
1775340937738535200,11.87953515625,8.427521705627441,5.699703693389893,-0.42352959513664246
1775340937755323600,11.89632373046875,8.504091262817383,5.525027275085449,-0.1986042857170105
1775340937772112000,11.91311181640625,8.542376518249512,5.4556355476379395,-0.4713860750198364
1775340937788900000,11.929900146484375,8.420342445373535,5.522634506225586,-0.41874396800994873
1775340937805688300,11.946688232421875,8.111668586730957,5.252245903015137,-0.20099709928035736
1775340937822476500,11.9634765625,8.58784008026123,5.536991596221924,-0.4378865361213684
1775340937839264800,11.9802646484375,8.26241683959961,5.436492919921875,-0.48095735907554626
1775340937856053000,11.997052978515624,8.360522270202637,5.383851051330566,-0.4977070987224579
1775340937872841200,12.01384130859375,8.49452018737793,5.501099109649658,-0.48095735907554626
1775340937889629400,12.03062939453125,8.197810173034668,5.60399055480957,-0.44027936458587646
1775340937906417700,12.047417724609375,8.597412109375,5.54177713394165,-0.48574298620224
1775340937923206000,12.064205810546875,8.15234661102295,5.587240695953369,-0.40677985548973083
1775340937939994000,12.080994140625,8.384450912475586,5.4795637130737305,-0.6197410821914673
1775340937956782300,12.0977822265625,8.365307807922363,5.560919761657715,-0.24885354936122894
1775340937973570600,12.114570556640626,8.243273735046387,5.443671703338623,-0.21774685382843018
1775340937990358800,12.13135888671875,8.506484031677246,5.460421085357666,-0.41156548261642456
1775340938007147300,12.148147216796875,8.499305725097656,5.7619171142578125,-0.39481574296951294
1775340938023935500,12.164935546875,8.437092781066895,5.290530681610107,-0.31824541091918945
1775340938040723700,12.1817236328125,8.264809608459473,5.66620397567749,-0.22492532432079315
1775340938057512000,12.198511962890626,8.731410026550293,5.685346603393555,-0.46420758962631226
1775340938074300200,12.215300048828125,8.539983749389648,5.594419479370117,-0.5838487148284912
1775340938091088400,12.23208837890625,8.441878318786621,5.54177713394165,-0.4953143000602722
1775340938107876600,12.248876708984374,8.638090133666992,5.635097503662109,-0.4498506486415863
1775340938124664800,12.265664794921875,8.681160926818848,5.7786664962768555,-0.2871387302875519
1775340938141453000,12.282453125,8.748159408569336,5.886343479156494,-0.46899324655532837
1775340938158241300,12.2992412109375,8.786444664001465,5.92223596572876,-0.5096712112426758
1775340938175029500,12.316029541015626,8.941978454589844,5.816951751708984,-0.4737788736820221
1775340938191817700,12.332817626953124,8.764909744262695,5.955735683441162,-0.4211367964744568
1775340938208606000,12.34960595703125,9.226723670959473,5.876772403717041,-0.44027936458587646
1775340938225394400,12.36639453125,8.745766639709473,5.938985824584961,-0.2871387302875519
1775340938242182700,12.3831826171875,8.81515884399414,5.924628734588623,-0.42831525206565857
1775340938258971000,12.399970947265626,8.896514892578125,5.848058700561523,-0.4426721930503845
1775340938275759000,12.416759033203125,8.647661209106445,5.98444938659668,-0.4259224236011505
1775340938292547300,12.43354736328125,9.104690551757812,5.752345561981201,-0.5216353535652161
1775340938309335600,12.45033544921875,8.865407943725586,5.850451469421387,-0.4043870270252228
1775340938326123800,12.467123779296875,8.956335067749023,5.97727108001709,-0.5000999569892883
1775340938342912000,12.483912109375,8.906085968017578,5.9916276931762695,-0.40677985548973083
1775340938359700200,12.5007001953125,8.96112060546875,5.92223596572876,-0.3038884699344635
1775340938376488400,12.517488525390625,8.891729354858398,6.003592014312744,-0.3397808074951172
1775340938393276700,12.534276611328124,8.848658561706543,5.869594097137451,-0.13878370821475983
1775340938410065000,12.55106494140625,9.080761909484863,5.953342914581299,-0.4498506486415863
1775340938426853000,12.56785302734375,8.769695281982422,6.130411624908447,-0.37806597352027893
1775340938443641300,12.584641357421875,9.131011009216309,5.86002254486084,-0.4977070987224579
1775340938460429600,12.6014296875,8.803194046020508,6.096911907196045,-0.605384111404419
1775340938477217800,12.6182177734375,9.040083885192871,6.03948450088501,-0.550349235534668
1775340938494006000,12.635006103515625,8.772088050842285,5.974878311157227,-0.26081767678260803
1775340938510794200,12.651794189453126,9.111868858337402,6.092126369476318,-0.24885354936122894
1775340938527582500,12.66858251953125,8.858229637145996,5.9509501457214355,-0.4977070987224579
1775340938544371000,12.685370849609376,9.061619758605957,5.974878311157227,-0.29431718587875366
1775340938561159200,12.7021591796875,9.028120040893555,6.063412666320801,-0.17946170270442963
1775340938577947400,12.718947509765625,9.394221305847168,6.008377552032471,-0.27756741642951965
1775340938594735600,12.735735595703124,8.688339233398438,6.113661766052246,-0.2225325107574463
1775340938611523800,12.75252392578125,9.592825889587402,6.159125328063965,-0.38763725757598877
1775340938628312000,12.76931201171875,9.030512809753418,6.013163089752197,-0.36610186100006104
1775340938645100300,12.786100341796875,8.664410591125488,5.929414749145508,-0.4450650215148926
1775340938661888500,12.802888427734375,9.056833267211914,5.836094379425049,-0.2991028428077698
1775340938678676700,12.8196767578125,8.970691680908203,5.9509501457214355,-0.42831525206565857
1775340938695465000,12.83646484375,9.533005714416504,6.403193473815918,-0.5527420043945312
1775340938712253200,12.853253173828126,8.886942863464355,5.941378593444824,-0.32542386651039124
1775340938729041400,12.87004150390625,9.044869422912598,6.025127410888672,-0.5934200286865234
1775340938745829600,12.88682958984375,8.973084449768066,6.008377552032471,-0.33499518036842346
1775340938762617900,12.903617919921874,9.05444049835205,6.0849480628967285,-0.7800601720809937
1775340938779406000,12.920406005859375,8.903693199157715,6.0849480628967285,-0.16749759018421173
1775340938796194300,12.9371943359375,9.150154113769531,6.063412666320801,0.04307080805301666
1775340938812982500,12.953982421875,8.941978454589844,6.044270038604736,-0.6675975322723389
1775340938829770800,12.970770751953125,8.82233715057373,5.5345988273620605,-0.10049854964017868
1775340938846559000,12.98755908203125,8.913264274597168,5.431707382202148,-0.37806597352027893
1775340938863347500,13.004347412109375,8.724231719970703,5.460421085357666,-0.8279166221618652
1775340938880135700,13.0211357421875,9.073583602905273,5.529813289642334,-0.19621145725250244
1775340938896924000,13.037923828125,8.654839515686035,5.656632900238037,-0.3038884699344635
1775340938913712000,13.054712158203126,8.207381248474121,5.711667537689209,-0.07657032459974289
1775340938930500400,13.071500244140625,8.50169849395752,5.517848968505859,-0.31824541091918945
1775340938947288600,13.08828857421875,8.446663856506348,5.460421085357666,-0.5288137793540955
1775340938964076800,13.105076904296874,8.248059272766113,5.096712112426758,-0.24406790733337402
1775340938980865000,13.121864990234375,7.613961696624756,5.099104881286621,-0.3852444589138031
1775340938997653200,13.1386533203125,7.616354465484619,4.764110088348389,-0.038285162299871445
1775340939014441500,13.15544140625,7.5565338134765625,4.960321426391602,-0.698704183101654
1775340939031229700,13.172229736328125,7.472784996032715,4.658825874328613,-0.8877372145652771
1775340939048018000,13.189017822265624,7.587640762329102,4.95074987411499,-0.5383850932121277
1775340939064806100,13.20580615234375,7.178467750549316,4.106083869934082,-0.08853443711996078
1775340939081594400,13.222594482421876,6.920042991638184,3.6921253204345703,-0.14835500717163086
1775340939098382600,13.239382568359375,7.188039302825928,4.261617183685303,-0.43549370765686035
1775340939115170800,13.2561708984375,6.888936519622803,3.9146578311920166,-0.18424734473228455
1775340939131959000,13.272958984375,6.7692952156066895,4.027120590209961,-0.23449662327766418
1775340939148747300,13.289747314453125,5.979663848876953,3.9074792861938477,0.0023928226437419653
1775340939165535500,13.306535400390626,6.31944465637207,4.204189300537109,-0.4259224236011505
1775340939182323700,13.32332373046875,6.64486837387085,3.713660717010498,-0.46420758962631226
1775340939199112000,13.34011181640625,5.917450428009033,3.345165967941284,-0.1866401731967926
1775340939215900200,13.356900146484374,6.690331935882568,3.5054850578308105,-0.3732803463935852
1775340939232688400,13.3736884765625,6.276373863220215,3.7232320308685303,-0.48574298620224
1775340939249476600,13.3904765625,5.7547383308410645,3.3619158267974854,-0.26560330390930176
1775340939266264800,13.407264892578125,5.9916276931762695,3.445664644241333,-0.1986042857170105
1775340939283053000,13.424052978515626,6.565905570983887,3.5222349166870117,-0.4378865361213684
1775340939299841300,13.44084130859375,5.5106706619262695,3.9290146827697754,-0.22013968229293823
1775340939316629500,13.45762939453125,7.1473612785339355,3.4648072719573975,-0.3397808074951172
1775340939333417700,13.474417724609374,6.288337707519531,4.063013076782227,-0.29431718587875366
1775340939350206000,13.4912060546875,6.333801746368408,4.015156269073486,-0.2847459018230438
1775340939366994400,13.507994384765626,7.018148899078369,3.8117663860321045,-0.34695929288864136
1775340939383782700,13.52478271484375,6.884150981903076,4.022335052490234,-0.2967100143432617
1775340939400571000,13.54157080078125,6.539584159851074,4.230510234832764,-0.3900300860404968
1775340939417359000,13.558359130859374,7.286144733428955,4.199403762817383,-0.36610186100006104
1775340939434147300,13.575147216796875,6.702296257019043,4.599005222320557,-0.5024927258491516
1775340939450935600,13.591935546875,7.355536937713623,4.474578380584717,-0.42352959513664246
1775340939467723800,13.608723876953125,7.077969551086426,4.634897232055664,-0.13878370821475983
1775340939484512000,13.625511962890625,7.365108013153076,4.347758769989014,-0.2273181527853012
1775340939501300200,13.64230029296875,7.365108013153076,4.620540618896484,-0.2273181527853012
1775340939518088400,13.65908837890625,7.5326056480407715,4.902893543243408,-0.5958128571510315
1775340939534876700,13.675876708984376,7.922635555267334,4.563112735748291,-0.4307080805301666
1775340939551665000,13.692664794921875,6.733402729034424,4.924428939819336,-0.4905286431312561
1775340939568453000,13.709453125,8.35573673248291,5.099104881286621,-0.5838487148284912
1775340939585241300,13.726241455078124,7.910671710968018,5.472385406494141,-0.09810572862625122
1775340939602029600,13.743029541015625,7.9728851318359375,5.383851051330566,-0.3852444589138031
1775340939618817800,13.75981787109375,8.449056625366211,5.091926574707031,-0.36610186100006104
1775340939635606000,13.77660595703125,7.908278942108154,5.015356063842773,-0.3852444589138031
1775340939652394200,13.793394287109376,8.532805442810059,5.304887771606445,-0.4498506486415863
1775340939669182500,13.810182373046874,8.236095428466797,5.601597785949707,-0.15074782073497772
1775340939685970700,13.826970703125,8.757730484008789,5.515456199645996,-0.638883650302887
1775340939702759000,13.843759033203124,8.298309326171875,5.747560024261475,-0.41156548261642456
1775340939719547100,13.860547119140625,8.334200859069824,5.7164530754089355,-0.397208571434021
1775340939736335400,13.87733544921875,8.427521705627441,5.649454116821289,-0.638883650302887
1775340939753123600,13.89412353515625,8.788837432861328,5.733202934265137,-0.2991028428077698
1775340939769911800,13.910911865234375,8.62612533569336,5.979663848876953,-0.15553347766399384
1775340939786700000,13.927699951171874,8.315058708190918,5.606383323669434,-0.6317051649093628
1775340939803488300,13.94448828125,8.439485549926758,5.496313571929932,-0.16749759018421173
1775340939820276500,13.9612763671875,9.083154678344727,5.288137912750244,-0.26560330390930176
1775340939837064700,13.978064697265625,8.147561073303223,5.608776092529297,-0.21774685382843018
1775340939853853000,13.99485302734375,8.623732566833496,5.359922885894775,-0.39960137009620667
1775340939870641200,14.01164111328125,8.889336585998535,5.795416355133057,-0.4426721930503845
1775340939887429400,14.028429443359375,8.240880966186523,6.049055576324463,-0.35413774847984314
1775340939904217600,14.045217529296876,8.61176872253418,5.551348686218262,-0.25363919138908386
1775340939921005800,14.062005859375,8.97787094116211,6.003592014312744,-0.5958128571510315
1775340939937794000,14.0787939453125,8.405985832214355,5.730810165405273,-0.3445664644241333
1775340939954582300,14.095582275390624,8.927620887756348,5.637490272521973,-0.31824541091918945
1775340939971370500,14.11237060546875,8.535198211669922,5.72123908996582,-0.2967100143432617
1775340939988158700,14.12915869140625,8.95394229888916,5.931807518005371,-0.6221339106559753
1775340940004947000,14.145947021484375,8.877371788024902,5.711667537689209,-0.4019941985607147
1775340940021735200,14.162735107421875,8.516056060791016,5.85284423828125,-0.4259224236011505
1775340940038523400,14.1795234375,8.810373306274414,5.682953834533691,-0.45224347710609436
1775340940055311600,14.1963115234375,8.839086532592773,5.821737289428711,-0.5479564070701599
1775340940072099800,14.213099853515626,8.81515884399414,5.816951751708984,-0.24885354936122894
1775340940088888000,14.22988818359375,8.733802795410156,5.489135265350342,-0.16271193325519562
1775340940105676300,14.24667626953125,8.645268440246582,5.962913990020752,-0.5455635786056519
1775340940122464500,14.263464599609375,8.288737297058105,5.264209747314453,-0.3852444589138031
1775340940139252700,14.280252685546875,8.24566650390625,5.536991596221924,-0.36610186100006104
1775340940156041000,14.297041015625,8.702695846557617,5.709274768829346,-0.3732803463935852
1775340940172829200,14.3138291015625,8.693124771118164,5.776273727416992,-0.5168496966362
1775340940189617400,14.330617431640626,8.477770805358887,5.630311489105225,-0.4139583110809326
1775340940206405600,14.347405517578125,8.530412673950195,5.481956481933594,-0.275174617767334
1775340940223193900,14.36419384765625,8.50169849395752,5.7164530754089355,-0.5383850932121277
1775340940239982000,14.380982177734374,8.769695281982422,5.599205017089844,-0.31106695532798767
1775340940256770300,14.397770263671875,8.453842163085938,5.553741455078125,-0.4331009089946747
1775340940273558500,14.41455859375,8.3629150390625,5.458028316497803,-0.3397808074951172
1775340940290346800,14.4313466796875,8.449056625366211,5.618347644805908,-0.34217363595962524
1775340940307135000,14.448135009765625,8.609375953674316,5.726024627685547,-0.4618147611618042
1775340940323923200,14.464923095703124,8.547162055969238,5.508277893066406,-0.35892340540885925
1775340940340711400,14.48171142578125,8.338987350463867,5.568098068237305,-0.4450650215148926
1775340940357499600,14.498499755859376,8.547162055969238,5.469992637634277,-0.5335994362831116
1775340940374288000,14.515287841796875,8.506484031677246,5.757131099700928,-0.3565305769443512
1775340940391076000,14.532076171875,8.585447311401367,5.498706340789795,-0.4977070987224579
1775340940407864300,14.5488642578125,8.408378601074219,5.680561065673828,-0.5670989751815796
1775340940424652500,14.565652587890625,8.726624488830566,5.670989513397217,-0.4163511395454407
1775340940441440800,14.582440673828126,8.657232284545898,5.690132141113281,-0.48095735907554626
1775340940458229000,14.59922900390625,8.470592498779297,5.72123908996582,-0.349352091550827
1775340940475017200,14.616017333984376,8.530412673950195,5.474778175354004,-0.4426721930503845
1775340940491805400,14.632805419921874,8.338987350463867,5.623133182525635,-0.38285163044929504
1775340940508593700,14.64959375,8.585447311401367,5.60399055480957,-0.5024927258491516
1775340940525382000,14.6663818359375,8.3629150390625,5.5345988273620605,-0.32542386651039124
1775340940542170000,14.683170166015625,8.46341323852539,5.560919761657715,-0.3852444589138031
1775340940558958300,14.699958251953126,8.547162055969238,5.709274768829346,-0.4378865361213684
1775340940575746600,14.71674658203125,8.635697364807129,5.587240695953369,-0.3158525824546814
1775340940592534800,14.73353466796875,8.575876235961914,5.54177713394165,-0.4091726839542389
1775340940609323000,14.750322998046874,8.592626571655273,5.642275810241699,-0.6269195079803467
1775340940626111200,14.767111328125,8.578269004821777,5.831308841705322,-0.3206382393836975
1775340940642899500,14.7838994140625,8.599804878234863,5.723631858825684,-0.349352091550827
1775340940659687700,14.800687744140625,8.74337387084961,5.733202934265137,-0.43549370765686035
1775340940676476000,14.817475830078125,8.688339233398438,5.874379634857178,-0.4091726839542389
1775340940693264100,14.83426416015625,8.827122688293457,5.831308841705322,-0.4331009089946747
1775340940710052400,14.85105224609375,8.910871505737305,5.855237007141113,-0.48574298620224
1775340940726840600,14.867840576171876,8.781659126281738,5.9198431968688965,-0.380458801984787
1775340940743628800,14.88462890625,8.930013656616211,5.92223596572876,-0.4666004180908203
1775340940760417000,14.9014169921875,8.913264274597168,5.97727108001709,-0.42831525206565857
1775340940777205200,14.918205322265624,9.119047164916992,5.982056617736816,-0.4331009089946747
1775340940793993500,14.934993408203125,8.949156761169434,6.044270038604736,-0.34695929288864136
1775340940810781700,14.95178173828125,9.212367057800293,6.089733600616455,-0.48574298620224
1775340940827570000,14.96856982421875,8.922835350036621,6.03948450088501,-0.5024927258491516
1775340940844358100,14.985358154296875,8.901300430297852,5.757131099700928,-0.641276478767395
1775340940861146400,15.002146484375,8.910871505737305,6.0777692794799805,-0.5838487148284912
1775340940877934600,15.0189345703125,8.784051895141602,6.013163089752197,-0.1986042857170105
1775340940894722800,15.035722900390626,8.975478172302246,5.84566593170166,-0.3206382393836975
1775340940911511000,15.052510986328125,8.614161491394043,6.056233882904053,-0.1746760457754135
1775340940928299300,15.06929931640625,9.186046600341797,5.793023586273193,-0.32303106784820557
1775340940945087500,15.08608740234375,9.047262191772461,5.857629776000977,-0.397208571434021
1775340940961875700,15.102875732421875,8.693124771118164,5.936593055725098,-0.22013968229293823
1775340940978664000,15.119663818359374,8.96829891204834,6.072983741760254,-0.5551348328590393
1775340940995452200,15.1364521484375,8.61894702911377,5.962913990020752,-0.27038896083831787
1775340941012240400,15.153240478515626,9.042476654052734,5.97727108001709,-0.28235307335853577
1775340941029028600,15.170028564453125,8.965906143188477,6.173482418060303,-0.45224347710609436
1775340941045816800,15.18681689453125,9.4660062789917,5.742774486541748,-0.32303106784820557
1775340941062605000,15.20360498046875,8.85344409942627,6.151947021484375,-0.4546363055706024
1775340941079393300,15.220393310546875,9.09990406036377,5.941378593444824,-0.46420758962631226
1775340941096181500,15.237181396484376,9.312865257263184,6.001199245452881,-0.5838487148284912
1775340941112969700,15.2539697265625,8.891729354858398,6.393621921539307,-0.23210379481315613
1775340941129758000,15.270758056640625,9.22433090209961,6.175875186920166,-0.4785645306110382
1775340941146546200,15.287546142578124,9.238688468933105,6.149554252624512,-0.42831525206565857
1775340941163334400,15.30433447265625,8.382058143615723,5.867201328277588,-0.2392822653055191
1775340941180122600,15.32112255859375,9.21715259552002,5.9437713623046875,-0.4785645306110382
1775340941196910800,15.337910888671875,9.315258979797363,6.3601226806640625,-0.2560320198535919
1775340941213699000,15.354698974609375,9.418149948120117,6.075376510620117,-0.34217363595962524
1775340941230487300,15.3714873046875,8.367700576782227,5.85284423828125,-0.6915257573127747
1775340941247275500,15.388275634765625,8.81515884399414,5.7786664962768555,-0.4307080805301666
1775340941264063700,15.405063720703126,8.391629219055176,6.089733600616455,-0.5862415432929993
1775340941280852000,15.42185205078125,8.683553695678711,5.7619171142578125,-0.4618147611618042
1775340941297640200,15.43864013671875,8.69791030883789,5.807380676269531,-0.38763725757598877
1775340941314428400,15.455428466796874,8.999405860900879,5.974878311157227,-0.3732803463935852
1775340941331216600,15.472216552734375,8.884550094604492,5.711667537689209,-0.5958128571510315
1775340941348004900,15.4890048828125,8.513663291931152,5.498706340789795,-0.11485548317432404
1775340941364792800,15.505792724609375,8.595019340515137,5.491528034210205,-0.23210379481315613
1775340941381581000,15.5225810546875,7.980063438415527,5.053641319274902,-0.48574298620224
1775340941398369500,15.53936962890625,8.171489715576172,5.166104316711426,-0.1986042857170105
1775340941415157500,15.556157470703125,8.09970474243164,5.544169902801514,-0.40677985548973083
1775340941431945700,15.57294580078125,8.334200859069824,5.453242778778076,-0.34695929288864136
1775340941448734000,15.58973388671875,8.372486114501953,5.328815937042236,-0.3445664644241333
1775340941465522200,15.606522216796876,7.791030406951904,5.271388053894043,-0.32303106784820557
1775340941482310400,15.623310302734374,8.059026718139648,4.807180881500244,-0.3158525824546814
1775340941499098600,15.6400986328125,8.496912956237793,5.680561065673828,-0.5742774605751038
1775340941515886800,15.656886962890624,8.207381248474121,5.517848968505859,-0.18424734473228455
1775340941532675000,15.673675048828125,8.520841598510742,5.319244861602783,-0.7130611538887024
1775340941549463300,15.69046337890625,7.874779224395752,4.907679080963135,-0.8662018179893494
1775340941566251500,15.70725146484375,7.9657063484191895,5.065605640411377,-0.2799602448940277
1775340941583039700,15.724039794921875,7.992027759552002,5.091926574707031,-0.16031911969184875
1775340941599828000,15.740827880859374,8.159524917602539,5.036891460418701,-0.42352959513664246
1775340941616616200,15.7576162109375,7.331608772277832,5.271388053894043,-0.38763725757598877
1775340941633404400,15.774404296875,7.628318786621094,4.462614059448242,-0.21296121180057526
1775340941650192600,15.791192626953125,6.235695838928223,4.46979284286499,-0.15314064919948578
1775340941666980900,15.80798095703125,6.005984783172607,4.388436794281006,0.07178468257188797
1775340941683769000,15.82476904296875,6.826723098754883,4.0319061279296875,-0.2225325107574463
1775340941700557300,15.841557373046875,7.747959613800049,3.2231321334838867,-0.5024927258491516
1775340941717345500,15.858345458984376,5.998806476593018,3.6538400650024414,-0.380458801984787
1775340941734133800,15.8751337890625,6.113661766052246,3.6131622791290283,-0.1698904037475586
1775340941750922000,15.891921875,6.745367050170898,3.3475589752197266,-0.4259224236011505
1775340941767710200,15.908710205078124,5.960521221160889,4.091726779937744,-0.4331009089946747
1775340941784498400,15.92549853515625,6.857829570770264,3.78544545173645,-0.2871387302875519
1775340941801286700,15.94228662109375,6.7692952156066895,4.039084434509277,-0.46899324655532837
1775340941818075000,15.959074951171875,6.970292568206787,3.9290146827697754,-0.28953152894973755
1775340941834863000,15.975863037109375,6.199803352355957,4.316651821136475,-0.2871387302875519
1775340941851651000,15.992651123046874,7.16650390625,4.034298896789551,-0.42831525206565857
1775340941868439300,16.009439208984375,6.3529438972473145,4.292723655700684,-0.23210379481315613
1775340941885227500,16.0262275390625,7.657032489776611,3.9864425659179688,-0.36610186100006104
1775340941902015700,16.043015625,6.805187702178955,4.503292083740234,-0.3756731450557709
1775340941918804000,16.059803955078124,7.0683979988098145,4.522434711456299,-0.25363919138908386
1775340941935592200,16.07659228515625,7.326822757720947,4.486542224884033,-0.4546363055706024
1775340941952380400,16.09338037109375,7.190432071685791,4.800002098083496,-0.4259224236011505
1775340941969168600,16.110168701171876,7.36032247543335,4.821537494659424,-0.24406790733337402
1775340941985956900,16.126956787109375,7.795815944671631,4.692325115203857,-0.4833501875400543
1775340942002745000,16.1437451171875,7.1856465339660645,4.931607246398926,-0.397208571434021
1775340942019533300,16.160533203125,7.908278942108154,4.47697114944458,-0.4953143000602722
1775340942036321500,16.177321533203123,7.324429988861084,4.572684288024902,-0.3278166949748993
1775340942053109800,16.19410986328125,6.908079147338867,4.666004180908203,-0.38763725757598877
1775340942069898000,16.21089794921875,7.582854747772217,4.319045066833496,-0.19142581522464752
1775340942086686200,16.227686279296876,7.245467185974121,4.4721856117248535,-0.3158525824546814
1775340942103474400,16.244474365234375,6.774080753326416,4.177868366241455,-0.3397808074951172
1775340942120262700,16.2612626953125,7.5637125968933105,4.3788652420043945,-0.20817556977272034
1775340942137051000,16.27805078125,7.4847493171691895,4.000799655914307,-0.6699903607368469
1775340942153839000,16.294839111328123,6.082555294036865,4.168296813964844,-0.7226324677467346
1775340942170627300,16.31162744140625,8.166703224182129,3.9194436073303223,-0.35413774847984314
1775340942187415600,16.32841552734375,6.867401123046875,5.015356063842773,-0.31824541091918945
1775340942204203800,16.345203857421875,8.154739379882812,4.534399032592773,-0.2919243574142456
1775340942220991700,16.36199169921875,7.247859954833984,4.713860511779785,-0.26081767678260803
1775340942237780000,16.378780029296873,8.336593627929688,5.01296329498291,-0.7393822073936462
1775340942254568200,16.395568115234376,8.161917686462402,5.010570526123047,-0.7010970115661621
1775340942271356400,16.4123564453125,7.609176158905029,5.2283172607421875,-0.17706887423992157
1775340942288144600,16.42914453125,7.659425258636475,5.560919761657715,-0.45942193269729614
1775340942304932900,16.445932861328124,8.839086532592773,5.26899528503418,-0.5048855543136597
1775340942321721000,16.46272119140625,7.960920810699463,5.525027275085449,-0.5934200286865234
1775340942338509300,16.47950927734375,8.640482902526855,5.44845724105835,-0.4019941985607147
1775340942355297500,16.496297607421877,7.908278942108154,6.022734642028809,-0.3038884699344635
1775340942372085800,16.513085693359375,9.226723670959473,5.424529075622559,-0.6771687865257263
1775340942388874000,16.5298740234375,8.207381248474121,5.8097734451293945,-0.08853443711996078
1775340942405662200,16.546662109375,8.788837432861328,5.72841739654541,-0.10289137065410614
1775340942422450400,16.563450439453124,8.894122123718262,5.781059741973877,-0.41156548261642456
1775340942439238700,16.58023876953125,8.740981101989746,5.687739372253418,-0.39481574296951294
1775340942456027000,16.59702685546875,8.882157325744629,5.685346603393555,-0.5670989751815796
1775340942472815000,16.613815185546876,8.80798053741455,5.6925249099731445,-0.6795616149902344
1775340942489603300,16.630603271484375,8.226524353027344,5.86002254486084,-0.6484549641609192
1775340942506391600,16.6473916015625,8.824729919433594,5.630311489105225,-0.5120640397071838
1775340942523179800,16.6641796875,8.738588333129883,5.450850009918213,-0.6197410821914673
1775340942539968000,16.680968017578124,8.590232849121094,5.623133182525635,-0.2847459018230438
1775340942556756200,16.697756103515626,8.209774017333984,5.558526992797852,-0.3684946894645691
1775340942573544200,16.714544189453125,8.695517539978027,5.694917678833008,-0.5383850932121277
1775340942590332400,16.73133251953125,8.714659690856934,5.678168296813965,-0.4091726839542389
1775340942607120600,16.74812060546875,8.484949111938477,5.718846321105957,-0.5670989751815796
1775340942623908900,16.764908935546874,8.571090698242188,5.608776092529297,-0.5455635786056519
1775340942640697000,16.781697021484376,8.772088050842285,5.489135265350342,-0.48813581466674805
1775340942657485300,16.7984853515625,8.193024635314941,5.663811206817627,-0.3326023519039154
1775340942674273500,16.8152734375,8.927620887756348,5.434100151062012,-0.3852444589138031
1775340942691061800,16.832061767578125,8.310273170471191,5.72841739654541,-0.39960137009620667
1775340942707850000,16.84885009765625,8.228917121887207,5.618347644805908,-0.23210379481315613
1775340942724638200,16.86563818359375,8.956335067749023,5.489135265350342,-0.7130611538887024
1775340942741426400,16.882426513671874,8.118846893310547,5.862415313720703,-0.2632105052471161
1775340942758214700,16.899214599609376,9.198010444641113,5.613562107086182,-0.7800601720809937
1775340942775003000,16.9160029296875,8.09252643585205,5.857629776000977,-0.37806597352027893
1775340942791791000,16.932791015625,8.841479301452637,5.580062389373779,-0.28953152894973755
1775340942808579300,16.949579345703125,8.346165657043457,5.814558982849121,-0.20338992774486542
1775340942825367600,16.966367431640624,8.37727165222168,5.850451469421387,-0.24885354936122894
1775340942842155800,16.98315576171875,9.011369705200195,5.589633464813232,-0.6293123364448547
1775340942858944000,16.999944091796873,8.310273170471191,5.824130535125732,-0.3756731450557709
1775340942875732200,17.016732177734376,8.93958568572998,5.558526992797852,-0.6915257573127747
1775340942892520400,17.0335205078125,8.408378601074219,5.831308841705322,-0.363709032535553
1775340942909308700,17.05030859375,8.609375953674316,5.522634506225586,-0.3684946894645691
1775340942926097000,17.067096923828124,8.257631301879883,5.575276851654053,-0.48095735907554626
1775340942942885000,17.083885009765623,8.781659126281738,5.647061347961426,-0.4977070987224579
1775340942959673000,17.100673095703126,8.365307807922363,5.816951751708984,-0.2871387302875519
1775340942976461600,17.117461669921877,8.913264274597168,5.410171985626221,-0.1818545162677765
1775340942993249500,17.13424951171875,8.214560508728027,5.582455158233643,-0.4977070987224579
1775340943010037800,17.151037841796875,8.286344528198242,5.5106706619262695,-0.46420758962631226
1775340943026826000,17.167825927734373,8.812766075134277,5.450850009918213,-0.4450650215148926
1775340943043614200,17.1846142578125,8.02074146270752,5.584847927093506,-0.5048855543136597
1775340943060402400,17.20140234375,8.477770805358887,5.290530681610107,-0.2871387302875519
1775340943077190700,17.218190673828126,8.346165657043457,5.623133182525635,-0.31345975399017334
1775340943093979000,17.234978759765625,8.49452018737793,5.690132141113281,-0.2919243574142456
1775340943110767000,17.25176708984375,8.769695281982422,5.532206058502197,-0.2991028428077698
1775340943127555300,17.268555419921874,8.271987915039062,5.907878875732422,-0.3900300860404968
1775340943144343600,17.285343505859377,9.150154113769531,5.714060306549072,-0.4426721930503845
1775340943161131800,17.3021318359375,8.346165657043457,5.888736724853516,-0.4307080805301666
1775340943177920000,17.318919921875,8.8438720703125,5.599205017089844,-0.34217363595962524
1775340943194708200,17.335708251953125,8.571090698242188,5.651846885681152,-0.349352091550827
1775340943211496400,17.352496337890624,8.597412109375,5.807380676269531,-0.4019941985607147
1775340943228284700,17.36928466796875,8.599804878234863,5.699703693389893,-0.48095735907554626
1775340943245073000,17.386072998046874,8.484949111938477,5.697310924530029,-0.550349235534668
1775340943261861000,17.402861083984376,8.831908226013184,5.7858452796936035,-0.4211367964744568
1775340943278649300,17.4196494140625,8.85344409942627,5.769095420837402,-0.5814558863639832
1775340943295437300,17.436437255859374,8.650053977966309,5.891129493713379,-0.380458801984787
1775340943312225500,17.4532255859375,9.154939651489258,5.635097503662109,-0.4785645306110382
1775340943329014000,17.470013916015624,8.417949676513672,5.9916276931762695,-0.3684946894645691
1775340943345802000,17.486802001953127,9.360722541809082,5.740381717681885,-0.31106695532798767
1775340943362590200,17.503590087890625,8.592626571655273,6.0538411140441895,-0.397208571434021
1775340943379378400,17.52037841796875,9.040083885192871,5.879165172576904,-0.397208571434021
1775340943396166700,17.537166748046875,9.09272575378418,6.008377552032471,-0.47617170214653015
1775340943412955000,17.553954833984374,8.877371788024902,6.283552169799805,-0.4211367964744568
1775340943429743000,17.5707431640625,9.363115310668945,6.235695838928223,-0.3924229145050049
1775340943446531300,17.58753125,9.05444049835205,6.419943332672119,-0.5982056856155396
1775340943463319600,17.604319580078126,9.387042999267578,6.151947021484375,-0.605384111404419
1775340943480107800,17.621107666015625,9.391828536987305,6.273981094360352,-0.5000999569892883
1775340943496896000,17.63789599609375,9.219545364379883,6.206982135772705,-0.48813581466674805
1775340943513684200,17.654684326171875,9.389435768127441,5.927021503448486,-0.5216353535652161
1775340943530472400,17.671472412109374,8.72183895111084,5.91505765914917,-0.13878370821475983
1775340943547260700,17.6882607421875,9.291330337524414,6.1950178146362305,-0.3613162338733673
1775340943564049000,17.705048828125,9.339186668395996,6.168696880340576,-0.3158525824546814
1775340943580837000,17.721837158203126,9.061619758605957,5.92223596572876,-0.35413774847984314
1775340943597625300,17.738625244140625,9.087940216064453,6.178267955780029,-0.4211367964744568
1775340943614413300,17.755413330078124,9.008976936340332,5.938985824584961,-0.4953143000602722
1775340943631201500,17.772201416015626,8.93240737915039,6.015556335449219,-0.5168496966362
1775340943647989800,17.78898974609375,8.671588897705078,6.096911907196045,-0.2991028428077698
1775340943664778000,17.805778076171876,8.855836868286133,5.965306758880615,-0.24167509377002716
1775340943681566200,17.822566162109375,8.415556907653809,6.070590972900391,-0.46899324655532837
1775340943698354400,17.8393544921875,9.317651748657227,5.8337016105651855,-0.4666004180908203
1775340943715142700,17.856142578125,8.731410026550293,5.745167255401611,-0.5335994362831116
1775340943731931000,17.872930908203124,8.516056060791016,5.79063081741333,-0.3613162338733673
1775340943748719000,17.889718994140626,8.786444664001465,5.608776092529297,-0.49292147159576416
1775340943765507300,17.90650732421875,8.616554260253906,5.812166213989258,-0.5168496966362
1775340943782295600,17.923295654296876,8.58066177368164,5.864808082580566,-0.5814558863639832
1775340943799083800,17.940083740234375,8.805587768554688,5.481956481933594,-0.43549370765686035
1775340943815872000,17.9568720703125,8.200202941894531,5.419743061065674,-0.23210379481315613
1775340943832660200,17.97366015625,8.504091262817383,5.489135265350342,-0.7489534616470337
1775340943849448200,17.9904482421875,8.401200294494629,5.752345561981201,-0.43549370765686035
1775340943866236700,18.007236572265626,8.226524353027344,5.096712112426758,-0.33499518036842346
1775340943883024600,18.024024658203125,8.350951194763184,5.7547383308410645,-0.4019941985607147
1775340943899812900,18.040812744140624,8.640482902526855,5.560919761657715,0.01196411345154047
1775340943916601000,18.05760107421875,8.13081169128418,5.146961688995361,-0.5024927258491516
1775340943933389300,18.074389404296873,7.6666035652160645,5.355136871337891,-0.6317051649093628
1775340943950177500,18.091177490234376,8.745766639709473,5.161318302154541,-0.21774685382843018
1775340943966965800,18.1079658203125,7.932207107543945,5.280959606170654,-0.31106695532798767
1775340943983754000,18.12475390625,8.243273735046387,5.548955917358398,-0.2727817893028259
1775340944000542200,18.141542236328124,7.791030406951904,5.314459323883057,-0.28953152894973755
1775340944017330400,18.158330322265623,8.449056625366211,5.577669620513916,-0.38763725757598877
1775340944034118700,18.17511865234375,8.293522834777832,5.5728840827941895,-0.062213387340307236
1775340944050907000,18.191906982421877,8.274380683898926,5.553741455078125,-0.7417750358581543
1775340944067695000,18.208695068359376,8.58066177368164,5.3455657958984375,-0.2632105052471161
1775340944084483300,18.2254833984375,8.504091262817383,5.601597785949707,-0.6221339106559753
1775340944101271600,18.242271484375,8.288737297058105,5.575276851654053,0.17946170270442963
1775340944118059500,18.2590595703125,8.551948547363281,5.201996326446533,-0.5838487148284912
1775340944134847700,18.27584765625,8.425128936767578,5.477170944213867,-0.33738797903060913
1775340944151636000,18.292635986328126,7.989634990692139,5.307280540466309,-0.5288137793540955
1775340944168424200,18.309424072265625,8.425128936767578,5.7164530754089355,-0.6221339106559753
1775340944185212400,18.32621240234375,7.999206066131592,5.513063430786133,-0.08135596662759781
1775340944202000600,18.343000732421874,8.322237014770508,5.438885688781738,-0.6173482537269592
1775340944218788900,18.359788818359377,8.0350980758667,5.357530117034912,-0.09092725813388824
1775340944235577000,18.3765771484375,8.14516830444336,5.065605640411377,-0.8207381963729858
1775340944252365300,18.393365234375,8.097311973571777,4.955535888671875,-0.576670229434967
1775340944269153500,18.410153564453125,8.10688304901123,5.197210788726807,-0.1579262912273407
1775340944285941800,18.426941650390624,8.293522834777832,4.972285270690918,-0.7393822073936462
1775340944302730000,18.44372998046875,7.520641803741455,4.718646049499512,-0.12203395366668701
1775340944319518200,18.460518310546874,6.8004021644592285,4.639683246612549,-0.2632105052471161
1775340944336306200,18.47730615234375,6.805187702178955,4.735395908355713,-0.17706887423992157
1775340944353094400,18.494094482421875,6.6592254638671875,4.500899314880371,-0.1746760457754135
1775340944369882600,18.510882568359374,6.592226505279541,4.208974838256836,-0.16510476171970367
1775340944386670800,18.5276708984375,7.121040344238281,3.9314076900482178,-0.4833501875400543
1775340944403459000,18.544458984375,6.1950178146362305,4.555934429168701,-0.2991028428077698
1775340944420247300,18.561247314453126,7.018148899078369,3.814159393310547,-0.2871387302875519
1775340944437035500,18.578035400390625,7.35314416885376,3.9361932277679443,-0.019142581149935722
1775340944453823700,18.59482373046875,7.001399040222168,4.156332969665527,-0.5288137793540955
1775340944470612000,18.611612060546875,6.125626087188721,4.66361141204834,-0.5670989751815796
1775340944487400200,18.628400146484374,7.470392227172852,4.213760852813721,-0.4091726839542389
1775340944504188400,18.6451884765625,6.510870456695557,4.438685894012451,-0.5383850932121277
1775340944520976600,18.6619765625,7.29093074798584,4.170690059661865,-0.014356935396790504
1775340944537764600,18.6787646484375,6.996613502502441,4.386044025421143,-0.13639089465141296
1775340944554552800,18.695552734375,5.804987907409668,4.969892501831055,-0.5048855543136597
1775340944571341000,18.712341064453124,7.848458290100098,3.972085475921631,-0.29431718587875366
1775340944588129300,18.72912939453125,7.202396392822266,4.474578380584717,-0.44745782017707825
1775340944604917500,18.74591748046875,7.597211837768555,4.685146808624268,-0.059820566326379776
1775340944621705700,18.762705810546876,7.587640762329102,4.924428939819336,-0.1986042857170105
1775340944638494000,18.779493896484375,7.8556365966796875,4.816751956939697,-0.7154539823532104
1775340944655282200,18.7962822265625,7.396214962005615,5.300102233886719,-0.7417750358581543
1775340944672070400,18.8130703125,8.528019905090332,5.3216376304626465,-0.5934200286865234
1775340944688858600,18.829858642578124,8.185846328735352,5.680561065673828,-0.15553347766399384
1775340944705646800,18.846646728515626,8.70508861541748,5.7547383308410645,-0.275174617767334
1775340944722435000,18.86343505859375,8.898907661437988,5.520241737365723,-0.4713860750198364
1775340944739223300,18.880223388671876,8.439485549926758,5.663811206817627,-0.4833501875400543
1775340944756011500,18.897011474609375,8.566305160522461,5.737988471984863,-0.45224347710609436
1775340944772799500,18.913799560546874,9.17886734008789,5.60399055480957,-0.3565305769443512
1775340944789587700,18.930587646484376,8.458627700805664,5.776273727416992,-0.5048855543136597
1775340944806376000,18.9473759765625,8.434700012207031,5.575276851654053,-0.5048855543136597
1775340944823164200,18.9641640625,8.46341323852539,5.5034918785095215,-0.4905286431312561
1775340944839952400,18.980952392578125,8.525627136230469,5.501099109649658,-0.4618147611618042
1775340944856740600,18.99774072265625,8.482556343078613,5.424529075622559,-0.3326023519039154
1775340944873528800,19.01452880859375,8.250452041625977,5.391029357910156,-0.5359922647476196
1775340944890317000,19.031317138671874,8.22413158416748,5.300102233886719,-0.45224347710609436
1775340944907105300,19.048105224609376,8.147561073303223,5.216353416442871,-0.3278166949748993
1775340944923893200,19.064893310546875,7.635497093200684,5.26181697845459,-0.2512463629245758
1775340944940681700,19.081681640625,8.00638484954834,4.962714195251465,-0.22013968229293823
1775340944957469700,19.0984697265625,7.70967435836792,5.044070243835449,-0.5383850932121277
1775340944974258000,19.1152578125,7.714460372924805,4.914857864379883,-0.38285163044929504
1775340944991046100,19.132046142578126,7.776673793792725,4.859822750091553,-0.4331009089946747
1775340945007834000,19.148834228515625,7.6498541831970215,4.833501815795898,-0.46420758962631226
1775340945024622600,19.16562255859375,7.623532772064209,4.701896667480469,-0.2632105052471161
1775340945041410800,19.182410888671875,7.41535758972168,4.783252239227295,-0.42831525206565857
1775340945058199000,19.199198974609374,7.621140003204346,4.7401814460754395,-0.3158525824546814
1775340945074987300,19.2159873046875,7.338787078857422,4.697110652923584,-0.14117653667926788
1775340945091775500,19.232775390625,7.29093074798584,4.59421968460083,-0.3684946894645691
1775340945108563700,19.249563720703126,7.319644451141357,4.548755645751953,-0.4043870270252228
1775340945125352000,19.26635205078125,7.293323516845703,4.692325115203857,-0.2967100143432617
1775340945142140000,19.283139892578124,7.089933395385742,4.244867324829102,-0.25363919138908386
1775340945158928100,19.29992822265625,6.98704195022583,4.388436794281006,-0.4833501875400543
1775340945175716400,19.31671630859375,7.195217609405518,4.486542224884033,-0.2560320198535919
1775340945192504600,19.333504638671876,7.231110095977783,4.223331928253174,-0.27038896083831787
1775340945209292800,19.350292724609375,7.231110095977783,4.47697114944458,-0.48813581466674805
1775340945226081000,19.3670810546875,7.408178806304932,4.398007869720459,-0.28235307335853577
1775340945242869200,19.383869140625,7.022934436798096,4.800002098083496,-0.44027936458587646
1775340945259657500,19.400657470703123,7.676175117492676,4.716253280639648,-0.43549370765686035
1775340945276445700,19.41744580078125,7.992027759552002,4.862215518951416,-0.35413774847984314
1775340945293233700,19.434233642578125,7.987242221832275,4.898108005523682,-0.7130611538887024
1775340945310022100,19.451022216796876,7.865208148956299,5.0464630126953125,-0.2679961323738098
1775340945326810000,19.46781005859375,7.867600917816162,5.5034918785095215,-0.550349235534668
1775340945343598300,19.484598388671873,8.015955924987793,5.300102233886719,-0.18424734473228455
1775340945360386600,19.501386474609376,7.1856465339660645,5.230710506439209,-0.33499518036842346
1775340945377174800,19.5181748046875,8.468199729919434,4.917250633239746,-0.763310432434082
1775340945393963000,19.534962890625,8.147561073303223,5.048855781555176,-0.7034898400306702
1775340945410751200,19.551751220703125,8.147561073303223,5.1876397132873535,-0.5072783827781677
1775340945427539500,19.56853955078125,8.93958568572998,5.101497650146484,-0.49292147159576416
1775340945444327700,19.58532763671875,7.219145774841309,5.697310924530029,-0.349352091550827
1775340945461116000,19.602115966796877,8.800801277160645,5.201996326446533,-0.24885354936122894
1775340945477904100,19.618904052734376,7.441678524017334,5.424529075622559,-0.2991028428077698
1775340945494692000,19.635692138671875,8.599804878234863,5.2354960441589355,-0.8374879360198975
1775340945511480300,19.652480224609373,8.274380683898926,5.529813289642334,-0.5264210104942322
1775340945528268500,19.6692685546875,8.250452041625977,5.625525951385498,-0.6556333899497986
1775340945545056800,19.686056884765627,8.295916557312012,4.761716842651367,-0.07657032459974289
1775340945561845000,19.702844970703126,8.00638484954834,5.26181697845459,-0.10049854964017868
1775340945578633200,19.71963330078125,8.398807525634766,5.247459888458252,-0.638883650302887
1775340945595421400,19.73642138671875,8.276773452758789,5.414957523345947,-0.20338992774486542
1775340945612209700,19.753209716796874,8.405985832214355,5.6590256690979,-0.4498506486415863
1775340945628998000,19.769997802734373,8.202595710754395,5.848058700561523,-0.2392822653055191
1775340945645785900,19.786785888671876,8.58784008026123,5.601597785949707,-0.016749758273363113
1775340945662574000,19.803573974609375,8.051848411560059,5.218746185302734,-0.06699903309345245
1775340945679362300,19.8203623046875,8.46580696105957,5.556134223937988,-0.727418065071106
1775340945696150500,19.837150634765624,8.317451477050781,5.374279499053955,-0.7585247755050659
1775340945712938800,19.853938720703123,8.664410591125488,5.599205017089844,-0.6173482537269592
1775340945729727000,19.87072705078125,8.496912956237793,5.627918720245361,-0.5168496966362
1775340945746515200,19.88751513671875,8.413164138793945,5.5728840827941895,-0.4426721930503845
1775340945763303400,19.904303466796875,8.590232849121094,5.575276851654053,-0.5479564070701599
1775340945780091600,19.921091552734374,7.89631462097168,5.441278457641602,-0.20817556977272034
1775340945796880000,19.9378798828125,9.040083885192871,5.525027275085449,-0.4331009089946747
1775340945813667800,19.954667724609376,8.118846893310547,5.592026710510254,-0.24167509377002716
1775340945830456000,19.9714560546875,8.673981666564941,5.575276851654053,-0.641276478767395
1775340945847244300,19.988244384765625,8.71226692199707,5.625525951385498,-0.397208571434021
1775340945864032500,20.005032470703124,8.575876235961914,5.8719868659973145,-0.26081767678260803
1775340945880820700,20.02182080078125,8.987442016601562,5.4795637130737305,-0.4785645306110382
1775340945897609000,20.03860888671875,7.805387496948242,5.333601474761963,-0.25363919138908386
1775340945914397200,20.055397216796877,8.779266357421875,5.742774486541748,-0.38285163044929504
1775340945931185400,20.072185302734376,8.551948547363281,5.410171985626221,-0.5742774605751038
1775340945947973600,20.0889736328125,8.396414756774902,5.642275810241699,-0.5216353535652161
1775340945964761900,20.105761962890625,8.408378601074219,5.300102233886719,-0.48095735907554626
1775340945981549800,20.1225498046875,8.681160926818848,5.749952793121338,-0.4331009089946747
1775340945998338000,20.139338134765627,8.537590980529785,5.61116886138916,-0.15314064919948578
1775340946015126300,20.156126220703126,8.327022552490234,5.635097503662109,-0.3852444589138031
1775340946031914500,20.17291455078125,8.283951759338379,5.2977094650268555,-0.5527420043945312
1775340946048702700,20.18970263671875,8.429914474487305,5.4556355476379395,-0.47617170214653015
1775340946065491000,20.206490966796874,8.709874153137207,5.737988471984863,-0.397208571434021
1775340946082279200,20.223279052734377,8.528019905090332,5.587240695953369,-0.48095735907554626
1775340946099067400,20.2400673828125,8.310273170471191,5.606383323669434,-0.3565305769443512
1775340946115855600,20.256855712890626,8.724231719970703,5.78345251083374,-0.25363919138908386
1775340946132643800,20.273643798828125,8.389236450195312,5.38624382019043,-0.4785645306110382
1775340946149431800,20.290431884765624,8.475378036499023,5.426921844482422,-0.31824541091918945
1775340946166220000,20.307219970703127,8.405985832214355,5.66620397567749,-0.5144568681716919
1775340946183008300,20.32400830078125,8.496912956237793,5.441278457641602,-0.4091726839542389
1775340946199796500,20.34079638671875,8.367700576782227,5.54177713394165,-0.28235307335853577
1775340946216584700,20.357584716796875,8.422736167907715,5.589633464813232,-0.41874396800994873
1775340946233373000,20.374373046875,8.516056060791016,5.367101192474365,-0.33020952343940735
1775340946250161200,20.3911611328125,8.317451477050781,5.493920803070068,-0.30628129839897156
1775340946266949400,20.407949462890624,8.539983749389648,5.350351333618164,-0.5312066078186035
1775340946283737600,20.424737548828126,8.468199729919434,5.663811206817627,-0.4833501875400543
1775340946300525600,20.441525634765625,8.70508861541748,5.615954875946045,-0.2991028428077698
1775340946317313800,20.458313720703124,8.104490280151367,5.532206058502197,-0.35892340540885925
1775340946334102000,20.47510205078125,8.549555778503418,5.472385406494141,-0.2679961323738098
1775340946350890200,20.49189013671875,8.417949676513672,5.649454116821289,-0.4713860750198364
1775340946367678500,20.508678466796876,8.678768157958984,5.7547383308410645,-0.5312066078186035
1775340946384466700,20.525466796875,8.439485549926758,5.527420520782471,-0.41156548261642456
1775340946401255000,20.5422548828125,8.408378601074219,5.548955917358398,-0.3158525824546814
1775340946418043000,20.55904296875,8.575876235961914,5.592026710510254,-0.5000999569892883
1775340946434831400,20.575831298828124,8.666803359985352,5.740381717681885,-0.38763725757598877
1775340946451619300,20.592619384765626,8.327022552490234,5.6446685791015625,-0.2727817893028259
1775340946468407600,20.609407470703125,8.669196128845215,5.618347644805908,-0.42352959513664246
1775340946485195800,20.62619580078125,8.496912956237793,5.601597785949707,-0.48813581466674805
1775340946501984000,20.64298388671875,8.300702095031738,5.508277893066406,-0.36610186100006104
1775340946518772200,20.659772216796874,8.544769287109375,5.364708423614502,-0.46899324655532837
1775340946535560400,20.676560546875,8.118846893310547,5.635097503662109,-0.5096712112426758
1775340946552348700,20.6933486328125,8.499305725097656,5.407779216766357,-0.46420758962631226
1775340946569137000,20.710136962890626,8.434700012207031,5.434100151062012,-0.36610186100006104
1775340946585924900,20.7269248046875,8.288737297058105,5.3934221267700195,-0.44027936458587646
1775340946602713000,20.743713134765624,8.441878318786621,5.367101192474365,-0.363709032535553
1775340946619501300,20.760501220703127,8.300702095031738,5.374279499053955,-0.363709032535553
1775340946636289500,20.77728955078125,8.48016357421875,5.54177713394165,-0.3756731450557709
1775340946653077800,20.794077880859376,8.360522270202637,5.594419479370117,-0.19621145725250244
1775340946669866000,20.810865966796875,8.602197647094727,5.606383323669434,-0.397208571434021
1775340946686654200,20.827654296875,8.350951194763184,5.670989513397217,-0.5431707501411438
1775340946703442400,20.8444423828125,8.46580696105957,5.60399055480957,-0.48095735907554626
1775340946720230400,20.86123046875,8.7505521774292,5.582455158233643,-0.42352959513664246
1775340946737018600,20.8780185546875,8.595019340515137,5.6925249099731445,-0.5479564070701599
1775340946753806800,20.894806884765625,8.755337715148926,5.632704734802246,-0.46899324655532837
1775340946770595000,20.911594970703124,8.650053977966309,5.764309883117676,-0.3756731450557709
1775340946787383300,20.92838330078125,8.542376518249512,5.7164530754089355,-0.39481574296951294
1775340946804171500,20.945171630859374,8.647661209106445,5.635097503662109,-0.40677985548973083
1775340946820959700,20.961959716796876,8.470592498779297,5.79780912399292,-0.3038884699344635
1775340946837748000,20.978748046875,8.740981101989746,5.740381717681885,-0.30149564146995544
1775340946854536000,20.995535888671874,8.62612533569336,5.730810165405273,-0.4378865361213684
1775340946871324200,21.01232421875,8.61894702911377,5.680561065673828,-0.4163511395454407
1775340946888112400,21.0291123046875,8.614161491394043,5.723631858825684,-0.42831525206565857
1775340946904900600,21.045900634765626,8.738588333129883,5.79063081741333,-0.40677985548973083
1775340946921688800,21.062688720703125,8.757730484008789,5.948556900024414,-0.5312066078186035
1775340946938477000,21.07947705078125,8.9850492477417,5.974878311157227,-0.5312066078186035
1775340946955265300,21.096265380859375,8.97787094116211,5.962913990020752,-0.38763725757598877
1775340946972053500,21.113053466796874,8.994620323181152,6.099305152893066,-0.5694918036460876
1775340946988841500,21.129841552734376,9.128618240356445,5.740381717681885,-0.4331009089946747
1775340947005629700,21.146629638671875,8.819944381713867,5.802595138549805,-0.4618147611618042
1775340947022418000,21.16341796875,8.688339233398438,5.931807518005371,-0.4618147611618042
1775340947039206100,21.1802060546875,8.86062240600586,5.86002254486084,-0.2632105052471161
1775340947055994400,21.196994384765624,9.042476654052734,5.84566593170166,-0.43549370765686035
1775340947072782600,21.213782470703126,8.642875671386719,6.03948450088501,-0.2679961323738098
1775340947089570800,21.23057080078125,9.037691116333008,5.917450428009033,-0.2679961323738098
1775340947106359000,21.247359130859376,8.999405860900879,5.886343479156494,-0.5407779216766357
1775340947123147000,21.26414697265625,8.97787094116211,5.97727108001709,-0.4450650215148926
1775340947139935200,21.280935302734374,8.793622970581055,5.764309883117676,-0.550349235534668
1775340947156723500,21.297723388671876,8.606983184814453,5.682953834533691,-0.39960137009620667
1775340947173511700,21.31451171875,8.511270523071289,5.912664890289307,-0.3038884699344635
1775340947190300000,21.3312998046875,8.688339233398438,5.888736724853516,-0.3732803463935852
1775340947207088000,21.348088134765625,8.461020469665527,5.687739372253418,-0.42831525206565857
1775340947223876400,21.36487646484375,8.872586250305176,5.6207404136657715,-0.5551348328590393
1775340947240664600,21.38166455078125,8.482556343078613,5.608776092529297,-0.4019941985607147
1775340947257452500,21.39845263671875,8.58066177368164,5.513063430786133,-0.6364908218383789
1775340947274240800,21.41524072265625,8.549555778503418,5.639883041381836,-0.2991028428077698
1775340947291029000,21.432029052734375,8.214560508728027,5.766702651977539,-0.27756741642951965
1775340947307817200,21.448817138671874,8.851051330566406,5.608776092529297,-0.31824541091918945
1775340947324605400,21.46560546875,8.427521705627441,5.491528034210205,-0.46420758962631226
1775340947341393700,21.4823935546875,8.568697929382324,5.632704734802246,-0.4618147611618042
1775340947358182000,21.499181884765626,8.449056625366211,5.242674350738525,-0.4498506486415863
1775340947374970000,21.51597021484375,8.090133666992188,5.623133182525635,-0.2153540402650833
1775340947391758000,21.532758056640624,8.762516975402832,5.6207404136657715,-0.42831525206565857
