time,seconds_elapsed,z,y,x
1775711489187526700,0.042526611328125,-0.0229339599609375,-0.88238525390625,0.3157958984375
1775711489197539800,0.052539794921875,-0.0879058837890625,-0.855560302734375,0.2841796875
1775711489207552800,0.062552734375,-0.114990234375,-0.832000732421875,0.3212127685546875
1775711489217565700,0.072565673828125,-0.1168975830078125,-0.811798095703125,0.388153076171875
1775711489227578600,0.08257861328125,-0.121826171875,-0.791839599609375,0.4200439453125
1775711489237591800,0.092591796875,-0.11932373046875,-0.7812957763671875,0.4212188720703125
1775711489247604700,0.102604736328125,-0.0925750732421875,-0.754730224609375,0.4167938232421875
1775711489257617700,0.11261767578125,-0.053070068359375,-0.693115234375,0.390533447265625
1775711489267630800,0.122630859375,-0.053375244140625,-0.62982177734375,0.37213134765625
1775711489277643800,0.132643798828125,-0.091796875,-0.5968780517578125,0.3866119384765625
1775711489287657700,0.14265771484375,-0.11883544921875,-0.591400146484375,0.3817596435546875
1775711489297671000,0.1526708984375,0.0143280029296875,-0.626983642578125,0.4005889892578125
1775711489307683600,0.16268359375,0.2876739501953125,-0.8343505859375,0.8276519775390625
1775711489317696800,0.17269677734375,0.13836669921875,-0.898590087890625,1.10748291015625
1775711489327709700,0.182709716796875,0.0153656005859375,-0.61297607421875,0.788970947265625
1775711489337723000,0.192722900390625,0.044097900390625,-0.441009521484375,0.63189697265625
1775711489347735600,0.202735595703125,0.1190032958984375,-0.57275390625,0.617523193359375
1775711489357748700,0.212748779296875,0.0538330078125,-0.6445465087890625,0.5052337646484375
1775711489367762000,0.222761962890625,0.1248626708984375,-0.6187896728515625,0.466400146484375
1775711489377774600,0.232774658203125,0.1706085205078125,-0.5899200439453125,0.5050048828125
1775711489387787800,0.242787841796875,0.150115966796875,-0.60638427734375,0.604034423828125
1775711489397801700,0.2528017578125,0.1679534912109375,-0.589324951171875,0.663970947265625
1775711489407814700,0.262814697265625,0.2319183349609375,-0.5836639404296875,0.7154388427734375
1775711489417827800,0.272827880859375,0.25018310546875,-0.5639495849609375,0.6563720703125
1775711489427840800,0.2828408203125,0.2861785888671875,-0.53485107421875,0.6035003662109375
1775711489437853700,0.292853759765625,0.3106689453125,-0.5586395263671875,0.6291656494140625
1775711489447866600,0.30286669921875,0.29278564453125,-0.5688323974609375,0.6663818359375
1775711489457879800,0.3128798828125,0.3118743896484375,-0.588958740234375,0.715972900390625
1775711489467892700,0.322892822265625,0.4069366455078125,-0.58929443359375,0.7510986328125
1775711489477905700,0.33290576171875,0.4556732177734375,-0.655731201171875,0.8128204345703125
1775711489487918800,0.3429189453125,0.387115478515625,-0.6870880126953125,0.787200927734375
1775711489497931800,0.352931884765625,0.3736724853515625,-0.6204376220703125,0.7433624267578125
1775711489507944700,0.36294482421875,0.320526123046875,-0.6195526123046875,0.7299041748046875
1775711489517958700,0.372958740234375,0.2970733642578125,-0.6063232421875,0.7295074462890625
1775711489527971800,0.382971923828125,0.267181396484375,-0.629058837890625,0.7163848876953125
1775711489537984800,0.39298486328125,0.22332763671875,-0.6577606201171875,0.6822967529296875
1775711489547997700,0.402997802734375,0.199066162109375,-0.6607513427734375,0.6722259521484375
1775711489558011000,0.413010986328125,0.181976318359375,-0.6633758544921875,0.71368408203125
1775711489568023800,0.42302392578125,0.1450042724609375,-0.6402435302734375,0.7967529296875
1775711489578036700,0.43303662109375,0.1112823486328125,-0.6054534912109375,0.8439178466796875
1775711489588049700,0.443049560546875,0.2401275634765625,-0.6573028564453125,0.853485107421875
1775711489598062800,0.453062744140625,0.356903076171875,-0.699554443359375,0.7602996826171875
1775711489608075800,0.46307568359375,0.328125,-0.6394805908203125,0.7155303955078125
1775711489618088700,0.473088623046875,0.2823333740234375,-0.65142822265625,0.7265472412109375
1775711489628102000,0.483101806640625,0.28289794921875,-0.6596221923828125,0.72821044921875
1775711489638115600,0.493115478515625,0.290283203125,-0.6515045166015625,0.7593841552734375
1775711489648128800,0.503128662109375,0.30023193359375,-0.6531219482421875,0.83770751953125
1775711489658142000,0.513141845703125,0.3255462646484375,-0.667999267578125,0.897705078125
1775711489668154600,0.523154541015625,0.3597412109375,-0.6713409423828125,0.907379150390625
1775711489678167800,0.533167724609375,0.3730926513671875,-0.65081787109375,0.9124755859375
1775711489688181200,0.54318115234375,0.3545074462890625,-0.64361572265625,0.924530029296875
1775711489698194000,0.55319384765625,0.343170166015625,-0.64093017578125,0.9046630859375
1775711489708207000,0.56320703125,0.3641815185546875,-0.6407623291015625,0.86468505859375
1775711489718220000,0.573219970703125,0.3582611083984375,-0.634552001953125,0.8372802734375
1775711489728233200,0.583233154296875,0.3512725830078125,-0.6376190185546875,0.8445281982421875
1775711489738246000,0.593245849609375,0.373382568359375,-0.662109375,0.852294921875
1775711489748259000,0.603259033203125,0.381500244140625,-0.675262451171875,0.8270263671875
1775711489758273000,0.61327294921875,0.379302978515625,-0.6790313720703125,0.8058319091796875
1775711489768286000,0.623285888671875,0.3655242919921875,-0.6776885986328125,0.80682373046875
1775711489778299100,0.633299072265625,0.3311920166015625,-0.671142578125,0.8164215087890625
1775711489788312000,0.64331201171875,0.3163604736328125,-0.6641082763671875,0.8321990966796875
1775711489798325000,0.653324951171875,0.307098388671875,-0.666046142578125,0.8416595458984375
1775711489808338200,0.663338134765625,0.2821807861328125,-0.660186767578125,0.818450927734375
1775711489818351000,0.67335107421875,0.2865447998046875,-0.6492919921875,0.764129638671875
1775711489828364000,0.683364013671875,0.2943267822265625,-0.6506805419921875,0.7401885986328125
1775711489838377000,0.693376953125,0.3069305419921875,-0.655059814453125,0.7572174072265625
1775711489848390100,0.70339013671875,0.3464202880859375,-0.6516571044921875,0.777191162109375
1775711489858403000,0.713403076171875,0.396484375,-0.64141845703125,0.79473876953125
1775711489868417000,0.7234169921875,0.4123077392578125,-0.6341705322265625,0.8041839599609375
1775711489878430200,0.73343017578125,0.4054107666015625,-0.6342620849609375,0.7897796630859375
1775711489888443000,0.74344287109375,0.407989501953125,-0.6380462646484375,0.7571258544921875
1775711489898456000,0.7534560546875,0.3988037109375,-0.6358795166015625,0.73797607421875
1775711489908469000,0.763468994140625,0.3838043212890625,-0.6304168701171875,0.7396087646484375
1775711489918482200,0.773482177734375,0.3653564453125,-0.626007080078125,0.754364013671875
1775711489928495000,0.7834951171875,0.342193603515625,-0.623016357421875,0.75079345703125
1775711489938508000,0.793508056640625,0.3335418701171875,-0.618743896484375,0.7427215576171875
1775711489948521200,0.803521240234375,0.3078460693359375,-0.6125640869140625,0.735198974609375
1775711489958534000,0.813533935546875,0.2768402099609375,-0.6162261962890625,0.7368011474609375
1775711489968547000,0.823547119140625,0.267608642578125,-0.626556396484375,0.7315216064453125
1775711489978560000,0.83356005859375,0.2677764892578125,-0.6248779296875,0.7365875244140625
1775711489988574000,0.843573974609375,0.2826080322265625,-0.6248321533203125,0.727813720703125
1775711489998587100,0.853587158203125,0.3291473388671875,-0.6408233642578125,0.69805908203125
1775711490008600000,0.86360009765625,0.3527374267578125,-0.6495819091796875,0.66375732421875
1775711490018613000,0.873613037109375,0.3512115478515625,-0.6452789306640625,0.659515380859375
1775711490028626000,0.8836259765625,0.3513031005859375,-0.638763427734375,0.662322998046875
1775711490038639000,0.89363916015625,0.3381500244140625,-0.63958740234375,0.67327880859375
1775711490048652300,0.90365234375,0.321990966796875,-0.6459503173828125,0.6911163330078125
1775711490058665000,0.9136650390625,0.31439208984375,-0.643768310546875,0.6954498291015625
1775711490068678100,0.92367822265625,0.3153839111328125,-0.6357421875,0.693115234375
1775711490078691000,0.933691162109375,0.3034210205078125,-0.630401611328125,0.6760711669921875
1775711490088704000,0.9437041015625,0.2994842529296875,-0.6365509033203125,0.67816162109375
1775711490098717000,0.953717041015625,0.290740966796875,-0.641510009765625,0.69293212890625
1775711490108731100,0.963731201171875,0.28643798828125,-0.63885498046875,0.710052490234375
1775711490118744000,0.973744140625,0.2843475341796875,-0.6348724365234375,0.7143402099609375
1775711490128757000,0.983757080078125,0.2923431396484375,-0.633087158203125,0.7103118896484375
1775711490138770200,0.993770263671875,0.2822265625,-0.6311798095703125,0.694000244140625
1775711490148782800,1.003782958984375,0.2825164794921875,-0.62847900390625,0.664520263671875
1775711490158796000,1.013796142578125,0.2892608642578125,-0.6345672607421875,0.65850830078125
1775711490168809200,1.023809326171875,0.288604736328125,-0.6337738037109375,0.6825714111328125
1775711490178822100,1.033822265625,0.2912445068359375,-0.6304931640625,0.7098388671875
1775711490188835000,1.0438349609375,0.2975311279296875,-0.625213623046875,0.725799560546875
1775711490198848000,1.053847900390625,0.2920684814453125,-0.6197509765625,0.7330780029296875
1775711490208861200,1.063861083984375,0.29473876953125,-0.620819091796875,0.7447662353515625
1775711490218873900,1.073873779296875,0.28717041015625,-0.621490478515625,0.7536163330078125
1775711490228888000,1.08388818359375,0.285247802734375,-0.6128387451171875,0.749053955078125
1775711490238901200,1.0939013671875,0.30059814453125,-0.6134033203125,0.7466583251953125
1775711490248914000,1.103913818359375,0.301055908203125,-0.6216278076171875,0.7455902099609375
1775711490258927000,1.113927001953125,0.30859375,-0.6176910400390625,0.7398223876953125
1775711490268940000,1.12393994140625,0.3333587646484375,-0.619232177734375,0.73065185546875
1775711490278953000,1.133952880859375,0.353729248046875,-0.617767333984375,0.7137908935546875
1775711490288966100,1.143966064453125,0.3678131103515625,-0.61627197265625,0.7193450927734375
1775711490298979000,1.15397900390625,0.3755035400390625,-0.6228179931640625,0.74542236328125
1775711490308992300,1.1639921875,0.3683319091796875,-0.6290435791015625,0.775177001953125
1775711490319005000,1.1740048828125,0.3514251708984375,-0.625091552734375,0.7979888916015625
1775711490329018000,1.18401806640625,0.3346099853515625,-0.630340576171875,0.8172149658203125
1775711490339031000,1.194031005859375,0.3276824951171875,-0.64581298828125,0.8251953125
1775711490349045000,1.204044921875,0.3243408203125,-0.6551666259765625,0.8226776123046875
1775711490359058200,1.21405810546875,0.32269287109375,-0.663726806640625,0.82891845703125
1775711490369071000,1.224071044921875,0.3325347900390625,-0.667877197265625,0.8465118408203125
1775711490379084000,1.234083984375,0.3486785888671875,-0.675933837890625,0.8543548583984375
1775711490389097000,1.244096923828125,0.3429718017578125,-0.682464599609375,0.838775634765625
1775711490399110100,1.254110107421875,0.3408355712890625,-0.6810150146484375,0.818756103515625
1775711490409123000,1.264123046875,0.3283538818359375,-0.6790618896484375,0.8048858642578125
1775711490419136000,1.274135986328125,0.3117828369140625,-0.6778411865234375,0.8185272216796875
1775711490429149200,1.284149169921875,0.31060791015625,-0.6750946044921875,0.851654052734375
1775711490439162000,1.294162109375,0.30413818359375,-0.6624603271484375,0.868377685546875
1775711490449175000,1.304175048828125,0.2916259765625,-0.6581268310546875,0.8836212158203125
1775711490459188000,1.31418798828125,0.276641845703125,-0.652740478515625,0.8730010986328125
1775711490469202000,1.324201904296875,0.27337646484375,-0.647613525390625,0.8508758544921875
1775711490479215000,1.334215087890625,0.264556884765625,-0.64447021484375,0.830780029296875
1775711490489228000,1.34422802734375,0.2674102783203125,-0.636749267578125,0.7996673583984375
1775711490499241200,1.3542412109375,0.2882232666015625,-0.6352081298828125,0.790802001953125
1775711490509254000,1.36425390625,0.308441162109375,-0.6374053955078125,0.779083251953125
1775711490519267000,1.37426708984375,0.3345184326171875,-0.6395111083984375,0.7529144287109375
1775711490529280300,1.3842802734375,0.363922119140625,-0.6387176513671875,0.7230987548828125
1775711490539293000,1.39429296875,0.3775634765625,-0.642120361328125,0.71209716796875
1775711490549306000,1.40430615234375,0.37774658203125,-0.643951416015625,0.7203521728515625
1775711490559319000,1.414319091796875,0.382049560546875,-0.65509033203125,0.7410430908203125
1775711490569332200,1.424332275390625,0.3845367431640625,-0.6496734619140625,0.7565460205078125
1775711490579346200,1.43434619140625,0.3815765380859375,-0.640533447265625,0.7593994140625
1775711490589359000,1.444359130859375,0.3840789794921875,-0.6416015625,0.75726318359375
1775711490599372000,1.4543720703125,0.3924713134765625,-0.643524169921875,0.7437286376953125
1775711490609385000,1.464385009765625,0.41156005859375,-0.642364501953125,0.7299957275390625
1775711490619398100,1.474398193359375,0.4210357666015625,-0.6482086181640625,0.7218017578125
1775711490629411000,1.4844111328125,0.41778564453125,-0.6509552001953125,0.7085723876953125
1775711490639424000,1.494424072265625,0.431427001953125,-0.6514129638671875,0.710052490234375
1775711490649437200,1.504437255859375,0.43902587890625,-0.644805908203125,0.703369140625
1775711490659450000,1.5144501953125,0.4523162841796875,-0.629180908203125,0.67791748046875
1775711490669463000,1.524463134765625,0.4587554931640625,-0.6119232177734375,0.6490631103515625
1775711490679476000,1.53447607421875,0.4578399658203125,-0.6194915771484375,0.653717041015625
1775711490689488100,1.544488037109375,0.453643798828125,-0.632232666015625,0.66180419921875
1775711490699502300,1.55450244140625,0.4383697509765625,-0.6358489990234375,0.659210205078125
1775711490709515000,1.564514892578125,0.420623779296875,-0.6357421875,0.6561126708984375
1775711490719528200,1.574528076171875,0.39227294921875,-0.6274871826171875,0.6553955078125
1775711490729541400,1.584541259765625,0.365570068359375,-0.6285858154296875,0.65325927734375
1775711490739554000,1.594553955078125,0.3726806640625,-0.62921142578125,0.6302490234375
1775711490749567200,1.604567138671875,0.403472900390625,-0.63494873046875,0.61541748046875
1775711490759580200,1.614580078125,0.418914794921875,-0.6331939697265625,0.62042236328125
1775711490769593300,1.62459326171875,0.4254913330078125,-0.62982177734375,0.6312255859375
1775711490779606000,1.63460595703125,0.425048828125,-0.6206207275390625,0.6409759521484375
1775711490789619200,1.644619140625,0.4191131591796875,-0.61175537109375,0.6478271484375
1775711490799632400,1.65463232421875,0.4154205322265625,-0.602569580078125,0.633331298828125
1775711490809645000,1.66464501953125,0.40130615234375,-0.6021575927734375,0.6209869384765625
1775711490819659300,1.6746591796875,0.3877716064453125,-0.604461669921875,0.6191864013671875
1775711490829672200,1.684672119140625,0.3884124755859375,-0.602813720703125,0.6199493408203125
1775711490839685000,1.69468505859375,0.3746185302734375,-0.6128692626953125,0.6377410888671875
1775711490849698300,1.7046982421875,0.3558807373046875,-0.6089935302734375,0.649261474609375
1775711490859711200,1.714711181640625,0.348297119140625,-0.5919342041015625,0.6667938232421875
1775711490869724200,1.72472412109375,0.3359375,-0.5798797607421875,0.6701812744140625
1775711490879737000,1.734737060546875,0.3426971435546875,-0.5756988525390625,0.6596527099609375
1775711490889750300,1.744750244140625,0.3665313720703125,-0.5782470703125,0.643646240234375
1775711490899763200,1.75476318359375,0.374420166015625,-0.5745086669921875,0.6216278076171875
1775711490909776100,1.764776123046875,0.3862762451171875,-0.5700225830078125,0.5887908935546875
1775711490919789300,1.774789306640625,0.384918212890625,-0.5637054443359375,0.5587158203125
1775711490929803000,1.784802978515625,0.3718719482421875,-0.5509185791015625,0.5404510498046875
1775711490939816200,1.794816162109375,0.3643798828125,-0.5330352783203125,0.5330963134765625
1775711490949829000,1.8048291015625,0.345245361328125,-0.521209716796875,0.5417938232421875
1775711490959842300,1.81484228515625,0.3267822265625,-0.507232666015625,0.5327911376953125
1775711490969855200,1.824855224609375,0.2960205078125,-0.5240936279296875,0.5425262451171875
1775711490979868200,1.8348681640625,0.251617431640625,-0.552703857421875,0.5435943603515625
1775711490989881300,1.84488134765625,0.2381591796875,-0.555633544921875,0.5253143310546875
1775711490999894000,1.85489404296875,0.248382568359375,-0.5454559326171875,0.50390625
1775711491009907200,1.8649072265625,0.2601318359375,-0.535736083984375,0.4861602783203125
1775711491019920100,1.874920166015625,0.2797698974609375,-0.52130126953125,0.47760009765625
1775711491029933300,1.884933349609375,0.291229248046875,-0.5231781005859375,0.4925384521484375
1775711491039946200,1.8949462890625,0.280242919921875,-0.524383544921875,0.518829345703125
1775711491049960200,1.904960205078125,0.277557373046875,-0.519073486328125,0.5426177978515625
1775711491059973000,1.91497314453125,0.2773895263671875,-0.5319976806640625,0.5721588134765625
1775711491069986000,1.924986083984375,0.2775115966796875,-0.5469207763671875,0.578582763671875
1775711491079999200,1.934999267578125,0.2827301025390625,-0.5731201171875,0.5856170654296875
1775711491090012400,1.945012451171875,0.2693328857421875,-0.5990753173828125,0.577880859375
1775711491100025000,1.955025146484375,0.263519287109375,-0.615997314453125,0.569854736328125
1775711491110038300,1.965038330078125,0.246856689453125,-0.629425048828125,0.5661468505859375
1775711491120051200,1.97505126953125,0.231719970703125,-0.6473541259765625,0.5576171875
1775711491130064100,1.985064208984375,0.2581024169921875,-0.657501220703125,0.5607452392578125
1775711491140077000,1.9950771484375,0.270538330078125,-0.6598968505859375,0.56719970703125
1775711491150090200,2.00509033203125,0.25836181640625,-0.6656341552734375,0.5669097900390625
1775711491160103200,2.015103271484375,0.2782440185546875,-0.6865386962890625,0.576385498046875
1775711491170117000,2.0251171875,0.299102783203125,-0.696868896484375,0.6061248779296875
1775711491180130300,2.03513037109375,0.31396484375,-0.705718994140625,0.6455230712890625
1775711491190143200,2.045143310546875,0.3354949951171875,-0.7187652587890625,0.665496826171875
1775711491200156200,2.05515625,0.3507843017578125,-0.728912353515625,0.6461639404296875
1775711491210169300,2.06516943359375,0.3774566650390625,-0.7590484619140625,0.619171142578125
1775711491220182300,2.075182373046875,0.4283447265625,-0.776519775390625,0.596221923828125
1775711491230195200,2.0851953125,0.4626312255859375,-0.770233154296875,0.598846435546875
1775711491240208100,2.0952080078125,0.4710540771484375,-0.7677764892578125,0.6049957275390625
1775711491250221300,2.10522119140625,0.4761199951171875,-0.7750091552734375,0.62261962890625
1775711491260234200,2.115234130859375,0.466156005859375,-0.7657012939453125,0.63671875
1775711491270247200,2.1252470703125,0.435150146484375,-0.75421142578125,0.64178466796875
1775711491280260000,2.135260009765625,0.4232635498046875,-0.7364959716796875,0.6591796875
1775711491290274000,2.145274169921875,0.4076690673828125,-0.739654541015625,0.6717681884765625
1775711491300287200,2.155287353515625,0.3748931884765625,-0.7499847412109375,0.690673828125
1775711491310300200,2.165300048828125,0.29827880859375,-0.7822113037109375,0.6829833984375
1775711491320313000,2.17531298828125,0.2622833251953125,-0.781036376953125,0.6736907958984375
1775711491330326300,2.185326171875,0.243682861328125,-0.7677764892578125,0.6538543701171875
1775711491340339200,2.195339111328125,0.20947265625,-0.7528839111328125,0.61865234375
1775711491350352400,2.205352294921875,0.202606201171875,-0.7542572021484375,0.6136627197265625
1775711491360365000,2.215364990234375,0.2158050537109375,-0.7506866455078125,0.6315765380859375
1775711491370378200,2.225378173828125,0.2302093505859375,-0.7375030517578125,0.650421142578125
1775711491380391200,2.23539111328125,0.2497406005859375,-0.719451904296875,0.6732635498046875
1775711491390404400,2.245404296875,0.2640533447265625,-0.7123260498046875,0.69549560546875
1775711491400418300,2.255418212890625,0.252685546875,-0.7190704345703125,0.7121429443359375
1775711491410431200,2.26543115234375,0.2440185546875,-0.7131500244140625,0.704193115234375
1775711491420444200,2.275444091796875,0.255340576171875,-0.7065582275390625,0.6923675537109375
1775711491430457000,2.28545703125,0.27349853515625,-0.6939239501953125,0.68408203125
1775711491440470300,2.29547021484375,0.28875732421875,-0.66961669921875,0.6733551025390625
1775711491450483200,2.305483154296875,0.3013458251953125,-0.661651611328125,0.657745361328125
1775711491460496100,2.31549609375,0.3027191162109375,-0.680023193359375,0.653778076171875
1775711491470509300,2.32550927734375,0.306732177734375,-0.68798828125,0.6627349853515625
1775711491480522200,2.335522216796875,0.29986572265625,-0.687225341796875,0.6651763916015625
1775711491490535200,2.34553515625,0.281158447265625,-0.68463134765625,0.6607666015625
1775711491500548000,2.355548095703125,0.2742156982421875,-0.679962158203125,0.660552978515625
1775711491510562300,2.365562255859375,0.2718963623046875,-0.6762237548828125,0.66229248046875
1775711491520575200,2.3755751953125,0.2600860595703125,-0.6729736328125,0.6578369140625
1775711491530588200,2.385588134765625,0.2451019287109375,-0.67059326171875,0.65838623046875
1775711491540601300,2.395601318359375,0.2362823486328125,-0.6656494140625,0.64691162109375
1775711491550614000,2.405614013671875,0.2413787841796875,-0.6610870361328125,0.651092529296875
1775711491560627200,2.415627197265625,0.2424163818359375,-0.6703033447265625,0.6714935302734375
1775711491570640100,2.42564013671875,0.265228271484375,-0.6810760498046875,0.69342041015625
1775711491580653300,2.4356533203125,0.2864837646484375,-0.677215576171875,0.7010498046875
1775711491590666200,2.445666259765625,0.29608154296875,-0.667388916015625,0.689239501953125
1775711491600679200,2.45567919921875,0.301025390625,-0.666656494140625,0.684417724609375
1775711491610692400,2.4656923828125,0.306915283203125,-0.6693878173828125,0.689208984375
1775711491620705000,2.475705078125,0.300689697265625,-0.670196533203125,0.6846160888671875
1775711491630719200,2.48571923828125,0.2800140380859375,-0.6790618896484375,0.674285888671875
1775711491640732400,2.495732421875,0.2762603759765625,-0.6860198974609375,0.6727447509765625
1775711491650745000,2.5057451171875,0.2794952392578125,-0.6816864013671875,0.674835205078125
1775711491660758300,2.51575830078125,0.2823944091796875,-0.6834869384765625,0.6796112060546875
1775711491670771200,2.525771240234375,0.274688720703125,-0.686065673828125,0.6753082275390625
1775711491680784100,2.5357841796875,0.2745208740234375,-0.6834716796875,0.67822265625
1775711491690797600,2.545797607421875,0.26983642578125,-0.680633544921875,0.6762847900390625
1775711491700810800,2.555810791015625,0.272003173828125,-0.680328369140625,0.6773223876953125
1775711491710823400,2.565823486328125,0.284210205078125,-0.685882568359375,0.68328857421875
1775711491720836600,2.575836669921875,0.2845001220703125,-0.6877899169921875,0.6756744384765625
1775711491730849500,2.585849609375,0.2844696044921875,-0.6870574951171875,0.6635284423828125
1775711491740863500,2.595863525390625,0.2916259765625,-0.684539794921875,0.649749755859375
1775711491750876700,2.605876708984375,0.29644775390625,-0.68231201171875,0.6371612548828125
1775711491760889600,2.6158896484375,0.3053131103515625,-0.6837921142578125,0.635772705078125
1775711491770902500,2.625902587890625,0.308135986328125,-0.6739044189453125,0.6271209716796875
1775711491780915500,2.63591552734375,0.3017578125,-0.66632080078125,0.6253662109375
1775711491790928600,2.6459287109375,0.2835693359375,-0.6631317138671875,0.6309051513671875
1775711491800941800,2.65594189453125,0.2605438232421875,-0.6637420654296875,0.632568359375
1775711491810954500,2.66595458984375,0.24176025390625,-0.64007568359375,0.6041107177734375
1775711491820967700,2.6759677734375,0.2364654541015625,-0.5979461669921875,0.5640716552734375
1775711491830980600,2.685980712890625,0.2332763671875,-0.5946044921875,0.5435791015625
1775711491840993500,2.69599365234375,0.2279815673828125,-0.6080780029296875,0.5373992919921875
1775711491851006500,2.70600634765625,0.2471160888671875,-0.5979156494140625,0.5522918701171875
1775711491861020700,2.716020751953125,0.2372589111328125,-0.587158203125,0.5648651123046875
1775711491871033600,2.72603369140625,0.2244110107421875,-0.568145751953125,0.5599822998046875
1775711491881046500,2.736046630859375,0.2280426025390625,-0.527618408203125,0.5282745361328125
1775711491891059700,2.746059814453125,0.22454833984375,-0.477020263671875,0.4817657470703125
1775711491901072400,2.756072265625,0.2029571533203125,-0.4312896728515625,0.436737060546875
1775711491911085600,2.76608544921875,0.1786651611328125,-0.4124755859375,0.4456939697265625
1775711491921098800,2.7760986328125,0.1351318359375,-0.4171600341796875,0.50439453125
1775711491931111700,2.786111572265625,0.079681396484375,-0.419464111328125,0.589996337890625
1775711491941124600,2.79612451171875,0.04083251953125,-0.4298553466796875,0.649169921875
1775711491951137500,2.806137451171875,0.0341339111328125,-0.456787109375,0.6469268798828125
1775711491961150700,2.816150634765625,0.08319091796875,-0.48370361328125,0.604339599609375
1775711491971164700,2.82616455078125,0.13720703125,-0.5018310546875,0.5509490966796875
1775711491981177600,2.836177490234375,0.190460205078125,-0.5405731201171875,0.504150390625
1775711491991190800,2.846190673828125,0.2362518310546875,-0.5770111083984375,0.4886016845703125
1775711492001203500,2.856203369140625,0.2506103515625,-0.6020660400390625,0.5075836181640625
1775711492011216600,2.866216552734375,0.238037109375,-0.6310577392578125,0.5570068359375
1775711492021229600,2.8762294921875,0.224517822265625,-0.646759033203125,0.6189422607421875
1775711492031242500,2.886242431640625,0.2476654052734375,-0.64337158203125,0.6504364013671875
1775711492041255700,2.896255615234375,0.303070068359375,-0.6509246826171875,0.64105224609375
1775711492051268600,2.9062685546875,0.40789794921875,-0.6681060791015625,0.6043701171875
1775711492061281800,2.91628173828125,0.4884490966796875,-0.677154541015625,0.5896453857421875
1775711492071294500,2.92629443359375,0.515106201171875,-0.688262939453125,0.60064697265625
1775711492081307600,2.9363076171875,0.4725494384765625,-0.7147369384765625,0.6231536865234375
1775711492091321600,2.946321533203125,0.4044952392578125,-0.7209014892578125,0.64886474609375
1775711492101334500,2.95633447265625,0.3415374755859375,-0.7216644287109375,0.6702880859375
1775711492111347700,2.96634765625,0.2851715087890625,-0.728302001953125,0.6793670654296875
1775711492121360600,2.976360595703125,0.231048583984375,-0.7238922119140625,0.6614532470703125
1775711492131373600,2.98637353515625,0.24249267578125,-0.7288665771484375,0.6262664794921875
1775711492141386500,2.996386474609375,0.2850189208984375,-0.73785400390625,0.586273193359375
1775711492151399700,3.006399658203125,0.3347015380859375,-0.7378692626953125,0.595947265625
1775711492161412600,3.01641259765625,0.368255615234375,-0.7631683349609375,0.649810791015625
1775711492171425500,3.026425537109375,0.3546600341796875,-0.797760009765625,0.704559326171875
1775711492181438700,3.036438720703125,0.3365020751953125,-0.793853759765625,0.6963348388671875
1775711492191451600,3.04645166015625,0.3410186767578125,-0.7803802490234375,0.67913818359375
1775711492201465600,3.056465576171875,0.31365966796875,-0.765411376953125,0.64727783203125
1775711492211478800,3.066478759765625,0.2913970947265625,-0.76080322265625,0.62744140625
1775711492221491500,3.076491455078125,0.2682037353515625,-0.74945068359375,0.6166229248046875
1775711492231504600,3.086504638671875,0.2336883544921875,-0.7392120361328125,0.579559326171875
1775711492241517600,3.096517578125,0.2263641357421875,-0.7361907958984375,0.5553741455078125
1775711492251530800,3.10653076171875,0.2009124755859375,-0.725860595703125,0.52972412109375
1775711492261543400,3.11654345703125,0.19525146484375,-0.716552734375,0.5171356201171875
1775711492271556600,3.126556640625,0.1811370849609375,-0.7366180419921875,0.55267333984375
1775711492281569800,3.13656982421875,0.159881591796875,-0.7563323974609375,0.600799560546875
1775711492291582500,3.14658251953125,0.1503143310546875,-0.7601776123046875,0.636749267578125
1775711492301595600,3.156595703125,0.1417236328125,-0.7577056884765625,0.668548583984375
1775711492311608600,3.166608642578125,0.14569091796875,-0.7512054443359375,0.683837890625
1775711492321622500,3.17662255859375,0.18048095703125,-0.7418060302734375,0.7101287841796875
1775711492331635700,3.1866357421875,0.23211669921875,-0.7477264404296875,0.7361297607421875
1775711492341648600,3.196648681640625,0.3026123046875,-0.75640869140625,0.7405853271484375
1775711492351661600,3.20666162109375,0.33941650390625,-0.7710723876953125,0.7400665283203125
1775711492361674500,3.216674560546875,0.3609466552734375,-0.8026275634765625,0.7523651123046875
1775711492371687700,3.226687744140625,0.328857421875,-0.8045806884765625,0.773895263671875
1775711492381700600,3.23670068359375,0.281158447265625,-0.790008544921875,0.7751922607421875
1775711492391713500,3.246713623046875,0.24737548828125,-0.7707977294921875,0.7840118408203125
1775711492401726700,3.256726806640625,0.208251953125,-0.7331695556640625,0.78033447265625
1775711492411739600,3.26673974609375,0.1888580322265625,-0.7236785888671875,0.7713775634765625
1775711492421752600,3.276752685546875,0.182708740234375,-0.7335968017578125,0.745208740234375
1775711492431766500,3.2867666015625,0.1788787841796875,-0.7384033203125,0.7390289306640625
1775711492441779700,3.29677978515625,0.1658935546875,-0.76019287109375,0.76165771484375
1775711492451792600,3.306792724609375,0.16571044921875,-0.772735595703125,0.77685546875
1775711492461805600,3.3168056640625,0.1469268798828125,-0.7774658203125,0.7642974853515625
1775711492471818800,3.32681884765625,0.1379547119140625,-0.775482177734375,0.736907958984375
1775711492481831400,3.33683154296875,0.1435089111328125,-0.7736968994140625,0.69915771484375
1775711492491844600,3.3468447265625,0.1481475830078125,-0.78436279296875,0.6561431884765625
1775711492501857500,3.356857421875,0.1641387939453125,-0.7794189453125,0.64581298828125
1775711492511870700,3.36687060546875,0.1392364501953125,-0.782073974609375,0.64715576171875
1775711492521883600,3.376883544921875,0.104156494140625,-0.7957611083984375,0.633209228515625
1775711492531896600,3.386896484375,0.07855224609375,-0.792572021484375,0.6041412353515625
1775711492541909800,3.39690966796875,0.082183837890625,-0.7929534912109375,0.569305419921875
1775711492551923500,3.40692333984375,0.1263275146484375,-0.7868499755859375,0.55596923828125
1775711492561936600,3.4169365234375,0.1586151123046875,-0.781524658203125,0.5572967529296875
1775711492571949800,3.42694970703125,0.177978515625,-0.787506103515625,0.5875701904296875
1775711492581962500,3.43696240234375,0.1654815673828125,-0.7887115478515625,0.6259002685546875
1775711492591975700,3.4469755859375,0.113494873046875,-0.811859130859375,0.64599609375
1775711492601988600,3.456988525390625,0.097015380859375,-0.813568115234375,0.643646240234375
1775711492612001500,3.46700146484375,0.074127197265625,-0.810455322265625,0.6428680419921875
1775711492622014500,3.477014404296875,0.0655364990234375,-0.8288726806640625,0.639251708984375
1775711492632027600,3.487027587890625,0.124114990234375,-0.830718994140625,0.633514404296875
1775711492642040800,3.497040771484375,0.171539306640625,-0.8099365234375,0.6337738037109375
1775711492652053500,3.507053466796875,0.181854248046875,-0.78656005859375,0.6526336669921875
1775711492662067700,3.517067626953125,0.1666107177734375,-0.766815185546875,0.649383544921875
1775711492672080600,3.52708056640625,0.1544647216796875,-0.749664306640625,0.6525421142578125
1775711492682093600,3.537093505859375,0.1161346435546875,-0.7205657958984375,0.672943115234375
1775711492692106800,3.547106689453125,0.0654449462890625,-0.714324951171875,0.68890380859375
1775711492702119700,3.55711962890625,0.0355072021484375,-0.744384765625,0.741851806640625
1775711492712132600,3.567132568359375,0.0018463134765625,-0.747283935546875,0.79119873046875
1775711492722145500,3.5771455078125,-0.046295166015625,-0.74359130859375,0.81640625
1775711492732158700,3.58715869140625,-0.0958099365234375,-0.7504730224609375,0.82440185546875
1775711492742171600,3.597171630859375,-0.1323394775390625,-0.7514190673828125,0.806243896484375
1775711492752184600,3.6071845703125,-0.12359619140625,-0.755340576171875,0.7950897216796875
1775711492762197800,3.61719775390625,-0.12957763671875,-0.7541046142578125,0.78515625
1775711492772210700,3.627210693359375,-0.1220550537109375,-0.765228271484375,0.776947021484375
1775711492782224600,3.637224609375,-0.10479736328125,-0.75482177734375,0.7806243896484375
1775711492792237600,3.647237548828125,-0.0953521728515625,-0.7390594482421875,0.7918548583984375
1775711492802250500,3.65725048828125,-0.084625244140625,-0.7539520263671875,0.7668304443359375
1775711492812263700,3.667263671875,-0.0712432861328125,-0.7596435546875,0.7486114501953125
1775711492822276600,3.677276611328125,-0.0517730712890625,-0.7608489990234375,0.7473602294921875
1775711492832289800,3.687289794921875,-0.0303497314453125,-0.7603912353515625,0.755279541015625
1775711492842302500,3.697302490234375,-0.0105133056640625,-0.744415283203125,0.7575836181640625
1775711492852315600,3.707315673828125,0.0345611572265625,-0.733978271484375,0.735382080078125
1775711492862328600,3.71732861328125,0.0662994384765625,-0.7187042236328125,0.701629638671875
1775711492872341800,3.727341796875,0.078399658203125,-0.6899566650390625,0.639007568359375
1775711492882354700,3.737354736328125,0.06622314453125,-0.664703369140625,0.6471405029296875
1775711492892368600,3.74736865234375,0.04718017578125,-0.650054931640625,0.6632843017578125
1775711492902381600,3.757381591796875,0.037200927734375,-0.6566314697265625,0.6726837158203125
1775711492912394500,3.76739453125,0.029388427734375,-0.6576690673828125,0.6639251708984375
1775711492922407700,3.77740771484375,0.0225677490234375,-0.650848388671875,0.6639251708984375
1775711492932420600,3.787420654296875,-0.0008392333984375,-0.6451416015625,0.678955078125
1775711492942433500,3.79743359375,-0.0326080322265625,-0.6375732421875,0.6958770751953125
1775711492952446700,3.80744677734375,-0.0421905517578125,-0.6444244384765625,0.7230377197265625
1775711492962459600,3.817459716796875,-0.0647430419921875,-0.6507720947265625,0.7536468505859375
1775711492972472600,3.82747265625,-0.10546875,-0.68096923828125,0.7863922119140625
1775711492982485500,3.837485595703125,-0.1180419921875,-0.7243804931640625,0.8203582763671875
1775711492992498700,3.847498779296875,-0.1061553955078125,-0.7284393310546875,0.8269500732421875
1775711493002511600,3.85751171875,-0.0904541015625,-0.732147216796875,0.8097381591796875
1775711493012525600,3.867525634765625,-0.060302734375,-0.71624755859375,0.7966461181640625
1775711493022538800,3.877538818359375,-0.01556396484375,-0.7007293701171875,0.765869140625
1775711493032551400,3.887551513671875,0.0337066650390625,-0.688385009765625,0.7509613037109375
1775711493042564600,3.897564697265625,0.0531463623046875,-0.661773681640625,0.7779541015625
1775711493052577800,3.907577880859375,0.0404815673828125,-0.6708526611328125,0.8106536865234375
1775711493062590700,3.9175908203125,0.018524169921875,-0.683135986328125,0.846527099609375
1775711493072603600,3.927603759765625,-0.015472412109375,-0.7071533203125,0.8911590576171875
1775711493082616600,3.937616455078125,-0.016693115234375,-0.71612548828125,0.8880767822265625
1775711493092629800,3.947629638671875,0.0074920654296875,-0.72052001953125,0.8812103271484375
1775711493102642400,3.957642333984375,0.049774169921875,-0.7269744873046875,0.873260498046875
1775711493112655600,3.967655517578125,0.0760955810546875,-0.7231292724609375,0.84454345703125
1775711493122669800,3.977669921875,0.0891876220703125,-0.715362548828125,0.7960357666015625
1775711493132682500,3.9876826171875,0.08026123046875,-0.712188720703125,0.7642364501953125
1775711493142695700,3.99769580078125,0.053497314453125,-0.734710693359375,0.74530029296875
1775711493152708600,4.00770849609375,0.050140380859375,-0.7653656005859375,0.7256622314453125
1775711493162721500,4.017721435546875,0.0510711669921875,-0.79376220703125,0.734832763671875
1775711493172734500,4.027734375,0.0592041015625,-0.8186187744140625,0.760772705078125
1775711493182747600,4.03774755859375,0.063568115234375,-0.8257904052734375,0.79254150390625
1775711493192760800,4.0477607421875,0.0565032958984375,-0.8397674560546875,0.837249755859375
1775711493202773500,4.0577734375,0.0476837158203125,-0.8309173583984375,0.874481201171875
1775711493212786700,4.06778662109375,0.0521697998046875,-0.8034820556640625,0.9073638916015625
1775711493222799600,4.077799560546875,0.0577392578125,-0.8014678955078125,0.9409637451171875
1775711493232812500,4.0878125,0.070404052734375,-0.8005218505859375,0.97406005859375
1775711493242826800,4.09782666015625,0.0888214111328125,-0.797149658203125,0.9916534423828125
1775711493252839700,4.107839599609375,0.1181182861328125,-0.793060302734375,0.978973388671875
1775711493262852600,4.1178525390625,0.17230224609375,-0.791717529296875,0.9154205322265625
1775711493272865500,4.127865478515625,0.2653961181640625,-0.7855224609375,0.8289794921875
1775711493282878700,4.137878662109375,0.33941650390625,-0.7700042724609375,0.763702392578125
1775711493292891400,4.147891357421875,0.367340087890625,-0.741973876953125,0.7205352783203125
1775711493302904600,4.157904541015625,0.3401947021484375,-0.718109130859375,0.7062530517578125
1775711493312917800,4.167917724609375,0.28765869140625,-0.7132568359375,0.7228546142578125
1775711493322930700,4.1779306640625,0.2347869873046875,-0.70819091796875,0.741363525390625
1775711493332943600,4.187943603515625,0.1757354736328125,-0.7010498046875,0.765380859375
1775711493342956500,4.19795654296875,0.122802734375,-0.7105255126953125,0.802734375
1775711493352969700,4.2079697265625,0.0718536376953125,-0.7212066650390625,0.81719970703125
1775711493362983700,4.217983642578125,0.056640625,-0.7274169921875,0.8273162841796875
1775711493372996600,4.22799658203125,0.0652313232421875,-0.7285919189453125,0.83587646484375
1775711493383009800,4.238009765625,0.10205078125,-0.733367919921875,0.83172607421875
1775711493393022500,4.2480224609375,0.1566009521484375,-0.726776123046875,0.83404541015625
1775711493403035600,4.25803564453125,0.184906005859375,-0.716949462890625,0.8294525146484375
1775711493413048600,4.268048583984375,0.2032470703125,-0.694732666015625,0.792510986328125
1775711493423061500,4.2780615234375,0.20751953125,-0.6685333251953125,0.781219482421875
1775711493433074700,4.28807470703125,0.181121826171875,-0.662750244140625,0.8088226318359375
1775711493443087600,4.298087646484375,0.1288299560546875,-0.6651763916015625,0.857452392578125
1775711493453100800,4.308100830078125,0.0999603271484375,-0.677032470703125,0.8815460205078125
1775711493463113500,4.318113525390625,0.1109466552734375,-0.6779327392578125,0.891204833984375
1775711493473127700,4.328127685546875,0.1384735107421875,-0.6637115478515625,0.89324951171875
1775711493483140600,4.338140625,0.1713714599609375,-0.6523590087890625,0.882537841796875
1775711493493153500,4.348153564453125,0.1904449462890625,-0.6709136962890625,0.8756561279296875
1775711493503166700,4.358166748046875,0.1933441162109375,-0.6654052734375,0.85052490234375
1775711493513179600,4.3681796875,0.1846466064453125,-0.6336212158203125,0.824462890625
1775711493523192600,4.378192626953125,0.1861724853515625,-0.65679931640625,0.8167572021484375
1775711493533205500,4.38820556640625,0.2026214599609375,-0.6621246337890625,0.7752838134765625
1775711493543218700,4.39821875,0.2298583984375,-0.6397857666015625,0.7335357666015625
1775711493553231600,4.408231689453125,0.2266845703125,-0.641204833984375,0.7139129638671875
1775711493563244500,4.41824462890625,0.2010955810546875,-0.6369476318359375,0.708038330078125
1775711493573257700,4.4282578125,0.15985107421875,-0.63946533203125,0.7281951904296875
1775711493583270700,4.438270751953125,0.118072509765625,-0.6168212890625,0.7512054443359375
1775711493593284600,4.44828466796875,0.088287353515625,-0.624298095703125,0.7889251708984375
1775711493603297800,4.4582978515625,0.107147216796875,-0.648681640625,0.82855224609375
1775711493613310500,4.468310546875,0.1805419921875,-0.6295013427734375,0.8048553466796875
1775711493623323600,4.47832373046875,0.2468109130859375,-0.6135406494140625,0.7511138916015625
1775711493633336600,4.488336669921875,0.3101348876953125,-0.6182098388671875,0.724578857421875
1775711493643349800,4.498349853515625,0.3323822021484375,-0.625885009765625,0.71246337890625
1775711493653362400,4.508362548828125,0.308349609375,-0.622406005859375,0.7199249267578125
1775711493663375600,4.518375732421875,0.272186279296875,-0.6253204345703125,0.7347869873046875
1775711493673388800,4.528388916015625,0.2632293701171875,-0.6105194091796875,0.7394256591796875
1775711493683401500,4.5384013671875,0.2591400146484375,-0.5952606201171875,0.7542266845703125
1775711493693414700,4.54841455078125,0.2405853271484375,-0.584716796875,0.7671966552734375
1775711493703427600,4.558427490234375,0.2075042724609375,-0.5662994384765625,0.78521728515625
1775711493713441500,4.568441650390625,0.16436767578125,-0.558746337890625,0.8119659423828125
1775711493723454700,4.578454833984375,0.1495361328125,-0.5602569580078125,0.845458984375
1775711493733467600,4.588467529296875,0.1632843017578125,-0.5625152587890625,0.818267822265625
1775711493743480600,4.59848046875,0.22503662109375,-0.56805419921875,0.7487640380859375
1775711493753493500,4.608493408203125,0.271759033203125,-0.569091796875,0.699920654296875
1775711493763506700,4.618506591796875,0.2864837646484375,-0.5696258544921875,0.6814727783203125
1775711493773519600,4.62851953125,0.2852783203125,-0.5697174072265625,0.690460205078125
1775711493783532500,4.638532470703125,0.2662200927734375,-0.5600433349609375,0.70220947265625
1775711493793545700,4.648545654296875,0.24713134765625,-0.55548095703125,0.709503173828125
1775711493803558700,4.65855859375,0.2311248779296875,-0.5539398193359375,0.726165771484375
1775711493813571600,4.668571533203125,0.2080841064453125,-0.5617828369140625,0.7523651123046875
1775711493823584500,4.67858447265625,0.1712646484375,-0.56488037109375,0.771942138671875
1775711493833598700,4.6885986328125,0.124969482421875,-0.5611572265625,0.7885589599609375
1775711493843611600,4.698611572265625,0.0992279052734375,-0.558074951171875,0.7806243896484375
1775711493853624600,4.70862451171875,0.130889892578125,-0.5411529541015625,0.724365234375
1775711493863637800,4.7186376953125,0.17852783203125,-0.529388427734375,0.670684814453125
1775711493873650400,4.728650390625,0.214385986328125,-0.5378875732421875,0.6586761474609375
1775711493883663600,4.73866357421875,0.222076416015625,-0.5524749755859375,0.67376708984375
1775711493893676500,4.748676513671875,0.21978759765625,-0.5612945556640625,0.701904296875
1775711493903689700,4.758689697265625,0.2146148681640625,-0.5529022216796875,0.7261199951171875
1775711493913702700,4.76870263671875,0.2061614990234375,-0.55035400390625,0.7536468505859375
1775711493923715600,4.778715576171875,0.1987457275390625,-0.5412445068359375,0.777862548828125
1775711493933728800,4.788728759765625,0.178955078125,-0.5260772705078125,0.78546142578125
1775711493943742500,4.798742431640625,0.14190673828125,-0.522918701171875,0.781005859375
1775711493953755600,4.808755615234375,0.1175079345703125,-0.512054443359375,0.7741241455078125
1775711493963768800,4.818768798828125,0.1108551025390625,-0.5135650634765625,0.763519287109375
1775711493973781500,4.828781494140625,0.1052398681640625,-0.5116119384765625,0.757293701171875
1775711493983794700,4.838794677734375,0.097076416015625,-0.5114593505859375,0.7562255859375
1775711493993807600,4.8488076171875,0.10491943359375,-0.488250732421875,0.736907958984375
1775711494003820500,4.858820556640625,0.1128082275390625,-0.4766998291015625,0.736572265625
1775711494013833500,4.86883349609375,0.14111328125,-0.46331787109375,0.7344970703125
1775711494023846700,4.8788466796875,0.1638336181640625,-0.4542236328125,0.739288330078125
1775711494033859800,4.88885986328125,0.1976470947265625,-0.4634552001953125,0.759674072265625
1775711494043872500,4.89887255859375,0.2256927490234375,-0.45849609375,0.7862701416015625
1775711494053885700,4.9088857421875,0.2365570068359375,-0.4657135009765625,0.81817626953125
1775711494063899400,4.9188994140625,0.240203857421875,-0.4579620361328125,0.82415771484375
1775711494073912600,4.92891259765625,0.239471435546875,-0.445709228515625,0.8067169189453125
1775711494083925800,4.93892578125,0.2561492919921875,-0.4166412353515625,0.747344970703125
1775711494093938700,4.948938720703125,0.2510528564453125,-0.411651611328125,0.712005615234375
1775711494103951600,4.95895166015625,0.2588653564453125,-0.432952880859375,0.7053680419921875
1775711494113964500,4.968964599609375,0.2761993408203125,-0.4364776611328125,0.7006683349609375
1775711494123977700,4.978977783203125,0.271453857421875,-0.45001220703125,0.708984375
1775711494133990400,4.988990478515625,0.267425537109375,-0.4619903564453125,0.7089996337890625
1775711494144003600,4.999003662109375,0.2378082275390625,-0.4773406982421875,0.69537353515625
1775711494154016800,5.009016845703125,0.192169189453125,-0.4810333251953125,0.6593475341796875
1775711494164029700,5.01902978515625,0.1632537841796875,-0.4728240966796875,0.6226043701171875
1775711494174042600,5.029042724609375,0.15179443359375,-0.4741668701171875,0.5963134765625
1775711494184056600,5.039056640625,0.1493377685546875,-0.4742584228515625,0.58294677734375
1775711494194069500,5.049069580078125,0.1448516845703125,-0.4774627685546875,0.5939483642578125
1775711494204082700,5.059082763671875,0.1442413330078125,-0.481109619140625,0.6082763671875
1775711494214095600,5.069095703125,0.1477813720703125,-0.476287841796875,0.631591796875
1775711494224108800,5.07910888671875,0.165191650390625,-0.478973388671875,0.6762542724609375
1775711494234121500,5.08912158203125,0.202545166015625,-0.4780120849609375,0.72564697265625
1775711494244134700,5.099134765625,0.2399444580078125,-0.48431396484375,0.75830078125
1775711494254147600,5.109147705078125,0.28485107421875,-0.4904632568359375,0.7603759765625
1775711494264160500,5.119160400390625,0.30194091796875,-0.4924163818359375,0.750732421875
1775711494274173700,5.129173583984375,0.286834716796875,-0.4997711181640625,0.732940673828125
1775711494284186600,5.1391865234375,0.2622528076171875,-0.5117340087890625,0.7244110107421875
1775711494294199800,5.14919970703125,0.2275543212890625,-0.526580810546875,0.7257537841796875
1775711494304213500,5.159213623046875,0.2093048095703125,-0.5265350341796875,0.7383880615234375
1775711494314226700,5.169226806640625,0.19879150390625,-0.521575927734375,0.7643890380859375
1775711494324239600,5.179239501953125,0.1951141357421875,-0.52276611328125,0.796600341796875
1775711494334252500,5.18925244140625,0.195709228515625,-0.526611328125,0.8146514892578125
1775711494344265700,5.199265625,0.2044219970703125,-0.53594970703125,0.825927734375
1775711494354278700,5.209278564453125,0.23199462890625,-0.547027587890625,0.818115234375
1775711494364291600,5.21929150390625,0.2679290771484375,-0.5567626953125,0.810302734375
1775711494374304500,5.229304443359375,0.2869415283203125,-0.562957763671875,0.7890625
1775711494384317700,5.239317626953125,0.3026275634765625,-0.566192626953125,0.7754364013671875
1775711494394330600,5.24933056640625,0.2923431396484375,-0.5806121826171875,0.7869873046875
1775711494404343600,5.259343505859375,0.2926025390625,-0.5875701904296875,0.809539794921875
1775711494414356700,5.269356689453125,0.298675537109375,-0.591888427734375,0.817535400390625
1775711494424370400,5.279370361328125,0.2879180908203125,-0.5951385498046875,0.8031158447265625
1775711494434383600,5.289383544921875,0.2743988037109375,-0.6027984619140625,0.7806549072265625
1775711494444396800,5.299396728515625,0.2686004638671875,-0.611846923828125,0.7676849365234375
1775711494454409500,5.309409423828125,0.2586212158203125,-0.6120147705078125,0.773529052734375
1775711494464422700,5.319422607421875,0.26129150390625,-0.61126708984375,0.7960662841796875
1775711494474435600,5.329435546875,0.266357421875,-0.61102294921875,0.8137969970703125
1775711494484448800,5.33944873046875,0.2745819091796875,-0.603118896484375,0.8105621337890625
1775711494494461400,5.34946142578125,0.2767181396484375,-0.5948486328125,0.788543701171875
1775711494504474600,5.359474609375,0.273193359375,-0.5891876220703125,0.7600860595703125
1775711494514487600,5.369487548828125,0.275665283203125,-0.584228515625,0.745452880859375
1775711494524500700,5.379500732421875,0.27655029296875,-0.591094970703125,0.7602386474609375
1775711494534514700,5.3895146484375,0.2750091552734375,-0.595703125,0.7838897705078125
1775711494544527600,5.399527587890625,0.2638397216796875,-0.59942626953125,0.799835205078125
1775711494554540500,5.40954052734375,0.25543212890625,-0.6022796630859375,0.7936859130859375
1775711494564553500,5.419553466796875,0.25860595703125,-0.598541259765625,0.76898193359375
1775711494574566700,5.429566650390625,0.2484588623046875,-0.5912933349609375,0.7456817626953125
1775711494584579600,5.43957958984375,0.240814208984375,-0.5942230224609375,0.739532470703125
1775711494594592500,5.449592529296875,0.2425079345703125,-0.5920867919921875,0.7311248779296875
1775711494604605700,5.459605712890625,0.2289276123046875,-0.590484619140625,0.7301025390625
1775711494614618600,5.46961865234375,0.211517333984375,-0.59393310546875,0.7348175048828125
1775711494624631600,5.479631591796875,0.1988067626953125,-0.592254638671875,0.732666015625
1775711494634644500,5.48964453125,0.193023681640625,-0.5865631103515625,0.721527099609375
1775711494644657700,5.49965771484375,0.1912078857421875,-0.57904052734375,0.7178497314453125
1775711494654671600,5.509671630859375,0.1880340576171875,-0.5693511962890625,0.715484619140625
1775711494664684500,5.5196845703125,0.1921539306640625,-0.565399169921875,0.7123870849609375
1775711494674697700,5.52969775390625,0.2050628662109375,-0.563751220703125,0.7003021240234375
1775711494684710400,5.53971044921875,0.21282958984375,-0.5590362548828125,0.681610107421875
1775711494694723000,5.54972314453125,0.2097015380859375,-0.551544189453125,0.6767578125
1775711494704736300,5.559736328125,0.19854736328125,-0.533905029296875,0.6726837158203125
1775711494714749200,5.569749267578125,0.1962890625,-0.5150299072265625,0.643218994140625
1775711494724762000,5.57976220703125,0.2117462158203125,-0.4921722412109375,0.6139984130859375
1775711494734775300,5.589775390625,0.2284088134765625,-0.464141845703125,0.6001739501953125
1775711494744788200,5.599788330078125,0.2276763916015625,-0.4525299072265625,0.59576416015625
1775711494754801200,5.60980126953125,0.22552490234375,-0.4434356689453125,0.5943756103515625
1775711494764814000,5.61981396484375,0.2215576171875,-0.4281768798828125,0.592041015625
1775711494774828300,5.629828369140625,0.214691162109375,-0.424072265625,0.594146728515625
1775711494784841200,5.63984130859375,0.1962890625,-0.4105224609375,0.5784759521484375
1775711494794854100,5.649854248046875,0.1491241455078125,-0.399749755859375,0.5825042724609375
1775711494804867300,5.659867431640625,0.11181640625,-0.4033355712890625,0.610809326171875
1775711494814880300,5.66988037109375,0.1178436279296875,-0.4176025390625,0.61297607421875
1775711494824893200,5.67989306640625,0.1497802734375,-0.4313812255859375,0.595428466796875
1775711494834906000,5.689906005859375,0.217010498046875,-0.4532623291015625,0.6010284423828125
1775711494844919300,5.699919189453125,0.2612152099609375,-0.474578857421875,0.604217529296875
1775711494854932200,5.70993212890625,0.2648773193359375,-0.49737548828125,0.60760498046875
1775711494864945200,5.719945068359375,0.219024658203125,-0.514312744140625,0.5859375
1775711494874958300,5.729958251953125,0.1810150146484375,-0.517578125,0.56768798828125
1775711494884971300,5.73997119140625,0.13787841796875,-0.5115814208984375,0.575714111328125
1775711494894985200,5.749985107421875,0.100860595703125,-0.51739501953125,0.587066650390625
1775711494904998400,5.759998291015625,0.061614990234375,-0.5291748046875,0.619781494140625
1775711494915011000,5.770010986328125,0.0424652099609375,-0.52227783203125,0.6522369384765625
1775711494925024300,5.780024169921875,0.0481414794921875,-0.51776123046875,0.675567626953125
1775711494935037200,5.790037109375,0.063232421875,-0.516510009765625,0.688690185546875
1775711494945050000,5.800050048828125,0.1014251708984375,-0.5132904052734375,0.7031097412109375
1775711494955063000,5.81006298828125,0.160064697265625,-0.5210113525390625,0.698516845703125
1775711494965076200,5.820076171875,0.2228851318359375,-0.5173797607421875,0.6898956298828125
1775711494975089400,5.83008935546875,0.2788238525390625,-0.5344696044921875,0.7139129638671875
1775711494985102000,5.84010205078125,0.295196533203125,-0.5547027587890625,0.7640228271484375
1775711494995115300,5.850115234375,0.2825164794921875,-0.545379638671875,0.8274688720703125
1775711495005128200,5.860128173828125,0.2754058837890625,-0.55792236328125,0.858062744140625
1775711495015142100,5.87014208984375,0.2775726318359375,-0.57427978515625,0.86199951171875
1775711495025155300,5.8801552734375,0.2708282470703125,-0.565185546875,0.854827880859375
1775711495035168300,5.890168212890625,0.2850341796875,-0.5631866455078125,0.8356781005859375
1775711495045181200,5.90018115234375,0.2892913818359375,-0.5504608154296875,0.82537841796875
1775711495055194000,5.910194091796875,0.3003387451171875,-0.552978515625,0.82415771484375
1775711495065207300,5.920207275390625,0.3214569091796875,-0.564178466796875,0.8411712646484375
1775711495075220200,5.93022021484375,0.307220458984375,-0.590118408203125,0.88385009765625
1775711495085233200,5.940233154296875,0.2582855224609375,-0.6215667724609375,0.9195098876953125
1775711495095246300,5.950246337890625,0.219879150390625,-0.6465911865234375,0.9293060302734375
1775711495105259300,5.96025927734375,0.2266845703125,-0.6619720458984375,0.9253082275390625
1775711495115272200,5.970272216796875,0.2484130859375,-0.6538543701171875,0.8790435791015625
1775711495125285000,5.98028515625,0.2760772705078125,-0.6619873046875,0.8193511962890625
1775711495135299300,5.99029931640625,0.2753143310546875,-0.6857147216796875,0.789947509765625
1775711495145312300,6.000312255859375,0.2514495849609375,-0.6810760498046875,0.7677459716796875
1775711495155325200,6.0103251953125,0.25506591796875,-0.6692352294921875,0.7587432861328125
1775711495165338400,6.02033837890625,0.26025390625,-0.6610870361328125,0.7460479736328125
1775711495175351000,6.03035107421875,0.2470550537109375,-0.6533660888671875,0.749420166015625
1775711495185364200,6.0403642578125,0.2195281982421875,-0.655731201171875,0.7711334228515625
1775711495195377200,6.050377197265625,0.202850341796875,-0.659942626953125,0.786163330078125
1775711495205390300,6.060390380859375,0.2137451171875,-0.65631103515625,0.76654052734375
1775711495215403300,6.0704033203125,0.2752532958984375,-0.6764373779296875,0.755218505859375
1775711495225416200,6.080416259765625,0.320037841796875,-0.697723388671875,0.7583770751953125
1775711495235429400,6.090429443359375,0.3482666015625,-0.700836181640625,0.7645263671875
1775711495245442000,6.100442138671875,0.36474609375,-0.6941680908203125,0.747589111328125
1775711495255456300,6.110456298828125,0.382904052734375,-0.6771240234375,0.711212158203125
1775711495265469400,6.120469482421875,0.3679962158203125,-0.673614501953125,0.7098236083984375
1775711495275482000,6.130482177734375,0.3028106689453125,-0.6765289306640625,0.7372589111328125
1775711495285495300,6.140495361328125,0.213958740234375,-0.6735687255859375,0.7718048095703125
1775711495295508200,6.15050830078125,0.142303466796875,-0.6742706298828125,0.803314208984375
1775711495305521200,6.160521240234375,0.10107421875,-0.6690216064453125,0.8083038330078125
1775711495315534000,6.1705341796875,0.085784912109375,-0.65826416015625,0.779266357421875
1775711495325547300,6.18054736328125,0.10040283203125,-0.6675872802734375,0.74554443359375
1775711495335560200,6.190560302734375,0.1295623779296875,-0.676910400390625,0.7028350830078125
1775711495345573000,6.200572998046875,0.17401123046875,-0.670196533203125,0.669525146484375
1775711495355586300,6.21058642578125,0.2064208984375,-0.656280517578125,0.6433868408203125
1775711495365600000,6.22060009765625,0.2012176513671875,-0.654754638671875,0.622039794921875
1775711495375613200,6.23061328125,0.201873779296875,-0.6645355224609375,0.621490478515625
1775711495385626400,6.24062646484375,0.1744537353515625,-0.6793212890625,0.62799072265625
1775711495395639300,6.250639404296875,0.1551666259765625,-0.6951904296875,0.6569976806640625
1775711495405652200,6.26065234375,0.1357574462890625,-0.701934814453125,0.696868896484375
1775711495415665200,6.2706650390625,0.1146087646484375,-0.7081298828125,0.7374267578125
1775711495425678300,6.28067822265625,0.0805511474609375,-0.69940185546875,0.776397705078125
1775711495435691000,6.29069091796875,0.02447509765625,-0.6979827880859375,0.8193359375
1775711495445704200,6.3007041015625,-0.00482177734375,-0.697296142578125,0.8476104736328125
1775711495455717000,6.310717041015625,-0.022613525390625,-0.7050933837890625,0.8689422607421875
1775711495465730300,6.320730224609375,-0.031768798828125,-0.7236175537109375,0.8762969970703125
1775711495475743200,6.3307431640625,-0.0169525146484375,-0.7207794189453125,0.8535308837890625
1775711495485757200,6.340757080078125,-0.0007781982421875,-0.709747314453125,0.8135223388671875
1775711495495770000,6.35077001953125,0.0186309814453125,-0.7072296142578125,0.7674102783203125
1775711495505783300,6.360783203125,0.01861572265625,-0.71649169921875,0.751190185546875
1775711495515796200,6.370796142578125,0.00836181640625,-0.7460784912109375,0.758056640625
1775711495525809400,6.380809326171875,-0.002685546875,-0.769775390625,0.7535858154296875
1775711495535822000,6.390822021484375,-0.021240234375,-0.78802490234375,0.779083251953125
1775711495545835300,6.400835205078125,-0.04931640625,-0.7873992919921875,0.80828857421875
1775711495555848200,6.41084814453125,-0.0644683837890625,-0.7833404541015625,0.816497802734375
1775711495565861000,6.420861083984375,-0.0713958740234375,-0.7773895263671875,0.82916259765625
1775711495575874000,6.4308740234375,-0.072021484375,-0.766510009765625,0.8453216552734375
1775711495585887200,6.44088720703125,-0.0599365234375,-0.751617431640625,0.84698486328125
1775711495595900400,6.450900390625,-0.0532073974609375,-0.7324371337890625,0.8497467041015625
1775711495605914000,6.4609140625,-0.0608978271484375,-0.714263916015625,0.8500213623046875
1775711495615927300,6.47092724609375,-0.0379791259765625,-0.705841064453125,0.844970703125
1775711495625940000,6.48093994140625,-0.014404296875,-0.690277099609375,0.835968017578125
1775711495635953200,6.490953125,-0.011566162109375,-0.672149658203125,0.8360748291015625
1775711495645966300,6.50096630859375,-0.01690673828125,-0.652923583984375,0.843353271484375
1775711495655979300,6.510979248046875,-0.02099609375,-0.638916015625,0.85235595703125
1775711495665992200,6.5209921875,-0.0172271728515625,-0.6281280517578125,0.853973388671875
1775711495676005000,6.531005126953125,0.0188446044921875,-0.60919189453125,0.8563690185546875
1775711495686018300,6.541018310546875,0.061798095703125,-0.605438232421875,0.84283447265625
1775711495696031200,6.55103125,0.089019775390625,-0.6255035400390625,0.8203277587890625
1775711495706044400,6.56104443359375,0.1021881103515625,-0.641204833984375,0.8024139404296875
1775711495716057600,6.5710576171875,0.1241455078125,-0.65435791015625,0.785675048828125
1775711495726071300,6.5810712890625,0.153778076171875,-0.66815185546875,0.782928466796875
1775711495736084500,6.59108447265625,0.1776885986328125,-0.6774139404296875,0.7866363525390625
1775711495746097700,6.60109765625,0.1878662109375,-0.6800994873046875,0.7895355224609375
1775711495756110300,6.6111103515625,0.1726531982421875,-0.6831817626953125,0.7958526611328125
1775711495766123500,6.62112353515625,0.1525726318359375,-0.7000885009765625,0.79974365234375
1775711495776136400,6.631136474609375,0.1326751708984375,-0.7106170654296875,0.8042144775390625
1775711495786149400,6.6411494140625,0.1073760986328125,-0.7225799560546875,0.8331756591796875
1775711495796162300,6.651162353515625,0.084686279296875,-0.72637939453125,0.8577728271484375
1775711495806175500,6.661175537109375,0.0859375,-0.7441253662109375,0.858642578125
1775711495816188400,6.6711884765625,0.11712646484375,-0.7714080810546875,0.8456573486328125
1775711495826201300,6.681201416015625,0.1619415283203125,-0.783203125,0.81903076171875
1775711495836214500,6.691214599609375,0.1953887939453125,-0.7889404296875,0.80279541015625
1775711495846228500,6.701228515625,0.189208984375,-0.7903289794921875,0.7996063232421875
1775711495856241400,6.711241455078125,0.1676788330078125,-0.7929534912109375,0.8006591796875
1775711495866254600,6.721254638671875,0.14373779296875,-0.7992401123046875,0.8273162841796875
1775711495876267500,6.731267578125,0.09979248046875,-0.8136444091796875,0.87139892578125
1775711495886280400,6.741280517578125,0.0662841796875,-0.831756591796875,0.9175872802734375
1775711495896293400,6.75129345703125,0.043212890625,-0.8440704345703125,0.9563140869140625
1775711495906306600,6.761306640625,0.0646820068359375,-0.844818115234375,0.9675140380859375
1775711495916319500,6.771319580078125,0.1162261962890625,-0.8489227294921875,0.949981689453125
1775711495926332400,6.78133251953125,0.1514739990234375,-0.8513946533203125,0.924774169921875
1775711495936345300,6.791345458984375,0.175079345703125,-0.8413848876953125,0.925048828125
1775711495946358500,6.801358642578125,0.1941680908203125,-0.8276214599609375,0.9372711181640625
1775711495956371500,6.811371337890625,0.2204742431640625,-0.81103515625,0.9390106201171875
1775711495966385400,6.821385498046875,0.2617645263671875,-0.7921600341796875,0.92718505859375
1775711495976398600,6.831398681640625,0.3082733154296875,-0.7720947265625,0.899871826171875
1775711495986411300,6.841411376953125,0.332855224609375,-0.7475738525390625,0.872802734375
1775711495996424400,6.851424560546875,0.320526123046875,-0.7311553955078125,0.863433837890625
1775711496006437600,6.861437744140625,0.2910919189453125,-0.723724365234375,0.854827880859375
1775711496016450300,6.8714501953125,0.258270263671875,-0.70654296875,0.869476318359375
1775711496026463500,6.88146337890625,0.2125701904296875,-0.70465087890625,0.888580322265625
1775711496036476400,6.891476318359375,0.1763916015625,-0.69952392578125,0.8873443603515625
1775711496046489600,6.901489501953125,0.1614990234375,-0.6843414306640625,0.8792724609375
1775711496056502300,6.911502197265625,0.1542816162109375,-0.6690673828125,0.8703765869140625
1775711496066515500,6.921515380859375,0.163909912109375,-0.646575927734375,0.832794189453125
1775711496076528600,6.931528564453125,0.2014312744140625,-0.64404296875,0.7881927490234375
1775711496086542300,6.941542236328125,0.2310333251953125,-0.6420135498046875,0.7724456787109375
1775711496096555500,6.951555419921875,0.243865966796875,-0.631103515625,0.77459716796875
1775711496106568400,6.961568359375,0.233734130859375,-0.64068603515625,0.798553466796875
1775711496116581400,6.971581298828125,0.222137451171875,-0.6543731689453125,0.819244384765625
1775711496126594600,6.981594482421875,0.1987762451171875,-0.64190673828125,0.8274383544921875
1775711496136607500,6.991607421875,0.190521240234375,-0.639984130859375,0.845855712890625
1775711496146620400,7.001620361328125,0.1869659423828125,-0.6409759521484375,0.8516845703125
1775711496156633300,7.01163330078125,0.1904449462890625,-0.6271514892578125,0.8514251708984375
1775711496166646500,7.021646484375,0.188079833984375,-0.621429443359375,0.843231201171875
1775711496176659500,7.031659423828125,0.205841064453125,-0.619354248046875,0.81536865234375
1775711496186672400,7.04167236328125,0.217864990234375,-0.613800048828125,0.7785797119140625
1775711496196685600,7.051685546875,0.23443603515625,-0.6058807373046875,0.748321533203125
1775711496206699300,7.06169921875,0.262115478515625,-0.6048431396484375,0.69635009765625
1775711496216712400,7.07171240234375,0.30322265625,-0.6030120849609375,0.64569091796875
1775711496226725400,7.081725341796875,0.3298492431640625,-0.5924530029296875,0.6248931884765625
1775711496236738600,7.091738525390625,0.2928314208984375,-0.5953369140625,0.650360107421875
1775711496246751500,7.10175146484375,0.22039794921875,-0.6056671142578125,0.7114105224609375
1775711496256764400,7.111764404296875,0.1488037109375,-0.6104736328125,0.788543701171875
1775711496266777600,7.121777587890625,0.0945281982421875,-0.6147003173828125,0.8533782958984375
1775711496276790300,7.131790283203125,0.07000732421875,-0.5950927734375,0.8707733154296875
1775711496286803500,7.141803466796875,0.0671844482421875,-0.580230712890625,0.86968994140625
1775711496296816400,7.15181640625,0.091583251953125,-0.565460205078125,0.851837158203125
1775711496306829600,7.16182958984375,0.140777587890625,-0.5579376220703125,0.8258514404296875
1775711496316842500,7.171842529296875,0.1945037841796875,-0.560028076171875,0.78778076171875
1775711496326856400,7.1818564453125,0.244873046875,-0.5609588623046875,0.7659759521484375
1775711496336869400,7.191869384765625,0.274505615234375,-0.5643310546875,0.7560577392578125
1775711496346882300,7.20188232421875,0.2666015625,-0.553955078125,0.7458038330078125
1775711496356895500,7.2118955078125,0.2263946533203125,-0.54180908203125,0.7532196044921875
1775711496366908700,7.22190869140625,0.18731689453125,-0.545379638671875,0.7557525634765625
1775711496376921300,7.23192138671875,0.1561737060546875,-0.5440673828125,0.755889892578125
1775711496386934500,7.2419345703125,0.145751953125,-0.5588531494140625,0.77191162109375
1775711496396947500,7.251947509765625,0.1577301025390625,-0.572418212890625,0.7812652587890625
1775711496406960400,7.26196044921875,0.187530517578125,-0.56695556640625,0.77191162109375
1775711496416973300,7.271973388671875,0.2041473388671875,-0.5625762939453125,0.7604217529296875
1775711496426986500,7.281986572265625,0.2061309814453125,-0.5700836181640625,0.747894287109375
1775711496436999700,7.291999755859375,0.203704833984375,-0.5786285400390625,0.7445068359375
1775711496447013400,7.302013427734375,0.2081146240234375,-0.5748291015625,0.746337890625
1775711496457026600,7.312026611328125,0.208587646484375,-0.567718505859375,0.745147705078125
1775711496467039200,7.322039306640625,0.1878814697265625,-0.565765380859375,0.73443603515625
1775711496477052400,7.332052490234375,0.1674652099609375,-0.565399169921875,0.72314453125
1775711496487065600,7.342065673828125,0.1344451904296875,-0.5596923828125,0.7080841064453125
1775711496497078500,7.35207861328125,0.0942840576171875,-0.558197021484375,0.6973419189453125
1775711496507091500,7.362091552734375,0.0593719482421875,-0.5630645751953125,0.7257537841796875
1775711496517104400,7.3721044921875,0.0322265625,-0.558380126953125,0.77569580078125
1775711496527117600,7.38211767578125,0.038970947265625,-0.5474090576171875,0.7696685791015625
1775711496537130200,7.392130126953125,0.0591888427734375,-0.5340423583984375,0.7266387939453125
1775711496547143400,7.402143310546875,0.07830810546875,-0.537841796875,0.688690185546875
1775711496557156600,7.412156494140625,0.094635009765625,-0.547576904296875,0.6435546875
1775711496567170300,7.42217041015625,0.0997314453125,-0.5455474853515625,0.6134490966796875
1775711496577183500,7.43218359375,0.0878753662109375,-0.567535400390625,0.62432861328125
1775711496587196400,7.442196533203125,0.0846099853515625,-0.5776824951171875,0.644073486328125
1775711496597209300,7.452209228515625,0.06524658203125,-0.5633087158203125,0.661163330078125
1775711496607222500,7.462222412109375,0.045013427734375,-0.5604248046875,0.687774658203125
1775711496617235500,7.4722353515625,0.0290679931640625,-0.5511016845703125,0.71026611328125
1775711496627248600,7.48224853515625,0.0037689208984375,-0.528564453125,0.7312164306640625
1775711496637261300,7.49226123046875,0.0071563720703125,-0.50872802734375,0.7421722412109375
1775711496647274500,7.5022744140625,0.00946044921875,-0.500274658203125,0.736572265625
1775711496657287400,7.512287353515625,0.0282135009765625,-0.5007476806640625,0.732269287109375
1775711496667300400,7.52230029296875,0.0679473876953125,-0.50128173828125,0.726409912109375
1775711496677313500,7.5323134765625,0.072509765625,-0.5074920654296875,0.7165374755859375
1775711496687327500,7.542327392578125,0.06268310546875,-0.51458740234375,0.7046661376953125
1775711496697340200,7.552340087890625,0.0685882568359375,-0.5175933837890625,0.6928558349609375
1775711496707353300,7.562353271484375,0.06585693359375,-0.5101318359375,0.678680419921875
1775711496717366500,7.572366455078125,0.05670166015625,-0.4960479736328125,0.67816162109375
1775711496727379200,7.582379150390625,0.0215911865234375,-0.487579345703125,0.707977294921875
1775711496737392400,7.592392333984375,-0.0052032470703125,-0.4750213623046875,0.7593536376953125
1775711496747405300,7.6024052734375,-0.0012664794921875,-0.4698638916015625,0.7808685302734375
1775711496757418500,7.61241845703125,0.0151214599609375,-0.4609375,0.7789459228515625
1775711496767431200,7.62243115234375,0.037078857421875,-0.46588134765625,0.7736663818359375
1775711496777444400,7.6324443359375,0.099273681640625,-0.4776763916015625,0.7527618408203125
1775711496787457500,7.64245751953125,0.1329498291015625,-0.489898681640625,0.729034423828125
1775711496797470200,7.65247021484375,0.138092041015625,-0.510101318359375,0.717742919921875
1775711496807484400,7.662484375,0.1222686767578125,-0.51153564453125,0.700469970703125
1775711496817497300,7.672497314453125,0.0730438232421875,-0.51556396484375,0.6885986328125
1775711496827510300,7.68251025390625,0.0215911865234375,-0.5124053955078125,0.6900787353515625
1775711496837523500,7.6925234375,-0.0301361083984375,-0.500091552734375,0.725616455078125
1775711496847536400,7.702536376953125,-0.05743408203125,-0.5008544921875,0.7719879150390625
1775711496857549300,7.71254931640625,-0.037933349609375,-0.5004119873046875,0.7916717529296875
1775711496867562200,7.722562255859375,-0.0147857666015625,-0.511688232421875,0.7831878662109375
1775711496877575400,7.732575439453125,0.0156097412109375,-0.519561767578125,0.764068603515625
1775711496887588400,7.74258837890625,0.03851318359375,-0.5248565673828125,0.751373291015625
1775711496897601300,7.752601318359375,0.0726165771484375,-0.53204345703125,0.7511749267578125
1775711496907614500,7.762614501953125,0.115509033203125,-0.5455169677734375,0.7444610595703125
1775711496917627400,7.77262744140625,0.154876708984375,-0.5623321533203125,0.7326507568359375
1775711496927641300,7.782641357421875,0.1667327880859375,-0.57928466796875,0.7198944091796875
1775711496937654300,7.792654296875,0.1573028564453125,-0.588165283203125,0.70379638671875
1775711496947667500,7.80266748046875,0.1359405517578125,-0.572052001953125,0.6977386474609375
1775711496957680400,7.812680419921875,0.1088409423828125,-0.5729217529296875,0.735076904296875
1775711496967693300,7.822693359375,0.108917236328125,-0.5897369384765625,0.7671661376953125
1775711496977706500,7.83270654296875,0.13201904296875,-0.5967559814453125,0.7768402099609375
1775711496987719400,7.842719482421875,0.1612548828125,-0.6023101806640625,0.773345947265625
1775711496997732400,7.852732421875,0.177947998046875,-0.6077880859375,0.7635955810546875
1775711497007745300,7.862745361328125,0.173095703125,-0.6144561767578125,0.7588653564453125
1775711497017758500,7.872758544921875,0.156097412109375,-0.614837646484375,0.75396728515625
1775711497027771400,7.882771484375,0.13946533203125,-0.61627197265625,0.753997802734375
1775711497037784300,7.892784423828125,0.1222381591796875,-0.606353759765625,0.7522430419921875
1775711497047798300,7.90279833984375,0.1119537353515625,-0.585906982421875,0.7730560302734375
1775711497057811200,7.912811279296875,0.102783203125,-0.5815277099609375,0.8155975341796875
1775711497067824400,7.922824462890625,0.104644775390625,-0.57562255859375,0.835235595703125
1775711497077837600,7.932837646484375,0.1239166259765625,-0.5763702392578125,0.846771240234375
1775711497087850200,7.942850341796875,0.153839111328125,-0.5827789306640625,0.84039306640625
1775711497097863400,7.952863525390625,0.1872100830078125,-0.580596923828125,0.8296661376953125
1775711497107876400,7.96287646484375,0.209259033203125,-0.57470703125,0.824005126953125
1775711497117889300,7.97288916015625,0.212005615234375,-0.579742431640625,0.8355255126953125
1775711497127902200,7.982902099609375,0.1971282958984375,-0.583648681640625,0.85272216796875
1775711497137915400,7.992915283203125,0.1906280517578125,-0.581268310546875,0.8611602783203125
1775711497147928600,8.002928466796876,0.178741455078125,-0.5717010498046875,0.84417724609375
1775711497157941200,8.012941162109374,0.1629638671875,-0.565826416015625,0.821563720703125
1775711497167955500,8.02295556640625,0.1552276611328125,-0.57415771484375,0.8156890869140625
1775711497177968400,8.032968505859374,0.1497650146484375,-0.5824432373046875,0.80975341796875
1775711497187981300,8.042981201171875,0.1319732666015625,-0.596893310546875,0.8126068115234375
1775711497197994500,8.052994384765626,0.10833740234375,-0.6132659912109375,0.8082733154296875
1775711497208007400,8.06300732421875,0.1074676513671875,-0.612701416015625,0.78436279296875
1775711497218020400,8.073020263671875,0.1173858642578125,-0.60186767578125,0.74676513671875
1775711497228033300,8.083033203125,0.113922119140625,-0.596221923828125,0.7198486328125
1775711497238046500,8.09304638671875,0.1075286865234375,-0.59686279296875,0.7144622802734375
1775711497248059400,8.103059326171875,0.0985260009765625,-0.600372314453125,0.724517822265625
1775711497258072300,8.113072265625,0.094757080078125,-0.6076507568359375,0.745513916015625
1775711497268085500,8.12308544921875,0.09173583984375,-0.6104278564453125,0.757720947265625
1775711497278098400,8.133098388671876,0.099884033203125,-0.6033477783203125,0.7752838134765625
1775711497288112400,8.1431123046875,0.11859130859375,-0.608306884765625,0.7999114990234375
1775711497298125300,8.153125244140625,0.13671875,-0.6015167236328125,0.8063201904296875
1775711497308138500,8.163138427734374,0.151397705078125,-0.595184326171875,0.8018646240234375
1775711497318151400,8.1731513671875,0.1514892578125,-0.6009979248046875,0.790618896484375
1775711497328164400,8.183164306640625,0.14752197265625,-0.602508544921875,0.7815704345703125
1775711497338177500,8.193177490234374,0.1415252685546875,-0.597259521484375,0.77349853515625
1775711497348190200,8.203190185546875,0.1294097900390625,-0.5965728759765625,0.7697601318359375
1775711497358203400,8.213203369140626,0.118255615234375,-0.60089111328125,0.7693023681640625
1775711497368216300,8.22321630859375,0.1166839599609375,-0.599884033203125,0.764862060546875
1775711497378229500,8.2332294921875,0.1152496337890625,-0.58935546875,0.768096923828125
1775711497388242400,8.243242431640626,0.1031646728515625,-0.5919342041015625,0.78314208984375
1775711497398255400,8.25325537109375,0.0951080322265625,-0.6027374267578125,0.798797607421875
1775711497408269300,8.263269287109376,0.0913238525390625,-0.6112060546875,0.809967041015625
1775711497418282200,8.2732822265625,0.0986175537109375,-0.621307373046875,0.810028076171875
1775711497428295400,8.28329541015625,0.1108551025390625,-0.6201629638671875,0.7886505126953125
1775711497438308400,8.293308349609376,0.1160430908203125,-0.6143035888671875,0.7574462890625
1775711497448321300,8.3033212890625,0.117431640625,-0.6062469482421875,0.7336883544921875
1775711497458334500,8.31333447265625,0.109344482421875,-0.600830078125,0.7280120849609375
1775711497468347400,8.323347412109374,0.10247802734375,-0.59832763671875,0.7399139404296875
1775711497478360300,8.3333603515625,0.09722900390625,-0.6008758544921875,0.7600250244140625
1775711497488373200,8.343373291015626,0.09222412109375,-0.605560302734375,0.7708740234375
1775711497498386400,8.353386474609374,0.0983734130859375,-0.6098480224609375,0.7810516357421875
1775711497508399400,8.3633994140625,0.1161346435546875,-0.6132659912109375,0.7923126220703125
1775711497518412300,8.373412353515626,0.1532135009765625,-0.621002197265625,0.7983551025390625
1775711497528426500,8.383426513671875,0.18182373046875,-0.6209564208984375,0.7865753173828125
1775711497538439200,8.393439208984375,0.1885833740234375,-0.6196746826171875,0.7741851806640625
1775711497548452400,8.403452392578124,0.1828765869140625,-0.619354248046875,0.754669189453125
1775711497558465500,8.413465576171875,0.171478271484375,-0.615814208984375,0.74200439453125
1775711497568478500,8.423478515625,0.1584625244140625,-0.616546630859375,0.7522125244140625
1775711497578491400,8.433491455078125,0.1568756103515625,-0.6222991943359375,0.76708984375
1775711497588504300,8.44350439453125,0.1589508056640625,-0.62939453125,0.7654876708984375
1775711497598517500,8.453517578125,0.1558685302734375,-0.6369476318359375,0.75372314453125
1775711497608530200,8.4635302734375,0.1581878662109375,-0.6374359130859375,0.7332611083984375
1775711497618543400,8.47354345703125,0.158782958984375,-0.6338348388671875,0.720428466796875
1775711497628556300,8.483556396484374,0.1593475341796875,-0.630218505859375,0.723968505859375
1775711497638569500,8.493569580078125,0.1667938232421875,-0.626068115234375,0.739410400390625
1775711497648583400,8.50358349609375,0.181640625,-0.61834716796875,0.7524871826171875
1775711497658596400,8.513596435546875,0.200286865234375,-0.6191253662109375,0.755096435546875
1775711497668609300,8.523609375,0.210540771484375,-0.62353515625,0.7594451904296875
1775711497678622500,8.53362255859375,0.2014007568359375,-0.6322174072265625,0.755828857421875
1775711497688635400,8.543635498046875,0.1926727294921875,-0.6388702392578125,0.7476654052734375
1775711497698648600,8.553648681640626,0.17181396484375,-0.639190673828125,0.7338409423828125
1775711497708661500,8.56366162109375,0.157806396484375,-0.6311187744140625,0.7280731201171875
1775711497718674700,8.5736748046875,0.1480560302734375,-0.6260528564453125,0.7336578369140625
1775711497728687600,8.5836875,0.1506195068359375,-0.62310791015625,0.7421875
1775711497738700500,8.593700439453125,0.1661834716796875,-0.6184844970703125,0.7504119873046875
1775711497748713500,8.60371337890625,0.183197021484375,-0.61846923828125,0.7566070556640625
1775711497758726700,8.6137265625,0.194427490234375,-0.620147705078125,0.759185791015625
1775711497768740600,8.62374072265625,0.1911163330078125,-0.618682861328125,0.7513427734375
1775711497778753500,8.63375341796875,0.1757965087890625,-0.6199798583984375,0.74237060546875
1775711497788766700,8.6437666015625,0.1592864990234375,-0.6136932373046875,0.7274169921875
1775711497798779400,8.653779296875,0.1497802734375,-0.604705810546875,0.71185302734375
1775711497808792600,8.66379248046875,0.1425628662109375,-0.59100341796875,0.697906494140625
1775711497818805800,8.6738056640625,0.1226959228515625,-0.5784149169921875,0.682342529296875
1775711497828818400,8.683818359375,0.109222412109375,-0.5707855224609375,0.66900634765625
1775711497838831600,8.69383154296875,0.093597412109375,-0.5617523193359375,0.6461944580078125
1775711497848844500,8.703844482421875,0.0798492431640625,-0.554656982421875,0.631317138671875
1775711497858857700,8.713857666015626,0.0655059814453125,-0.551727294921875,0.6124114990234375
1775711497868870400,8.723870361328125,0.06365966796875,-0.543182373046875,0.5904693603515625
1775711497878883600,8.733883544921875,0.0758056640625,-0.5269622802734375,0.56634521484375
1775711497888897500,8.7438974609375,0.10400390625,-0.513153076171875,0.53070068359375
1775711497898910500,8.753910400390625,0.1141510009765625,-0.4961395263671875,0.495819091796875
1775711497908923600,8.763923583984376,0.1095733642578125,-0.484649658203125,0.47308349609375
1775711497918936600,8.7739365234375,0.1036376953125,-0.48516845703125,0.450469970703125
1775711497928949500,8.783949462890625,0.099456787109375,-0.4816131591796875,0.4635467529296875
1775711497938962400,8.79396240234375,0.102203369140625,-0.4669342041015625,0.5081787109375
1775711497948975600,8.8039755859375,0.108795166015625,-0.454315185546875,0.54412841796875
1775711497958988500,8.813988525390625,0.1226043701171875,-0.4328765869140625,0.5790557861328125
1775711497969001500,8.82400146484375,0.137664794921875,-0.4208984375,0.632659912109375
1775711497979014700,8.8340146484375,0.124114990234375,-0.40667724609375,0.6738128662109375
1775711497989027600,8.844027587890626,0.1288299560546875,-0.395660400390625,0.714691162109375
1775711497999040500,8.85404052734375,0.1144256591796875,-0.388336181640625,0.73236083984375
1775711498009054700,8.8640546875,0.086639404296875,-0.374267578125,0.7464752197265625
1775711498019067600,8.874067626953124,0.0655670166015625,-0.3995208740234375,0.7706451416015625
1775711498029080600,8.88408056640625,0.0250091552734375,-0.4231109619140625,0.7790069580078125
1775711498039093500,8.894093505859376,-0.0021820068359375,-0.4221343994140625,0.7840118408203125
1775711498049106700,8.904106689453124,-0.0113983154296875,-0.4335174560546875,0.780426025390625
1775711498059119400,8.914119384765625,-0.0198516845703125,-0.4360504150390625,0.756500244140625
1775711498069132500,8.924132568359376,-0.009765625,-0.433685302734375,0.7353363037109375
1775711498079145700,8.934145751953125,0.0016021728515625,-0.4344635009765625,0.7227325439453125
1775711498089158700,8.94415869140625,0.02679443359375,-0.456695556640625,0.713958740234375
1775711498099171600,8.954171630859374,0.08062744140625,-0.49212646484375,0.705841064453125
1775711498109184500,8.9641845703125,0.12677001953125,-0.519439697265625,0.694091796875
1775711498119197700,8.97419775390625,0.1527099609375,-0.5471343994140625,0.7023468017578125
1775711498129211600,8.984211669921875,0.17315673828125,-0.5583953857421875,0.7229461669921875
1775711498139224600,8.994224609375,0.1831512451171875,-0.5482025146484375,0.711334228515625
1775711498149237800,9.00423779296875,0.19903564453125,-0.574981689453125,0.7209930419921875
1775711498159250400,9.01425048828125,0.2045135498046875,-0.6155548095703125,0.7674102783203125
1775711498169263600,9.024263671875,0.1784210205078125,-0.637542724609375,0.7943572998046875
1775711498179276500,9.034276611328124,0.1456451416015625,-0.6841888427734375,0.8246917724609375
1775711498189289500,9.04428955078125,0.1315155029296875,-0.7225341796875,0.8451995849609375
1775711498199302700,9.054302734375,0.127899169921875,-0.7194366455078125,0.828125
1775711498209315600,9.064315673828125,0.163055419921875,-0.6930084228515625,0.8093719482421875
1775711498219328800,9.074328857421875,0.2010650634765625,-0.6715087890625,0.8080596923828125
1775711498229341400,9.084341552734376,0.224609375,-0.6720428466796875,0.837127685546875
1775711498239354600,9.094354736328125,0.2364044189453125,-0.679779052734375,0.88836669921875
1775711498249368600,9.10436865234375,0.2398223876953125,-0.6765594482421875,0.9212799072265625
1775711498259381500,9.114381591796874,0.230865478515625,-0.674530029296875,0.934661865234375
1775711498269394700,9.124394775390625,0.219482421875,-0.6842803955078125,0.9317474365234375
1775711498279407600,9.13440771484375,0.2030487060546875,-0.69549560546875,0.916534423828125
1775711498289420500,9.144420654296875,0.177581787109375,-0.6911773681640625,0.8962860107421875
1775711498299433500,9.15443359375,0.1442108154296875,-0.703460693359375,0.8873443603515625
1775711498309446700,9.16444677734375,0.1195220947265625,-0.735076904296875,0.8928375244140625
1775711498319459600,9.17445947265625,0.090667724609375,-0.749298095703125,0.886566162109375
1775711498329472500,9.184472412109375,0.0772857666015625,-0.7452545166015625,0.8743896484375
1775711498339485700,9.194485595703124,0.0768890380859375,-0.7300262451171875,0.837615966796875
1775711498349498600,9.20449853515625,0.1044158935546875,-0.724456787109375,0.7900390625
1775711498359511600,9.214511474609376,0.1549530029296875,-0.7106170654296875,0.7473297119140625
1775711498369525800,9.22452587890625,0.185089111328125,-0.6879425048828125,0.71783447265625
1775711498379538400,9.234538330078125,0.175933837890625,-0.6689910888671875,0.7205810546875
1775711498389551600,9.244551513671874,0.1463470458984375,-0.65850830078125,0.7419891357421875
1775711498399564500,9.254564453125,0.1330718994140625,-0.667236328125,0.7502593994140625
1775711498409577700,9.26457763671875,0.1332550048828125,-0.671966552734375,0.736236572265625
1775711498419590400,9.27459033203125,0.1382293701171875,-0.662200927734375,0.7132415771484375
1775711498429603600,9.284603515625,0.138458251953125,-0.6665191650390625,0.70025634765625
1775711498439616800,9.29461669921875,0.1146392822265625,-0.68365478515625,0.7116851806640625
1775711498449629400,9.30462939453125,0.0657501220703125,-0.69329833984375,0.7305908203125
1775711498459642600,9.314642578125,0.0232086181640625,-0.7089385986328125,0.75994873046875
1775711498469655600,9.324655517578124,0.0129547119140625,-0.718963623046875,0.778533935546875
1775711498479668700,9.334668701171875,0.0149993896484375,-0.711181640625,0.7774658203125
1775711498489682700,9.3446826171875,0.0255889892578125,-0.710601806640625,0.7817230224609375
1775711498499695600,9.354695556640625,0.0507659912109375,-0.7143402099609375,0.77520751953125
1775711498509708500,9.36470849609375,0.09417724609375,-0.7040557861328125,0.7707366943359375
1775711498519721500,9.374721435546874,0.1340179443359375,-0.7023468017578125,0.7614898681640625
1775711498529734700,9.384734619140625,0.180816650390625,-0.707733154296875,0.740814208984375
1775711498539747600,9.39474755859375,0.2281494140625,-0.707000732421875,0.7311248779296875
1775711498549760500,9.404760498046874,0.24212646484375,-0.7087249755859375,0.723663330078125
1775711498559773700,9.414773681640625,0.2179107666015625,-0.7170257568359375,0.7270660400390625
1775711498569786600,9.42478662109375,0.1556854248046875,-0.7243194580078125,0.754119873046875
1775711498579799600,9.434799560546875,0.0638275146484375,-0.7322998046875,0.784271240234375
1775711498589812500,9.4448125,-0.0166473388671875,-0.736724853515625,0.8075103759765625
1775711498599825700,9.45482568359375,-0.0769805908203125,-0.7426910400390625,0.816864013671875
1775711498609839600,9.464839599609375,-0.1259613037109375,-0.744476318359375,0.8140716552734375
1775711498619852500,9.4748525390625,-0.1588897705078125,-0.74267578125,0.7947845458984375
1775711498629865700,9.48486572265625,-0.1769866943359375,-0.7346343994140625,0.7656707763671875
1775711498639878400,9.49487841796875,-0.180267333984375,-0.736358642578125,0.7530059814453125
1775711498649891600,9.5048916015625,-0.185028076171875,-0.7394561767578125,0.7344512939453125
1775711498659904500,9.514904541015625,-0.1825714111328125,-0.742523193359375,0.72930908203125
1775711498669917700,9.524917724609375,-0.2037506103515625,-0.7475128173828125,0.7400665283203125
1775711498679930600,9.5349306640625,-0.23699951171875,-0.7513427734375,0.7675018310546875
1775711498689942800,9.54494287109375,-0.24749755859375,-0.7588348388671875,0.7972869873046875
1775711498699956000,9.5549560546875,-0.25128173828125,-0.765777587890625,0.816650390625
1775711498709969200,9.56496923828125,-0.2337646484375,-0.7655487060546875,0.841461181640625
1775711498719982800,9.57498291015625,-0.1883087158203125,-0.7602996826171875,0.8677978515625
1775711498729996000,9.58499609375,-0.1322021484375,-0.7581329345703125,0.875091552734375
1775711498740009000,9.595009033203125,-0.0686798095703125,-0.76220703125,0.8651123046875
1775711498750022000,9.60502197265625,0.015350341796875,-0.7629852294921875,0.8350830078125
1775711498760035000,9.61503515625,0.068206787109375,-0.760955810546875,0.800567626953125
1775711498770048000,9.625048095703125,0.0841522216796875,-0.7509002685546875,0.778350830078125
1775711498780061000,9.63506103515625,0.0815887451171875,-0.7366180419921875,0.7632904052734375
1775711498790073900,9.645073974609375,0.067138671875,-0.7255706787109375,0.7540283203125
1775711498800087000,9.655087158203125,0.070098876953125,-0.7121429443359375,0.73199462890625
1775711498810100000,9.665099853515626,0.0852813720703125,-0.70538330078125,0.7161712646484375
1775711498820113000,9.67511279296875,0.09295654296875,-0.6995391845703125,0.72381591796875
1775711498830126000,9.6851259765625,0.0902557373046875,-0.693603515625,0.7182464599609375
1775711498840139800,9.695139892578124,0.099853515625,-0.6901092529296875,0.72625732421875
1775711498850153000,9.705153076171875,0.109832763671875,-0.6855316162109375,0.737579345703125
1775711498860166000,9.715165771484376,0.126007080078125,-0.6754302978515625,0.7452850341796875
1775711498870178800,9.7251787109375,0.127716064453125,-0.6698455810546875,0.7560577392578125
1775711498880192000,9.73519189453125,0.12554931640625,-0.6656494140625,0.7649078369140625
1775711498890205000,9.745204833984374,0.1028289794921875,-0.6571807861328125,0.7717742919921875
1775711498900218000,9.755218017578125,0.08294677734375,-0.654693603515625,0.784942626953125
1775711498910230800,9.765230712890625,0.070281982421875,-0.659576416015625,0.8001708984375
1775711498920244000,9.775243896484374,0.071380615234375,-0.658782958984375,0.8137969970703125
1775711498930257000,9.7852568359375,0.0742950439453125,-0.6601104736328125,0.81646728515625
1775711498940269800,9.795269775390626,0.0813751220703125,-0.6652679443359375,0.8102264404296875
1775711498950283000,9.805282958984375,0.097869873046875,-0.677398681640625,0.7959747314453125
1775711498960297000,9.815296875,0.11688232421875,-0.687591552734375,0.786224365234375
1775711498970310000,9.825309814453124,0.1228179931640625,-0.691253662109375,0.7784576416015625
1775711498980322800,9.83532275390625,0.138580322265625,-0.6999053955078125,0.7706146240234375
1775711498990336000,9.8453359375,0.1615142822265625,-0.7034149169921875,0.7655487060546875
1775711499000349000,9.855348876953125,0.176727294921875,-0.696807861328125,0.751861572265625
1775711499010361900,9.86536181640625,0.1743011474609375,-0.694061279296875,0.750946044921875
1775711499020375000,9.875375,0.1514434814453125,-0.697052001953125,0.76593017578125
1775711499030388000,9.885387939453125,0.129364013671875,-0.6952667236328125,0.7762908935546875
1775711499040401000,9.89540087890625,0.1225128173828125,-0.685089111328125,0.7778472900390625
1775711499050413800,9.905413818359374,0.1169281005859375,-0.6799774169921875,0.7830657958984375
1775711499060427000,9.915427001953125,0.1259918212890625,-0.6747283935546875,0.789703369140625
1775711499070440000,9.92543994140625,0.1342315673828125,-0.6674957275390625,0.787689208984375
1775711499080454000,9.935453857421875,0.155609130859375,-0.663177490234375,0.7768096923828125
1775711499090467000,9.945467041015625,0.176116943359375,-0.656494140625,0.7577972412109375
1775711499100479700,9.955479736328124,0.1905975341796875,-0.652313232421875,0.7455291748046875
1775711499110493000,9.965492919921875,0.194732666015625,-0.650909423828125,0.734405517578125
1775711499120506000,9.975506103515626,0.1903228759765625,-0.6536102294921875,0.734619140625
1775711499130519000,9.98551904296875,0.1848907470703125,-0.6531219482421875,0.7387237548828125
1775711499140532000,9.995531982421875,0.1652984619140625,-0.6519622802734375,0.7457427978515625
1775711499150545000,10.005544921875,0.1440277099609375,-0.6546478271484375,0.749755859375
1775711499160558000,10.01555810546875,0.120086669921875,-0.6499786376953125,0.760528564453125
1775711499170570800,10.02557080078125,0.1007843017578125,-0.6500091552734375,0.7757568359375
1775711499180584000,10.035583984375,0.1041717529296875,-0.6522979736328125,0.781524658203125
1775711499190597000,10.04559716796875,0.1204986572265625,-0.6508331298828125,0.7798309326171875
1775711499200610800,10.05561083984375,0.1389617919921875,-0.653045654296875,0.7774658203125
1775711499210624000,10.0656240234375,0.1498870849609375,-0.6566619873046875,0.7729034423828125
1775711499220637000,10.075636962890625,0.159088134765625,-0.66632080078125,0.783111572265625
1775711499230649900,10.08564990234375,0.1677093505859375,-0.6817626953125,0.80096435546875
1775711499240663000,10.0956630859375,0.16949462890625,-0.689788818359375,0.8090362548828125
1775711499250676000,10.105676025390625,0.1688690185546875,-0.70166015625,0.8246917724609375
1775711499260689000,10.11568896484375,0.1562957763671875,-0.715423583984375,0.851593017578125
1775711499270701800,10.125701904296875,0.129180908203125,-0.72088623046875,0.8877716064453125
1775711499280715000,10.135715087890626,0.0954437255859375,-0.728302001953125,0.9276275634765625
1775711499290728000,10.14572802734375,0.0679931640625,-0.729888916015625,0.962554931640625
1775711499300740900,10.155740966796875,0.0588226318359375,-0.7364654541015625,0.98419189453125
1775711499310754000,10.165754150390624,0.0620880126953125,-0.7366943359375,1.0003204345703125
1775711499320768000,10.17576806640625,0.076507568359375,-0.7279052734375,1.02081298828125
1775711499330781000,10.185781005859376,0.09234619140625,-0.7223663330078125,1.0340728759765625
1775711499340793900,10.1957939453125,0.1011962890625,-0.709442138671875,1.032470703125
1775711499350807000,10.20580712890625,0.10528564453125,-0.6922760009765625,1.0225067138671875
1775711499360820000,10.215820068359376,0.1109161376953125,-0.6690216064453125,1.0083465576171875
1775711499370833000,10.2258330078125,0.1216888427734375,-0.6435699462890625,0.975921630859375
1775711499380846000,10.23584619140625,0.12628173828125,-0.6330413818359375,0.935302734375
1775711499390859000,10.24585888671875,0.1260223388671875,-0.626190185546875,0.89703369140625
1775711499400872000,10.255871826171875,0.1151885986328125,-0.6145782470703125,0.8983306884765625
1775711499410884900,10.265884765625,0.102508544921875,-0.6141357421875,0.9024810791015625
1775711499420898000,10.27589794921875,0.109466552734375,-0.6218719482421875,0.889801025390625
1775711499430912000,10.285912109375,0.1285552978515625,-0.6307525634765625,0.87811279296875
1775711499440925000,10.295925048828124,0.1725616455078125,-0.6282806396484375,0.859527587890625
1775711499450938000,10.305938232421875,0.226898193359375,-0.6312713623046875,0.845977783203125
1775711499460950800,10.31595068359375,0.279266357421875,-0.6407928466796875,0.830291748046875
1775711499470964000,10.3259638671875,0.3308258056640625,-0.647674560546875,0.822998046875
1775711499480977200,10.33597705078125,0.3688507080078125,-0.6488494873046875,0.817169189453125
1775711499490989800,10.34598974609375,0.3939208984375,-0.6533203125,0.815399169921875
1775711499501003000,10.3560029296875,0.417083740234375,-0.654052734375,0.80712890625
1775711499511016000,10.366015869140625,0.414276123046875,-0.650390625,0.8087615966796875
1775711499521029000,10.376029052734374,0.3911895751953125,-0.6567535400390625,0.8167877197265625
1775711499531041800,10.386041748046875,0.3604583740234375,-0.655181884765625,0.81011962890625
1775711499541055000,10.396054931640625,0.3321380615234375,-0.636810302734375,0.806884765625
1775711499551069000,10.40606884765625,0.3037109375,-0.6258697509765625,0.8231964111328125
1775711499561081900,10.416081787109375,0.30133056640625,-0.617340087890625,0.8217926025390625
1775711499571095000,10.426094970703126,0.3185577392578125,-0.6028900146484375,0.80975341796875
1775711499581108000,10.43610791015625,0.32464599609375,-0.5906219482421875,0.795928955078125
1775711499591121000,10.446120849609375,0.344146728515625,-0.5812225341796875,0.7731475830078125
1775711499601134000,10.456134033203124,0.37371826171875,-0.5702972412109375,0.753753662109375
1775711499611147000,10.46614697265625,0.38916015625,-0.5645294189453125,0.7501220703125
1775711499621160000,10.476159912109376,0.39141845703125,-0.5727081298828125,0.7472076416015625
1775711499631172900,10.4861728515625,0.3729248046875,-0.5679473876953125,0.7391357421875
1775711499641186000,10.49618603515625,0.3350830078125,-0.5612335205078125,0.7516326904296875
1775711499651199000,10.506198974609376,0.2713775634765625,-0.5621185302734375,0.7814483642578125
1775711499661212000,10.5162119140625,0.19427490234375,-0.5526123046875,0.8204345703125
1775711499671226000,10.52622607421875,0.159881591796875,-0.5385894775390625,0.839752197265625
1775711499681238800,10.53623876953125,0.1605072021484375,-0.5306854248046875,0.83575439453125
1775711499691252700,10.546252685546875,0.18035888671875,-0.5319976806640625,0.815216064453125
1775711499701266000,10.556265869140624,0.2237701416015625,-0.5436553955078125,0.78143310546875
1775711499711278600,10.566278564453125,0.2693939208984375,-0.544586181640625,0.742919921875
1775711499721291800,10.576291748046875,0.2896270751953125,-0.5330657958984375,0.7120513916015625
1775711499731304700,10.5863046875,0.2829132080078125,-0.5399322509765625,0.7111663818359375
1775711499741317600,10.596317626953125,0.247955322265625,-0.5451507568359375,0.7326507568359375
1775711499751330600,10.60633056640625,0.200439453125,-0.5370330810546875,0.756256103515625
1775711499761343700,10.61634375,0.1605987548828125,-0.5311737060546875,0.767791748046875
1775711499771356700,10.626356689453125,0.1162261962890625,-0.5223846435546875,0.8017730712890625
1775711499781369600,10.63636962890625,0.0809326171875,-0.5128326416015625,0.8552703857421875
1775711499791383800,10.6463837890625,0.0956878662109375,-0.5157318115234375,0.8504638671875
1775711499801396700,10.656396728515626,0.13641357421875,-0.5171356201171875,0.8121337890625
1775711499811409700,10.66640966796875,0.196502685546875,-0.5233154296875,0.7744598388671875
1775711499821422800,10.6764228515625,0.239166259765625,-0.540313720703125,0.7503204345703125
1775711499831435800,10.686435791015626,0.246337890625,-0.552093505859375,0.750244140625
1775711499841448700,10.69644873046875,0.233001708984375,-0.555419921875,0.7610015869140625
1775711499851461600,10.706461669921875,0.2137908935546875,-0.553070068359375,0.766815185546875
1775711499861474800,10.716474853515624,0.1905364990234375,-0.5504608154296875,0.7650146484375
1775711499871487700,10.72648779296875,0.156982421875,-0.549530029296875,0.7672576904296875
1775711499881500700,10.736500732421876,0.125701904296875,-0.54071044921875,0.7570343017578125
1775711499891513600,10.746513671875,0.0901947021484375,-0.52923583984375,0.7482452392578125
1775711499901526800,10.75652685546875,0.0424346923828125,-0.5356903076171875,0.759918212890625
1775711499911540700,10.766540771484374,0.0208740234375,-0.55035400390625,0.75750732421875
1775711499921553700,10.7765537109375,0.021240234375,-0.5508270263671875,0.7429351806640625
1775711499931566600,10.786566650390625,0.03631591796875,-0.561920166015625,0.7316131591796875
1775711499941579800,10.796579833984374,0.064422607421875,-0.5690460205078125,0.7266845703125
1775711499951592700,10.8065927734375,0.0738067626953125,-0.5778350830078125,0.732635498046875
1775711499961606000,10.81660595703125,0.0634307861328125,-0.5931549072265625,0.750518798828125
1775711499971618600,10.82661865234375,0.064453125,-0.5867156982421875,0.757293701171875
1775711499981631700,10.8366318359375,0.0630035400390625,-0.5789794921875,0.7592315673828125
1775711499991644700,10.846644775390626,0.075408935546875,-0.5724334716796875,0.7458038330078125
1775711500001657600,10.85665771484375,0.0911865234375,-0.568359375,0.7223968505859375
1775711500011670500,10.86667041015625,0.08282470703125,-0.55902099609375,0.713470458984375
1775711500021683700,10.87668359375,0.07373046875,-0.558685302734375,0.7171783447265625
1775711500031697700,10.88669775390625,0.055999755859375,-0.5756683349609375,0.7234954833984375
1775711500041710600,10.896710693359376,0.0583343505859375,-0.5757904052734375,0.72784423828125
1775711500051723800,10.906723876953125,0.0718536376953125,-0.58160400390625,0.733642578125
1775711500061736700,10.91673681640625,0.065826416015625,-0.5899810791015625,0.727294921875
1775711500071749600,10.92674951171875,0.0674896240234375,-0.5878753662109375,0.712310791015625
1775711500081762800,10.9367626953125,0.0606842041015625,-0.596160888671875,0.705230712890625
1775711500091775700,10.946775634765626,0.0427093505859375,-0.5924835205078125,0.706329345703125
1775711500101788700,10.95678857421875,0.02374267578125,-0.5950775146484375,0.722747802734375
1775711500111801600,10.966801513671875,0.0114593505859375,-0.5852203369140625,0.7246246337890625
1775711500121814800,10.976814697265626,-0.0059051513671875,-0.579742431640625,0.7133331298828125
1775711500131827700,10.98682763671875,-0.0136566162109375,-0.5821990966796875,0.7067413330078125
1775711500141840600,10.996840576171875,-0.014892578125,-0.58062744140625,0.70330810546875
1775711500151854800,11.006854736328124,-0.014190673828125,-0.5856781005859375,0.7117462158203125
1775711500161867500,11.016867431640625,0.0021820068359375,-0.5826263427734375,0.73626708984375
1775711500171880700,11.026880615234376,0.0092010498046875,-0.580047607421875,0.7573699951171875
1775711500181893600,11.0368935546875,0.019744873046875,-0.5705413818359375,0.751678466796875
1775711500191906800,11.04690673828125,0.032867431640625,-0.575531005859375,0.7529144287109375
1775711500201919700,11.056919677734374,0.0526275634765625,-0.56365966796875,0.73883056640625
1775711500211932700,11.0669326171875,0.0877838134765625,-0.524810791015625,0.7230072021484375
1775711500221945900,11.07694580078125,0.092926025390625,-0.523406982421875,0.7444000244140625
1775711500231958500,11.08695849609375,0.098846435546875,-0.5146026611328125,0.759765625
1775711500241971700,11.0969716796875,0.0789337158203125,-0.5150299072265625,0.783447265625
1775711500251984600,11.106984619140626,0.0535125732421875,-0.5202484130859375,0.79803466796875
1775711500261997800,11.116997802734375,0.052215576171875,-0.5079498291015625,0.7886962890625
1775711500272011800,11.12701171875,0.0490570068359375,-0.504119873046875,0.7704620361328125
1775711500282024700,11.137024658203124,0.0493316650390625,-0.512359619140625,0.7523651123046875
1775711500292037600,11.14703759765625,0.0869293212890625,-0.49542236328125,0.7187957763671875
1775711500302050600,11.157050537109376,0.089752197265625,-0.5049285888671875,0.704925537109375
1775711500312063700,11.167063720703124,0.0812835693359375,-0.51556396484375,0.712982177734375
1775711500322076700,11.17707666015625,0.110382080078125,-0.5096282958984375,0.71160888671875
1775711500332089600,11.187089599609376,0.116546630859375,-0.522552490234375,0.7145233154296875
1775711500342102800,11.197102783203125,0.11663818359375,-0.5398101806640625,0.71240234375
1775711500352115700,11.20711572265625,0.1347503662109375,-0.5504608154296875,0.7147674560546875
1775711500362128600,11.217128662109374,0.1222076416015625,-0.5643463134765625,0.71588134765625
1775711500372141600,11.2271416015625,0.1089324951171875,-0.5740203857421875,0.707366943359375
1775711500382154800,11.23715478515625,0.09381103515625,-0.5782470703125,0.69586181640625
1775711500392168700,11.247168701171875,0.0743408203125,-0.580078125,0.6822967529296875
1775711500402181600,11.257181640625,0.0634307861328125,-0.5789794921875,0.66656494140625
1775711500412194800,11.26719482421875,0.05419921875,-0.5764617919921875,0.6593780517578125
1775711500422207500,11.27720751953125,0.0344696044921875,-0.584136962890625,0.66650390625
1775711500432220700,11.287220703125,0.020782470703125,-0.601776123046875,0.6773529052734375
1775711500442233900,11.29723388671875,0.0238037109375,-0.60845947265625,0.68585205078125
1775711500452246800,11.307246826171875,0.0299530029296875,-0.616119384765625,0.6988677978515625
1775711500462259700,11.317259765625,0.061614990234375,-0.6109161376953125,0.70220947265625
1775711500472272600,11.327272705078125,0.08392333984375,-0.6082000732421875,0.703460693359375
1775711500482285800,11.337285888671875,0.081146240234375,-0.6200103759765625,0.715728759765625
1775711500492298500,11.347298583984376,0.074310302734375,-0.6261749267578125,0.7213287353515625
1775711500502311700,11.357311767578125,0.061614990234375,-0.6287384033203125,0.71893310546875
1775711500512326000,11.367325927734376,0.05218505859375,-0.6303863525390625,0.7169647216796875
1775711500522338600,11.377338623046874,0.069122314453125,-0.6251373291015625,0.716278076171875
1775711500532351700,11.387351806640625,0.097686767578125,-0.628143310546875,0.726654052734375
1775711500542364700,11.39736474609375,0.119293212890625,-0.6307220458984375,0.74835205078125
1775711500552377600,11.407377685546875,0.130615234375,-0.6421356201171875,0.771209716796875
1775711500562390800,11.417390869140625,0.1265869140625,-0.6475677490234375,0.77972412109375
1775711500572403700,11.42740380859375,0.12591552734375,-0.6535797119140625,0.7817535400390625
1775711500582417000,11.4374169921875,0.13861083984375,-0.6600189208984375,0.7713775634765625
1775711500592429600,11.4474296875,0.152984619140625,-0.6538543701171875,0.765350341796875
1775711500602442800,11.45744287109375,0.1551513671875,-0.650115966796875,0.767242431640625
1775711500612455700,11.46745556640625,0.152862548828125,-0.6531524658203125,0.7761077880859375
1775711500622468600,11.477468505859376,0.1531982421875,-0.6543426513671875,0.7774200439453125
1775711500632482800,11.48748291015625,0.1432952880859375,-0.6541595458984375,0.762542724609375
1775711500642495700,11.497495849609376,0.1384735107421875,-0.65911865234375,0.755401611328125
1775711500652508700,11.5075087890625,0.1340789794921875,-0.666900634765625,0.753997802734375
1775711500662521600,11.517521484375,0.1343841552734375,-0.6731109619140625,0.7614593505859375
1775711500672534800,11.52753466796875,0.1312103271484375,-0.6704559326171875,0.764312744140625
1775711500682547700,11.537547607421875,0.1356964111328125,-0.66650390625,0.7640533447265625
1775711500692560600,11.547560546875,0.1431121826171875,-0.6676177978515625,0.7633819580078125
1775711500702573600,11.557573486328126,0.1421661376953125,-0.66241455078125,0.7511138916015625
1775711500712586800,11.567586669921875,0.1359710693359375,-0.6643829345703125,0.7226409912109375
1775711500722599400,11.577599365234375,0.1195526123046875,-0.6734771728515625,0.6915435791015625
1775711500732612600,11.587612548828124,0.1126251220703125,-0.673553466796875,0.6757659912109375
1775711500742625800,11.597625732421875,0.12799072265625,-0.666900634765625,0.6771087646484375
1775711500752639500,11.607639404296876,0.1365814208984375,-0.666351318359375,0.7026824951171875
1775711500762652700,11.617652587890625,0.1484222412109375,-0.661041259765625,0.720550537109375
1775711500772665600,11.62766552734375,0.160186767578125,-0.654449462890625,0.7305450439453125
1775711500782678500,11.637678466796874,0.164703369140625,-0.653411865234375,0.7382354736328125
1775711500792691700,11.647691650390625,0.160064697265625,-0.6626434326171875,0.7413177490234375
1775711500802704600,11.65770458984375,0.1499481201171875,-0.66656494140625,0.7331390380859375
1775711500812717600,11.667717529296874,0.14312744140625,-0.6701812744140625,0.7187957763671875
1775711500822730500,11.67773046875,0.134002685546875,-0.6649627685546875,0.707550048828125
1775711500832743700,11.68774365234375,0.1284332275390625,-0.655914306640625,0.71063232421875
1775711500842756600,11.697756591796875,0.123382568359375,-0.6414337158203125,0.7176055908203125
1775711500852769500,11.70776953125,0.123748779296875,-0.6350860595703125,0.742584228515625
1775711500862782700,11.71778271484375,0.1240997314453125,-0.6381072998046875,0.7673797607421875
1775711500872796400,11.72779638671875,0.1225433349609375,-0.63916015625,0.7765655517578125
1775711500882809600,11.7378095703125,0.1205902099609375,-0.6507568359375,0.7769927978515625
1775711500892822500,11.747822509765625,0.12078857421875,-0.6562652587890625,0.757232666015625
1775711500902835700,11.757835693359375,0.13232421875,-0.6522369384765625,0.7346954345703125
1775711500912848600,11.7678486328125,0.135955810546875,-0.6559906005859375,0.7315216064453125
1775711500922861600,11.777861572265625,0.13043212890625,-0.656005859375,0.7327117919921875
1775711500932874800,11.787874755859375,0.1214447021484375,-0.6555023193359375,0.7293701171875
1775711500942887400,11.797887451171874,0.107025146484375,-0.6575775146484375,0.72637939453125
1775711500952900600,11.807900634765625,0.0951690673828125,-0.6516571044921875,0.72076416015625
1775711500962913500,11.81791357421875,0.084686279296875,-0.6526641845703125,0.719512939453125
1775711500972926700,11.8279267578125,0.0920562744140625,-0.6597137451171875,0.7255706787109375
1775711500982939600,11.837939697265625,0.0983428955078125,-0.6616973876953125,0.735015869140625
1775711500992953600,11.84795361328125,0.1147308349609375,-0.6598358154296875,0.7424163818359375
1775711501002966500,11.857966552734375,0.1363372802734375,-0.657989501953125,0.7408294677734375
1775711501012979500,11.8679794921875,0.146484375,-0.6460723876953125,0.73602294921875
1775711501022992600,11.87799267578125,0.14556884765625,-0.64874267578125,0.740509033203125
1775711501033005800,11.888005859375,0.1423492431640625,-0.6555328369140625,0.74505615234375
1775711501043018500,11.8980185546875,0.144683837890625,-0.650543212890625,0.741119384765625
1775711501053031700,11.90803173828125,0.1453399658203125,-0.6489410400390625,0.7385406494140625
1775711501063044600,11.918044677734375,0.1408538818359375,-0.645843505859375,0.735809326171875
1775711501073057500,11.9280576171875,0.144317626953125,-0.6413726806640625,0.7371063232421875
1775711501083070500,11.938070556640625,0.1408538818359375,-0.6403350830078125,0.7413482666015625
1775711501093083600,11.948083740234376,0.148956298828125,-0.6413116455078125,0.749786376953125
1775711501103096800,11.958096923828125,0.159088134765625,-0.6439666748046875,0.7496490478515625
1775711501113110500,11.968110595703125,0.1607666015625,-0.646026611328125,0.743988037109375
1775711501123123700,11.978123779296874,0.1618499755859375,-0.6512908935546875,0.72674560546875
1775711501133136400,11.988136474609375,0.1611175537109375,-0.6545867919921875,0.7056427001953125
1775711501143149600,11.998149658203126,0.1613311767578125,-0.6538543701171875,0.6911163330078125
1775711501153162800,12.008162841796874,0.163421630859375,-0.6525115966796875,0.6816864013671875
1775711501163175700,12.01817578125,0.16546630859375,-0.647064208984375,0.6741485595703125
1775711501173188600,12.028188720703126,0.163299560546875,-0.6345977783203125,0.6730804443359375
1775711501183201500,12.038201416015625,0.15570068359375,-0.63104248046875,0.6779022216796875
1775711501193214700,12.048214599609375,0.1622161865234375,-0.632781982421875,0.68621826171875
1775711501203227400,12.058227294921876,0.167999267578125,-0.624053955078125,0.6869354248046875
1775711501213240600,12.068240478515625,0.1681365966796875,-0.6154327392578125,0.6865692138671875
1775711501223253800,12.078253662109375,0.15911865234375,-0.611480712890625,0.6741943359375
1775711501233267500,12.088267333984374,0.15380859375,-0.6108856201171875,0.654266357421875
1775711501243280600,12.09828076171875,0.1467437744140625,-0.60650634765625,0.63232421875
1775711501253293600,12.10829345703125,0.1383209228515625,-0.6031341552734375,0.611480712890625
1775711501263306500,12.118306396484375,0.13134765625,-0.601776123046875,0.5918731689453125
1775711501273319700,12.128319580078125,0.1090545654296875,-0.599639892578125,0.5592803955078125
1775711501283332600,12.13833251953125,0.08599853515625,-0.58935546875,0.5243988037109375
1775711501293345800,12.148345703125,0.055694580078125,-0.59014892578125,0.498077392578125
1775711501303358500,12.1583583984375,0.0133209228515625,-0.5841064453125,0.487091064453125
1775711501313371600,12.16837158203125,-0.01251220703125,-0.579010009765625,0.4848175048828125
1775711501323384600,12.178384521484375,-0.035675048828125,-0.5747528076171875,0.488311767578125
1775711501333397500,12.1883974609375,-0.0461273193359375,-0.5722198486328125,0.5124359130859375
1775711501343410700,12.19841064453125,-0.023040771484375,-0.5642852783203125,0.534088134765625
1775711501353424600,12.208424560546876,0.0197601318359375,-0.548126220703125,0.541748046875
1775711501363437600,12.2184375,0.067657470703125,-0.5430450439453125,0.5293121337890625
1775711501373450500,12.228450439453125,0.1005859375,-0.5292816162109375,0.4981842041015625
1775711501383463700,12.238463623046876,0.1153106689453125,-0.5075225830078125,0.4692535400390625
1775711501393476600,12.2484765625,0.1180572509765625,-0.495941162109375,0.4637298583984375
1775711501403489500,12.258489501953125,0.1241607666015625,-0.477142333984375,0.445037841796875
1775711501413502700,12.268502685546874,0.117034912109375,-0.4474334716796875,0.409942626953125
1775711501423515600,12.278515625,0.093017578125,-0.4133453369140625,0.3857269287109375
1775711501433528600,12.288528564453125,0.050994873046875,-0.4002685546875,0.3899688720703125
1775711501443541500,12.29854150390625,-0.0104827880859375,-0.42095947265625,0.4292144775390625
1775711501453554700,12.3085546875,-0.071197509765625,-0.4371185302734375,0.486663818359375
1775711501463567600,12.318567626953126,-0.111236572265625,-0.4496002197265625,0.5457611083984375
1775711501473581600,12.32858154296875,-0.108612060546875,-0.4560546875,0.5734100341796875
1775711501483594800,12.3385947265625,-0.079254150390625,-0.457275390625,0.5845184326171875
1775711501493607400,12.348607421875,-0.0289764404296875,-0.4578857421875,0.60858154296875
1775711501503620600,12.35862060546875,0.0314483642578125,-0.4840087890625,0.643829345703125
1775711501513633800,12.3686337890625,0.05572509765625,-0.5555877685546875,0.7157440185546875
1775711501523646700,12.378646728515625,0.0661163330078125,-0.6096954345703125,0.7995758056640625
1775711501533659600,12.38865966796875,0.0756072998046875,-0.6135711669921875,0.852691650390625
1775711501543672600,12.398672607421876,0.1092529296875,-0.598602294921875,0.900726318359375
1775711501553685800,12.408685791015625,0.14581298828125,-0.600860595703125,0.9171905517578125
1775711501563698400,12.418698486328125,0.1632232666015625,-0.6322784423828125,0.895294189453125
1775711501573711600,12.428711669921874,0.1898956298828125,-0.688507080078125,0.8617401123046875
1775711501583724500,12.438724609375,0.2143096923828125,-0.7105865478515625,0.8275909423828125
1775711501593738500,12.448738525390626,0.2220916748046875,-0.74798583984375,0.8236083984375
1775711501603751700,12.458751708984375,0.21490478515625,-0.7808074951171875,0.84185791015625
1775711501613764600,12.4687646484375,0.1981201171875,-0.7625885009765625,0.8618927001953125
1775711501623777500,12.478777587890624,0.1949920654296875,-0.757720947265625,0.87225341796875
1775711501633790700,12.488790771484375,0.2231597900390625,-0.7610321044921875,0.85076904296875
1775711501643803600,12.4988037109375,0.255615234375,-0.75421142578125,0.802398681640625
1775711501653816600,12.508816650390624,0.2854461669921875,-0.7768096923828125,0.7859954833984375
1775711501663829500,12.51882958984375,0.2906341552734375,-0.8056793212890625,0.790374755859375
1775711501673842700,12.5288427734375,0.247711181640625,-0.82330322265625,0.807952880859375
1775711501683855600,12.538855712890625,0.1752777099609375,-0.8574066162109375,0.8523101806640625
1775711501693868300,12.548868408203125,0.1118316650390625,-0.874603271484375,0.892913818359375
1775711501703881200,12.558881103515626,0.0771942138671875,-0.8636627197265625,0.917236328125
1775711501713894400,12.568894287109375,0.07525634765625,-0.85162353515625,0.948089599609375
1775711501723908400,12.578908447265626,0.0817718505859375,-0.8324737548828125,0.9385223388671875
1775711501733921300,12.58892138671875,0.1188812255859375,-0.818023681640625,0.8934783935546875
1775711501743934500,12.5989345703125,0.16717529296875,-0.8175048828125,0.84765625
1775711501753947100,12.608947021484376,0.2108306884765625,-0.816680908203125,0.8045654296875
1775711501763960300,12.618960205078125,0.225433349609375,-0.8001861572265625,0.774261474609375
1775711501773973200,12.62897314453125,0.2102203369140625,-0.791839599609375,0.7599639892578125
1775711501783986400,12.638986328125,0.18206787109375,-0.777313232421875,0.7535400390625
1775711501793999400,12.648999267578125,0.1371002197265625,-0.7642974853515625,0.763916015625
1775711501804012300,12.65901220703125,0.07269287109375,-0.755950927734375,0.7910308837890625
1775711501814025500,12.669025390625,0.0381317138671875,-0.733367919921875,0.808868408203125
1775711501824038100,12.6790380859375,0.0074462890625,-0.714324951171875,0.8238525390625
1775711501834051300,12.68905126953125,-0.0308074951171875,-0.7103424072265625,0.836212158203125
1775711501844065500,12.6990654296875,-0.057952880859375,-0.7206573486328125,0.8284149169921875
1775711501854078200,12.709078125,-0.03228759765625,-0.7387542724609375,0.8011322021484375
1775711501864091400,12.71909130859375,0.00433349609375,-0.7508087158203125,0.7665863037109375
1775711501874104300,12.729104248046875,0.0328369140625,-0.7494049072265625,0.7401580810546875
1775711501884117200,12.7391171875,0.060577392578125,-0.74774169921875,0.750579833984375
1775711501894130200,12.749130126953125,0.0526885986328125,-0.735382080078125,0.7669525146484375
1775711501904143400,12.759143310546875,0.035400390625,-0.7152099609375,0.777679443359375
1775711501914156500,12.769156494140624,0.0218658447265625,-0.7036590576171875,0.7996673583984375
1775711501924169200,12.779169189453125,0.01458740234375,-0.7002716064453125,0.8116607666015625
1775711501934182400,12.789182373046875,0.0443572998046875,-0.6964263916015625,0.80401611328125
1775711501944195300,12.7991953125,0.0825347900390625,-0.6912841796875,0.793243408203125
1775711501954208300,12.809208251953125,0.0971832275390625,-0.694000244140625,0.78485107421875
1775711501964222500,12.819222412109376,0.0948333740234375,-0.7087249755859375,0.78057861328125
1775711501974235400,12.8292353515625,0.087921142578125,-0.711639404296875,0.7896270751953125
1775711501984248300,12.839248291015625,0.057952880859375,-0.7104644775390625,0.7924652099609375
1775711501994261200,12.84926123046875,0.0291900634765625,-0.71160888671875,0.789794921875
1775711502004274400,12.8592744140625,-0.0037841796875,-0.699859619140625,0.7795562744140625
1775711502014287400,12.869287353515626,-0.0374603271484375,-0.6884002685546875,0.7802276611328125
1775711502024300300,12.87930029296875,-0.0589599609375,-0.6768341064453125,0.76861572265625
1775711502034313500,12.8893134765625,-0.086578369140625,-0.6757354736328125,0.756072998046875
1775711502044326400,12.899326416015626,-0.0989990234375,-0.682403564453125,0.7538299560546875
1775711502054339300,12.90933935546875,-0.079345703125,-0.6759796142578125,0.7266387939453125
1775711502064352300,12.919352294921875,-0.052947998046875,-0.6802825927734375,0.716400146484375
1775711502074365400,12.929365478515624,0.0048828125,-0.68572998046875,0.7064056396484375
1775711502084378400,12.93937841796875,0.0600128173828125,-0.6910858154296875,0.7003631591796875
1775711502094392300,12.949392333984376,0.0807647705078125,-0.687652587890625,0.7173004150390625
1775711502104405500,12.959405517578125,0.0600128173828125,-0.6746978759765625,0.768310546875
1775711502114418200,12.969418212890625,0.004669189453125,-0.6776885986328125,0.828369140625
1775711502124431400,12.979431396484374,-0.0271759033203125,-0.6814422607421875,0.8743896484375
1775711502134444300,12.9894443359375,-0.049285888671875,-0.67657470703125,0.91412353515625
1775711502144457200,12.999457275390625,-0.0558319091796875,-0.6759796142578125,0.9202117919921875
1775711502154470400,13.009470458984374,-0.0280303955078125,-0.6757659912109375,0.91009521484375
1775711502164483300,13.0194833984375,0.006256103515625,-0.68017578125,0.90899658203125
1775711502174496500,13.02949658203125,0.059661865234375,-0.6747589111328125,0.895416259765625
