time,seconds_elapsed,z,y,x
1775711489191282700,0.04628271484375,-0.3458828330039978,-1.9019832611083984,0.5663896203041077
1775711489201296000,0.0562958984375,-0.46291863918304443,-2.0924975872039795,0.7162041664123535
1775711489211308800,0.066308837890625,-0.5902566313743591,-2.1847641468048096,0.9047642350196838
1775711489221321700,0.07632177734375,-0.68844074010849,-2.205995798110962,1.1213865280151367
1775711489231334700,0.086334716796875,-0.7302470207214355,-2.2324411869049072,1.3387210369110107
1775711489241347800,0.096347900390625,-0.7836124897003174,-2.2279746532440186,1.4989572763442993
1775711489251360800,0.10636083984375,-0.8461243510246277,-2.1099350452423096,1.6203007698059082
1775711489261373700,0.116373779296875,-0.9508611559867859,-1.9641995429992676,1.6989699602127075
1775711489271387000,0.126386962890625,-1.152073860168457,-1.96663236618042,1.7654318809509277
1775711489281399800,0.13639990234375,-1.4105749130249023,-2.147667646408081,1.8140134811401367
1775711489291413800,0.146413818359375,-1.6218695640563965,-2.2772395610809326,1.8662186861038208
1775711489301426700,0.1564267578125,-1.7027099132537842,-1.9114234447479248,1.8820961713790894
1775711489311440000,0.16643994140625,-1.4240527153015137,-1.8972578048706055,1.7616701126098633
1775711489321452800,0.176452880859375,-0.860219419002533,-2.2143497467041016,1.6513577699661255
1775711489331465700,0.1864658203125,-0.5214536190032959,-1.679122805595398,1.611515998840332
1775711489341479000,0.19647900390625,-0.3723810315132141,-1.1558030843734741,1.6772950887680054
1775711489351491600,0.20649169921875,-0.34519439935684204,-0.5723455548286438,1.627055048942566
1775711489361504800,0.2165048828125,-0.4182251989841461,0.10534559935331345,1.5330419540405273
1775711489371517700,0.226517578125,-0.5938228964805603,0.7691648602485657,1.4644733667373657
1775711489381531000,0.23653076171875,-0.6449102759361267,1.0255473852157593,1.4043660163879395
1775711489391543600,0.24654345703125,-0.5699039697647095,0.7551406621932983,1.334533929824829
1775711489401557800,0.256557861328125,-0.5195227861404419,0.2647877335548401,1.2320259809494019
1775711489411570700,0.26657080078125,-0.46420735120773315,-0.4585409462451935,1.0796699523925781
1775711489421583600,0.27658349609375,-0.4750927686691284,-1.0482364892959595,0.9216052889823914
1775711489431596800,0.2865966796875,-0.3801659643650055,-1.1721493005752563,0.6901699304580688
1775711489441610000,0.29660986328125,-0.25679877400398254,-1.009297251701355,0.49140942096710205
1775711489451622700,0.30662255859375,-0.2259601652622223,-0.624558687210083,0.3865029811859131
1775711489461635800,0.3166357421875,-0.23780830204486847,-0.11079655587673187,0.25532177090644836
1775711489471648800,0.326648681640625,-0.17401254177093506,0.49126294255256653,0.11142745614051819
1775711489481661700,0.33666162109375,-0.17973221838474274,0.8380048871040344,0.07624150812625885
1775711489491674600,0.346674560546875,-0.2598222494125366,0.9725733995437622,0.026026541367173195
1775711489501687800,0.356687744140625,-0.3066989481449127,0.8959451913833618,0.0029971215408295393
1775711489511700700,0.36670068359375,-0.31231528520584106,0.6510233283042908,0.027884095907211304
1775711489521714700,0.376714599609375,-0.3462498188018799,0.3856012225151062,0.07743007689714432
1775711489531728000,0.386727783203125,-0.412099152803421,0.22353002429008484,0.11366664618253708
1775711489541740500,0.396740478515625,-0.5040264129638672,0.2052607387304306,0.15124863386154175
1775711489551753700,0.406753662109375,-0.5648567080497742,0.27950912714004517,0.22000373899936676
1775711489561766700,0.4167666015625,-0.4759068787097931,0.25869280099868774,0.36524081230163574
1775711489571779800,0.42677978515625,-0.2427348792552948,-0.11925102770328522,0.5719617605209351
1775711489581792800,0.436792724609375,-0.12149553745985031,-0.5431476831436157,0.6894042491912842
1775711489591805700,0.4468056640625,-0.2330835908651352,-0.47798120975494385,0.48347026109695435
1775711489601819000,0.45681884765625,-0.37643009424209595,-0.1605265587568283,0.35186856985092163
1775711489611831600,0.46683154296875,-0.3692973554134369,0.13143818080425262,0.41338279843330383
1775711489621844700,0.4768447265625,-0.36524295806884766,0.3136063814163208,0.5060226917266846
1775711489631857700,0.486857666015625,-0.4463726878166199,0.3056161105632782,0.5594289302825928
1775711489641871600,0.49687158203125,-0.5036191940307617,0.16318093240261078,0.5761786103248596
1775711489651884800,0.506884765625,-0.4698319435119629,-0.0016088156262412667,0.5665555596351624
1775711489661897700,0.516897705078125,-0.36979323625564575,-0.05431623384356499,0.48832014203071594
1775711489671910700,0.52691064453125,-0.27356788516044617,0.02106373943388462,0.39327511191368103
1775711489681923600,0.536923583984375,-0.14927497506141663,0.08499106019735336,0.34506604075431824
1775711489691937000,0.54693701171875,-0.03075152076780796,0.0744452029466629,0.30458733439445496
1775711489701950000,0.556949951171875,0.04852066561579704,0.08202856034040451,0.23208250105381012
1775711489711963100,0.566963134765625,0.08331593126058578,0.1297377496957779,0.14414812624454498
1775711489721976000,0.57697607421875,0.0955347791314125,0.17470335960388184,0.09656142443418503
1775711489731989200,0.5869892578125,0.13536740839481354,0.2512969374656677,0.08768031746149063
1775711489742002000,0.597001953125,0.14161571860313416,0.31817904114723206,0.08269381523132324
1775711489752015000,0.60701513671875,0.10519272834062576,0.3612476885318756,0.05006316676735878
1775711489762029000,0.617029052734375,0.05451490730047226,0.34203484654426575,0.009848635643720627
1775711489772042000,0.6270419921875,0.01224521454423666,0.24906015396118164,-0.012122709304094315
1775711489782055200,0.63705517578125,-0.004988100845366716,0.09278799593448639,0.012368252500891685
1775711489792068000,0.647068115234375,0.0032352081034332514,-0.0404299795627594,0.05276574194431305
1775711489802081000,0.6570810546875,0.04224172979593277,-0.1540582776069641,0.10120517760515213
1775711489812094000,0.667093994140625,0.05925293639302254,-0.18945647776126862,0.18449634313583374
1775711489822107100,0.677107177734375,0.02015586756169796,-0.15145689249038696,0.2648012936115265
1775711489832120000,0.6871201171875,-0.012940299697220325,-0.11896819621324539,0.32209548354148865
1775711489842133000,0.697133056640625,-0.012590359896421432,-0.10927508771419525,0.34202390909194946
1775711489852146200,0.707146240234375,0.00657587731257081,-0.06106388568878174,0.30076196789741516
1775711489862159000,0.7171591796875,0.05052842199802399,0.01444072462618351,0.2209014892578125
1775711489872173000,0.727173095703125,0.09928557276725769,0.027711788192391396,0.13905642926692963
1775711489882186200,0.737186279296875,0.12084759026765823,0.03531191870570183,0.0537380613386631
1775711489892199000,0.747198974609375,0.10182277113199234,0.05198144167661667,-0.03184075281023979
1775711489902212000,0.757212158203125,0.06916043162345886,0.06969811767339706,-0.10352292656898499
1775711489912225000,0.76722509765625,0.05728832259774208,0.07646095007658005,-0.1510174721479416
1775711489922238200,0.77723828125,0.058830827474594116,0.04496694356203079,-0.17764082551002502
1775711489932251000,0.7872509765625,0.06550949811935425,0.06163433566689491,-0.1808704435825348
1775711489942264000,0.79726416015625,0.08402805775403976,0.10372506082057953,-0.15716272592544556
1775711489952277200,0.80727734375,0.12756088376045227,0.10146830230951309,-0.09445299953222275
1775711489962290200,0.817290283203125,0.1673397272825241,0.0631941482424736,0.006673881784081459
1775711489972303000,0.82730322265625,0.20014800131320953,-0.023808393627405167,0.11090148240327835
1775711489982316000,0.83731591796875,0.21278975903987885,-0.14688025414943695,0.17259468138217926
1775711489992330000,0.847330078125,0.2040223777294159,-0.1854955554008484,0.17874976992607117
1775711490002343200,0.85734326171875,0.16055132448673248,-0.11209005117416382,0.13771525025367737
1775711490012356000,0.867356201171875,0.1058390811085701,-0.0481821745634079,0.08849844336509705
1775711490022369000,0.877369140625,0.06781473010778427,0.012822055257856846,0.03702166676521301
1775711490032382000,0.8873818359375,0.03536012023687363,0.060931526124477386,-0.010848918929696083
1775711490042395100,0.89739501953125,0.00618306128308177,0.07881012558937073,-0.04440155252814293
1775711490052408000,0.907407958984375,-0.0027622305788099766,0.07324784994125366,-0.05620521679520607
1775711490062421000,0.9174208984375,-0.010221478529274464,0.046244725584983826,-0.06016453728079796
1775711490072434200,0.92743408203125,-0.02785426750779152,-0.049080461263656616,-0.06526688486337662
1775711490082447000,0.937447021484375,-0.05269463732838631,-0.12134853005409241,-0.06289214640855789
1775711490092460000,0.9474599609375,-0.06771805882453918,-0.14759504795074463,-0.04441806301474571
1775711490102473000,0.957472900390625,-0.061644457280635834,-0.12940272688865662,-0.022778017446398735
1775711490112487200,0.967487060546875,-0.042575158178806305,-0.1383109986782074,-0.0006380933918990195
1775711490122500000,0.9775,-0.03020610474050045,-0.18014952540397644,0.02159477397799492
1775711490132513000,0.987512939453125,-0.025583390146493912,-0.24392159283161163,0.04051173850893974
1775711490142526200,0.997526123046875,-0.048222389072179794,-0.28634175658226013,0.06679527461528778
1775711490152539100,1.0075390625,-0.0938495323061943,-0.25385358929634094,0.08943241089582443
1775711490162552000,1.017552001953125,-0.12751321494579315,-0.19555725157260895,0.10235646367073059
1775711490172565000,1.02756494140625,-0.1286940574645996,-0.13615889847278595,0.10510192066431046
1775711490182578200,1.037578125,-0.10263609886169434,-0.037165746092796326,0.09772869199514389
1775711490192591000,1.047591064453125,-0.06584160029888153,0.04316025227308273,0.09102471172809601
1775711490202604000,1.05760400390625,-0.03265701234340668,0.08958900719881058,0.09662081301212311
1775711490212617200,1.0676171875,-0.008412392809987068,0.0911506786942482,0.11008469015359879
1775711490222630100,1.077630126953125,0.006770021747797728,0.04144091531634331,0.1396377980709076
1775711490232644000,1.08764404296875,0.007053115870803595,-0.007985488511621952,0.17873139679431915
1775711490242657300,1.0976572265625,0.006971356924623251,-0.06477100402116776,0.20634758472442627
1775711490252670000,1.107669921875,0.003543335711583495,-0.11462990939617157,0.2250688076019287
1775711490262683100,1.11768310546875,-0.005633917171508074,-0.12620827555656433,0.2262057065963745
1775711490272696000,1.127696044921875,-0.02894243597984314,-0.10895684361457825,0.18845006823539734
1775711490282709200,1.137709228515625,-0.0636756494641304,-0.04679493606090546,0.12083587050437927
1775711490292722000,1.147721923828125,-0.07975022494792938,0.05492902919650078,0.04108139127492905
1775711490302735000,1.157735107421875,-0.055871255695819855,0.1869587004184723,-0.038180675357580185
1775711490312748300,1.167748291015625,-0.008184692822396755,0.29818296432495117,-0.09429667145013809
1775711490322761000,1.177760986328125,0.036488767713308334,0.3691335618495941,-0.11413456499576569
1775711490332774100,1.187774169921875,0.06887494027614594,0.391184002161026,-0.12004917860031128
1775711490342787000,1.197787109375,0.08410502225160599,0.3956482708454132,-0.10657011717557907
1775711490352801000,1.207801025390625,0.08555778115987778,0.37572357058525085,-0.08250392973423004
1775711490362814200,1.217814208984375,0.08436761051416397,0.3139520585536957,-0.0523068793118
1775711490372827100,1.2278271484375,0.08949925750494003,0.2202886939048767,-0.04921441897749901
1775711490382840000,1.237840087890625,0.10007599741220474,0.0855838730931282,-0.07213597744703293
1775711490392853000,1.24785302734375,0.08723317086696625,0.012735502794384956,-0.09576966613531113
1775711490402866200,1.2578662109375,0.05180274322628975,0.016386164352297783,-0.11299099773168564
1775711490412879000,1.267879150390625,0.02545582503080368,0.07650355994701385,-0.1265251785516739
1775711490422892000,1.27789208984375,0.02479429543018341,0.1988353282213211,-0.12987969815731049
1775711490432905000,1.287905029296875,0.05763053894042969,0.34036582708358765,-0.13922101259231567
1775711490442918100,1.297918212890625,0.11891680210828781,0.5001158118247986,-0.13102112710475922
1775711490452931000,1.30793115234375,0.1877741664648056,0.6300674080848694,-0.09802589565515518
1775711490462944000,1.317944091796875,0.24185337126255035,0.7380985617637634,-0.05468694865703583
1775711490472958200,1.327958251953125,0.2750888168811798,0.7533645629882812,0.0169113390147686
1775711490482971100,1.33797119140625,0.2831304967403412,0.6648810505867004,0.09271342307329178
1775711490492984000,1.347984130859375,0.2685813903808594,0.5145182013511658,0.16182352602481842
1775711490502997200,1.357997314453125,0.2594675123691559,0.32374876737594604,0.19645313918590546
1775711490513010000,1.368010009765625,0.24916695058345795,0.14093448221683502,0.19496628642082214
1775711490523023000,1.378023193359375,0.21647824347019196,0.05654343590140343,0.17670713365077972
1775711490533036000,1.3880361328125,0.17012618482112885,0.08670959621667862,0.14950719475746155
1775711490543049200,1.39804931640625,0.13276496529579163,0.17773164808750153,0.12210673093795776
1775711490553062000,1.408061767578125,0.11490687727928162,0.3039915859699249,0.10519246757030487
1775711490563075000,1.418074951171875,0.13343076407909393,0.4386415481567383,0.097626693546772
1775711490573088300,1.428088134765625,0.16051004827022552,0.5273935198783875,0.09433582425117493
1775711490583102000,1.43810205078125,0.188603475689888,0.4975016713142395,0.1113307848572731
1775711490593115100,1.448115234375,0.21279695630073547,0.3465600907802582,0.13177160918712616
1775711490603128300,1.45812841796875,0.20732682943344116,0.18275436758995056,0.14460937678813934
1775711490613141000,1.46814111328125,0.18216420710086823,0.06691378355026245,0.16125839948654175
1775711490623154200,1.478154296875,0.16250714659690857,-0.025242239236831665,0.18849001824855804
1775711490633167000,1.4881669921875,0.13927054405212402,-0.061944860965013504,0.21219322085380554
1775711490643180000,1.498179931640625,0.13231995701789856,-0.10122063010931015,0.20044122636318207
1775711490653193000,1.50819287109375,0.1261717826128006,-0.11113051325082779,0.14449246227741241
1775711490663206100,1.5182060546875,0.09513823688030243,-0.04586309567093849,0.07864021509885788
1775711490673219000,1.528218994140625,0.05939195305109024,0.06401919573545456,0.029530994594097137
1775711490683232000,1.53823193359375,0.05445099249482155,0.17329242825508118,-0.024699486792087555
1775711490693244200,1.548244140625,0.054736748337745667,0.24461400508880615,-0.07119215279817581
1775711490703258400,1.55825830078125,0.06695373356342316,0.3024086058139801,-0.10495251417160034
1775711490713271000,1.56827099609375,0.09889062494039536,0.3224768340587616,-0.09264418482780457
1775711490723284200,1.5782841796875,0.13390320539474487,0.20073869824409485,-0.0024639565963298082
1775711490733297200,1.588297119140625,0.13522572815418243,-0.019146263599395752,0.0893905982375145
1775711490743310300,1.598310302734375,0.09957639127969742,-0.2126462161540985,0.1423129290342331
1775711490753323300,1.6083232421875,0.05812322348356247,-0.36344000697135925,0.1489705741405487
1775711490763336200,1.618336181640625,0.05137503892183304,-0.49408748745918274,0.1160602942109108
1775711490773349400,1.628349365234375,0.06769009679555893,-0.5586646199226379,0.05254576727747917
1775711490783362000,1.638362060546875,0.09925627708435059,-0.5170029401779175,-0.016460198909044266
1775711490793375200,1.648375244140625,0.13740552961826324,-0.34983497858047485,-0.06623867154121399
1775711490803388200,1.65838818359375,0.14295955002307892,-0.1156293973326683,-0.08177661895751953
1775711490813401300,1.6684013671875,0.1342933624982834,0.05721961334347725,-0.08820469677448273
1775711490823415300,1.678415283203125,0.11101839691400528,0.1706620156764984,-0.10112501680850983
1775711490833428200,1.68842822265625,0.10620979219675064,0.21404704451560974,-0.10882847756147385
1775711490843441200,1.698441162109375,0.13660098612308502,0.1736665964126587,-0.1123204156756401
1775711490853454000,1.7084541015625,0.1902354508638382,0.05850725248456001,-0.06954285502433777
1775711490863467300,1.71846728515625,0.24762684106826782,-0.16689364612102509,-0.0014570154016837478
1775711490873480200,1.728480224609375,0.2971744239330292,-0.4203336238861084,0.04464336857199669
1775711490883493000,1.7384931640625,0.3318948447704315,-0.5464052557945251,0.0711924210190773
1775711490893506300,1.74850634765625,0.3659186065196991,-0.5813004374504089,0.07368753850460052
1775711490903519200,1.758519287109375,0.3927299678325653,-0.54813551902771,0.03110598772764206
1775711490913532200,1.7685322265625,0.38352689146995544,-0.4673682451248169,-0.02762497030198574
1775711490923545000,1.778545166015625,0.35211169719696045,-0.38872483372688293,-0.08988914638757706
1775711490933559300,1.788559326171875,0.31048887968063354,-0.28768637776374817,-0.1478179544210434
1775711490943572200,1.798572265625,0.26739922165870667,-0.19949527084827423,-0.19191057980060577
1775711490953585200,1.808585205078125,0.24259427189826965,-0.14157497882843018,-0.23492063581943512
1775711490963598300,1.818598388671875,0.23670148849487305,-0.11414068937301636,-0.25889360904693604
1775711490973611000,1.828611083984375,0.24862739443778992,-0.16943217813968658,-0.24738262593746185
1775711490983624200,1.838624267578125,0.23866796493530273,-0.22432391345500946,-0.1910485178232193
1775711490993637000,1.84863720703125,0.2033480554819107,-0.24607820808887482,-0.11731703579425812
1775711491003650300,1.858650390625,0.1545962393283844,-0.27800923585891724,-0.06982968002557755
1775711491013663200,1.868663330078125,0.0850086361169815,-0.2858431935310364,-0.06094963848590851
1775711491023676200,1.87867626953125,0.02184111624956131,-0.226096510887146,-0.05428187921643257
1775711491033689300,1.888689453125,-0.0070770843885838985,-0.17292623221874237,-0.03283917158842087
1775711491043702000,1.898701904296875,-0.01116050872951746,-0.1552646905183792,-0.0015448997728526592
1775711491053716200,1.90871630859375,0.0004916195175610483,-0.1954352706670761,0.018990734592080116
1775711491063729400,1.9187294921875,0.022779613733291626,-0.28499284386634827,0.028984246775507927
1775711491073742000,1.9287421875,0.045035652816295624,-0.3710814118385315,0.038240328431129456
1775711491083755300,1.93875537109375,0.06449057906866074,-0.48117274045944214,0.04001053422689438
1775711491093768200,1.948768310546875,0.08644727617502213,-0.5534421801567078,0.051175568252801895
1775711491103781000,1.958781005859375,0.08778151869773865,-0.6108529567718506,0.07690756767988205
1775711491113794000,1.9687939453125,0.061958976089954376,-0.6862204670906067,0.10747639089822769
1775711491123807200,1.97880712890625,0.011729360558092594,-0.6768868565559387,0.14799319207668304
1775711491133820400,1.9888203125,-0.043707799166440964,-0.5809347629547119,0.17331425845623016
1775711491143833000,1.9988330078125,-0.08549252897500992,-0.5109346508979797,0.21606731414794922
1775711491153846300,2.00884619140625,-0.11888138204813004,-0.39948293566703796,0.28357577323913574
1775711491163859200,2.018859130859375,-0.13688567280769348,-0.27628085017204285,0.35784947872161865
1775711491173873200,2.028873046875,-0.11834421753883362,-0.24505715072155,0.41460198163986206
1775711491183886300,2.03888623046875,-0.07447876036167145,-0.3166176378726959,0.43887242674827576
1775711491193899300,2.048899169921875,-0.06432918459177017,-0.45036131143569946,0.4249342381954193
1775711491203912200,2.058912109375,-0.08692051470279694,-0.6211082935333252,0.36593377590179443
1775711491213925000,2.068925048828125,-0.13090795278549194,-0.7141729593276978,0.2621293365955353
1775711491223938300,2.078938232421875,-0.19792106747627258,-0.659744918346405,0.1356438547372818
1775711491233951000,2.088950927734375,-0.24583959579467773,-0.5015951991081238,-0.023692013695836067
1775711491243964200,2.098964111328125,-0.2649933099746704,-0.260612428188324,-0.18983252346515656
1775711491253977300,2.108977294921875,-0.25756096839904785,0.004485828336328268,-0.3336631953716278
1775711491263990300,2.118990234375,-0.2521424889564514,0.1458410918712616,-0.4508545398712158
1775711491274003200,2.129003173828125,-0.2797624170780182,0.20461039245128632,-0.5557734966278076
1775711491284016000,2.13901611328125,-0.28000500798225403,0.2623029947280884,-0.6610972285270691
1775711491294030000,2.149030029296875,-0.19391274452209473,0.3552217483520508,-0.7596017122268677
1775711491304043300,2.159043212890625,-0.10434584319591522,0.33310845494270325,-0.7583519220352173
1775711491314056200,2.16905615234375,-0.07230135798454285,0.2646265923976898,-0.7014033794403076
1775711491324069400,2.1790693359375,-0.07718213647603989,0.16639509797096252,-0.6257163286209106
1775711491334082000,2.18908203125,-0.09993644803762436,0.03205700218677521,-0.5403931736946106
1775711491344095200,2.19909521484375,-0.1442442536354065,-0.05026103928685188,-0.4287063479423523
1775711491354108200,2.209108154296875,-0.18207526206970215,-0.033136915415525436,-0.317097008228302
1775711491364121000,2.21912109375,-0.17447753250598907,0.0761893093585968,-0.2052852362394333
1775711491374134300,2.22913427734375,-0.13846705853939056,0.1894516795873642,-0.10901676118373871
1775711491384147200,2.239147216796875,-0.09926000982522964,0.28775402903556824,-0.04632089287042618
1775711491394160400,2.249160400390625,-0.03912955895066261,0.27728113532066345,-0.015132613480091095
1775711491404174000,2.259174072265625,0.021437114104628563,0.18835578858852386,0.004234426189213991
1775711491414187300,2.269187255859375,0.05872110277414322,0.10610219836235046,0.03807734325528145
1775711491424200200,2.2792001953125,0.07492271065711975,0.024575117975473404,0.07453761994838715
1775711491434213000,2.289213134765625,0.0585397407412529,-0.061833541840314865,0.09055999666452408
1775711491444226300,2.299226318359375,0.026687270030379295,-0.12485405057668686,0.08355507999658585
1775711491454239200,2.3092392578125,0.011993546038866043,-0.14740516245365143,0.05847902223467827
1775711491464252200,2.319252197265625,0.019451728090643883,-0.12613876163959503,0.014868960715830326
1775711491474265000,2.32926513671875,0.035299934446811676,-0.0852549746632576,-0.02604997716844082
1775711491484278300,2.3392783203125,0.060627393424510956,-0.05188210681080818,-0.05089433863759041
1775711491494291200,2.349291259765625,0.083355613052845,0.010704309679567814,-0.052914611995220184
1775711491504304000,2.35930419921875,0.10643243044614792,0.09508497267961502,-0.04837818443775177
1775711491514318300,2.369318359375,0.12386734783649445,0.1533280313014984,-0.04716271907091141
1775711491524331000,2.3793310546875,0.1351272016763687,0.1645042598247528,-0.03618010878562927
1775711491534344200,2.38934423828125,0.1276322603225708,0.10133887082338333,-0.0025720810517668724
1775711491544357400,2.399357421875,0.07916273176670074,0.0031188279390335083,0.05489706993103027
1775711491554370000,2.4093701171875,0.026149045675992966,-0.09799101203680038,0.10766042023897171
1775711491564383200,2.41938330078125,0.017679395154118538,-0.15656112134456635,0.14084820449352264
1775711491574396200,2.429396240234375,0.0406038835644722,-0.1673136204481125,0.14181865751743317
1775711491584409300,2.439409423828125,0.06787624955177307,-0.15147554874420166,0.120677150785923
1775711491594422000,2.449422119140625,0.08294867724180222,-0.10082781314849854,0.09012003988027573
1775711491604435200,2.459435302734375,0.08718124032020569,-0.039563123136758804,0.059836436063051224
1775711491614448400,2.469448486328125,0.07696109265089035,-0.00436039362102747,0.029199164360761642
1775711491624461000,2.4794609375,0.07154449075460434,-0.01555152889341116,0.0031257520895451307
1775711491634475300,2.489475341796875,0.06916282325983047,-0.02263686992228031,0.0004114583716727793
1775711491644488200,2.49948828125,0.06260772049427032,-0.007439806591719389,0.009305085055530071
1775711491654501000,2.509501220703125,0.053592123091220856,0.030705448240041733,0.00839588139206171
1775711491664514300,2.519514404296875,0.053581468760967255,0.06775055080652237,0.0005616606795229018
1775711491674527200,2.52952734375,0.06103193014860153,0.10605160146951675,0.005452822428196669
1775711491684540200,2.5395400390625,0.06729355454444885,0.12184467911720276,0.031731829047203064
1775711491694553600,2.5495537109375,0.0701732262969017,0.10271252691745758,0.06090729311108589
1775711491704566800,2.55956689453125,0.08382326364517212,0.06748583167791367,0.07907537370920181
1775711491714579500,2.569579345703125,0.09718939661979675,0.02521081455051899,0.07631607353687286
1775711491724592600,2.579592529296875,0.10726892948150635,0.004777977243065834,0.07480393350124359
1775711491734605600,2.58960546875,0.10583695024251938,0.016337161883711815,0.07076844573020935
1775711491744619500,2.59961962890625,0.10675201565027237,0.039262451231479645,0.04911747947335243
1775711491754632700,2.6096328125,0.10991984605789185,0.08832533657550812,0.0041369544342160225
1775711491764645600,2.619645751953125,0.11474895477294922,0.14278271794319153,-0.07140015065670013
1775711491774658600,2.629658447265625,0.1291140466928482,0.19441261887550354,-0.14890027046203613
1775711491784671500,2.63967138671875,0.15907567739486694,0.21867695450782776,-0.20628951489925385
1775711491794684700,2.6496845703125,0.18837709724903107,0.1747981756925583,-0.22814396023750305
1775711491804697600,2.659697509765625,0.19917595386505127,0.05986679717898369,-0.22579585015773773
1775711491814710500,2.66971044921875,0.166695237159729,-0.03344371169805527,-0.2036372870206833
1775711491824723700,2.6797236328125,0.12925998866558075,-0.0920039564371109,-0.16742974519729614
1775711491834736600,2.689736572265625,0.11753462255001068,-0.1377488076686859,-0.14264503121376038
1775711491844749600,2.69974951171875,0.09851805120706558,-0.15432938933372498,-0.1435403823852539
1775711491854762500,2.709762451171875,0.11267541348934174,-0.22334973514080048,-0.14490020275115967
1775711491864776700,2.719776611328125,0.14665734767913818,-0.33854636549949646,-0.15218287706375122
1775711491874789600,2.72978955078125,0.1692260354757309,-0.4059933125972748,-0.1924181878566742
1775711491884802600,2.739802490234375,0.1477212905883789,-0.39675959944725037,-0.253886342048645
1775711491894815700,2.749815673828125,0.06684640794992447,-0.30833572149276733,-0.30487653613090515
1775711491904828700,2.75982861328125,-0.03181625157594681,-0.1013636365532875,-0.3043726682662964
1775711491914841600,2.769841552734375,-0.0758817121386528,0.10247178375720978,-0.22717057168483734
1775711491924854500,2.7798544921875,-0.051302067935466766,0.12736327946186066,-0.05090019851922989
1775711491934867700,2.78986767578125,0.049971554428339005,-0.14476224780082703,0.22794102132320404
1775711491944880600,2.799880615234375,0.16324804723262787,-0.5574528574943542,0.5133938193321228
1775711491954893600,2.8098935546875,0.23010005056858063,-0.8249876499176025,0.7407827377319336
1775711491964906800,2.81990673828125,0.24567927420139313,-0.8575682044029236,0.8778500556945801
1775711491974920400,2.82992041015625,0.21863992512226105,-0.7191096544265747,0.9066939353942871
1775711491984933600,2.83993359375,0.15649878978729248,-0.4664076566696167,0.858881950378418
1775711491994946800,2.84994677734375,0.08441554754972458,-0.19208449125289917,0.7965309619903564
1775711492004959500,2.85995947265625,0.026458239182829857,-0.0006418218254111707,0.7781929969787598
1775711492014972700,2.86997265625,0.02232368104159832,0.017600564286112785,0.8421911597251892
1775711492024985600,2.879985595703125,0.06464051455259323,-0.13173966109752655,0.9419571161270142
1775711492034998500,2.88999853515625,0.12139460444450378,-0.3546201288700104,0.9930860996246338
1775711492045011500,2.900011474609375,0.15916621685028076,-0.48156291246414185,0.9257581830024719
1775711492055024600,2.910024658203125,0.1767055243253708,-0.44093024730682373,0.6903557777404785
1775711492065037800,2.920037841796875,0.18717974424362183,-0.2835544943809509,0.3788064420223236
1775711492075050500,2.930050537109375,0.17768530547618866,-0.11900974065065384,0.09570921212434769
1775711492085063700,2.940063720703125,0.1634475141763687,-0.024476047605276108,-0.10677145421504974
1775711492095077600,2.95007763671875,0.196377232670784,0.0326511524617672,-0.2156294882297516
1775711492105090600,2.960090576171875,0.26157328486442566,0.08285786211490631,-0.25566187500953674
1775711492115103700,2.970103759765625,0.33167222142219543,-0.020238159224390984,-0.20106865465641022
1775711492125116700,2.98011669921875,0.367203027009964,-0.19900204241275787,-0.10580312460660934
1775711492135129600,2.990129638671875,0.3446314036846161,-0.3362656235694885,-0.03063514083623886
1775711492145142500,3.000142578125,0.28331318497657776,-0.39555051922798157,0.02665877528488636
1775711492155155700,3.01015576171875,0.22927100956439972,-0.35722124576568604,0.039077360183000565
1775711492165168600,3.020168701171875,0.23364737629890442,-0.3229881823062897,-0.004638161510229111
1775711492175181600,3.030181640625,0.27817782759666443,-0.3369860053062439,-0.09916093945503235
1775711492185194800,3.04019482421875,0.2987968325614929,-0.3515777289867401,-0.20086918771266937
1775711492195207700,3.050207763671875,0.3071375787258148,-0.3730795681476593,-0.29530036449432373
1775711492205221600,3.0602216796875,0.3335747718811035,-0.30438360571861267,-0.3597398102283478
1775711492215234600,3.070234619140625,0.355355441570282,-0.19183121621608734,-0.3632812798023224
1775711492225247700,3.080247802734375,0.35115164518356323,-0.1392497718334198,-0.344858855009079
1775711492235260700,3.0902607421875,0.3204975724220276,-0.12387879937887192,-0.31714653968811035
1775711492245273600,3.100273681640625,0.2631951570510864,-0.19123440980911255,-0.2799142003059387
1775711492255286800,3.110286865234375,0.16782762110233307,-0.32601165771484375,-0.22502033412456512
1775711492265299500,3.120299560546875,0.05511545017361641,-0.4587334990501404,-0.17104151844978333
1775711492275312600,3.130312744140625,-0.02714639902114868,-0.6117385029792786,-0.10581724345684052
1775711492285325600,3.14032568359375,-0.0712675228714943,-0.6994071006774902,0.015960324555635452
1775711492295338800,3.1503388671875,-0.09041005373001099,-0.7543608546257019,0.17445142567157745
1775711492305351700,3.1603515625,-0.09397869557142258,-0.8243016004562378,0.33633115887641907
1775711492315364600,3.170364501953125,-0.0872185230255127,-0.884867250919342,0.48248782753944397
1775711492325378600,3.180378662109375,-0.07400578260421753,-0.9564106464385986,0.5929903388023376
1775711492335391500,3.1903916015625,-0.04692809283733368,-0.913343071937561,0.56157386302948
1775711492345404700,3.20040478515625,-0.01619121991097927,-0.7702857851982117,0.3915262222290039
1775711492355417900,3.21041796875,0.014357367530465126,-0.5317749381065369,0.1512979120016098
1775711492365430500,3.220430419921875,0.033852506428956985,-0.2537819445133209,-0.10183235257863998
1775711492375443700,3.230443603515625,0.05083948001265526,-0.0916508212685585,-0.2620963156223297
1775711492385456600,3.24045654296875,0.06114751100540161,-0.050088200718164444,-0.3050547242164612
1775711492395469600,3.250469482421875,0.03731008619070053,-0.19229407608509064,-0.28871408104896545
1775711492405482500,3.260482421875,0.008686432614922523,-0.417931467294693,-0.26933160424232483
1775711492415495700,3.27049560546875,-0.02924230694770813,-0.6195694804191589,-0.2517520785331726
1775711492425508600,3.280508544921875,-0.06209053471684456,-0.7368231415748596,-0.24696184694766998
1775711492435522600,3.2905224609375,-0.060390640050172806,-0.7573502659797668,-0.2505216896533966
1775711492445535700,3.30053564453125,-0.03050997294485569,-0.6333260536193848,-0.28008517622947693
1775711492455548400,3.31054833984375,0.028927521780133247,-0.4722338616847992,-0.3103325664997101
1775711492465561600,3.3205615234375,0.11009321361780167,-0.3323553204536438,-0.31396380066871643
1775711492475574800,3.33057470703125,0.15972281992435455,-0.24370959401130676,-0.30123600363731384
1775711492485587700,3.340587646484375,0.16602012515068054,-0.22894743084907532,-0.3111720085144043
1775711492495600600,3.3506005859375,0.14145992696285248,-0.17336566746234894,-0.3535250425338745
1775711492505613600,3.360613525390625,0.1309998333454132,-0.13253967463970184,-0.40102145075798035
1775711492515626800,3.370626708984375,0.1570945382118225,-0.20309852063655853,-0.37523725628852844
1775711492525639400,3.380639404296875,0.14430232346057892,-0.3583986163139343,-0.2727183401584625
1775711492535652600,3.390652587890625,0.09383541345596313,-0.564034640789032,-0.15376506745815277
1775711492545665500,3.40066552734375,0.026146382093429565,-0.6827138662338257,-0.06789063662290573
1775711492555679500,3.410679443359375,-0.0429096482694149,-0.6818571090698242,-0.05684357509016991
1775711492565692700,3.420692626953125,-0.09450919181108475,-0.6233083009719849,-0.1215786263346672
1775711492575705600,3.43070556640625,-0.11252307891845703,-0.5330170392990112,-0.23386628925800323
1775711492585718500,3.440718505859375,-0.09976387768983841,-0.5023451447486877,-0.3216816186904907
1775711492595731700,3.450731689453125,-0.09071312844753265,-0.46658074855804443,-0.3320530354976654
1775711492605744600,3.46074462890625,-0.1111568808555603,-0.4458685517311096,-0.29185742139816284
1775711492615757800,3.4707578125,-0.14293105900287628,-0.5117762088775635,-0.210701584815979
1775711492625770500,3.4807705078125,-0.188943549990654,-0.5108464956283569,-0.1497546136379242
1775711492635783700,3.49078369140625,-0.22156408429145813,-0.3846723139286041,-0.16538070142269135
1775711492645796600,3.500796630859375,-0.22444668412208557,-0.24421720206737518,-0.24277189373970032
1775711492655809500,3.5108095703125,-0.23953989148139954,-0.15482260286808014,-0.3657050132751465
1775711492665823700,3.52082373046875,-0.27494049072265625,-0.10409657657146454,-0.47780224680900574
1775711492675836700,3.530836669921875,-0.3127525746822357,-0.14412522315979004,-0.535416305065155
1775711492685849600,3.540849609375,-0.3773430287837982,-0.2336503118276596,-0.5727987885475159
1775711492695862500,3.550862548828125,-0.44171616435050964,-0.27438947558403015,-0.6197947859764099
1775711492705875700,3.560875732421875,-0.44083651900291443,-0.24214179813861847,-0.6876540184020996
1775711492715888400,3.570888427734375,-0.4013969600200653,-0.18628466129302979,-0.7238953709602356
1775711492725901600,3.580901611328125,-0.3477289378643036,-0.1306498944759369,-0.6845921874046326
1775711492735914800,3.590914794921875,-0.30294069647789,-0.17746293544769287,-0.5655430555343628
1775711492745927700,3.600927734375,-0.2860727608203888,-0.21820424497127533,-0.4041583836078644
1775711492755940600,3.610940673828125,-0.2848282754421234,-0.2570941150188446,-0.2533486485481262
1775711492765953500,3.62095361328125,-0.29578718543052673,-0.2655200958251953,-0.12992523610591888
1775711492775966700,3.630966796875,-0.29017776250839233,-0.2052631378173828,-0.03435637429356575
1775711492785980700,3.640980712890625,-0.26697975397109985,-0.12152217328548431,0.030414365231990814
1775711492795993600,3.65099365234375,-0.24446965754032135,-0.08385521918535233,0.0830027386546135
1775711492806006800,3.6610068359375,-0.23155732452869415,-0.08139978349208832,0.15060389041900635
1775711492816019500,3.67101953125,-0.21893367171287537,-0.09045666456222534,0.21378499269485474
1775711492826032600,3.68103271484375,-0.1730937510728836,-0.06430309265851974,0.2527332007884979
1775711492836045600,3.691045654296875,-0.09513423591852188,-0.00887951161712408,0.2542959153652191
1775711492846058500,3.70105859375,-0.033604830503463745,0.09805386513471603,0.21666227281093597
1775711492856071700,3.71107177734375,-0.006332198157906532,0.20702295005321503,0.1353045552968979
1775711492866084600,3.721084716796875,-0.045634329319000244,0.23117250204086304,0.04517839848995209
1775711492876097800,3.731097900390625,-0.10515038669109344,0.1696699857711792,-0.017849836498498917
1775711492886110500,3.7411103515625,-0.14181146025657654,0.041728004813194275,-0.08055689185857773
1775711492896124700,3.751124755859375,-0.16391409933567047,-0.019645340740680695,-0.16989129781723022
1775711492906137600,3.7611376953125,-0.1640975922346115,0.0057412427850067616,-0.26181137561798096
1775711492916150500,3.771150634765625,-0.16988863050937653,0.09302421659231186,-0.33366692066192627
1775711492926163700,3.781163818359375,-0.16160354018211365,0.18033674359321594,-0.39647412300109863
1775711492936176600,3.7911767578125,-0.14802567660808563,0.20095813274383545,-0.4449910521507263
1775711492946189600,3.801189453125,-0.14853568375110626,0.22027884423732758,-0.4885915219783783
1775711492956202500,3.811202392578125,-0.1448863446712494,0.264276921749115,-0.5361102819442749
1775711492966215700,3.821215576171875,-0.13404542207717896,0.28437340259552,-0.5469983816146851
1775711492976228600,3.831228515625,-0.10276632755994797,0.3224182724952698,-0.4838785231113434
1775711492986241500,3.841241455078125,-0.0749559998512268,0.3436247408390045,-0.3650578558444977
1775711492996254700,3.851254638671875,-0.08606191724538803,0.31029102206230164,-0.22363415360450745
1775711493006267600,3.861267578125,-0.1224803775548935,0.25075820088386536,-0.10127628594636917
1775711493016281600,3.871281494140625,-0.18807455897331238,0.1785404533147812,-0.04048324376344681
1775711493026294800,3.881294677734375,-0.2655310034751892,0.16541558504104614,-0.07059347629547119
1775711493036307500,3.891307373046875,-0.31176480650901794,0.24816825985908508,-0.16049247980117798
1775711493046320600,3.901320556640625,-0.29581061005592346,0.4179154932498932,-0.2531803250312805
1775711493056333600,3.91133349609375,-0.2358601987361908,0.6255933046340942,-0.288891464471817
1775711493066346800,3.9213466796875,-0.131706103682518,0.7081510424613953,-0.2668929398059845
1775711493076359400,3.931359375,-0.006016080733388662,0.6780616044998169,-0.21755149960517883
1775711493086372600,3.94137255859375,0.10586731135845184,0.619257390499115,-0.15849004685878754
1775711493096385800,3.9513857421875,0.20956067740917206,0.5940628051757812,-0.12982884049415588
1775711493106398500,3.9613984375,0.2964250147342682,0.5878307819366455,-0.13074682652950287
1775711493116411600,3.97141162109375,0.3510296642780304,0.5581884384155273,-0.13022644817829132
1775711493126425600,3.981425537109375,0.35355648398399353,0.47057923674583435,-0.11750372499227524
1775711493136438500,3.9914384765625,0.31678035855293274,0.27052655816078186,-0.06223407760262489
1775711493146451700,4.00145166015625,0.23489266633987427,0.12199408560991287,0.01883520744740963
1775711493156464600,4.011464599609375,0.13305366039276123,0.0937158390879631,0.10849691927433014
1775711493166477600,4.0214775390625,0.052503153681755066,0.1788903921842575,0.1855429708957672
1775711493176490500,4.031490478515625,-0.013124058023095131,0.2949240505695343,0.24864895641803741
1775711493186503700,4.041503662109375,-0.07691741734743118,0.4078865647315979,0.3056776225566864
1775711493196516600,4.0515166015625,-0.13720472157001495,0.4382138252258301,0.36257845163345337
1775711493206529500,4.061529541015625,-0.2045038789510727,0.35933205485343933,0.4200526773929596
1775711493216542700,4.071542724609375,-0.24277350306510925,0.24434183537960052,0.4827655851840973
1775711493226555600,4.0815556640625,-0.2419082373380661,0.17769889533519745,0.562100887298584
1775711493236568600,4.091568603515625,-0.19627177715301514,0.14182770252227783,0.6541399955749512
1775711493246582500,4.10158251953125,-0.1347612738609314,0.11561235040426254,0.7407143115997314
1775711493256595700,4.111595703125,-0.06654227524995804,0.09128277748823166,0.7954742312431335
1775711493266608600,4.121608642578125,-0.03322959318757057,0.12216425687074661,0.78714519739151
1775711493276621600,4.13162158203125,-0.049430932849645615,0.1937660127878189,0.652810275554657
1775711493286634800,4.141634765625,-0.09126786142587662,0.265878289937973,0.4285936951637268
1775711493296647400,4.1516474609375,-0.15090057253837585,0.3129864037036896,0.21476982533931732
1775711493306660600,4.16166064453125,-0.2193659096956253,0.32439300417900085,0.05651387572288513
1775711493316673500,4.171673583984375,-0.28256165981292725,0.29477277398109436,-0.05567071959376335
1775711493326686700,4.181686767578125,-0.32982105016708374,0.26119938492774963,-0.1021394208073616
1775711493336699600,4.19169970703125,-0.33560436964035034,0.24590590596199036,-0.07923969626426697
1775711493346712600,4.201712646484375,-0.3179446756839752,0.19133533537387848,-0.004092745948582888
1775711493356725800,4.211725830078125,-0.2891431152820587,0.13724280893802643,0.1292695701122284
1775711493366739500,4.221739501953125,-0.2474934160709381,0.11089429259300232,0.27602970600128174
1775711493376752600,4.231752685546875,-0.21297618746757507,0.14815883338451385,0.3790818154811859
1775711493386765800,4.241765869140625,-0.21335355937480927,0.24415114521980286,0.4063245952129364
1775711493396778500,4.251778564453125,-0.24351118505001068,0.31351372599601746,0.3413623869419098
1775711493406791700,4.261791748046875,-0.3042576313018799,0.2955426871776581,0.2518117427825928
1775711493416804600,4.2718046875,-0.40099775791168213,0.25373825430870056,0.16055957973003387
1775711493426817500,4.281817626953125,-0.4771721363067627,0.2652742862701416,0.08900417387485504
1775711493436830500,4.29183056640625,-0.4541674852371216,0.2753884196281433,0.11250737309455872
1775711493446843600,4.30184375,-0.39910638332366943,0.25934314727783203,0.18734219670295715
1775711493456856800,4.31185693359375,-0.35764816403388977,0.2613874077796936,0.2574280798435211
1775711493466869500,4.321869384765625,-0.29757416248321533,0.2824873626232147,0.30266693234443665
1775711493476883700,4.3318837890625,-0.22891227900981903,0.301034152507782,0.29703807830810547
1775711493486896600,4.341896728515625,-0.18300017714500427,0.3266369700431824,0.2580603063106537
1775711493496909600,4.35190966796875,-0.16394126415252686,0.35072073340415955,0.21512775123119354
1775711493506922800,4.3619228515625,-0.17894232273101807,0.38509443402290344,0.20074455440044403
1775711493516935700,4.371935791015625,-0.18496772646903992,0.3989143669605255,0.2006249725818634
1775711493526948600,4.381948486328125,-0.18616348505020142,0.37583380937576294,0.16622811555862427
1775711493536961500,4.39196142578125,-0.21753205358982086,0.4415113627910614,0.12000630050897598
1775711493546974700,4.401974609375,-0.2356862872838974,0.5785107612609863,0.07096818089485168
1775711493556987600,4.411987548828125,-0.2508889436721802,0.7211187481880188,0.05176146328449249
1775711493567000600,4.42200048828125,-0.2784755825996399,0.77967768907547,0.08599906414747238
1775711493577013800,4.432013671875,-0.2975864112377167,0.6572444438934326,0.2077135145664215
1775711493587026700,4.442026611328125,-0.29633471369743347,0.37212827801704407,0.4055240750312805
1775711493597040600,4.45204052734375,-0.26637575030326843,0.013864150270819664,0.5694970488548279
1775711493607053600,4.462053466796875,-0.23759950697422028,-0.26284706592559814,0.646152138710022
1775711493617066500,4.47206640625,-0.2222013771533966,-0.375683069229126,0.6421709656715393
1775711493627079700,4.48207958984375,-0.23617498576641083,-0.36493322253227234,0.573829710483551
1775711493637092600,4.492092529296875,-0.252469003200531,-0.2979307472705841,0.4070087671279907
1775711493647105800,4.502105712890625,-0.27201712131500244,-0.19796182215213776,0.2330191433429718
1775711493657118500,4.512118408203125,-0.2782726287841797,-0.10116017609834671,0.11404268443584442
1775711493667131600,4.522131591796875,-0.26256558299064636,0.03127376735210419,0.03545306622982025
1775711493677144600,4.53214453125,-0.24148160219192505,0.1984369307756424,-0.031554196029901505
1775711493687157500,4.542157470703125,-0.20187905430793762,0.3027161955833435,-0.08690320700407028
1775711493697170700,4.552170654296875,-0.15120816230773926,0.3231809735298157,-0.10557515919208527
1775711493707183600,4.56218359375,-0.09190941601991653,0.19683237373828888,-0.05444406718015671
1775711493717197600,4.572197509765625,-0.014817295596003532,-0.024700019508600235,0.0633733794093132
1775711493727210500,4.58221044921875,0.052986785769462585,-0.3145986795425415,0.15847539901733398
1775711493737223700,4.5922236328125,0.05932697281241417,-0.5179784297943115,0.18734751641750336
1775711493747236600,4.602236572265625,0.01107661984860897,-0.5542243123054504,0.1414463371038437
1775711493757249500,4.61224951171875,-0.04199725016951561,-0.4979091286659241,0.048474859446287155
1775711493767262700,4.6222626953125,-0.06724055856466293,-0.3659404218196869,-0.050993144512176514
1775711493777275600,4.632275634765625,-0.06894125044345856,-0.2141338586807251,-0.1467369794845581
1775711493787288600,4.64228857421875,-0.07780904322862625,-0.07136419415473938,-0.21166910231113434
1775711493797301500,4.652301513671875,-0.10303903371095657,0.04236183688044548,-0.25715190172195435
1775711493807314700,4.662314697265625,-0.12991511821746826,0.08950165659189224,-0.3032331168651581
1775711493817327600,4.67232763671875,-0.13117080926895142,0.08561263978481293,-0.3252556025981903
1775711493827340500,4.682340576171875,-0.1070079430937767,0.047635164111852646,-0.26792892813682556
1775711493837354800,4.692354736328125,-0.05500386282801628,-0.08917328715324402,-0.15386679768562317
1775711493847367400,4.702367431640625,-0.03356355428695679,-0.259228378534317,-0.04477492719888687
1775711493857380600,4.712380615234375,-0.07189948856830597,-0.3813380300998688,0.012632970698177814
1775711493867393800,4.722393798828125,-0.12966372072696686,-0.42696863412857056,-0.006928479764610529
1775711493877406700,4.73240673828125,-0.19183655083179474,-0.37654754519462585,-0.05928569287061691
1775711493887419600,4.742419677734375,-0.22572048008441925,-0.2667214274406433,-0.13272102177143097
1775711493897432600,4.7524326171875,-0.22763581573963165,-0.11491886526346207,-0.20938384532928467
1775711493907445800,4.76244580078125,-0.20770685374736786,0.07197325676679611,-0.27845558524131775
1775711493917458400,4.77245849609375,-0.15153013169765472,0.2561582922935486,-0.3664019703865051
1775711493927471600,4.7824716796875,-0.08991923928260803,0.4491961896419525,-0.4390498101711273
1775711493937484500,4.792484619140625,-0.03297925367951393,0.5965262651443481,-0.454279363155365
1775711493947498500,4.80249853515625,0.018801916390657425,0.6853368282318115,-0.41228848695755005
1775711493957511700,4.81251171875,0.05922577157616615,0.7312560677528381,-0.3322618305683136
1775711493967524600,4.822524658203125,0.054065898060798645,0.7413662672042847,-0.23400583863258362
1775711493977537500,4.83253759765625,0.023735156282782555,0.6417310237884521,-0.14159254729747772
1775711493987550700,4.84255078125,-0.012373312376439571,0.4929601550102234,-0.03573109954595566
1775711493997563600,4.852563720703125,-0.04382631182670593,0.3150809705257416,0.06001193821430206
1775711494007576800,4.862576904296875,-0.0519351027905941,0.19232018291950226,0.13192766904830933
1775711494017589500,4.872589599609375,-0.06315580010414124,0.18588517606258392,0.2007693201303482
1775711494027602700,4.882602783203125,-0.068862684071064,0.24852831661701202,0.24698874354362488
1775711494037615600,4.89261572265625,-0.07718666642904282,0.35206350684165955,0.25799426436424255
1775711494047628500,4.902628662109375,-0.041549839079380035,0.40737229585647583,0.22365492582321167
1775711494057641500,4.912641357421875,0.04585989937186241,0.4223347306251526,0.15843598544597626
1775711494067655700,4.92265576171875,0.14491164684295654,0.3748582899570465,0.08168074488639832
1775711494077668600,4.932668701171875,0.17669807374477386,0.3007281422615051,0.012425243854522705
1775711494087681500,4.942681640625,0.1353519707918167,0.1743457019329071,-0.027052655816078186
1775711494097694700,4.95269482421875,0.10781780630350113,0.01447188388556242,-0.0721849799156189
1775711494107707400,4.962707275390625,0.09700404107570648,-0.08846834301948547,-0.137163445353508
1775711494117720600,4.972720458984375,0.12493101507425308,-0.13721857964992523,-0.21900877356529236
1775711494127733800,4.982733642578125,0.18802475929260254,-0.1134549230337143,-0.32656747102737427
1775711494137746700,4.99274658203125,0.24132420122623444,-0.047927577048540115,-0.4176188111305237
1775711494147759600,5.002759521484375,0.27064400911331177,-0.0019052254501730204,-0.451179176568985
1775711494157772500,5.0127724609375,0.26531529426574707,0.02754880301654339,-0.42230144143104553
1775711494167785700,5.02278564453125,0.21222543716430664,0.03539687395095825,-0.3620418310165405
1775711494177798400,5.03279833984375,0.14322321116924286,0.036063726991415024,-0.2923074960708618
1775711494187812600,5.0428125,0.0730355978012085,0.03164314851164818,-0.2128656655550003
1775711494197825800,5.05282568359375,0.003722300287336111,0.03038560226559639,-0.11643313616514206
1775711494207838500,5.06283837890625,-0.07065019756555557,0.021829131990671158,0.00740332156419754
1775711494217851600,5.0728515625,-0.1149420291185379,-0.015187474898993969,0.13218680024147034
1775711494227864600,5.082864501953125,-0.11550688743591309,-0.05584355816245079,0.23746581375598907
1775711494237877500,5.09287744140625,-0.06893352419137955,-0.12600933015346527,0.2651810646057129
1775711494247890700,5.102890625,-0.01002094242721796,-0.134528249502182,0.21374477446079254
1775711494257903600,5.112903564453125,0.03256407007575035,-0.09120261669158936,0.1086638942360878
1775711494267916800,5.122916748046875,0.05681534484028816,-0.04469050467014313,-0.0157664455473423
1775711494277929500,5.132929443359375,0.053045108914375305,0.01624874398112297,-0.10456076264381409
1775711494287942700,5.142942626953125,0.02870727889239788,0.07019506394863129,-0.1365346759557724
1775711494297955600,5.15295556640625,-0.009907491505146027,0.14417928457260132,-0.11109057068824768
1775711494307969500,5.162969482421875,-0.03261227160692215,0.1928919553756714,-0.0451192744076252
1775711494317982700,5.172982666015625,-0.028713403269648552,0.1640603095293045,0.023324230685830116
1775711494327995600,5.18299560546875,-0.004781439434736967,0.09412889182567596,0.10892675071954727
1775711494338008600,5.193008544921875,0.03292519226670265,0.007002515718340874,0.20122845470905304
1775711494348021500,5.203021484375,0.06716838479042053,-0.05711574852466583,0.2572571039199829
1775711494358034700,5.21303466796875,0.09132112562656403,-0.05258571356534958,0.2711806297302246
1775711494368047600,5.223047607421875,0.10053406655788422,-0.04183053597807884,0.2315240353345871
1775711494378060500,5.233060546875,0.05681401491165161,-0.02490055561065674,0.17662669718265533
1775711494388073700,5.24307373046875,0.006176403257995844,-0.05235375091433525,0.1317678838968277
1775711494398086700,5.253086669921875,-0.006983873434364796,-0.09744719415903091,0.093956857919693
1775711494408099600,5.263099609375,0.016339559108018875,-0.08995199203491211,0.046114496886730194
1775711494418112500,5.273112548828125,0.05907849967479706,-0.055019311606884,-0.01179354265332222
1775711494428126500,5.28312646484375,0.07606653869152069,0.0012966931099072099,-0.05967318266630173
1775711494438139600,5.2931396484375,0.05873442068696022,0.07136233150959015,-0.07339805364608765
1775711494448152600,5.303152587890625,0.033535588532686234,0.10701540112495422,-0.06016453728079796
1775711494458165800,5.313165771484375,0.025018000975251198,0.10321000963449478,-0.037589188665151596
1775711494468178400,5.323178466796875,0.04464869573712349,0.05955680459737778,-0.03057761676609516
1775711494478191600,5.333191650390625,0.07787109911441803,0.009099755436182022,-0.03849572688341141
1775711494488204800,5.343204833984375,0.09611134976148605,-0.03560113534331322,-0.04519517347216606
1775711494498217500,5.353217529296875,0.09187266230583191,-0.07445399463176727,-0.059894490987062454
1775711494508230700,5.363230712890625,0.06493213027715683,-0.04773290082812309,-0.05890672653913498
1775711494518243600,5.37324365234375,0.044800493866205215,-0.008810269646346569,-0.047633033245801926
1775711494528256800,5.3832568359375,0.04926102235913277,0.0002956108655780554,-0.0507875457406044
1775711494538270700,5.393270751953125,0.05949848145246506,-0.03876976668834686,-0.053829677402973175
1775711494548283600,5.40328369140625,0.0819806233048439,-0.11598359048366547,-0.06256245076656342
1775711494558296600,5.413296630859375,0.10618768632411957,-0.134734645485878,-0.07545720785856247
1775711494568309500,5.4233095703125,0.10667318105697632,-0.10356740653514862,-0.08181151002645493
1775711494578322700,5.43332275390625,0.09542691707611084,-0.07310696691274643,-0.09000232815742493
1775711494588335600,5.443335693359375,0.08553780615329742,-0.0516328327357769,-0.10656532645225525
1775711494598348500,5.4533486328125,0.07646840810775757,-0.05324777588248253,-0.12224628031253815
1775711494608361700,5.46336181640625,0.06616783142089844,-0.07522178441286087,-0.12298903614282608
1775711494618374700,5.473374755859375,0.06193820387125015,-0.09897159039974213,-0.10337139666080475
1775711494628387600,5.4833876953125,0.05579429119825363,-0.10273516923189163,-0.07074820250272751
1775711494638400500,5.493400390625,0.05102882906794548,-0.09572998434305191,-0.0338093638420105
1775711494648413700,5.50341357421875,0.05221420153975487,-0.10229414701461792,0.010202037170529366
1775711494658427600,5.513427734375,0.06254806369543076,-0.13681350648403168,0.04683728143572807
1775711494668440600,5.523440673828125,0.07628358900547028,-0.1554391235113144,0.05730270594358444
1775711494678453800,5.533453857421875,0.09281942248344421,-0.14685602486133575,0.03654203191399574
1775711494688466400,5.543466552734375,0.110349141061306,-0.1476946473121643,0.009224124252796173
1775711494698479000,5.55347900390625,0.11961774528026581,-0.20430120825767517,0.02076067216694355
1775711494708492300,5.5634921875,0.10229414701461792,-0.266852468252182,0.04656324163079262
1775711494718505200,5.573505126953125,0.07078628987073898,-0.27723559737205505,0.06948293745517731
1775711494728518100,5.58351806640625,0.02827984094619751,-0.22935649752616882,0.06642909348011017
1775711494738531000,5.593531005859375,-0.00007456851017195731,-0.20832310616970062,0.037876807153224945
1775711494748544300,5.603544189453125,-0.007463775109499693,-0.1965162605047226,0.0007574030314572155
1775711494758557400,5.613557373046875,0.010694989003241062,-0.15308383107185364,-0.0553082637488842
1775711494768570000,5.623570068359375,0.04706631228327751,-0.06181010603904724,-0.11515907943248749
1775711494778584300,5.633584228515625,0.04849110171198845,0.1155921071767807,-0.14495985209941864
1775711494788597000,5.643596923828125,0.028961077332496643,0.2466215044260025,-0.09711696207523346
1775711494798610200,5.653610107421875,0.024811606854200363,0.18828389048576355,0.057977017015218735
1775711494808623400,5.663623291015625,0.019042400643229485,0.010328271426260471,0.23969967663288116
1775711494818636300,5.67363623046875,0.006189186125993729,-0.20043030381202698,0.3703940510749817
1775711494828649200,5.683649169921875,-0.013879063539206982,-0.3008674383163452,0.41259849071502686
1775711494838662100,5.693662109375,-0.003662112867459655,-0.2592291831970215,0.32203209400177
1775711494848675300,5.70367529296875,0.033670078963041306,-0.09144362807273865,0.16800019145011902
1775711494858688000,5.71368798828125,0.06569033116102219,0.09144709259271622,0.016989901661872864
1775711494868701200,5.723701171875,0.08481289446353912,0.2845451831817627,-0.0938737615942955
1775711494878714000,5.733714111328125,0.11121360957622528,0.4355437457561493,-0.13620124757289886
1775711494888727300,5.743727294921875,0.12421489506959915,0.5366727709770203,-0.12016689032316208
1775711494898741200,5.7537412109375,0.11791465431451797,0.534748911857605,-0.031867917627096176
1775711494908754200,5.763754150390625,0.11825260519981384,0.40934276580810547,0.11067218333482742
1775711494918767000,5.77376708984375,0.10243768990039825,0.21245767176151276,0.2613551616668701
1775711494928780300,5.7837802734375,0.08626271784305573,0.0010032127611339092,0.4196244478225708
1775711494938793200,5.793793212890625,0.09689272195100784,-0.23626500368118286,0.5546136498451233
1775711494948806400,5.803806396484375,0.10959520190954208,-0.45994096994400024,0.6345607042312622
1775711494958819000,5.813819091796875,0.09624957293272018,-0.4995938241481781,0.639212429523468
1775711494968832300,5.823832275390625,0.044314999133348465,-0.33085861802101135,0.616274893283844
1775711494978845200,5.83384521484375,-0.0016618125373497605,-0.11416652053594589,0.560670793056488
1775711494988858000,5.843858154296875,-0.008829710073769093,-0.016947291791439056,0.5243873596191406
1775711494998871000,5.85387109375,0.01702159456908703,-0.05992671847343445,0.4996545612812042
1775711495008884200,5.86388427734375,0.05554235354065895,-0.1469321846961975,0.48145532608032227
1775711495018898200,5.873898193359375,0.11374200880527496,-0.28726932406425476,0.4342544972896576
1775711495028911000,5.8839111328125,0.16852989792823792,-0.3906998336315155,0.3713812828063965
1775711495038924300,5.89392431640625,0.1838766187429428,-0.42500534653663635,0.33175531029701233
1775711495048937000,5.90393701171875,0.18167312443256378,-0.3958812952041626,0.28784483671188354
1775711495058950100,5.9139501953125,0.18023554980754852,-0.2670447528362274,0.2138960361480713
1775711495068963300,5.92396337890625,0.15619945526123047,-0.12013013660907745,0.13610431551933289
1775711495078976300,5.933976318359375,0.13504436612129211,-0.11982201039791107,0.10709476470947266
1775711495088989200,5.9439892578125,0.15600824356079102,-0.2482454925775528,0.13437432050704956
1775711495099002000,5.954002197265625,0.21299029886722565,-0.40040040016174316,0.20764906704425812
1775711495109015300,5.964015380859375,0.2825366258621216,-0.529980480670929,0.2171831876039505
1775711495119028000,5.974028076171875,0.32511764764785767,-0.592738687992096,0.15857818722724915
1775711495129041200,5.984041259765625,0.34229743480682373,-0.5554999709129333,0.07439673691987991
1775711495139055400,5.994055419921875,0.3517039716243744,-0.5021712183952332,-0.007544735446572304
1775711495149068000,6.004068115234375,0.36327701807022095,-0.42710044980049133,-0.046670299023389816
1775711495159081200,6.014081298828125,0.32015883922576904,-0.30998075008392334,-0.07807349413633347
1775711495169094100,6.02409423828125,0.27127596735954285,-0.17686159908771515,-0.08564326167106628
1775711495179107000,6.034107177734375,0.24344861507415771,-0.09371903538703918,-0.032587505877017975
1775711495189120300,6.044120361328125,0.2298116236925125,-0.17004789412021637,0.0845513716340065
1775711495199133200,6.05413330078125,0.1866484433412552,-0.4487849771976471,0.17946802079677582
1775711495209146400,6.064146484375,0.13258147239685059,-0.6942663788795471,0.22732476890087128
1775711495219159000,6.074158935546875,0.11140508949756622,-0.7912009358406067,0.19457800686359406
1775711495229172200,6.084172119140625,0.14161358773708344,-0.7395275831222534,0.10087308287620544
1775711495239185200,6.09418505859375,0.20403781533241272,-0.6501708030700684,-0.033659424632787704
1775711495249198000,6.104197998046875,0.24491627514362335,-0.5529689192771912,-0.22602567076683044
1775711495259212300,6.11421240234375,0.2607916593551636,-0.39876896142959595,-0.4609558880329132
1775711495269225200,6.12422509765625,0.26528918743133545,-0.22088071703910828,-0.646166205406189
1775711495279238100,6.134238037109375,0.27425020933151245,-0.07071118801832199,-0.711755096912384
1775711495289251000,6.1442509765625,0.28834816813468933,-0.00538357999175787,-0.677381694316864
1775711495299264300,6.15426416015625,0.3214576542377472,-0.040410008281469345,-0.5697628259658813
1775711495309277200,6.164277099609375,0.34646978974342346,-0.18503695726394653,-0.42802509665489197
1775711495319290000,6.1742900390625,0.3489159047603607,-0.34175652265548706,-0.2763993740081787
1775711495329303300,6.18430322265625,0.3249882161617279,-0.47829893231391907,-0.1618586778640747
1775711495339316200,6.194316162109375,0.2734709680080414,-0.5237069129943848,-0.13387711346149445
1775711495349329200,6.2043291015625,0.2035752236843109,-0.47853487730026245,-0.17207695543766022
1775711495359342000,6.214342041015625,0.14204289019107819,-0.43471071124076843,-0.21421562135219574
1775711495369356000,6.22435595703125,0.0819835513830185,-0.38222965598106384,-0.24249839782714844
1775711495379369200,6.234369140625,0.01673770137131214,-0.37725701928138733,-0.2605208158493042
1775711495389382100,6.244382080078125,-0.03368020057678223,-0.3986453711986542,-0.2425798922777176
1775711495399395300,6.254395263671875,-0.09019407629966736,-0.41858580708503723,-0.25416624546051025
1775711495409408000,6.264407958984375,-0.12794731557369232,-0.428986519575119,-0.3191060721874237
1775711495419421200,6.274421142578125,-0.13553652167320251,-0.3872542381286621,-0.3789544999599457
1775711495429434400,6.284434326171875,-0.10411548614501953,-0.34503141045570374,-0.392416775226593
1775711495439447000,6.294447021484375,-0.05086797475814819,-0.3336562514305115,-0.35823139548301697
1775711495449460200,6.304460205078125,0.00797456968575716,-0.3688685894012451,-0.29410991072654724
1775711495459473200,6.31447314453125,0.08205865323543549,-0.41274869441986084,-0.2351776361465454
1775711495469486300,6.324486328125,0.1557006537914276,-0.3940466344356537,-0.20120634138584137
1775711495479499000,6.3344990234375,0.20710258185863495,-0.3018767535686493,-0.197179913520813
1775711495489513200,6.34451318359375,0.2195669710636139,-0.2090030163526535,-0.2183043658733368
1775711495499526100,6.354526123046875,0.19732239842414856,-0.13364940881729126,-0.24638687074184418
1775711495509539000,6.3645390625,0.15551821887493134,-0.0896792858839035,-0.2707659900188446
1775711495519552300,6.37455224609375,0.10764257609844208,-0.01503913663327694,-0.30253031849861145
1775711495529565200,6.384565185546875,0.06738143414258957,0.07979922741651535,-0.3205851912498474
1775711495539578000,6.394578125,0.04545217007398605,0.08911336213350296,-0.29414987564086914
1775711495549591300,6.40459130859375,-0.002171275205910206,0.020769193768501282,-0.25322186946868896
1775711495559604200,6.414604248046875,-0.05973683297634125,-0.028320321813225746,-0.21397008001804352
1775711495569617200,6.4246171875,-0.10360495746135712,-0.04517147317528725,-0.16850991547107697
1775711495579630000,6.434630126953125,-0.13540495932102203,-0.02467711642384529,-0.1312914490699768
1775711495589643300,6.444643310546875,-0.16321341693401337,0.006389722228050232,-0.09774227440357208
1775711495599656200,6.45465625,-0.17953486740589142,0.037885863333940506,-0.06897187978029251
1775711495609670100,6.464670166015625,-0.17525704205036163,0.11165063083171844,-0.029463084414601326
1775711495619683300,6.474683349609375,-0.17317764461040497,0.19436708092689514,-0.006771087180823088
1775711495629696300,6.4846962890625,-0.17207935452461243,0.23526924848556519,-0.01152509544044733
1775711495639709200,6.494709228515625,-0.1549040973186493,0.2634153962135315,-0.0009776464430615306
1775711495649722000,6.50472216796875,-0.11989684402942657,0.29099616408348083,0.03657345846295357
1775711495659735300,6.5147353515625,-0.0927824005484581,0.31407830119132996,0.06431321054697037
1775711495669748200,6.524748291015625,-0.05082935839891434,0.3001773953437805,0.08590958267450333
1775711495679761200,6.53476123046875,-0.01395709440112114,0.2996562123298645,0.05662226676940918
1775711495689774300,6.5447744140625,0.014332599937915802,0.31469348073005676,-0.0015744607662782073
1775711495699787300,6.554787353515625,0.04276024550199509,0.34999075531959534,-0.024754615500569344
1775711495709800400,6.564800537109375,0.053529269993305206,0.32288724184036255,-0.023394538089632988
1775711495719813400,6.5748134765625,0.05511411651968956,0.29098257422447205,-0.05473781377077103
1775711495729827300,6.584827392578125,0.06196669861674309,0.30879539251327515,-0.11029081791639328
1775711495739840500,6.594840576171875,0.0699058473110199,0.36182159185409546,-0.1711517721414566
1775711495749853400,6.604853515625,0.07299298048019409,0.3916569948196411,-0.23114188015460968
1775711495759866400,6.614866455078125,0.0750071331858635,0.3892372250556946,-0.25579556822776794
1775711495769879300,6.62487939453125,0.0693492442369461,0.39903393387794495,-0.23786023259162903
1775711495779892500,6.634892578125,0.07741595804691315,0.40238261222839355,-0.18865327537059784
1775711495789905700,6.64490576171875,0.10567263513803482,0.33752530813217163,-0.10129360109567642
1775711495799918300,6.65491845703125,0.11817430704832077,0.2155511975288391,-0.004547347314655781
1775711495809931500,6.664931640625,0.1107555404305458,0.12622158229351044,0.07502231001853943
1775711495819944400,6.6749443359375,0.09039541333913803,0.13067571818828583,0.09552918374538422
1775711495829957400,6.684957275390625,0.0571245402097702,0.22808243334293365,0.0543212965130806
1775711495839970300,6.69497021484375,0.009274724870920181,0.3161073625087738,0.0027574370615184307
1775711495849984500,6.704984619140625,-0.06800328195095062,0.31875908374786377,-0.017405621707439423
1775711495859997400,6.71499755859375,-0.157075896859169,0.29256394505500793,0.0012146678054705262
1775711495870010400,6.72501025390625,-0.23008060455322266,0.24229440093040466,0.06985444575548172
1775711495880023600,6.7350234375,-0.2779919505119324,0.18742474913597107,0.20984697341918945
1775711495890036200,6.7450361328125,-0.2986375689506531,0.1094852164387703,0.38737621903419495
1775711495900049400,6.75504931640625,-0.3066385090351105,-0.003724430687725544,0.5519310832023621
1775711495910062600,6.7650625,-0.3084963262081146,-0.05931605398654938,0.6565911769866943
1775711495920075500,6.775075439453125,-0.3167300224304199,-0.06023644283413887,0.7058468461036682
1775711495930088400,6.78508837890625,-0.3202933073043823,-0.04018150642514229,0.7443633675575256
1775711495940101400,6.795101318359375,-0.30460065603256226,-0.05718579143285751,0.7723910212516785
1775711495950114600,6.805114501953125,-0.2811792194843292,-0.1064864918589592,0.784159779548645
1775711495960127200,6.815127197265625,-0.2640071511268616,-0.14768239855766296,0.7622012495994568
1775711495970141400,6.825141357421875,-0.25646987557411194,-0.12793266773223877,0.6836068034172058
1775711495980154600,6.835154541015625,-0.251385360956192,-0.0444505549967289,0.5498426556587219
1775711495990167300,6.845167236328125,-0.2559119462966919,0.07551020383834839,0.39646825194358826
1775711496000180500,6.855180419921875,-0.2617354691028595,0.1591600924730301,0.2558687925338745
1775711496010193400,6.865193359375,-0.24959465861320496,0.20777876675128937,0.1575523465871811
1775711496020206300,6.875206298828125,-0.21311813592910767,0.2172180712223053,0.10685640573501587
1775711496030219500,6.885219482421875,-0.1779838502407074,0.2105681598186493,0.10924047231674194
1775711496040232400,6.895232421875,-0.1559256911277771,0.1984233409166336,0.16248345375061035
1775711496050245600,6.90524560546875,-0.14151878654956818,0.16389918327331543,0.22358381748199463
1775711496060258300,6.91525830078125,-0.12954680621623993,0.0861591175198555,0.27413275837898254
1775711496070271500,6.925271484375,-0.15772917866706848,0.017312943935394287,0.2921253442764282
1775711496080284400,6.935284423828125,-0.2206042855978012,-0.0009190568816848099,0.25640836358070374
1775711496090298400,6.94529833984375,-0.27017742395401,0.024236097931861877,0.19187729060649872
1775711496100311600,6.9553115234375,-0.278060644865036,0.08883106708526611,0.12310755252838135
1775711496110324500,6.965324462890625,-0.25366130471229553,0.19749629497528076,0.05684464052319527
1775711496120337400,6.97533740234375,-0.20927731692790985,0.32550060749053955,0.015221296809613705
1775711496130350300,6.985350341796875,-0.14721235632896423,0.4519006311893463,0.005013933405280113
1775711496140363500,6.995363525390625,-0.08327917754650116,0.5117626190185547,-0.0001280980504816398
1775711496150376400,7.00537646484375,-0.026575684547424316,0.5197529196739197,0.011666242964565754
1775711496160389400,7.015389404296875,0.02401851676404476,0.42750951647758484,0.03482748940587044
1775711496170402600,7.025402587890625,0.07183610647916794,0.26949912309646606,0.03561844676733017
1775711496180415500,7.03541552734375,0.0815473198890686,0.13146747648715973,0.007875766605138779
1775711496190428400,7.045428466796875,0.07061824202537537,0.012192750349640846,0.017282849177718163
1775711496200441300,7.05544140625,0.0545138418674469,-0.11947845667600632,0.02611762098968029
1775711496210455300,7.065455322265625,-0.031189611181616783,-0.23423247039318085,-0.0643739327788353
1775711496220468500,7.075468505859375,-0.15778137743473053,-0.21173036098480225,-0.23571957647800446
1775711496230481400,7.0854814453125,-0.2581908106803894,-0.06409802287817001,-0.3912103772163391
1775711496240494600,7.09549462890625,-0.31333979964256287,0.10445477068424225,-0.4574461281299591
1775711496250507300,7.10550732421875,-0.3251866102218628,0.21168722212314606,-0.4228183627128601
1775711496260520400,7.1155205078125,-0.26664021611213684,0.19791680574417114,-0.29545560479164124
1775711496270533600,7.12553369140625,-0.17842113971710205,0.06201969459652901,-0.1253129094839096
1775711496280546300,7.13554638671875,-0.09113949537277222,-0.11522725969552994,0.05500786006450653
1775711496290559500,7.1455595703125,0.0043960800394415855,-0.3042677640914917,0.2168572098016739
1775711496300572400,7.155572509765625,0.0798247903585434,-0.4677562713623047,0.3347364366054535
1775711496310585600,7.165585693359375,0.10813312977552414,-0.606561541557312,0.37418290972709656
1775711496320598300,7.175598388671875,0.08377771824598312,-0.6586215496063232,0.3329489231109619
1775711496330612500,7.185612548828125,0.04418503865599632,-0.6467172503471375,0.226580411195755
1775711496340625400,7.19562548828125,0.018250908702611923,-0.6028371453285217,0.10280227661132812
1775711496350638300,7.205638427734375,0.006600910797715187,-0.5756326913833618,0.011130415834486485
1775711496360651500,7.215651611328125,0.004083424806594849,-0.5543513298034668,-0.019786488264799118
1775711496370664400,7.22566455078125,-0.005711948033422232,-0.5329533815383911,-0.0038690404035151005
1775711496380677400,7.235677490234375,0.005449360236525536,-0.504722535610199,0.041909631341695786
1775711496390690600,7.245690673828125,0.020891966298222542,-0.48898380994796753,0.07536160200834274
1775711496400703500,7.255703369140625,0.028967736288905144,-0.5148308277130127,0.04802585020661354
1775711496410716400,7.26571630859375,0.04237515479326248,-0.5634564161300659,-0.023026222363114357
1775711496420729300,7.275729248046875,0.04405134543776512,-0.573911190032959,-0.09685464203357697
1775711496430742500,7.285742431640625,0.041966360062360764,-0.5480734705924988,-0.15937741100788116
1775711496440755500,7.29575537109375,0.04740559682250023,-0.49444302916526794,-0.24756425619125366
1775711496450769400,7.305769287109375,0.04897446557879448,-0.39290735125541687,-0.3507159352302551
1775711496460782600,7.315782470703125,0.06772125512361526,-0.28759104013442993,-0.45734676718711853
1775711496470795500,7.32579541015625,0.09466925263404846,-0.16328665614128113,-0.5465089082717896
1775711496480808400,7.335808349609375,0.10623749345541,-0.01853240467607975,-0.6090382933616638
1775711496490821400,7.3458212890625,0.10418925434350967,0.14687785506248474,-0.6305909752845764
1775711496500834600,7.35583447265625,0.11972373723983765,0.3078201413154602,-0.5840567946434021
1775711496510847500,7.365847412109375,0.17756199836730957,0.27091139554977417,-0.4456661641597748
1775711496520860400,7.3758603515625,0.23028060793876648,0.03592391312122345,-0.32276713848114014
1775711496530873600,7.38587353515625,0.25065192580223083,-0.28582003712654114,-0.2589593827724457
1775711496540886500,7.395886474609375,0.22143039107322693,-0.5461815595626831,-0.24493704736232758
1775711496550899500,7.4058994140625,0.15254266560077667,-0.6263781189918518,-0.2506103813648224
1775711496560912400,7.415912353515625,0.06069663539528847,-0.5088517665863037,-0.25920334458351135
1775711496570926300,7.42592626953125,-0.03584028780460358,-0.32246139645576477,-0.2722717225551605
1775711496580939500,7.435939453125,-0.12224601954221725,-0.08604966104030609,-0.2921290695667267
1775711496590952400,7.445952392578125,-0.1882266253232956,0.13804841041564941,-0.31333181262016296
1775711496600965400,7.45596533203125,-0.2073337435722351,0.350949764251709,-0.32943782210350037
1775711496610978300,7.465978271484375,-0.17918679118156433,0.5413681864738464,-0.32390642166137695
1775711496620991500,7.475991455078125,-0.11751331388950348,0.5950908064842224,-0.2897564470767975
1775711496631004400,7.48600439453125,-0.0799451693892479,0.5375475883483887,-0.21125392615795135
1775711496641017300,7.496017333984375,-0.09755238890647888,0.39075496792793274,-0.10862075537443161
1775711496651030500,7.506030517578125,-0.1412588506937027,0.187241792678833,-0.037274401634931564
1775711496661043500,7.51604345703125,-0.17994660139083862,0.036246154457330704,-0.04247981682419777
1775711496671056400,7.526056396484375,-0.19029830396175385,-0.020083695650100708,-0.09301702678203583
1775711496681069300,7.5360693359375,-0.16172391176223755,0.015444735996425152,-0.1577739119529724
1775711496691083500,7.54608349609375,-0.1223035380244255,0.16601108014583588,-0.22061945497989655
1775711496701096200,7.55609619140625,-0.09941340237855911,0.3939765989780426,-0.28488844633102417
1775711496711109400,7.566109375,-0.09835213422775269,0.6480453610420227,-0.3405890166759491
1775711496721122300,7.576122314453125,-0.08602969348430634,0.795509397983551,-0.3347947597503662
1775711496731135500,7.586135498046875,-0.04728495702147484,0.6767731308937073,-0.2050551474094391
1775711496741148400,7.5961484375,-0.02305205538868904,0.3267088830471039,-0.06300053745508194
1775711496751161300,7.606161376953125,-0.02683241292834282,-0.08241737633943558,0.07271867990493774
1775711496761174500,7.616174560546875,-0.016436496749520302,-0.45046329498291016,0.17055389285087585
1775711496771187200,7.626187255859375,0.016765397042036057,-0.6081695556640625,0.18027469515800476
1775711496781200400,7.636200439453125,0.04174717888236046,-0.5614894032478333,0.08949366211891174
1775711496791213300,7.64621337890625,0.06667196750640869,-0.38312289118766785,-0.07645216584205627
1775711496801226500,7.6562265625,0.08721373230218887,-0.13478870689868927,-0.24711711704730988
1775711496811240400,7.666240478515625,0.08674528449773788,0.10315701365470886,-0.34574249386787415
1775711496821253400,7.67625341796875,0.062251124531030655,0.2872810363769531,-0.3518664240837097
1775711496831266300,7.686266357421875,0.024408403784036636,0.36742356419563293,-0.23632198572158813
1775711496841279200,7.696279296875,0.0356951467692852,0.2583354115486145,-0.061832476407289505
1775711496851292400,7.70629248046875,0.08370315283536911,0.07371123880147934,0.10953395068645477
1775711496861305600,7.7163056640625,0.12397840619087219,-0.08468346297740936,0.2499523162841797
1775711496871318300,7.726318359375,0.13489949703216553,-0.1478579044342041,0.3688773810863495
1775711496881331500,7.73633154296875,0.12353125959634781,-0.13316550850868225,0.476508766412735
1775711496891344400,7.746344482421875,0.12259888648986816,-0.12418825924396515,0.5358439683914185
1775711496901357300,7.756357421875,0.13065122067928314,-0.09182605892419815,0.5362604856491089
1775711496911370200,7.766370361328125,0.13467365503311157,-0.027398334816098213,0.46418896317481995
1775711496921383400,7.776383544921875,0.13981835544109344,0.06224286928772926,0.34856757521629333
1775711496931397400,7.7863974609375,0.13018836081027985,0.16528749465942383,0.23521144688129425
1775711496941410300,7.796410400390625,0.08995598554611206,0.2753114700317383,0.1861317902803421
1775711496951423500,7.806423583984375,0.04308382049202919,0.28742271661758423,0.2167658656835556
1775711496961436200,7.816436279296875,0.014286793768405914,0.17310599982738495,0.2526370584964752
1775711496971449300,7.826449462890625,0.0007957525085657835,0.03993569687008858,0.258220911026001
1775711496981462500,7.836462646484375,-0.0002657834847923368,-0.025069134309887886,0.21996060013771057
1775711496991475500,7.846475341796875,-0.01022733747959137,-0.005477056838572025,0.15662582218647003
1775711497001488400,7.85648828125,-0.01683916710317135,0.04932680353522301,0.08075956255197525
1775711497011501300,7.866501220703125,-0.018794460222125053,0.10659568756818771,0.008056861348450184
1775711497021514500,7.876514404296875,-0.025426264852285385,0.16725130379199982,-0.04727962985634804
1775711497031527200,7.886527099609375,-0.05037582293152809,0.23304763436317444,-0.07174316048622131
1775711497041540400,7.896540283203125,-0.10550325363874435,0.29814407229423523,-0.02015640027821064
1775711497051554600,7.906554443359375,-0.1312621533870697,0.26212430000305176,0.06662829220294952
1775711497061567200,7.916567138671875,-0.1356923133134842,0.1334313005208969,0.1541496217250824
1775711497071580400,7.926580322265625,-0.12712572515010834,-0.01116397138684988,0.22527572512626648
1775711497081593300,7.93659326171875,-0.09775878489017487,-0.11080853641033173,0.24526675045490265
1775711497091606300,7.946606201171875,-0.04917580261826515,-0.11757057160139084,0.21256552636623383
1775711497101619500,7.956619384765625,-0.01369237620383501,-0.04862692579627037,0.15356744825839996
1775711497111632400,7.96663232421875,-0.0006058691651560366,0.032286565750837326,0.08884092420339584
1775711497121645600,7.9766455078125,0.02431625872850418,0.05139714479446411,0.029323000460863113
1775711497131658200,7.986658203125,0.06514517962932587,0.025362614542245865,-0.022051505744457245
1775711497141671400,7.99667138671875,0.10392027348279953,-0.008985505439341068,-0.07103156298398972
1775711497151684400,8.006684326171875,0.12018340080976486,-0.009407083503901958,-0.0920335203409195
1775711497161697300,8.016697265625,0.12937290966510773,0.006951116491109133,-0.0957062840461731
1775711497171711500,8.02671142578125,0.1462853103876114,0.024942368268966675,-0.11486426740884781
1775711497181724400,8.036724365234376,0.16426697373390198,0.033483922481536865,-0.12584155797958374
1775711497191737300,8.0467373046875,0.18447157740592957,0.013369068503379822,-0.10940451920032501
1775711497201750300,8.056750244140625,0.1927281767129898,-0.009926400147378445,-0.08799377083778381
1775711497211763500,8.066763427734376,0.17730847001075745,0.007200921420007944,-0.07809000462293625
1775711497221776400,8.0767763671875,0.13638873398303986,0.02196069248020649,-0.07294371724128723
1775711497231789300,8.086789306640625,0.08865396678447723,0.01565699093043804,-0.059180498123168945
1775711497241802500,8.096802490234374,0.04603513702750206,0.000529702752828598,-0.033533725887537
1775711497251815400,8.1068154296875,0.01414378173649311,-0.024027571082115173,-0.002531600883230567
1775711497261828400,8.116828369140626,-0.002883138135075569,-0.05312234163284302,0.029075859114527702
1775711497271841300,8.12684130859375,-0.014007162302732468,-0.04646869748830795,0.07647373527288437
1775711497281854500,8.1368544921875,-0.009105348028242588,-0.039622511714696884,0.1070830449461937
1775711497291868400,8.146868408203124,0.01852494850754738,-0.060143496841192245,0.09457364678382874
1775711497301881300,8.15688134765625,0.05272206664085388,-0.06533452868461609,0.06106468662619591
1775711497311894500,8.16689453125,0.07926686108112335,-0.04427531734108925,0.019230419769883156
1775711497321907200,8.1769072265625,0.10003925114870071,0.006009955424815416,-0.023077355697751045
1775711497331920400,8.18692041015625,0.11331883817911148,0.060010604560375214,-0.06396699696779251
1775711497341933300,8.196933349609376,0.10944100469350815,0.09556913375854492,-0.0961875170469284
1775711497351946200,8.2069462890625,0.08812692761421204,0.08356040716171265,-0.11009667813777924
1775711497361959400,8.21695947265625,0.06587595492601395,0.05951445922255516,-0.11716204136610031
1775711497371972400,8.226972412109374,0.04316238313913345,0.051423776894807816,-0.11442404985427856
1775711497381985500,8.236985595703125,0.03358512371778488,0.03951917961239815,-0.09820033609867096
1775711497391998200,8.246998291015625,0.04292003810405731,0.028197016566991806,-0.06652256846427917
1775711497402011400,8.257011474609374,0.07197778671979904,0.015125690028071404,-0.02622920647263527
1775711497412025300,8.267025390625,0.11147512495517731,0.01071096770465374,-0.002526008291170001
1775711497422038300,8.277038330078126,0.14404292404651642,0.03401122987270355,-0.011259579099714756
1775711497432051500,8.287051513671875,0.15192508697509766,0.0718853771686554,-0.03887788951396942
1775711497442064400,8.297064453125,0.12397147715091705,0.12728551030158997,-0.05546805262565613
1775711497452077300,8.307077392578124,0.07934755086898804,0.15841440856456757,-0.04918112978339195
1775711497462090200,8.31709033203125,0.04199778288602829,0.142708420753479,-0.02748968079686165
1775711497472103400,8.327103515625,0.017945710569620132,0.10352479666471481,0.01901603490114212
1775711497482116400,8.337116455078124,0.004086087923496962,0.0454428493976593,0.078826904296875
1775711497492129300,8.34712939453125,0.0068118334747850895,-0.012803146615624428,0.14661075174808502
1775711497502142500,8.357142578125,0.02690724842250347,-0.061825018376111984,0.20504875481128693
1775711497512155400,8.3671552734375,0.05567391589283943,-0.08250819146633148,0.2210109382867813
1775711497522168300,8.377168212890625,0.08102667331695557,-0.06815189123153687,0.17943686246871948
1775711497532182500,8.3871826171875,0.09876412898302078,-0.029197832569479942,0.11321044713258743
1775711497542195200,8.3971953125,0.09752123057842255,0.010171676985919476,0.06045189127326012
1775711497552208400,8.40720849609375,0.07439780235290527,0.04319034889340401,0.03900598734617233
1775711497562221300,8.41722119140625,0.0550781674683094,0.040648892521858215,0.04687829315662384
1775711497572234500,8.427234375,0.05927690491080284,0.01486549898982048,0.059719257056713104
1775711497582247200,8.4372470703125,0.07851238548755646,-0.013569338247179985,0.06226470693945885
1775711497592260400,8.44726025390625,0.09431664645671844,-0.03401922062039375,0.07151253521442413
1775711497602273500,8.4572734375,0.08894691616296768,-0.03523974493145943,0.08403018862009048
1775711497612286200,8.4672861328125,0.07324624806642532,-0.0355667807161808,0.09681575745344162
1775711497622299400,8.47729931640625,0.04011652618646622,-0.01792946644127369,0.12811721861362457
1775711497632312300,8.487312255859376,0.019233616068959236,-0.01708817295730114,0.16475512087345123
1775711497642325500,8.497325439453125,0.014034858904778957,-0.054182279855012894,0.17212755978107452
1775711497652339500,8.50733935546875,0.01269741915166378,-0.08620572835206985,0.15055595338344574
1775711497662352400,8.517352294921874,0.011518438346683979,-0.08666592091321945,0.1075589507818222
1775711497672365300,8.527365234375,0.02611469104886055,-0.0795624703168869,0.04848071560263634
1775711497682378200,8.537378173828126,0.04964931309223175,-0.04201402887701988,0.003681021276861429
1775711497692391400,8.547391357421875,0.05889527499675751,-0.001939846551977098,-0.01607217639684677
1775711497702404600,8.557404541015625,0.04429236426949501,0.024653946980834007,-0.009680590592324734
1775711497712417500,8.56741748046875,0.01642264984548092,0.007143929600715637,0.033487919718027115
1775711497722430500,8.577430419921875,-0.0025039040483534336,-0.047018375247716904,0.08201736956834793
1775711497732443600,8.587443603515625,-0.013062804937362671,-0.10590645670890808,0.10892994701862335
1775711497742456600,8.59745654296875,-0.010555971413850784,-0.1264900267124176,0.10432054847478867
1775711497752469500,8.607469482421875,0.007954329252243042,-0.10594373941421509,0.06655506044626236
1775711497762482700,8.617482666015626,0.02570056915283203,-0.07095459848642349,0.008763131685554981
1775711497772496400,8.627496337890625,0.0428401418030262,-0.041251830756664276,-0.045452967286109924
1775711497782509600,8.637509521484375,0.049080993980169296,-0.017245033755898476,-0.08042613416910172
1775711497792522800,8.647522705078124,0.05192205309867859,0.014246846549212933,-0.10031009465456009
1775711497802535400,8.657535400390625,0.05392421782016754,0.057733602821826935,-0.12005237489938736
1775711497812548600,8.667548583984376,0.05841084569692612,0.07004033774137497,-0.13308055698871613
1775711497822561500,8.6775615234375,0.06793218106031418,0.06909198313951492,-0.13431626558303833
1775711497832574700,8.68757470703125,0.07844500988721848,0.049009352922439575,-0.13270771503448486
1775711497842587400,8.69758740234375,0.08163627237081528,0.0044011399149894714,-0.10710035264492035
1775711497852600600,8.7076005859375,0.06878092885017395,-0.0471896156668663,-0.058092597872018814
1775711497862613800,8.71761376953125,0.048228781670331955,-0.08806727081537247,-0.002418416552245617
1775711497872626400,8.72762646484375,0.028864936903119087,-0.10446755588054657,0.04043690487742424
1775711497882639600,8.7376396484375,-0.00011930961773032323,-0.09225483238697052,0.03795723617076874
1775711497892653600,8.747653564453126,-0.031620778143405914,-0.048529986292123795,-0.014732873067259789
1775711497902666500,8.75766650390625,-0.07986234128475189,-0.01581944338977337,-0.06344448775053024
1775711497912679700,8.7676796875,-0.17288868129253387,-0.02413303218781948,-0.08322325348854065
1775711497922692600,8.777692626953124,-0.2796715795993805,-0.04924344643950462,-0.08683982491493225
1775711497932705500,8.78770556640625,-0.3557969927787781,-0.10580019652843475,-0.05657805874943733
1775711497942718500,8.797718505859375,-0.41211459040641785,-0.18074820935726166,-0.015419170260429382
1775711497952731600,8.807731689453124,-0.4557041525840759,-0.23717446625232697,0.008617190644145012
1775711497962744600,8.81774462890625,-0.47217607498168945,-0.2227579802274704,0.00424161646515131
1775711497972757500,8.827757568359376,-0.43206992745399475,-0.20330651104450226,-0.0420403927564621
1775711497982770700,8.837770751953125,-0.3583757281303406,-0.13990624248981476,-0.09525381773710251
1775711497992783600,8.84778369140625,-0.2621493339538574,-0.07186007499694824,-0.16062003374099731
1775711498002796500,8.857796630859376,-0.1447121798992157,-0.05223550647497177,-0.21808412671089172
1775711498012810500,8.867810546875,-0.03853221237659454,-0.024576982483267784,-0.20751777291297913
1775711498022823700,8.87782373046875,0.043532032519578934,-0.04893079027533531,-0.15919311344623566
1775711498032836600,8.887836669921874,0.11206848174333572,-0.1361253410577774,-0.06973913311958313
1775711498042849500,8.897849609375,0.18320444226264954,-0.24924445152282715,0.04235304892063141
1775711498052862700,8.90786279296875,0.2442060112953186,-0.34377601742744446,0.17376379668712616
1775711498062875400,8.91787548828125,0.30111563205718994,-0.3590652048587799,0.31766584515571594
1775711498072888600,8.927888671875,0.3539503514766693,-0.31364473700523376,0.4800283908843994
1775711498082901500,8.937901611328124,0.3682398200035095,-0.3389008343219757,0.631879985332489
1775711498092914700,8.947914794921875,0.3440633714199066,-0.40441298484802246,0.7286810874938965
1775711498102927600,8.957927734375,0.286799818277359,-0.4444224536418915,0.7420059442520142
1775711498112940500,8.9679404296875,0.240495964884758,-0.42372703552246094,0.7059795260429382
1775711498122953700,8.97795361328125,0.23283031582832336,-0.3335705101490021,0.6577866673469543
1775711498132967400,8.987967529296874,0.21515437960624695,-0.2538732886314392,0.6186707019805908
1775711498142980600,8.997980712890625,0.16384805738925934,-0.20420506596565247,0.5578885674476624
1775711498152993800,9.007993896484376,0.12690602242946625,-0.12995773553848267,0.47115740180015564
1775711498163006500,9.01800634765625,0.09521307051181793,-0.08498413115739822,0.3693913519382477
1775711498173019600,9.02801953125,0.08899512141942978,-0.07488542795181274,0.31288015842437744
1775711498183032600,9.038032470703126,0.08437480032444,-0.03435877338051796,0.31130409240722656
1775711498193045500,9.04804541015625,0.06547754257917404,-0.02606196142733097,0.32926657795906067
1775711498203058400,9.058058349609375,0.024353276938199997,-0.016657540574669838,0.3653087317943573
1775711498213071600,9.068071533203126,-0.037573475390672684,0.004344947170466185,0.41164374351501465
1775711498223084800,9.078084716796875,-0.10372745990753174,-0.008599081076681614,0.40000119805336
1775711498233097500,9.088097412109375,-0.13675226271152496,-0.07822263240814209,0.34270328283309937
1775711498243110700,9.098110595703124,-0.13136601448059082,-0.1691855639219284,0.25219497084617615
1775711498253124400,9.108124267578125,-0.08475163578987122,-0.24149571359157562,0.1475423127412796
1775711498263137500,9.118137451171876,-0.007303985767066479,-0.2781751751899719,0.03933621942996979
1775711498273150700,9.128150634765625,0.08097954094409943,-0.27079156041145325,-0.05392767861485481
1775711498283163600,9.13816357421875,0.16670162975788116,-0.20792630314826965,-0.10995446145534515
1775711498293176600,9.148176513671874,0.23745489120483398,-0.13686783611774445,-0.13417404890060425
1775711498303189500,9.158189453125,0.3065093457698822,-0.07250509411096573,-0.12025050818920135
1775711498313202700,9.16820263671875,0.3475518524646759,-0.05919994041323662,-0.08681266009807587
1775711498323215400,9.17821533203125,0.374818354845047,-0.10317724943161011,-0.042635343968868256
1775711498333228500,9.188228515625,0.3876345455646515,-0.19318650662899017,0.02816958539187908
1775711498343241700,9.19824169921875,0.37719202041625977,-0.32200679183006287,0.08360648155212402
1775711498353254700,9.208254638671875,0.33590662479400635,-0.40488970279693604,0.06613773852586746
1775711498363267600,9.218267578125,0.28803151845932007,-0.3846222460269928,-0.018325211480259895
1775711498373281500,9.228281494140624,0.2853449285030365,-0.31309080123901367,-0.10629475116729736
1775711498383294500,9.23829443359375,0.3370424807071686,-0.25010812282562256,-0.1405283510684967
1775711498393307600,9.2483076171875,0.3902055621147156,-0.1987580955028534,-0.1267014890909195
1775711498403320600,9.258320556640625,0.4110831320285797,-0.1382356435060501,-0.13084882497787476
1775711498413333800,9.268333740234375,0.3926183879375458,-0.08059737086296082,-0.17718489468097687
1775711498423346400,9.278346435546876,0.3303414285182953,-0.05010417848825455,-0.26776885986328125
1775711498433359600,9.288359619140625,0.2527686059474945,-0.018542790785431862,-0.35770195722579956
1775711498443372500,9.29837255859375,0.18450939655303955,-0.007966313511133194,-0.37076449394226074
1775711498453385500,9.308385498046874,0.1454320251941681,-0.04716937616467476,-0.2865329682826996
1775711498463398700,9.318398681640625,0.13121473789215088,-0.12627831101417542,-0.15072399377822876
1775711498473411600,9.32841162109375,0.1121387854218483,-0.2097465693950653,-0.03147057443857193
1775711498483424800,9.3384248046875,0.09507431834936142,-0.26491501927375793,0.07033354789018631
1775711498493438500,9.3484384765625,0.08859031647443771,-0.31510600447654724,0.15987728536128998
1775711498503451600,9.35845166015625,0.10942023247480392,-0.37196770310401917,0.2259359210729599
1775711498513464600,9.368464599609375,0.14872395992279053,-0.4438786506652832,0.23656725883483887
1775711498523477500,9.3784775390625,0.18055778741836548,-0.5410174131393433,0.18097510933876038
1775711498533490700,9.38849072265625,0.2084791660308838,-0.5969797968864441,0.06349961459636688
1775711498543503600,9.398503662109375,0.22577346861362457,-0.5654277205467224,-0.1532803624868393
1775711498553516500,9.4085166015625,0.2337813377380371,-0.45838648080825806,-0.42402637004852295
1775711498563529500,9.418529541015625,0.24128052592277527,-0.2987020015716553,-0.6597182750701904
1775711498573542700,9.428542724609375,0.26440873742103577,-0.19996318221092224,-0.8051199316978455
1775711498583555600,9.4385556640625,0.2988879084587097,-0.17661204934120178,-0.8623312711715698
1775711498593568500,9.448568603515625,0.32242703437805176,-0.17750075459480286,-0.8790173530578613
1775711498603581700,9.458581787109376,0.3424188494682312,-0.16760337352752686,-0.8504514694213867
1775711498613595400,9.468595458984375,0.34042441844940186,-0.14695961773395538,-0.790131688117981
1775711498623608600,9.478608642578125,0.30481794476509094,-0.1292530596256256,-0.7183762192726135
1775711498633621800,9.488621826171874,0.23108860850334167,-0.08748883754014969,-0.6523447632789612
1775711498643634400,9.498634521484375,0.12329529970884323,-0.05658178776502609,-0.6162538528442383
1775711498653647600,9.508647705078126,-0.004887433256953955,0.004091946873813868,-0.5740798115730286
1775711498663660500,9.51866064453125,-0.13451014459133148,0.04006006941199303,-0.49675172567367554
1775711498673673700,9.528673828125,-0.24950197339057922,0.00620995881035924,-0.3697860538959503
1775711498683686400,9.538686279296876,-0.3458857536315918,-0.05702466890215874,-0.1936940997838974
1775711498693698800,9.54869873046875,-0.4285457730293274,-0.1101672500371933,0.02040061354637146
1775711498703712000,9.5587119140625,-0.48180311918258667,-0.13334207236766815,0.24124005436897278
1775711498713725000,9.568724853515626,-0.477407842874527,-0.1569102555513382,0.458059698343277
1775711498723739000,9.57873876953125,-0.4430338740348816,-0.17676545679569244,0.598853588104248
1775711498733752000,9.588751953125,-0.3904782831668854,-0.18165501952171326,0.6734282374382019
1775711498743765000,9.598764892578124,-0.3212949335575104,-0.10014604032039642,0.6723142266273499
1775711498753778000,9.60877783203125,-0.2584344744682312,0.04113944619894028,0.5994421243667603
1775711498763790800,9.618790771484376,-0.20460639894008636,0.18785777688026428,0.5046123266220093
1775711498773804000,9.628803955078125,-0.16990940272808075,0.2937823534011841,0.4334028363227844
1775711498783817000,9.63881689453125,-0.14750050008296967,0.3185611963272095,0.3942354619503021
1775711498793830000,9.648829833984376,-0.16177532076835632,0.2886829376220703,0.3688603341579437
1775711498803843000,9.658843017578125,-0.2002614587545395,0.27430346608161926,0.34912949800491333
1775711498813856000,9.66885595703125,-0.22925369441509247,0.2881796061992645,0.32021501660346985
1775711498823869000,9.678868896484374,-0.24959971010684967,0.2702876925468445,0.2974966764450073
1775711498833881900,9.6888818359375,-0.2618318796157837,0.2571074366569519,0.2873782515525818
1775711498843895800,9.698895751953126,-0.2689369320869446,0.2385108470916748,0.261545866727829
1775711498853909000,9.708908935546875,-0.2640407085418701,0.2579095661640167,0.20474594831466675
1775711498863922000,9.718921875,-0.24952514469623566,0.30933815240859985,0.13093137741088867
1775711498873935000,9.72893505859375,-0.23279942572116852,0.34905120730400085,0.0638791173696518
1775711498883947800,9.73894775390625,-0.20921793580055237,0.34647300839424133,0.01518933940678835
1775711498893961000,9.7489609375,-0.174822136759758,0.3437533676624298,-0.00013928332191426307
1775711498903974100,9.75897412109375,-0.12843067944049835,0.3630237281322479,0.012703278101980686
1775711498913986800,9.76898681640625,-0.07498742640018463,0.38271409273147583,0.033667415380477905
1775711498924000000,9.779,-0.019963322207331657,0.3822443187236786,0.05265175923705101
1775711498934013000,9.789012939453125,0.030161364004015923,0.356927752494812,0.08270233869552612
1775711498944026000,9.799026123046875,0.06095176562666893,0.32896432280540466,0.1170230284333229
1775711498954038800,9.809038818359374,0.07745137810707092,0.3214201033115387,0.1334880143404007
1775711498964053000,9.819052978515625,0.08020295947790146,0.3102385699748993,0.13842551410198212
1775711498974066000,9.82906591796875,0.07038494944572449,0.2894049286842346,0.14590980112552643
1775711498984078800,9.839078857421875,0.054134074598550797,0.2767346501350403,0.1320725530385971
1775711498994092000,9.849092041015625,0.023479759693145752,0.2683374583721161,0.08702677488327026
1775711499004105000,9.85910498046875,-0.018162759020924568,0.27861350774765015,0.04235491529107094
1775711499014118000,9.869117919921875,-0.04250325262546539,0.2925194799900055,0.03062315657734871
1775711499024131000,9.879131103515626,-0.05471038445830345,0.2974785566329956,0.04427025839686394
1775711499034144000,9.88914404296875,-0.07079001516103745,0.29351577162742615,0.07038574665784836
1775711499044157000,9.899156982421875,-0.0779065191745758,0.2582368850708008,0.10998242348432541
1775711499054169900,9.909169921875,-0.06788583844900131,0.2266017198562622,0.15183374285697937
1775711499064183000,9.91918310546875,-0.05747367814183235,0.19411621987819672,0.17300187051296234
1775711499074196000,9.929196044921875,-0.05285096541047096,0.1560780107975006,0.16940687596797943
1775711499084210000,9.9392099609375,-0.05265042930841446,0.1360694169998169,0.13888464868068695
1775711499094223000,9.94922314453125,-0.060991715639829636,0.133741557598114,0.08772452920675278
1775711499104235800,9.95923583984375,-0.07549848407506943,0.12947703897953033,0.021334582939743996
1775711499114249000,9.9692490234375,-0.09846212714910507,0.12324230372905731,-0.041363418102264404
1775711499124262000,9.979261962890625,-0.11122719198465347,0.1466994285583496,-0.09754359722137451
1775711499134275000,9.989275146484376,-0.11726856976747513,0.17631538212299347,-0.1465420424938202
1775711499144288000,9.9992880859375,-0.12404950708150864,0.18901705741882324,-0.16565048694610596
1775711499154301000,10.009301025390625,-0.12586605548858643,0.20176774263381958,-0.15119031071662903
1775711499164314000,10.019314208984374,-0.11953678727149963,0.18177326023578644,-0.10655946284532547
1775711499174326800,10.029326904296875,-0.10292531549930573,0.13919463753700256,-0.045092642307281494
1775711499184340000,10.039340087890626,-0.09372302889823914,0.10873100906610489,-0.008915730752050877
1775711499194353000,10.049352783203124,-0.09247080981731415,0.1049509197473526,-0.002944657113403082
1775711499204366800,10.059366943359375,-0.09826478362083435,0.12942270934581757,-0.017842113971710205
1775711499214380000,10.069380126953124,-0.10776028782129288,0.1679738312959671,-0.03665734827518463
1775711499224393000,10.07939306640625,-0.1244838684797287,0.20789754390716553,-0.06716199219226837
1775711499234406000,10.089406005859376,-0.15038524568080902,0.2111159712076187,-0.11103463917970657
1775711499244418800,10.099418701171874,-0.18479914963245392,0.22829309105873108,-0.1573651283979416
1775711499254432000,10.109431884765625,-0.21982264518737793,0.2818828225135803,-0.18774940073490143
1775711499264445200,10.119445068359376,-0.2500529885292053,0.3300412893295288,-0.1951572448015213
1775711499274457900,10.129457763671875,-0.26662397384643555,0.3477627635002136,-0.15380127727985382
1775711499284471000,10.139470947265625,-0.2690892517566681,0.30121710896492004,-0.06342504173517227
1775711499294484000,10.14948388671875,-0.28080451488494873,0.24066214263439178,0.05373140424489975
1775711499304497000,10.159496826171875,-0.2966862618923187,0.2085084617137909,0.16979250311851501
1775711499314509800,10.169509765625,-0.2996269166469574,0.21969720721244812,0.25533002614974976
1775711499324524000,10.17952392578125,-0.2775629162788391,0.2538093626499176,0.3029090166091919
1775711499334537000,10.189536865234375,-0.2366705983877182,0.30329301953315735,0.33040907979011536
1775711499344550000,10.1995498046875,-0.17957988381385803,0.36830851435661316,0.35825827717781067
1775711499354563000,10.20956298828125,-0.12948130071163177,0.4306105077266693,0.371686190366745
1775711499364575700,10.21957568359375,-0.09588125348091125,0.47815006971359253,0.35578712821006775
1775711499374589000,10.2295888671875,-0.07967006415128708,0.5445682406425476,0.331261545419693
1775711499384602000,10.23960205078125,-0.08913573622703552,0.613658607006073,0.30701693892478943
1775711499394615000,10.249614990234376,-0.10031701624393463,0.6296599507331848,0.3381037414073944
1775711499404628000,10.2596279296875,-0.10128720849752426,0.523758053779602,0.4297684133052826
1775711499414641000,10.269640869140625,-0.12083321064710617,0.37870869040489197,0.5368837118148804
1775711499424654000,10.279654052734376,-0.1554923802614212,0.21911238133907318,0.636672854423523
1775711499434668000,10.28966796875,-0.18243291974067688,0.0969366654753685,0.715337872505188
1775711499444681000,10.299680908203126,-0.19290314614772797,0.03218749910593033,0.7539297342300415
1775711499454694100,10.309694091796874,-0.19289515912532806,-0.0026205505710095167,0.7308976054191589
1775711499464706800,10.319706787109375,-0.1788054257631302,-0.008147141896188259,0.6661673784255981
1775711499474720000,10.329719970703126,-0.15255971252918243,0.017303889617323875,0.5486122369766235
1775711499484733000,10.33973291015625,-0.14250415563583374,0.03344584256410599,0.3928926885128021
1775711499494745900,10.349745849609375,-0.14117443561553955,0.04285798594355583,0.21970972418785095
1775711499504758800,10.3597587890625,-0.14437182247638702,0.05901378393173218,0.05127410590648651
1775711499514772000,10.36977197265625,-0.14261281490325928,0.06633508205413818,-0.08976930379867554
1775711499524785200,10.37978515625,-0.13834908604621887,0.0758284479379654,-0.19321073591709137
1775711499534797800,10.3897978515625,-0.1381421536207199,0.09223432093858719,-0.23797954618930817
1775711499544811000,10.39981103515625,-0.12054558843374252,0.058873701840639114,-0.2116139829158783
1775711499554825000,10.409824951171874,-0.0979798287153244,-0.03401469066739082,-0.17334595322608948
1775711499564838000,10.419837890625,-0.08915464580059052,-0.096123605966568,-0.15854915976524353
1775711499574851000,10.42985107421875,-0.0929616317152977,-0.1292077898979187,-0.17304714024066925
1775711499584864000,10.439864013671874,-0.11545629054307938,-0.19236385822296143,-0.18620343506336212
1775711499594877000,10.449876953125,-0.15590783953666687,-0.2695736885070801,-0.21709956228733063
1775711499604889900,10.459889892578126,-0.19112175703048706,-0.3250049948692322,-0.29964742064476013
1775711499614903000,10.469903076171875,-0.20626209676265717,-0.3162277340888977,-0.4191485345363617
1775711499624915700,10.479915771484375,-0.21420656144618988,-0.23005157709121704,-0.5469374060630798
1775711499634929000,10.489928955078126,-0.22392071783542633,-0.057185523211956024,-0.655866265296936
1775711499644942000,10.499942138671875,-0.21850384771823883,0.1805303692817688,-0.7108591794967651
1775711499654955000,10.509955078125,-0.17681418359279633,0.30855250358581543,-0.6677500605583191
1775711499664968000,10.519968017578124,-0.12610121071338654,0.21186964213848114,-0.5428928136825562
1775711499674982000,10.52998193359375,-0.08976130932569504,-0.047927845269441605,-0.39614254236221313
1775711499684994800,10.539994873046876,-0.054726626724004745,-0.3456908166408539,-0.27437376976013184
1775711499695008800,10.5500087890625,-0.03338805213570595,-0.5729074478149414,-0.22236275672912598
1775711499705021700,10.560021728515625,-0.02810726873576641,-0.6497988104820251,-0.25240349769592285
1775711499715034600,10.57003466796875,-0.03609888255596161,-0.5753114819526672,-0.34456562995910645
1775711499725047600,10.580047607421875,-0.05017901584506035,-0.34530705213546753,-0.4568903148174286
1775711499735060700,10.590060791015626,-0.05648458003997803,-0.045395176857709885,-0.5510663390159607
1775711499745074000,10.600073974609375,-0.053032323718070984,0.24377058446407318,-0.608866274356842
1775711499755086600,10.610086669921875,-0.03728665038943291,0.4724157452583313,-0.6177375316619873
1775711499765099800,10.620099853515624,0.007506385911256075,0.5291269421577454,-0.5435381531715393
1775711499775112700,10.63011279296875,0.08117261528968811,0.2845292091369629,-0.374031126499176
1775711499785125600,10.640125732421875,0.1368478685617447,-0.1440969854593277,-0.22601263225078583
1775711499795139800,10.650139892578125,0.15172241628170013,-0.5925706624984741,-0.13959065079689026
1775711499805152800,10.66015283203125,0.11670611053705215,-0.832206130027771,-0.13342329859733582
1775711499815165700,10.670165771484376,0.08461954444646835,-0.7972431182861328,-0.18276022374629974
1775711499825178600,10.6801787109375,0.07667427510023117,-0.6320538520812988,-0.2802756130695343
1775711499835191800,10.69019189453125,0.10197935998439789,-0.451781302690506,-0.4155745804309845
1775711499845204500,10.70020458984375,0.15249313414096832,-0.28200772404670715,-0.5368086099624634
1775711499855217700,10.7102177734375,0.18834860622882843,-0.09368547797203064,-0.6279842853546143
1775711499865230800,10.72023095703125,0.21437300741672516,0.0672895610332489,-0.6898553967475891
1775711499875243800,10.730243896484374,0.22717483341693878,0.13457591831684113,-0.7293444871902466
1775711499885256700,10.740256591796875,0.21625426411628723,0.0907200500369072,-0.724463164806366
1775711499895269600,10.75026953125,0.19438092410564423,-0.0951603353023529,-0.6461739540100098
1775711499905282800,10.76028271484375,0.17708024382591248,-0.34108516573905945,-0.5320473909378052
1775711499915296800,10.770296875,0.1604354828596115,-0.537363588809967,-0.3922570049762726
1775711499925309700,10.780309814453124,0.1570442169904709,-0.639586865901947,-0.2708059251308441
1775711499935323000,10.790322998046875,0.16286109387874603,-0.6252439022064209,-0.20812897384166718
1775711499945335600,10.80033544921875,0.1572018712759018,-0.4972771406173706,-0.18165607750415802
1775711499955348700,10.8103486328125,0.16906306147575378,-0.35266005992889404,-0.16751070320606232
1775711499965361700,10.820361572265625,0.19843293726444244,-0.19290660321712494,-0.15144598484039307
1775711499975374600,10.83037451171875,0.22797484695911407,-0.052015796303749084,-0.1433451771736145
1775711499985387800,10.8403876953125,0.2516538202762604,0.062360312789678574,-0.1612703800201416
1775711499995400700,10.850400634765625,0.25505706667900085,0.15297889709472656,-0.21092689037322998
1775711500005414000,10.860413818359374,0.23769138753414154,0.15562021732330322,-0.24002884328365326
1775711500015426600,10.870426513671875,0.19225652515888214,0.06564532220363617,-0.20924429595470428
1775711500025439700,10.880439697265626,0.12411315739154816,-0.11379420757293701,-0.16625767946243286
1775711500035453700,10.89045361328125,0.0829705148935318,-0.3144977390766144,-0.1425803154706955
1775711500045466600,10.900466552734375,0.08340487629175186,-0.3949100375175476,-0.13402917981147766
1775711500055479800,10.910479736328124,0.13223899900913239,-0.39697265625,-0.15007364749908447
1775711500065492700,10.92049267578125,0.1866638958454132,-0.29615548253059387,-0.181188702583313
1775711500075505700,10.930505615234376,0.20681123435497284,-0.09081938862800598,-0.20392782986164093
1775711500085518600,10.9405185546875,0.18550755083560944,0.16185468435287476,-0.21290162205696106
1775711500095531800,10.95053173828125,0.163014218211174,0.3881804943084717,-0.20170621573925018
1775711500105544700,10.960544677734376,0.14955860376358032,0.5441107153892517,-0.17465968430042267
1775711500115557600,10.9705576171875,0.12847861647605896,0.5951717495918274,-0.1300882250070572
1775711500125570800,10.98057080078125,0.10893713682889938,0.5642538070678711,-0.07058016210794449
1775711500135583700,10.990583740234374,0.07793793827295303,0.5139288306236267,0.014555240049958229
1775711500145596700,11.0005966796875,0.03398193418979645,0.4573121666908264,0.11060480773448944
1775711500155611000,11.01061083984375,0.01004943810403347,0.4054870307445526,0.17654946446418762
1775711500165623600,11.02062353515625,0.021015536040067673,0.33217954635620117,0.22437185049057007
1775711500175636700,11.03063671875,0.030536070466041565,0.21597623825073242,0.244717076420784
1775711500185649700,11.040649658203124,0.02545103058218956,0.12910684943199158,0.2587362229824066
1775711500195662800,11.050662841796875,0.029211681336164474,0.09951487183570862,0.2548392117023468
1775711500205675500,11.060675537109375,-0.003980893176048994,0.2275466024875641,0.2462923377752304
1775711500215688700,11.070688720703124,-0.02839488908648491,0.37399864196777344,0.20291130244731903
1775711500225702000,11.080701904296875,-0.0383167639374733,0.5319699048995972,0.13248027861118317
1775711500235714600,11.090714599609376,-0.039030224084854126,0.6414660215377808,0.07293172925710678
1775711500245727700,11.100727783203125,0.024899756535887718,0.6400124430656433,0.01341380923986435
1775711500255740700,11.11074072265625,0.12032215297222137,0.6196693778038025,-0.02454742044210434
1775711500265753900,11.12075390625,0.19523873925209045,0.6066558361053467,-0.028966404497623444
1775711500275767800,11.130767822265625,0.2536461055278778,0.5352969765663147,-0.04024649038910866
1775711500285780700,11.14078076171875,0.2533494532108307,0.4674540162086487,-0.06647809594869614
1775711500295793700,11.150793701171875,0.20557020604610443,0.36824753880500793,-0.07161719352006912
1775711500305806600,11.160806640625,0.1873299479484558,0.1687682420015335,-0.08408798277378082
1775711500315819800,11.17081982421875,0.16961033642292023,0.03296807035803795,-0.08862414211034775
1775711500325832700,11.180832763671875,0.1664973646402359,-0.04632675275206566,-0.10485770553350449
1775711500335845600,11.190845703125,0.1928671896457672,-0.08663608878850937,-0.1443430632352829
1775711500345858800,11.20085888671875,0.21201159060001373,-0.01793638989329338,-0.17671538889408112
1775711500355871700,11.210871826171875,0.23849938809871674,0.027526166290044785,-0.22084848582744598
1775711500365884700,11.220884765625,0.27036064863204956,0.0491771325469017,-0.2732400596141815
1775711500375897600,11.230897705078124,0.2837419807910919,0.08026155084371567,-0.29338741302490234
1775711500385910800,11.240910888671875,0.27036410570144653,0.07626494020223618,-0.2911926805973053
1775711500395924700,11.2509248046875,0.22437770664691925,0.040763407945632935,-0.26660028100013733
1775711500405937700,11.260937744140625,0.14970187842845917,-0.0067452541552484035,-0.22024555504322052
1775711500415950800,11.270950927734376,0.08443472534418106,-0.08168980479240417,-0.15970897674560547
1775711500425963500,11.280963623046874,0.03835218399763107,-0.16807875037193298,-0.08557828515768051
1775711500435976700,11.290976806640625,0.005142031237483025,-0.2006300389766693,0.0017161410069093108
1775711500445989600,11.30098974609375,0.0018548916559666395,-0.19897381961345673,0.06617928296327591
1775711500456002800,11.3110029296875,0.013342703692615032,-0.134902685880661,0.08374523371458054
1775711500466015700,11.321015625,0.02334340661764145,-0.009977000765502453,0.06980970501899719
1775711500476028700,11.331028564453124,0.0472378209233284,0.09233099222183228,0.04469050467014313
1775711500486041900,11.341041748046875,0.06013044714927673,0.1527799516916275,0.02659379318356514
1775711500496054500,11.351054443359375,0.04721624776721001,0.16717354953289032,0.03988456726074219
1775711500506067700,11.361067626953124,0.030656978487968445,0.1328619122505188,0.07461964339017868
1775711500516082000,11.37108203125,-0.011631621979176998,0.08810935169458389,0.12953083217144012
1775711500526094600,11.381094482421876,-0.05494687333703041,0.04358076676726341,0.16539828479290009
1775711500536107800,11.391107666015625,-0.07561086863279343,0.010519219562411308,0.17002205550670624
1775711500546120700,11.40112060546875,-0.08060962706804276,-0.013555755838751793,0.1568945348262787
1775711500556133600,11.411133544921874,-0.05819273367524147,-0.03267059475183487,0.14349165558815002
1775711500566146600,11.421146484375,-0.02515568770468235,-0.020770525559782982,0.1420213133096695
1775711500576159700,11.43115966796875,-0.0023007048293948174,0.03509726747870445,0.13702735304832458
1775711500586173000,11.4411728515625,0.006542854011058807,0.09774120897054672,0.1130589097738266
1775711500596185600,11.451185546875,0.008492288179695606,0.1265006810426712,0.08021601289510727
1775711500606198800,11.46119873046875,0.019049324095249176,0.11623739451169968,0.05206053704023361
1775711500616211700,11.471211669921875,0.03531138598918915,0.09640536457300186,0.03307299688458443
1775711500626224600,11.481224609375,0.043586891144514084,0.04880748689174652,0.007950601167976856
1775711500636238800,11.49123876953125,0.04276663810014725,0.014624749310314655,-0.006003297865390778
1775711500646251800,11.501251708984375,0.03441682830452919,0.01944560371339321,-0.0024857944808900356
1775711500656264700,11.5112646484375,0.030411168932914734,0.02869449555873871,0.007987619377672672
1775711500666277600,11.521277587890625,0.03792048245668411,0.02197294309735298,0.013549364171922207
1775711500676290800,11.531290771484375,0.059354402124881744,0.012164787389338017,0.018811505287885666
1775711500686303500,11.541303466796874,0.08227063715457916,0.006453904323279858,0.01714436523616314
1775711500696316700,11.551316650390625,0.10672485083341599,-0.015241537243127823,-0.01044278685003519
1775711500706329600,11.56132958984375,0.11649198830127716,-0.03176591917872429,-0.033369939774274826
1775711500716342800,11.5713427734375,0.0992664024233818,-0.04367637261748314,-0.030666299164295197
1775711500726355500,11.58135546875,0.0652860626578331,-0.03983849287033081,-0.010154632851481438
1775711500736368600,11.59136865234375,0.016712134703993797,0.01992896758019924,0.023914387449622154
1775711500746381600,11.601381591796875,-0.009505088441073895,0.06894417852163315,0.04261963069438934
1775711500756395500,11.6113955078125,-0.02280704490840435,0.057964764535427094,0.03388073667883873
1775711500766408700,11.62140869140625,-0.03251613304018974,0.020004866644740105,0.015085209161043167
1775711500776421600,11.631421630859375,-0.026694728061556816,-0.03353798761963844,-0.016955280676484108
1775711500786434600,11.6414345703125,-0.006331931799650192,-0.06894710659980774,-0.059792760759592056
1775711500796447500,11.651447509765624,0.011110708117485046,-0.07138949632644653,-0.09481599181890488
1775711500806460700,11.661460693359375,0.02321797050535679,-0.038237400352954865,-0.11354093998670578
1775711500816473600,11.6714736328125,0.019754528999328613,0.009022523649036884,-0.12282632291316986
1775711500826486500,11.681486572265625,0.0007840346079319715,0.045827675610780716,-0.12434431910514832
1775711500836499700,11.691499755859375,-0.01636911928653717,0.06589246541261673,-0.10447128117084503
1775711500846512600,11.7015126953125,-0.026285400614142418,0.07508675754070282,-0.07081558555364609
1775711500856525600,11.711525634765625,-0.016437295824289322,0.0475400872528553,-0.044499289244413376
1775711500866538500,11.72153857421875,0.011053716763854027,-0.007968444377183914,-0.031033283099532127
1775711500876552700,11.731552734375,0.049065280705690384,-0.0545806884765625,-0.020611535757780075
1775711500886565600,11.741565673828125,0.07473229616880417,-0.07388967275619507,-0.008928780443966389
1775711500896578600,11.75157861328125,0.06926828622817993,-0.050631750375032425,-0.008981510996818542
1775711500906591700,11.761591796875,0.060572002083063126,-0.016629576683044434,-0.027333885431289673
1775711500916604400,11.7716044921875,0.06341465562582016,0.0034075146540999413,-0.05849793180823326
1775711500926617600,11.78161767578125,0.06846614181995392,0.024152474477887154,-0.0795677974820137
1775711500936630800,11.791630859375,0.06777585297822952,0.043728306889534,-0.08297105133533478
1775711500946643700,11.801643798828126,0.0603693351149559,0.06694840639829636,-0.05612824857234955
1775711500956656600,11.81165673828125,0.04466041177511215,0.0622820146381855,0.0002668487431947142
1775711500966669600,11.821669677734375,0.02406778559088707,0.045046571642160416,0.06404183059930801
1775711500976682800,11.831682861328124,0.007802795618772507,0.004298874642699957,0.11014647781848907
1775711500986695400,11.8416953125,0.0028594359755516052,-0.036736175417900085,0.1282048374414444
1775711500996709600,11.851709716796876,0.0013518205378204584,-0.047580569982528687,0.12420476973056793
1775711501006722800,11.861722900390625,0.0020413128659129143,-0.029764020815491676,0.10457488149404526
1775711501016735500,11.871735595703125,0.006022472400218248,-0.01341727189719677,0.07695736736059189
1775711501026748700,11.881748779296874,0.01745196059346199,0.0030945930629968643,0.059593554586172104
1775711501036761600,11.89176171875,0.02672322280704975,0.03359737619757652,0.04987141862511635
1775711501046774500,11.9017744140625,0.02748781628906727,0.05404459312558174,0.03928668424487114
1775711501056787700,11.91178759765625,0.02948891557753086,0.05393513664603233,0.0291120782494545
1775711501066800600,11.921800537109375,0.02226615697145462,0.05590667575597763,0.03431722894310951
1775711501076813800,11.931813720703126,0.020374247804284096,0.03989255428314209,0.04831693321466446
1775711501086826500,11.941826416015624,0.028862008824944496,0.011317902244627476,0.0573895238339901
1775711501096839700,11.951839599609375,0.04073864221572876,-0.0062887887470424175,0.05576286464929581
1775711501106852600,11.9618525390625,0.05403207615017891,-0.02893897332251072,0.04355333745479584
1775711501116866600,11.971866455078125,0.06517207622528076,-0.05362008512020111,0.022666962817311287
1775711501126879700,11.981879638671876,0.06938759982585907,-0.06326765567064285,0.0004974784678779542
1775711501136892700,11.991892578125,0.061461497098207474,-0.03411802276968956,-0.023686420172452927
1775711501146905600,12.001905517578125,0.043423108756542206,0.023319438099861145,-0.05417189374566078
1775711501156918500,12.01191845703125,0.021079985424876213,0.10200466215610504,-0.089866504073143
1775711501166931700,12.021931640625,-0.0054216631688177586,0.16515938937664032,-0.1170792207121849
1775711501176944600,12.031944580078125,-0.02273380756378174,0.1910722255706787,-0.12335629016160965
1775711501186957600,12.04195751953125,-0.03580993041396141,0.1888740509748459,-0.12689056992530823
1775711501196970800,12.051970703125,-0.042276617139577866,0.16447202861309052,-0.13766145706176758
1775711501206983700,12.061983642578125,-0.044378384947776794,0.12442554533481598,-0.16113989055156708
1775711501216996600,12.07199658203125,-0.039495211094617844,0.09597685933113098,-0.1789577603340149
1775711501227009500,12.082009521484375,-0.036078374832868576,0.09483835846185684,-0.19251671433448792
1775711501237023500,12.0920234375,-0.040217991918325424,0.11833995580673218,-0.21527795493602753
1775711501247036700,12.10203662109375,-0.04128751903772354,0.14889201521873474,-0.252318799495697
1775711501257049600,12.112049560546875,-0.050523363053798676,0.2061137557029724,-0.29657813906669617
1775711501267062800,12.122062744140624,-0.0568598210811615,0.25502803921699524,-0.3513508439064026
1775711501277075500,12.132075439453125,-0.06780647486448288,0.3042171597480774,-0.40461352467536926
1775711501287088600,12.142088623046876,-0.08487973362207413,0.3539615273475647,-0.4389174282550812
1775711501297101800,12.152101806640625,-0.09931353479623795,0.35856693983078003,-0.43539008498191833
1775711501307114500,12.162114501953125,-0.09627886861562729,0.2727114260196686,-0.3819159269332886
1775711501317127700,12.172127685546876,-0.08158114552497864,0.12729351222515106,-0.29090559482574463
1775711501327140600,12.182140625,-0.06346552819013596,-0.10371867567300797,-0.1684979349374771
1775711501337153800,12.19215380859375,-0.015970444306731224,-0.390062540769577,-0.04181349277496338
1775711501347166500,12.20216650390625,0.04971802234649658,-0.6254545450210571,0.022126607596874237
1775711501357180700,12.2121806640625,0.13716238737106323,-0.7332092523574829,0.00863370206207037
1775711501367193600,12.222193603515626,0.23342180252075195,-0.6333298087120056,-0.07333200424909592
1775711501377206500,12.23220654296875,0.3255661129951477,-0.38578709959983826,-0.19136783480644226
1775711501387219700,12.2422197265625,0.4351048469543457,-0.1261555403470993,-0.31151527166366577
1775711501397232600,12.252232666015624,0.5379796028137207,0.08974293619394302,-0.4569249451160431
1775711501407245600,12.26224560546875,0.5892565846443176,0.2626899480819702,-0.6268130540847778
1775711501417258500,12.272258544921876,0.5914862155914307,0.4391701817512512,-0.7695949673652649
1775711501427271700,12.282271728515624,0.5463544130325317,0.634131669998169,-0.8341643810272217
