time,seconds_elapsed,z,y,x
1775340770838261500,0.061261474609375,0,0,0
1775340770848261600,0.07126171875,0.014263153076171875,-0.0051727294921875,-0.01233944296836853
1775340770858261500,0.081261474609375,0.01910686492919922,0.002483367919921875,-0.059881001710891724
1775340770868261600,0.09126171875,-0.013560295104980469,-0.0045986175537109375,-0.052122294902801514
1775340770878261500,0.101261474609375,0.013779640197753906,-0.011351585388183594,0.017651185393333435
1775340770888261600,0.11126171875,0.022620677947998047,-0.008616447448730469,0.030138447880744934
1775340770898261500,0.121261474609375,-0.012930870056152344,0.005832672119140625,-0.03363558650016785
1775340770908261600,0.13126171875,0.016025543212890625,-0.00034332275390625,-0.026525646448135376
1775340770918261500,0.141261474609375,0.009043216705322266,0.0030536651611328125,0.0323258638381958
1775340770928261600,0.15126171875,-0.03943347930908203,0.012434005737304688,0.053767770528793335
1775340770938261500,0.161261474609375,-0.002986431121826172,0.0134429931640625,0.00031179189682006836
1775340770948261600,0.17126171875,-0.0033388137817382812,-0.0009708404541015625,-0.015128612518310547
1775340770958261500,0.181261474609375,-0.023308277130126953,0.009181022644042969,0.037189990282058716
1775340770968261600,0.19126171875,0.028705120086669922,-0.019600868225097656,0.04712998867034912
1775340770978261500,0.201261474609375,0.011300086975097656,0.008358955383300781,0.011290967464447021
1775340770988261600,0.21126171875,-0.029630661010742188,0.00719451904296875,-0.016577601432800293
1775340770998261500,0.221261474609375,0.047865867614746094,-0.020748138427734375,-0.0197221040725708
1775340771008261600,0.23126171875,-0.018547534942626953,0.0056438446044921875,0.011937975883483887
1775340771018261500,0.241261474609375,-0.01099538803100586,-0.004561424255371094,-0.021694481372833252
1775340771028261600,0.25126171875,0.024711132049560547,-0.011247634887695312,-0.04216298460960388
1775340771038261500,0.261261474609375,-0.029335975646972656,0.016162872314453125,-0.022688060998916626
1775340771048261600,0.27126171875,0.011654376983642578,-0.012716293334960938,-0.014506727457046509
1775340771058261500,0.281261474609375,0.013844490051269531,-0.003922462463378906,-0.007550328969955444
1775340771068261600,0.29126171875,-0.03126096725463867,0.010019302368164062,-0.027354001998901367
1775340771078261500,0.301261474609375,0.028476715087890625,-0.015786170959472656,-0.007545113563537598
1775340771088261600,0.31126171875,0.0033893585205078125,0.004638671875,0.02561318874359131
1775340771098261500,0.321261474609375,-0.028512001037597656,-0.008532524108886719,0.03412613272666931
1775340771108261600,0.33126171875,0.03497791290283203,-0.010568618774414062,0.015948206186294556
1775340771118261500,0.341261474609375,-0.016320228576660156,-0.0013790130615234375,0.020576417446136475
1775340771128261600,0.35126171875,-0.005915164947509766,-0.0011882781982421875,0.020724177360534668
1775340771138261500,0.361261474609375,0.009923934936523438,-0.0035915374755859375,0.012840032577514648
1775340771148261600,0.37126171875,-0.006220340728759766,0.0035562515258789062,0.011195138096809387
1775340771158261500,0.381261474609375,-0.020119667053222656,0.014736175537109375,0.006360441446304321
1775340771168261600,0.39126171875,-0.034954071044921875,0.010120391845703125,-0.0004576146602630615
1775340771178261500,0.401261474609375,-0.006006717681884766,-0.0027074813842773438,-0.01074373722076416
1775340771188261600,0.41126171875,-0.003044605255126953,-0.0016078948974609375,-0.019063860177993774
1775340771198261500,0.421261474609375,0.010572433471679688,0.014998435974121094,-0.014276623725891113
1775340771208261600,0.43126171875,0.021215438842773438,0.00188446044921875,-0.0132540762424469
1775340771218261500,0.441261474609375,0.022891521453857422,-0.009234428405761719,-0.022120624780654907
1775340771228261600,0.45126171875,0.010915279388427734,-0.017751693725585938,-0.018888473510742188
1775340771238261500,0.461261474609375,0.006488800048828125,-0.0051479339599609375,0.0072517991065979
1775340771248261600,0.47126171875,0.02142810821533203,-0.007902145385742188,0.007240414619445801
1775340771258261500,0.481261474609375,-0.010555744171142578,0.018571853637695312,-0.004520416259765625
1775340771268261600,0.49126171875,-0.006051063537597656,0.00789642333984375,0.00228118896484375
1775340771278261500,0.501261474609375,0.0013318061828613281,-0.009761810302734375,0.019082486629486084
1775340771288261600,0.51126171875,-0.016021251678466797,0.010806083679199219,0.023748189210891724
1775340771298261500,0.521261474609375,0.000017642974853515625,0.0031948089599609375,0.01904839277267456
1775340771308261600,0.53126171875,0.004288673400878906,0.0025653839111328125,0.020247995853424072
1775340771318261500,0.541261474609375,-0.01973104476928711,0.004443168640136719,0.0036776363849639893
1775340771328261600,0.55126171875,0.022850513458251953,-0.008806228637695312,-0.009173601865768433
1775340771338261500,0.561261474609375,0.003525257110595703,-0.00021648406982421875,-0.01778966188430786
1775340771348261600,0.57126171875,0.00873708724975586,0.0019283294677734375,-0.028444021940231323
1775340771358261500,0.581261474609375,0.022757530212402344,0.0017480850219726562,-0.012314438819885254
1775340771368261600,0.59126171875,-0.015624046325683594,-0.0007963180541992188,-0.0057742297649383545
1775340771378261500,0.601261474609375,0.028969764709472656,-0.013867378234863281,-0.016983479261398315
1775340771388261600,0.61126171875,-0.0019140243530273438,0.009031295776367188,-0.01795479655265808
1775340771398261500,0.621261474609375,-0.036167144775390625,0.00152587890625,-0.014877915382385254
1775340771408261600,0.63126171875,0.03694581985473633,-0.011159896850585938,0.0019585490226745605
1775340771418261500,0.641261474609375,-0.030800342559814453,0.012468338012695312,0.005069345235824585
1775340771428261600,0.65126171875,-0.017620563507080078,0.0052089691162109375,0.0043315589427948
1775340771438261500,0.661261474609375,0.056982994079589844,-0.031007766723632812,0.007546573877334595
1775340771448261600,0.67126171875,-0.0384373664855957,0.018787384033203125,0.01217600703239441
1775340771458261500,0.681261474609375,0.021869182586669922,-0.011231422424316406,0.013756901025772095
1775340771468261600,0.69126171875,0.05467367172241211,-0.0033397674560546875,-0.008124828338623047
1775340771478261500,0.701261474609375,-0.04741048812866211,0.027512550354003906,-0.007034391164779663
1775340771488261600,0.71126171875,0.052692413330078125,-0.013498306274414062,0.009022057056427002
1775340771498261500,0.721261474609375,-0.008573532104492188,0.0065326690673828125,0.022837474942207336
1775340771508261600,0.73126171875,-0.04300832748413086,0.020227432250976562,0.004381626844406128
1775340771518261500,0.741261474609375,0.03888368606567383,-0.016813278198242188,-0.022851109504699707
1775340771528261600,0.75126171875,-0.04423713684082031,0.01126861572265625,0.0019722580909729004
1775340771538261500,0.761261474609375,-0.016680240631103516,-0.0026769638061523438,0.02491949498653412
1775340771548261600,0.77126171875,0.01365804672241211,0.0028924942016601562,0.007754802703857422
1775340771558261500,0.781261474609375,-0.04796743392944336,0.02304363250732422,-0.022417128086090088
1775340771568261600,0.79126171875,0.03259420394897461,-0.009936332702636719,-0.02508753538131714
1775340771578261500,0.801261474609375,-0.0008492469787597656,0.0064830780029296875,-0.019264429807662964
1775340771588261600,0.81126171875,-0.025672435760498047,0.001651763916015625,0.016528338193893433
1775340771598261500,0.821261474609375,0.04284811019897461,-0.013336181640625,0.018594682216644287
1775340771608261600,0.83126171875,0.00781869888305664,-0.0022525787353515625,0.005801647901535034
1775340771618261500,0.841261474609375,0.00002574920654296875,-0.0012445449829101562,0.006436020135879517
1775340771628261600,0.85126171875,0.04381608963012695,-0.00623321533203125,0.012894123792648315
1775340771638261500,0.861261474609375,-0.04112577438354492,0.007468223571777344,0.02614229917526245
1775340771648261600,0.87126171875,0.012926578521728516,0.0030031204223632812,0.010838210582733154
1775340771658261500,0.881261474609375,0.006636142730712891,-0.005223274230957031,-0.010383784770965576
1775340771668261600,0.89126171875,-0.054039955139160156,0.016915321350097656,-0.02039596438407898
1775340771678261500,0.901261474609375,0.053856849670410156,-0.0260467529296875,-0.003466397523880005
1775340771688261600,0.91126171875,-0.025023460388183594,0.013284683227539062,0.00798247754573822
1775340771698261500,0.921261474609375,-0.013520240783691406,-0.003353118896484375,-0.01244974136352539
1775340771708261600,0.93126171875,0.0418086051940918,-0.017436981201171875,-0.02967822551727295
1775340771718261500,0.941261474609375,-0.07837581634521484,0.034583091735839844,-0.019167393445968628
1775340771728261600,0.95126171875,0.012470722198486328,-0.002918243408203125,-0.021468549966812134
1775340771738261500,0.961261474609375,0.016087055206298828,-0.002635955810546875,-0.01716640591621399
1775340771748261600,0.97126171875,-0.026666641235351562,0.016188621520996094,0.01575520634651184
1775340771758261500,0.981261474609375,0.03275346755981445,-0.00569915771484375,0.039715468883514404
1775340771768261600,0.99126171875,0.009499549865722656,0.009860038757324219,0.029612451791763306
1775340771778261500,1.001261474609375,-0.01481485366821289,0.0038137435913085938,-0.010900318622589111
1775340771788261600,1.01126171875,0.02532672882080078,-0.004679679870605469,-0.029376626014709473
1775340771798261500,1.021261474609375,0.009419441223144531,-0.0011034011840820312,0.014472633600234985
1775340771808261600,1.03126171875,-0.04383039474487305,0.0291290283203125,0.00490415096282959
1775340771818261500,1.041261474609375,0.04917573928833008,-0.014341354370117188,0.019393473863601685
1775340771828261600,1.05126171875,-0.03150129318237305,0.013646125793457031,0.0316067636013031
1775340771838261500,1.061261474609375,-0.04705238342285156,0.02793598175048828,0.013508826494216919
1775340771848261600,1.07126171875,0.03363609313964844,-0.02856731414794922,-0.014335840940475464
1775340771858261500,1.081261474609375,-0.0739598274230957,0.04036521911621094,-0.02760481834411621
1775340771868261600,1.09126171875,0.00968790054321289,-0.0018110275268554688,-0.013362854719161987
1775340771878261500,1.101261474609375,0.07740020751953125,-0.025771141052246094,-0.005668342113494873
1775340771888261600,1.11126171875,-0.04446887969970703,0.0065898895263671875,0.00020271539688110352
1775340771898261500,1.121261474609375,-0.017638206481933594,-0.14432239532470703,-0.02288585901260376
1775340771908261600,1.13126171875,0.2288217544555664,0.22214317321777344,0.05825957655906677
1775340771918261500,1.141261474609375,-0.2782759666442871,0.0078105926513671875,0.024266958236694336
1775340771928261600,1.15126171875,0.5852870941162109,-0.1048440933227539,-0.04424157738685608
1775340771938261500,1.161261474609375,-0.49684810638427734,0.07577991485595703,-0.03846970200538635
1775340771948261600,1.17126171875,0.01757669448852539,-0.0798797607421875,0.0782037079334259
1775340771958261500,1.181261474609375,0.3410172462463379,-0.2088184356689453,-0.12702608108520508
1775340771968261600,1.19126171875,-0.45592498779296875,0.11499881744384766,-0.11827811598777771
1775340771978261500,1.201261474609375,0.027486324310302734,0.029521942138671875,0.09384998679161072
1775340771988261600,1.21126171875,0.45134735107421875,-0.2671995162963867,0.1417427361011505
1775340771998261500,1.221261474609375,-0.4496321678161621,0.2268047332763672,-0.15702217817306519
1775340772008261600,1.23126171875,-0.06733846664428711,-0.0344085693359375,0.004582315683364868
1775340772018261500,1.241261474609375,0.4164695739746094,-0.1632976531982422,0.11524873971939087
1775340772028261600,1.25126171875,-0.2534217834472656,0.19309520721435547,0.0149039626121521
1775340772038261500,1.261261474609375,-0.0635676383972168,0.09946060180664062,-0.04724222421646118
1775340772048261600,1.27126171875,0.3634004592895508,-0.0033740997314453125,0.13164427876472473
1775340772058261500,1.281261474609375,-0.18906927108764648,0.10720634460449219,0.14679941534996033
1775340772068261600,1.29126171875,-0.019019603729248047,-0.03458595275878906,-0.05968251824378967
1775340772078261500,1.301261474609375,0.23649883270263672,-0.15056991577148438,-0.15515518188476562
1775340772088261600,1.31126171875,-0.3625302314758301,0.15501880645751953,0.061586588621139526
1775340772098261500,1.321261474609375,0.19635534286499023,-0.12382793426513672,-0.01773086190223694
1775340772108261600,1.33126171875,0.032206058502197266,0.02338123321533203,-0.11317738890647888
1775340772118261500,1.341261474609375,-0.3366537094116211,0.12316036224365234,0.02547428011894226
1775340772128261600,1.35126171875,0.35611963272094727,-0.17825031280517578,0.0900678038597107
1775340772138261500,1.361261474609375,-0.17198801040649414,0.14130210876464844,-0.06791743636131287
1775340772148261600,1.37126171875,-0.16662311553955078,-0.0016002655029296875,-0.008643746376037598
1775340772158261500,1.381261474609375,0.29595041275024414,-0.105010986328125,0.0333942174911499
1775340772168261600,1.39126171875,-0.2874002456665039,0.13824844360351562,0.03966572880744934
1775340772178261500,1.401261474609375,0.02495431900024414,-0.02951812744140625,-0.03126510977745056
1775340772188261600,1.41126171875,0.17971229553222656,-0.059250831604003906,-0.026950180530548096
1775340772198261500,1.421261474609375,-0.2919950485229492,0.1427011489868164,0.06627210974693298
1775340772208261600,1.43126171875,0.18305683135986328,-0.07680511474609375,0.026818424463272095
1775340772218261500,1.441261474609375,0.17117881774902344,-0.028784751892089844,-0.1380901038646698
1775340772228261600,1.45126171875,-0.35407400131225586,0.1485881805419922,-0.008369863033294678
1775340772238261500,1.461261474609375,0.3017301559448242,-0.1625518798828125,0.030177950859069824
1775340772248261600,1.47126171875,0.10434770584106445,-0.04189777374267578,-0.016726166009902954
1775340772258261500,1.481261474609375,-0.3681797981262207,0.1249227523803711,-0.07458421587944031
1775340772268261600,1.49126171875,0.3627772331237793,-0.16585063934326172,-0.009227067232131958
1775340772278261500,1.501261474609375,-0.024411678314208984,0.003261566162109375,0.033789366483688354
1775340772288261600,1.51126171875,-0.29089784622192383,0.09653091430664062,0.057542771100997925
1775340772298261500,1.521261474609375,0.3727297782897949,-0.13990211486816406,-0.04159724712371826
1775340772308261600,1.53126171875,-0.19863319396972656,0.0907745361328125,-0.01492166519165039
1775340772318261500,1.541261474609375,-0.07437372207641602,0.012325286865234375,0.040234312415122986
1775340772328261600,1.55126171875,0.261476993560791,-0.08066558837890625,0.05728355050086975
1775340772338261500,1.561261474609375,-0.20304298400878906,0.07110977172851562,0.03932163119316101
1775340772348261600,1.57126171875,0.07826948165893555,-0.02416706085205078,-0.01083412766456604
1775340772358261500,1.581261474609375,0.09575939178466797,-0.03344249725341797,-0.025121092796325684
1775340772368261600,1.59126171875,-0.16439008712768555,0.0683736801147461,0.018460184335708618
1775340772378261500,1.601261474609375,0.13948440551757812,-0.07291030883789062,-0.021911710500717163
1775340772388261600,1.61126171875,-0.009403705596923828,0.008386611938476562,-0.048191994428634644
1775340772398261500,1.621261474609375,-0.023332595825195312,-0.011133193969726562,-0.011639118194580078
1775340772408261600,1.63126171875,0.09107017517089844,-0.035012245178222656,0.007312893867492676
1775340772418261500,1.641261474609375,-0.10372447967529297,0.05254364013671875,-0.03476831316947937
1775340772428261600,1.65126171875,0.04061460494995117,-0.013788223266601562,-0.03423476219177246
1775340772438261500,1.661261474609375,-0.02016162872314453,0.020582199096679688,0.02099895477294922
1775340772448261600,1.67126171875,-0.06713199615478516,0.03583717346191406,0.025883406400680542
1775340772458261500,1.681261474609375,0.054178714752197266,-0.01568126678466797,-0.01726508140563965
1775340772468261600,1.69126171875,-0.09113264083862305,0.028288841247558594,0.005765944719314575
1775340772478261500,1.701261474609375,-0.006851673126220703,-0.001705169677734375,0.032166630029678345
1775340772488261600,1.71126171875,0.08341550827026367,-0.03708362579345703,0.027864128351211548
1775340772498261500,1.721261474609375,-0.0605616569519043,0.007534027099609375,0.029349595308303833
1775340772508261600,1.73126171875,0.052625179290771484,-0.03422737121582031,0.00484272837638855
1775340772518261500,1.741261474609375,0.07001781463623047,-0.020895004272460938,-0.008725881576538086
1775340772528261600,1.75126171875,-0.15260601043701172,0.04394721984863281,-0.005379289388656616
1775340772538261500,1.761261474609375,0.12996625900268555,-0.05845069885253906,-0.020284980535507202
1775340772548261600,1.77126171875,0.006546974182128906,0.009215354919433594,-0.002262204885482788
1775340772558261500,1.781261474609375,-0.1897716522216797,0.060042381286621094,0.016475707292556763
1775340772568261600,1.79126171875,0.14355754852294922,-0.05173015594482422,-0.029942870140075684
1775340772578261500,1.801261474609375,-0.10005521774291992,0.03996086120605469,-0.027205199003219604
1775340772588261600,1.81126171875,-0.049796104431152344,0.016847610473632812,-0.018098801374435425
1775340772598261500,1.821261474609375,0.16782522201538086,-0.04882335662841797,-0.01846778392791748
1775340772608261600,1.83126171875,-0.09533405303955078,0.054116249084472656,0.013639688491821289
1775340772618261500,1.841261474609375,0.03031778335571289,-0.001129150390625,0.019741684198379517
1775340772628261600,1.85126171875,0.09691095352172852,-0.028308868408203125,0.008888661861419678
1775340772638261500,1.861261474609375,-0.09554338455200195,0.030416488647460938,0.0031189322471618652
1775340772648261600,1.87126171875,0.029150009155273438,-0.013972282409667969,-0.005446970462799072
1775340772658261500,1.881261474609375,0.015159130096435547,0.007103919982910156,-0.00403258204460144
1775340772668261600,1.89126171875,-0.07082891464233398,0.019425392150878906,0.021248221397399902
1775340772678261500,1.901261474609375,-0.0002923011779785156,-0.00899505615234375,0.020023003220558167
1775340772688261600,1.91126171875,-0.036017417907714844,0.033997535705566406,-0.003094971179962158
1775340772698261500,1.921261474609375,-0.037087440490722656,-0.012839317321777344,-0.01805633306503296
1775340772708261600,1.93126171875,0.017284393310546875,-0.010302543640136719,-0.04982215166091919
1775340772718261500,1.941261474609375,0.03228616714477539,-0.035765647888183594,-0.0318332314491272
1775340772728261600,1.95126171875,-0.03483915328979492,0.01824474334716797,-0.0073761045932769775
1775340772738261500,1.961261474609375,0.03847026824951172,-0.014303207397460938,-0.002505958080291748
1775340772748261600,1.97126171875,0.009277820587158203,-0.0005159378051757812,-0.026631474494934082
1775340772758261500,1.981261474609375,-0.03323554992675781,0.011298179626464844,-0.023073524236679077
1775340772768261600,1.99126171875,0.014486312866210938,-0.01013946533203125,-0.007084876298904419
1775340772778261500,2.001261474609375,-0.030376911163330078,-0.006319999694824219,0.005780637264251709
1775340772788261600,2.01126171875,-0.016413211822509766,0.0057849884033203125,0.011677742004394531
1775340772798261500,2.021261474609375,-0.008799076080322266,0.012606620788574219,0.018669068813323975
1775340772808261600,2.03126171875,0.03725147247314453,-0.006806373596191406,0.019115477800369263
1775340772818261500,2.041261474609375,-0.04013204574584961,0.00806427001953125,0.04808293282985687
1775340772828261600,2.05126171875,-0.01719045639038086,0.004815101623535156,0.011535584926605225
1775340772838261500,2.061261474609375,0.061989784240722656,-0.02354717254638672,-0.008898258209228516
1775340772848261600,2.07126171875,-0.05840587615966797,0.03330230712890625,0.0009677112102508545
1775340772858261500,2.081261474609375,-0.00045490264892578125,-0.018468856811523438,0.00126725435256958
1775340772868261600,2.09126171875,0.053600311279296875,-0.010324478149414062,-0.025076627731323242
1775340772878261500,2.101261474609375,-0.08357429504394531,0.022851943969726562,-0.02433645725250244
1775340772888261600,2.11126171875,0.06634807586669922,-0.009099006652832031,-0.008664041757583618
1775340772898261500,2.121261474609375,0.016714096069335938,-0.003345489501953125,0.025665253400802612
1775340772908261600,2.13126171875,-0.09228515625,0.02292156219482422,0.018822193145751953
1775340772918261500,2.141261474609375,0.07413005828857422,-0.041980743408203125,-0.02309015393257141
1775340772928261600,2.15126171875,-0.037903785705566406,0.011243820190429688,-0.020594239234924316
1775340772938261500,2.161261474609375,-0.011376380920410156,0.008342742919921875,-0.02731454372406006
1775340772948261600,2.17126171875,0.11976814270019531,-0.04288482666015625,0.026139438152313232
1775340772958261500,2.181261474609375,-0.09850168228149414,0.04805469512939453,0.05011671781539917
1775340772968261600,2.19126171875,0.03688812255859375,-0.018096923828125,0.01617223024368286
1775340772978261500,2.201261474609375,0.030659198760986328,-0.001323699951171875,-0.011254280805587769
1775340772988261600,2.21126171875,-0.09079551696777344,0.03770732879638672,0.0016216635704040527
1775340772998261500,2.221261474609375,0.021854877471923828,-0.004246711730957031,-0.002963840961456299
1775340773008261600,2.23126171875,-0.008647918701171875,0.022065162658691406,-0.01596832275390625
1775340773018261500,2.241261474609375,-0.07533645629882812,0.025970458984375,0.0021178126335144043
1775340773028261600,2.25126171875,-0.0631260871887207,0.019916534423828125,0.0009213089942932129
1775340773038261500,2.261261474609375,0.02232074737548828,-0.045548439025878906,-0.0063346028327941895
1775340773048261600,2.27126171875,-0.01212453842163086,-0.014262199401855469,-0.011682301759719849
1775340773058261500,2.281261474609375,-0.046122074127197266,0.02112102508544922,-0.010661572217941284
1775340773068261600,2.29126171875,0.025152206420898438,-0.014801979064941406,0.001859515905380249
1775340773078261500,2.301261474609375,0.010184288024902344,0.002590179443359375,0.012706071138381958
1775340773088261600,2.31126171875,0.00023698806762695312,0.0025930404663085938,0.018531441688537598
1775340773098261500,2.321261474609375,0.02569723129272461,-0.017602920532226562,-0.0061654746532440186
1775340773108261600,2.33126171875,0.03081989288330078,0.02103900909423828,-0.03110453486442566
1775340773118261500,2.341261474609375,-0.03331804275512695,0.0064754486083984375,0.0063218772411346436
1775340773128261600,2.35126171875,0.005880832672119141,-0.009970664978027344,-0.0030240416526794434
1775340773138261500,2.361261474609375,0.024648666381835938,-0.037293434143066406,-0.03505808115005493
1775340773148261600,2.37126171875,-0.03755331039428711,0.01842498779296875,-0.0175645649433136
1775340773158261500,2.381261474609375,0.02168130874633789,-0.03389549255371094,-0.020144402980804443
1775340773168261600,2.39126171875,0.03967618942260742,-0.005481719970703125,0.0023130178451538086
1775340773178261500,2.401261474609375,-0.01990222930908203,0.011551856994628906,-0.0008828341960906982
1775340773188261600,2.41126171875,0.06426477432250977,-0.02696514129638672,-0.04407176375389099
1775340773198261500,2.421261474609375,0.03382301330566406,-0.023140907287597656,-0.011618226766586304
1775340773208261600,2.43126171875,-0.062310218811035156,0.012736320495605469,0.05646193027496338
1775340773218261500,2.441261474609375,0.0002727508544921875,-0.014850616455078125,0.049436748027801514
1775340773228261600,2.45126171875,-0.03940439224243164,0.03994560241699219,-0.0038336217403411865
1775340773238261500,2.461261474609375,-0.058028221130371094,0.00689697265625,0.02485215663909912
1775340773248261600,2.47126171875,0.05055665969848633,-0.0074787139892578125,0.05360257625579834
1775340773258261500,2.481261474609375,-0.06307840347290039,0.02779102325439453,0.05218002200126648
1775340773268261600,2.49126171875,0.07181072235107422,-0.03916358947753906,0.0001894831657409668
1775340773278261500,2.501261474609375,0.058922767639160156,-0.013772964477539062,0.003645658493041992
1775340773288261600,2.51126171875,-0.1002054214477539,0.0051746368408203125,-0.0016469359397888184
1775340773298261500,2.521261474609375,0.04947090148925781,-0.006379127502441406,-0.07718458771705627
1775340773308261600,2.53126171875,0.00737762451171875,-0.022851943969726562,-0.07246160507202148
1775340773318261500,2.541261474609375,0.00813150405883789,-0.017208099365234375,-0.00373271107673645
1775340773328261600,2.55126171875,0.009786605834960938,-0.03808784484863281,0.05870500206947327
1775340773338261500,2.561261474609375,0.013295173645019531,-0.0016679763793945312,-0.02090311050415039
1775340773348261600,2.57126171875,0.004226207733154297,-0.006220817565917969,-0.053061097860336304
1775340773358261500,2.581261474609375,0.0006051063537597656,0.005309104919433594,-0.032410651445388794
1775340773368261600,2.59126171875,-0.018418312072753906,-0.012081146240234375,0.05553382635116577
1775340773378261500,2.601261474609375,-0.0016460418701171875,0.020166397094726562,0.06490659713745117
1775340773388261600,2.61126171875,0.01836109161376953,-0.00033664703369140625,0.05258619785308838
1775340773398261500,2.621261474609375,-0.007770538330078125,0.0149688720703125,0.028237581253051758
1775340773408261600,2.63126171875,-0.04524040222167969,0.02586078643798828,0.04134926199913025
1775340773418261500,2.641261474609375,0.09815692901611328,-0.041843414306640625,0.02855736017227173
1775340773428261600,2.65126171875,-0.11383438110351562,0.05121803283691406,-0.0033097267150878906
1775340773438261500,2.661261474609375,-0.03493547439575195,0.023034095764160156,-0.04101896286010742
1775340773448261600,2.67126171875,0.09438514709472656,-0.062048912048339844,-0.01971939206123352
1775340773458261500,2.681261474609375,-0.042638301849365234,0.030531883239746094,-0.021743744611740112
1775340773468261600,2.69126171875,0.023337364196777344,0.0084075927734375,-0.0751127302646637
1775340773478261500,2.701261474609375,0.11611223220825195,-0.023782730102539062,-0.07627436518669128
1775340773488261600,2.71126171875,-0.036865234375,0.01019287109375,-0.0014530420303344727
1775340773498261500,2.721261474609375,-0.01504659652709961,-0.00968170166015625,0.0027694106101989746
1775340773508261600,2.73126171875,0.0822286605834961,-0.04584026336669922,-0.005358755588531494
1775340773518261500,2.741261474609375,-0.1101994514465332,0.02048206329345703,0.020809859037399292
1775340773528261600,2.75126171875,-0.05344820022583008,-0.0017518997192382812,0.02630208432674408
1775340773538261500,2.761261474609375,0.013051509857177734,-0.018723487854003906,0.03641122579574585
1775340773548261600,2.77126171875,-0.039488792419433594,-0.00582122802734375,0.03174030780792236
1775340773558261500,2.781261474609375,0.0009703636169433594,-0.008463859558105469,0.020912006497383118
1775340773568261600,2.79126171875,0.05584001541137695,-0.002605438232421875,0.013512015342712402
1775340773578261500,2.801261474609375,-0.016671180725097656,0.03879261016845703,0.028440773487091064
1775340773588261600,2.81126171875,0.06561660766601562,0.009165763854980469,0.015280872583389282
1775340773598261500,2.821261474609375,0.05924797058105469,-0.03647327423095703,0.011661410331726074
1775340773608261600,2.83126171875,-0.05502748489379883,0.01603412628173828,-0.010128438472747803
1775340773618261500,2.841261474609375,0.01972818374633789,-0.010675430297851562,-0.05095723271369934
1775340773628261600,2.85126171875,-0.04878425598144531,0.018279075622558594,-0.08462062478065491
1775340773638261500,2.861261474609375,-0.024521827697753906,0.040401458740234375,-0.06036558747291565
1775340773648261600,2.87126171875,0.026124954223632812,-0.005988121032714844,0.020823299884796143
1775340773658261500,2.881261474609375,0.03171062469482422,-0.0157012939453125,0.04608398675918579
1775340773668261600,2.89126171875,-0.008343696594238281,-0.012339591979980469,0.0023392438888549805
1775340773678261500,2.901261474609375,-0.020005226135253906,0.019928932189941406,-0.055507123470306396
1775340773688261600,2.91126171875,0.1051487922668457,-0.04747486114501953,-0.009598731994628906
1775340773698261500,2.921261474609375,-0.02025747299194336,-0.010890960693359375,0.0665464997291565
1775340773708261600,2.93126171875,-0.09058094024658203,0.034033775329589844,0.05132114887237549
1775340773718261500,2.941261474609375,0.05985260009765625,-0.019362449645996094,-0.014055490493774414
1775340773728261600,2.95126171875,-0.04962015151977539,0.02272510528564453,-0.005811631679534912
1775340773738261500,2.961261474609375,-0.04124736785888672,0.018341064453125,0.04563140869140625
1775340773748261600,2.97126171875,0.030134201049804688,-0.037738800048828125,0.05168217420578003
1775340773758261500,2.981261474609375,-0.016513824462890625,0.01348114013671875,-0.021206319332122803
1775340773768261600,2.99126171875,-0.014479637145996094,0.0272216796875,-0.044554442167282104
1775340773778261500,3.001261474609375,0.02236652374267578,-0.0004911422729492188,0.00488358736038208
1775340773788261600,3.01126171875,0.012563705444335938,-0.011456489562988281,-0.012765169143676758
1775340773798261500,3.021261474609375,0.03100299835205078,-0.018686294555664062,-0.06708955764770508
1775340773808261600,3.03126171875,-0.025854110717773438,-0.00193023681640625,-0.055852264165878296
1775340773818261500,3.041261474609375,-0.01114511489868164,-0.013550758361816406,-0.02606979012489319
1775340773828261600,3.05126171875,0.022630691528320312,-0.0038890838623046875,0.0314163863658905
1775340773838261500,3.061261474609375,-0.0870676040649414,0.010972976684570312,0.008242547512054443
1775340773848261600,3.07126171875,-0.005507946014404297,-0.01661205291748047,-0.0792597234249115
1775340773858261500,3.081261474609375,0.03063201904296875,-0.0139617919921875,-0.0635882318019867
1775340773868261600,3.09126171875,-0.07221269607543945,0.047821998596191406,0.06719878315925598
1775340773878261500,3.101261474609375,0.005820751190185547,-0.0032587051391601562,0.08550664782524109
1775340773888261600,3.11126171875,0.028596878051757812,0.0042209625244140625,-0.030906379222869873
1775340773898261500,3.121261474609375,-0.011054515838623047,0.013248443603515625,-0.0073954761028289795
1775340773908261600,3.13126171875,0.04564666748046875,-0.03365612030029297,0.08648116886615753
1775340773918261500,3.141261474609375,0.005599021911621094,0.02898406982421875,0.03798860311508179
1775340773928261600,3.15126171875,-0.02090740203857422,0.02104473114013672,-0.08644750714302063
1775340773938261500,3.161261474609375,0.0029540061950683594,-0.03924369812011719,-0.09354928135871887
1775340773948261600,3.17126171875,-0.020357131958007812,-0.010095596313476562,0.012344926595687866
1775340773958261500,3.181261474609375,0.021387577056884766,-0.045040130615234375,0.04650649428367615
1775340773968261600,3.19126171875,-0.020075321197509766,-0.0024089813232421875,-0.04702925682067871
1775340773978261500,3.201261474609375,-0.037497520446777344,0.03033733367919922,-0.08118879795074463
1775340773988261600,3.21126171875,0.05321359634399414,-0.029671669006347656,-0.006880402565002441
1775340773998261500,3.221261474609375,-0.06616592407226562,0.01386260986328125,0.04201239347457886
1775340774008261600,3.23126171875,0.0638580322265625,0.006455421447753906,-0.029497355222702026
1775340774018261500,3.241261474609375,0.061095237731933594,0.0012693405151367188,-0.024060308933258057
1775340774028261600,3.25126171875,-0.059060096740722656,0.0257720947265625,0.06107527017593384
1775340774038261500,3.261261474609375,0.025281906127929688,-0.011678695678710938,0.06271268427371979
1775340774048261600,3.27126171875,0.006543636322021484,-0.0011005401611328125,-0.002999931573867798
1775340774058261500,3.281261474609375,-0.0026702880859375,0.023241043090820312,-0.004545837640762329
1775340774068261600,3.29126171875,0.037138938903808594,-0.057816505432128906,0.05132201313972473
1775340774078261500,3.301261474609375,-0.03251028060913086,0.03642845153808594,0.057668447494506836
1775340774088261600,3.31126171875,0.061472415924072266,-0.006899833679199219,0.025932610034942627
1775340774098261500,3.321261474609375,-0.06740140914916992,0.02816295623779297,-0.03173792362213135
1775340774108261600,3.33126171875,0.006620883941650391,0.018100738525390625,-0.035339295864105225
1775340774118261500,3.341261474609375,0.047448158264160156,-0.045737266540527344,0.017039522528648376
1775340774128261600,3.35126171875,-0.10853004455566406,0.051825523376464844,0.05466483533382416
1775340774138261500,3.361261474609375,0.0626673698425293,-0.02126789093017578,-0.04615482687950134
1775340774148261600,3.37126171875,-0.02277231216430664,0.024862289428710938,-0.06959033012390137
1775340774158261500,3.381261474609375,-0.06806039810180664,0.01566791534423828,0.0056726038455963135
1775340774168261600,3.39126171875,0.05333900451660156,-0.028295516967773438,0.036231398582458496
1775340774178261500,3.401261474609375,0.009524345397949219,0.023508071899414062,-0.008277326822280884
1775340774188261600,3.41126171875,-0.02464914321899414,0.012226104736328125,-0.010675191879272461
1775340774198261500,3.421261474609375,0.018475055694580078,0.0030469894409179688,0.011648863554000854
1775340774208261600,3.43126171875,-0.01192617416381836,0.004702568054199219,0.03520268201828003
1775340774218261500,3.441261474609375,0.0025396347045898438,-0.001827239990234375,0.025812506675720215
1775340774228261600,3.45126171875,-0.017729759216308594,0.007328033447265625,-0.0013412237167358398
1775340774238261500,3.461261474609375,0.010867118835449219,-0.011247634887695312,-0.006240427494049072
1775340774248261600,3.47126171875,0.0022687911987304688,-0.011204719543457031,0.02245873212814331
1775340774258261500,3.481261474609375,-0.00165557861328125,-0.0012712478637695312,0.010774075984954834
1775340774268261600,3.49126171875,0.013189315795898438,-0.008845329284667969,-0.006631612777709961
1775340774278261500,3.501261474609375,0.0002789497375488281,0.005870819091796875,-0.007182389497756958
1775340774288261600,3.51126171875,-0.023012161254882812,0.0014352798461914062,-0.005318194627761841
1775340774298261500,3.521261474609375,-0.0019979476928710938,0.02256298065185547,-0.03715568780899048
1775340774308261600,3.53126171875,0.000637054443359375,0.015419960021972656,-0.011596471071243286
1775340774318261500,3.541261474609375,-0.0033702850341796875,0.028062820434570312,0.03272378444671631
1775340774328261600,3.55126171875,0.014960289001464844,0.00507354736328125,0.032306671142578125
1775340774338261500,3.561261474609375,-0.0034613609313964844,0.000335693359375,0.005452513694763184
1775340774348261600,3.57126171875,0.0025773048400878906,0.014674186706542969,-0.016378730535507202
1775340774358261500,3.581261474609375,-0.011777400970458984,0.010980606079101562,-0.0121288001537323
1775340774368261600,3.59126171875,0.009440422058105469,0.009593963623046875,0.011710822582244873
1775340774378261500,3.601261474609375,-0.004942893981933594,-0.014479637145996094,0.005071133375167847
1775340774388261600,3.61126171875,0.027238845825195312,-0.011526107788085938,-0.00452578067779541
1775340774398261500,3.621261474609375,0.020029544830322266,-0.016248703002929688,0.020361289381980896
1775340774408261600,3.63126171875,0.0039215087890625,0.0007228851318359375,0.01042887568473816
1775340774418261500,3.641261474609375,0.019746780395507812,-0.019692420959472656,-0.015676945447921753
1775340774428261600,3.65126171875,-0.008404254913330078,0.0074634552001953125,-0.04940593242645264
1775340774438261500,3.661261474609375,0.0023212432861328125,0.01795196533203125,-0.049387603998184204
1775340774448261600,3.67126171875,-0.03950977325439453,0.013266563415527344,-0.014177292585372925
1775340774458261500,3.681261474609375,-0.025350093841552734,0.0033712387084960938,0.015089064836502075
1775340774468261600,3.69126171875,0.038661956787109375,-0.01409149169921875,0.010770246386528015
1775340774478261500,3.701261474609375,-0.046631813049316406,0.020653724670410156,-0.0022389888763427734
1775340774488261600,3.71126171875,0.019758224487304688,-0.007951736450195312,-0.01696506142616272
1775340774498261500,3.721261474609375,0.01006174087524414,0.008406639099121094,-0.018347561359405518
1775340774508261600,3.73126171875,-0.02091503143310547,0.009779930114746094,-0.00765538215637207
1775340774518261500,3.741261474609375,0.04532623291015625,-0.01655101776123047,0.0063307881355285645
1775340774528261600,3.75126171875,0.0004825592041015625,-0.006260871887207031,0.029844194650650024
1775340774538261500,3.761261474609375,-0.010634899139404297,-0.00042819976806640625,0.030956029891967773
1775340774548261600,3.77126171875,0.04117441177368164,-0.014817237854003906,0.0017827153205871582
1775340774558261500,3.781261474609375,-0.005062103271484375,-0.002437591552734375,-0.007147312164306641
1775340774568261600,3.79126171875,-0.015148162841796875,0.015368461608886719,0.0071045756340026855
1775340774578261500,3.801261474609375,0.00820016860961914,0.011516571044921875,0.0037136077880859375
1775340774588261600,3.81126171875,-0.02879476547241211,0.013874053955078125,-0.004933387041091919
1775340774598261500,3.821261474609375,-0.0024824142456054688,0.0036821365356445312,-0.0015067458152770996
1775340774608261600,3.83126171875,-0.007021903991699219,0.00499725341796875,0.004884839057922363
1775340774618261500,3.841261474609375,-0.008831501007080078,0.014369010925292969,-0.01950812339782715
1775340774628261600,3.85126171875,0.010996818542480469,0.0015659332275390625,-0.03188863396644592
1775340774638261500,3.861261474609375,0.0000858306884765625,0.0052242279052734375,-0.019605815410614014
1775340774648261600,3.87126171875,0.0193939208984375,-0.0029306411743164062,0.005350261926651001
1775340774658261500,3.881261474609375,0.01575183868408203,0.0020284652709960938,-0.0030053257942199707
1775340774668261600,3.89126171875,-0.026372909545898438,0.01134490966796875,-0.00801151990890503
1775340774678261500,3.901261474609375,0.051111698150634766,-0.013483047485351562,-0.030931681394577026
1775340774688261600,3.91126171875,-0.007259845733642578,0.0074558258056640625,-0.01890912652015686
1775340774698261500,3.921261474609375,-0.0351719856262207,0.02173614501953125,0.02885100245475769
1775340774708261600,3.93126171875,0.0714712142944336,-0.02818012237548828,0.04105597734451294
1775340774718261500,3.941261474609375,-0.03727102279663086,0.028209686279296875,0.003586709499359131
1775340774728261600,3.95126171875,-0.021053314208984375,0.007872581481933594,-0.01451408863067627
1775340774738261500,3.961261474609375,0.031914710998535156,-0.012633323669433594,-0.004454761743545532
1775340774748261600,3.97126171875,-0.02380990982055664,0.02493000030517578,0.0029366016387939453
1775340774758261500,3.981261474609375,-0.0110321044921875,-0.0015287399291992188,0.008022308349609375
1775340774768261600,3.99126171875,0.022998332977294922,-0.008948326110839844,0.0028744637966156006
1775340774778261500,4.001261474609375,-0.003268718719482422,0.0017480850219726562,-0.02470460534095764
1775340774788261600,4.01126171875,-0.033620357513427734,0.009407997131347656,-0.03183579444885254
1775340774798261500,4.021261474609375,0.04102754592895508,-0.017989158630371094,-0.01685294508934021
1775340774808261600,4.03126171875,-0.009826183319091797,-0.0022230148315429688,-0.01474297046661377
1775340774818261500,4.041261474609375,0.009902477264404297,0.0057010650634765625,-0.004955589771270752
1775340774828261600,4.05126171875,0.032154083251953125,-0.021660804748535156,-0.025698363780975342
1775340774838261500,4.061261474609375,-0.026920318603515625,0.0063419342041015625,-0.012381166219711304
1775340774848261600,4.07126171875,0.0010805130004882812,-0.012667655944824219,-0.0019169747829437256
1775340774858261500,4.081261474609375,0.010956764221191406,-0.011732101440429688,-0.012491703033447266
1775340774868261600,4.09126171875,-0.009656429290771484,0.007012367248535156,0.006983071565628052
1775340774878261500,4.101261474609375,-0.028070926666259766,-0.017416000366210938,0.03513172268867493
1775340774888261600,4.11126171875,-0.017911434173583984,-0.02126312255859375,0.027408182621002197
1775340774898261500,4.121261474609375,-0.03487205505371094,-0.0022230148315429688,0.008486181497573853
1775340774908261600,4.13126171875,-0.036861419677734375,0.003429412841796875,-0.004942595958709717
1775340774918261500,4.141261474609375,-0.021689414978027344,0.014432907104492188,0.010430693626403809
1775340774928261600,4.15126171875,-0.03024435043334961,0.003643035888671875,0.04251483082771301
1775340774938261500,4.161261474609375,-0.014853954315185547,0.0013484954833984375,0.03424748778343201
1775340774948261600,4.17126171875,-0.02754831314086914,0.009663581848144531,0.00481337308883667
1775340774958261500,4.181261474609375,0.013570785522460938,0.0139923095703125,-0.014127582311630249
1775340774968261600,4.19126171875,0.059734344482421875,-0.02045917510986328,-0.024705976247787476
1775340774978261500,4.201261474609375,0.008581161499023438,0.014690399169921875,-0.007544428110122681
1775340774988261600,4.21126171875,0.03876638412475586,0.010904312133789062,0.037179142236709595
1775340774998261500,4.221261474609375,-0.004536151885986328,0.026091575622558594,0.013559728860855103
1775340775008261600,4.23126171875,-0.002540111541748047,0.01741313934326172,-0.022147059440612793
1775340775018261500,4.241261474609375,0.06653165817260742,-0.03302955627441406,-0.014962553977966309
1775340775028261600,4.25126171875,-0.00818014144897461,0.007243156433105469,0.0007886290550231934
1775340775038261500,4.261261474609375,0.02991628646850586,-0.023108482360839844,0.012906968593597412
1775340775048261600,4.27126171875,-0.013760566711425781,0.01165008544921875,0.02819734811782837
1775340775058261500,4.281261474609375,-0.007839202880859375,0.008646965026855469,0.041995614767074585
1775340775068261600,4.29126171875,0.029052734375,0.008198738098144531,0.026005536317825317
1775340775078261500,4.301261474609375,0.008997440338134766,0.005799293518066406,0.015402615070343018
1775340775088261600,4.31126171875,-0.022324562072753906,0.024979591369628906,0.00970524549484253
1775340775098261500,4.321261474609375,0.024231910705566406,0.018922805786132812,-0.0003962516784667969
1775340775108261600,4.33126171875,-0.040923118591308594,0.03155803680419922,-0.01531866192817688
1775340775118261500,4.341261474609375,0.017814159393310547,-0.016363143920898438,-0.013242602348327637
1775340775128261600,4.35126171875,-0.01809406280517578,-0.009760856628417969,-0.009918361902236938
1775340775138261500,4.361261474609375,-0.07478570938110352,-0.015895843505859375,-0.0210302472114563
1775340775148261600,4.37126171875,-0.008749961853027344,-0.029305458068847656,-0.02334195375442505
1775340775158261500,4.381261474609375,-0.07552480697631836,-0.01710033416748047,-0.028958231210708618
1775340775168261600,4.39126171875,-0.04716920852661133,-0.04348945617675781,0.015447616577148438
1775340775178261500,4.401261474609375,0.049466609954833984,-0.05841064453125,0.021716147661209106
1775340775188261600,4.41126171875,0.018425941467285156,-0.015656471252441406,-0.009778112173080444
1775340775198261500,4.421261474609375,0.07311391830444336,-0.01607799530029297,-0.03847843408584595
1775340775208261600,4.43126171875,0.07796669006347656,0.0037937164306640625,0.011484816670417786
1775340775218261500,4.441261474609375,0.029685020446777344,0.018594741821289062,0.03507106006145477
1775340775228261600,4.45126171875,0.010887622833251953,0.044769287109375,0.009599864482879639
1775340775238261500,4.461261474609375,-0.055821895599365234,0.030353546142578125,0.0031695961952209473
1775340775248261600,4.47126171875,-0.11032247543334961,0.044300079345703125,0.018193960189819336
1775340775258261500,4.481261474609375,-0.027701854705810547,0.005928993225097656,0.008169978857040405
1775340775268261600,4.49126171875,-0.05577373504638672,0.020567893981933594,-0.001522153615951538
1775340775278261500,4.501261474609375,-0.003974437713623047,-0.0022478103637695312,0.005675181746482849
1775340775288261600,4.51126171875,0.023484230041503906,-0.010500907897949219,0.06065566837787628
1775340775298261500,4.521261474609375,0.07211923599243164,-0.025216102600097656,0.029393404722213745
1775340775308261600,4.53126171875,0.0767984390258789,-0.016219139099121094,-0.004393666982650757
1775340775318261500,4.541261474609375,-0.019809246063232422,-0.014674186706542969,-0.008809775114059448
1775340775328261600,4.55126171875,0.03396415710449219,-0.018044471740722656,-0.008866488933563232
1775340775338261500,4.561261474609375,0.03061819076538086,-0.046387672424316406,0.006908848881721497
1775340775348261600,4.57126171875,-0.1604442596435547,0.07085323333740234,-0.00029727816581726074
1775340775358261500,4.581261474609375,0.07113838195800781,-0.03629589080810547,-0.013080239295959473
1775340775368261600,4.59126171875,-0.044239044189453125,0.010951042175292969,0.010860681533813477
1775340775378261500,4.601261474609375,-0.022128582000732422,0.046538352966308594,-0.001351475715637207
1775340775388261600,4.61126171875,0.1711406707763672,-0.06067085266113281,-0.04549431800842285
1775340775398261500,4.621261474609375,-0.09067678451538086,0.06362247467041016,-0.07212290167808533
1775340775408261600,4.63126171875,0.007374286651611328,-0.011438369750976562,-0.0019011497497558594
1775340775418261500,4.641261474609375,0.052584171295166016,-0.019252777099609375,0.05454988777637482
1775340775428261600,4.65126171875,-0.08205127716064453,0.012853622436523438,0.0435185432434082
1775340775438261500,4.661261474609375,0.07688665390014648,-0.05961036682128906,0.003919944167137146
1775340775448261600,4.67126171875,0.04649639129638672,-0.014731407165527344,0.001571059226989746
1775340775458261500,4.681261474609375,-0.05676841735839844,0.02601337432861328,0.01863008737564087
1775340775468261600,4.69126171875,0.06275081634521484,-0.007750511169433594,0.023067086935043335
1775340775478261500,4.701261474609375,0.022689342498779297,0.00298309326171875,0.06152862310409546
1775340775488261600,4.71126171875,-0.04559898376464844,0.024326324462890625,0.09269559383392334
1775340775498261500,4.721261474609375,0.04742622375488281,-0.012713432312011719,0.03959664702415466
1775340775508261600,4.73126171875,-0.09299087524414062,0.049869537353515625,-0.055243074893951416
1775340775518261500,4.741261474609375,-0.07889795303344727,0.011372566223144531,-0.07391297817230225
1775340775528261600,4.75126171875,0.0026493072509765625,-0.024817466735839844,-0.06454643607139587
1775340775538261500,4.761261474609375,-0.06411981582641602,0.02899456024169922,-0.05346250534057617
1775340775548261600,4.77126171875,-0.019548416137695312,-0.006754875183105469,-0.07391625642776489
1775340775558261500,4.781261474609375,0.01671886444091797,0.008670806884765625,-0.09873765707015991
1775340775568261600,4.79126171875,0.049347877502441406,0.00958251953125,-0.07307571172714233
1775340775578261500,4.801261474609375,0.040332794189453125,-0.002674102783203125,-0.028727561235427856
1775340775588261600,4.81126171875,0.005218505859375,0.015618324279785156,-0.03945782780647278
1775340775598261500,4.821261474609375,0.022208213806152344,0.020721435546875,-0.04105135798454285
1775340775608261600,4.83126171875,-0.028571128845214844,0.033860206604003906,0.02391330897808075
1775340775618261500,4.841261474609375,0.019737720489501953,0.016740798950195312,0.05523522198200226
1775340775628261600,4.85126171875,0.0906224250793457,-0.030796051025390625,0.031696587800979614
1775340775638261500,4.861261474609375,0.0446929931640625,-0.013632774353027344,0.02728864550590515
1775340775648261600,4.87126171875,-0.0629425048828125,0.04525947570800781,0.06667584180831909
1775340775658261500,4.881261474609375,0.10548925399780273,-0.038738250732421875,0.062007248401641846
1775340775668261600,4.89126171875,-0.013974666595458984,0.035714149475097656,-0.018493294715881348
1775340775678261500,4.901261474609375,-0.08880281448364258,0.03799629211425781,-0.0412919819355011
1775340775688261600,4.91126171875,0.10662412643432617,-0.06759452819824219,0.034338533878326416
1775340775698261500,4.921261474609375,-0.1555018424987793,0.02680206298828125,0.03180590271949768
1775340775708261600,4.93126171875,-0.08712148666381836,-0.021509170532226562,-0.01919618248939514
1775340775718261500,4.941261474609375,0.09778833389282227,-0.10959720611572266,-0.04334869980812073
1775340775728261600,4.95126171875,-0.15103769302368164,0.0023965835571289062,-0.018861889839172363
1775340775738261500,4.961261474609375,0.027246952056884766,-0.05349540710449219,-0.023881494998931885
1775340775748261600,4.97126171875,0.19134283065795898,-0.09640789031982422,-0.02307569980621338
1775340775758261500,4.981261474609375,-0.10332155227661133,0.05641460418701172,0.03270834684371948
1775340775768261600,4.99126171875,0.08335542678833008,-0.052734375,0.06096997857093811
1775340775778261500,5.001261474609375,0.10565710067749023,-0.021620750427246094,0.02258974313735962
1775340775788261600,5.01126171875,-0.17084980010986328,0.0747537612915039,-0.002294778823852539
1775340775798261500,5.021261474609375,0.0054264068603515625,0.006023406982421875,0.0234452486038208
1775340775808261600,5.03126171875,-0.048676490783691406,0.04173469543457031,0.09225739538669586
1775340775818261500,5.041261474609375,-0.16228151321411133,0.08365726470947266,0.0747583657503128
1775340775828261600,5.05126171875,0.05240154266357422,-0.005158424377441406,-0.011218756437301636
1775340775838261500,5.061261474609375,-0.008475780487060547,0.03011322021484375,-0.044575273990631104
1775340775848261600,5.07126171875,0.0746617317199707,0.012029647827148438,-0.04460042715072632
1775340775858261500,5.081261474609375,0.05523109436035156,0.0009393692016601562,-0.04344680905342102
1775340775868261600,5.09126171875,0.07479190826416016,-0.017093658447265625,-0.03468817472457886
1775340775878261500,5.101261474609375,0.08071708679199219,-0.026861190795898438,-0.0408858060836792
1775340775888261600,5.11126171875,-0.005465507507324219,-0.012788772583007812,-0.08128100633621216
1775340775898261500,5.121261474609375,0.009675025939941406,-0.028051376342773438,-0.06807738542556763
1775340775908261600,5.13126171875,-0.05420684814453125,0.013248443603515625,-0.015182018280029297
1775340775918261500,5.141261474609375,-0.009304523468017578,0.009432792663574219,-0.0008810758590698242
1775340775928261600,5.15126171875,0.03220510482788086,-0.006358146667480469,0.020378991961479187
1775340775938261500,5.161261474609375,-0.06266975402832031,0.04099273681640625,0.05625951290130615
1775340775948261600,5.17126171875,0.014069557189941406,0.036780357360839844,0.045786142349243164
1775340775958261500,5.181261474609375,0.018961429595947266,0.005570411682128906,0.0430821031332016
1775340775968261600,5.19126171875,-0.08948850631713867,0.03868293762207031,0.06367692351341248
1775340775978261500,5.201261474609375,-0.031638145446777344,0.0015897750854492188,0.04428146779537201
1775340775988261600,5.21126171875,0.02233600616455078,-0.03018474578857422,0.010145634412765503
1775340775998261500,5.221261474609375,-0.053679466247558594,-0.008419036865234375,0.0028125345706939697
1775340776008261600,5.23126171875,0.029610633850097656,-0.019777297973632812,-0.01083993911743164
1775340776018261500,5.241261474609375,0.03982257843017578,-0.029611587524414062,-0.06144225597381592
1775340776028261600,5.25126171875,0.0051822662353515625,0.0011110305786132812,-0.056882888078689575
1775340776038261500,5.261261474609375,0.06668233871459961,-0.03209495544433594,-0.024308443069458008
1775340776048261600,5.27126171875,0.06739139556884766,-0.03030872344970703,-0.03063318133354187
1775340776058261500,5.281261474609375,-0.08222818374633789,0.04487800598144531,-0.07299908995628357
1775340776068261600,5.29126171875,-0.012036323547363281,0.018982887268066406,-0.073924720287323
1775340776078261500,5.301261474609375,-0.06217384338378906,0.025941848754882812,0.006383180618286133
1775340776088261600,5.31126171875,-0.09782695770263672,0.02590465545654297,0.06448239088058472
1775340776098261500,5.321261474609375,0.036635398864746094,-0.008028984069824219,0.03616207838058472
1775340776108261600,5.33126171875,-0.03740882873535156,0.02455615997314453,0.020197004079818726
1775340776118261500,5.341261474609375,0.019596099853515625,-0.018937110900878906,0.023671329021453857
1775340776128261600,5.35126171875,0.020188331604003906,0.003991127014160156,0.03759901225566864
1775340776138261500,5.361261474609375,0.031009674072265625,-0.005809783935546875,0.03212586045265198
1775340776148261600,5.37126171875,0.06368732452392578,-0.02809906005859375,0.045986682176589966
1775340776158261500,5.381261474609375,-0.013941764831542969,0.010389328002929688,0.058507367968559265
1775340776168261600,5.39126171875,0.0707082748413086,-0.03240966796875,0.04380372166633606
1775340776178261500,5.401261474609375,-0.017061710357666016,0.011379241943359375,-0.008589714765548706
1775340776188261600,5.41126171875,-0.009489059448242188,0.0012035369873046875,-0.041120827198028564
1775340776198261500,5.421261474609375,0.019417762756347656,-0.005017280578613281,-0.04670646786689758
1775340776208261600,5.43126171875,-0.07957983016967773,0.029242515563964844,-0.007593661546707153
1775340776218261500,5.441261474609375,-0.0077800750732421875,0.007932662963867188,-0.006494671106338501
1775340776228261600,5.45126171875,-0.0016074180603027344,0.008908271789550781,-0.022892087697982788
1775340776238261500,5.461261474609375,-0.02871084213256836,0.010158538818359375,-0.01387295126914978
1775340776248261600,5.47126171875,-0.012373924255371094,-0.0011434555053710938,-0.03599989414215088
1775340776258261500,5.481261474609375,0.0029616355895996094,-0.0035419464111328125,-0.047671496868133545
1775340776268261600,5.49126171875,0.07573604583740234,-0.023797988891601562,-0.02008196711540222
1775340776278261500,5.501261474609375,-0.04422569274902344,-0.010761260986328125,0.008840203285217285
1775340776288261600,5.51126171875,0.09579086303710938,-0.0718231201171875,-0.026169776916503906
1775340776298261500,5.521261474609375,-0.012963294982910156,0.017401695251464844,0.041932523250579834
1775340776308261600,5.53126171875,-0.14044570922851562,0.08701038360595703,0.1364193558692932
1775340776318261500,5.541261474609375,0.12953805923461914,-0.013787269592285156,0.06625986099243164
1775340776328261600,5.55126171875,0.1580801010131836,-0.03814125061035156,0.016589045524597168
1775340776338261500,5.561261474609375,-0.15381193161010742,0.11019134521484375,0.04221218824386597
1775340776348261600,5.57126171875,0.139312744140625,-0.0240020751953125,0.005613118410110474
1775340776358261500,5.581261474609375,0.05177593231201172,-0.04283714294433594,-0.006937205791473389
1775340776368261600,5.59126171875,-0.2413926124572754,0.026329994201660156,-0.029033422470092773
1775340776378261500,5.601261474609375,0.10498237609863281,-0.1078643798828125,-0.05960682034492493
1775340776388261600,5.61126171875,-0.13033485412597656,-0.015651702880859375,0.0060867369174957275
1775340776398261500,5.621261474609375,-0.09924888610839844,-0.032547950744628906,0.03164735436439514
1775340776408261600,5.63126171875,0.18024969100952148,-0.10246849060058594,0.014754325151443481
1775340776418261500,5.641261474609375,-0.22967863082885742,0.08743000030517578,-0.006815731525421143
1775340776428261600,5.65126171875,0.1251354217529297,-0.03146076202392578,-0.0519767701625824
1775340776438261500,5.661261474609375,0.15388011932373047,-0.013188362121582031,0.0009345710277557373
1775340776448261600,5.67126171875,-0.14297056198120117,0.10032081604003906,0.12458936870098114
1775340776458261500,5.681261474609375,0.1388845443725586,-0.01897716522216797,0.07330586016178131
1775340776468261600,5.69126171875,-0.03842973709106445,0.054642677307128906,-0.10317829251289368
1775340776478261500,5.701261474609375,-0.1723322868347168,0.08534812927246094,-0.12375262379646301
1775340776488261600,5.71126171875,0.01956796646118164,-0.008229255676269531,-0.0031343400478363037
1775340776498261500,5.721261474609375,-0.14170360565185547,0.02750110626220703,0.007674887776374817
1775340776508261600,5.73126171875,-0.06746196746826172,0.028464317321777344,-0.12172618508338928
1775340776518261500,5.741261474609375,0.13092803955078125,-0.055022239685058594,-0.0817517638206482
1775340776528261600,5.75126171875,0.0431056022644043,0.005160331726074219,0.01403498649597168
1775340776538261500,5.761261474609375,0.16509103775024414,-0.03370475769042969,-0.03397825360298157
1775340776548261600,5.77126171875,0.14736223220825195,0.010770797729492188,-0.11540564894676208
1775340776558261500,5.781261474609375,0.03474092483520508,0.031889915466308594,-0.0677827000617981
1775340776568261600,5.79126171875,0.02736377716064453,-0.007549285888671875,0.04115311801433563
1775340776578261500,5.801261474609375,0.07160329818725586,-0.03356456756591797,0.05446058511734009
1775340776588261600,5.81126171875,-0.13138437271118164,0.016321182250976562,0.04544997215270996
1775340776598261500,5.821261474609375,-0.13413000106811523,-0.0067119598388671875,0.02596104145050049
1775340776608261600,5.83126171875,-0.008908271789550781,-0.05390739440917969,0.03060472011566162
1775340776618261500,5.841261474609375,-0.14556026458740234,0.016936302185058594,0.06554655730724335
1775340776628261600,5.85126171875,-0.043131351470947266,-0.0071811676025390625,0.09135344624519348
1775340776638261500,5.861261474609375,0.13391590118408203,-0.06369590759277344,0.08789131045341492
1775340776648261600,5.87126171875,0.047884464263916016,-0.006335258483886719,0.036956146359443665
1775340776658261500,5.881261474609375,0.02195596694946289,0.022790908813476562,-0.02276119589805603
1775340776668261600,5.89126171875,0.13354921340942383,-0.009678840637207031,-0.04020470380783081
1775340776678261500,5.901261474609375,-0.06859397888183594,0.04125499725341797,-0.007318437099456787
1775340776688261600,5.91126171875,-0.06179380416870117,0.0173492431640625,-0.0193021297454834
1775340776698261500,5.921261474609375,-0.005118370056152344,0.005333900451660156,-0.05410763621330261
1775340776708261600,5.93126171875,-0.137481689453125,0.0650014877319336,-0.07735678553581238
1775340776718261500,5.941261474609375,-0.030651092529296875,0.04909992218017578,-0.0779140293598175
1775340776728261600,5.95126171875,0.05767488479614258,0.0064258575439453125,-0.06308841705322266
1775340776738261500,5.961261474609375,-0.046334266662597656,0.0417633056640625,0.007787793874740601
1775340776748261600,5.97126171875,0.05662202835083008,0.030394554138183594,0.04168634116649628
1775340776758261500,5.981261474609375,0.16975831985473633,-0.05675315856933594,0.029140859842300415
1775340776768261600,5.99126171875,0.02532196044921875,0.015001296997070312,0.0112265944480896
1775340776778261500,6.001261474609375,0.03286170959472656,-0.004591941833496094,-0.025737404823303223
1775340776788261600,6.01126171875,0.1231231689453125,-0.05153846740722656,0.008916258811950684
1775340776798261500,6.021261474609375,0.020905494689941406,-0.04645538330078125,0.11146038770675659
1775340776808261600,6.03126171875,-0.19238805770874023,0.031470298767089844,0.13349047303199768
1775340776818261500,6.041261474609375,0.030370712280273438,-0.06288433074951172,0.03066462278366089
1775340776828261600,6.05126171875,-0.20765972137451172,0.04722023010253906,-0.0161435604095459
1775340776838261500,6.061261474609375,-0.18596172332763672,0.03274059295654297,-0.04797738790512085
1775340776848261600,6.07126171875,0.13442659378051758,-0.07752609252929688,-0.036576420068740845
1775340776858261500,6.081261474609375,-0.06667089462280273,-0.0030908584594726562,0.027664542198181152
1775340776868261600,6.09126171875,0.08171892166137695,-0.03804492950439453,-0.022871047258377075
1775340776878261500,6.101261474609375,0.17275333404541016,-0.09078216552734375,-0.09053793549537659
1775340776888261600,6.11126171875,-0.0737619400024414,0.00400543212890625,-0.12456101179122925
1775340776898261500,6.121261474609375,0.08205986022949219,-0.03691673278808594,-0.11177906394004822
1775340776908261600,6.13126171875,0.040677547454833984,-0.02643108367919922,-0.024417728185653687
1775340776918261500,6.141261474609375,-0.09538507461547852,0.06941699981689453,0.058555468916893005
1775340776928261600,6.15126171875,-0.02876138687133789,0.057822227478027344,0.07092736661434174
1775340776938261500,6.161261474609375,-0.005363941192626953,0.044841766357421875,0.05406796932220459
1775340776948261600,6.17126171875,-0.006525516510009766,0.05624580383300781,0.04818910360336304
1775340776958261500,6.181261474609375,-0.0078277587890625,0.024583816528320312,0.05755104124546051
1775340776968261600,6.19126171875,0.06272459030151367,-0.009562492370605469,0.05551007390022278
1775340776978261500,6.201261474609375,0.03750133514404297,-0.016658782958984375,0.06557118892669678
1775340776988261600,6.21126171875,0.01540231704711914,-0.030234336853027344,0.06867805123329163
1775340776998261500,6.221261474609375,0.0029850006103515625,-0.04096698760986328,0.019535958766937256
1775340777008261600,6.23126171875,0.09936666488647461,-0.050278663635253906,-0.012623786926269531
1775340777018261500,6.241261474609375,-0.11554145812988281,0.005009651184082031,0.00667533278465271
1775340777028261600,6.25126171875,0.09124946594238281,-0.05585002899169922,-0.025989919900894165
1775340777038261500,6.261261474609375,-0.03683662414550781,0.06438922882080078,-0.015193372964859009
1775340777048261600,6.27126171875,-0.22906017303466797,0.1203603744506836,-0.025933146476745605
1775340777058261500,6.281261474609375,0.11954164505004883,-0.01862335205078125,-0.02640196681022644
1775340777068261600,6.29126171875,-0.03266191482543945,0.03572654724121094,-0.03410977125167847
1775340777078261500,6.301261474609375,-0.15308809280395508,0.06136608123779297,-0.05242052674293518
1775340777088261600,6.31126171875,0.20848846435546875,-0.07703781127929688,-0.09488707780838013
1775340777098261500,6.321261474609375,-0.024350643157958984,0.039877891540527344,-0.08295443654060364
1775340777108261600,6.33126171875,0.0737152099609375,-0.017377853393554688,-0.038714051246643066
1775340777118261500,6.341261474609375,0.17875337600708008,-0.019680023193359375,-0.009404361248016357
1775340777128261600,6.35126171875,-0.06818866729736328,0.07542896270751953,0.08663308620452881
1775340777138261500,6.361261474609375,-0.005506038665771484,0.033596038818359375,0.1343439817428589
1775340777148261600,6.37126171875,0.09136009216308594,-0.028438568115234375,0.10288579761981964
1775340777158261500,6.381261474609375,-0.1295022964477539,0.05621623992919922,0.10001754760742188
1775340777168261600,6.39126171875,0.01553487777709961,-0.02122211456298828,0.053259313106536865
1775340777178261500,6.401261474609375,-0.0037107467651367188,-0.00415802001953125,-0.0857042670249939
1775340777188261600,6.41126171875,-0.1476607322692871,0.15488719940185547,-0.13741734623908997
1775340777198261500,6.421261474609375,0.15945911407470703,-0.04187488555908203,0.03838600218296051
1775340777208261600,6.43126171875,0.06477594375610352,0.25540733337402344,0.11794336140155792
1775340777218261500,6.441261474609375,0.13570213317871094,-0.08787250518798828,0.013973534107208252
1775340777228261600,6.45126171875,0.3910031318664551,0.20754623413085938,-0.01256638765335083
1775340777238261500,6.461261474609375,-0.45042920112609863,-0.17483234405517578,0.0007172226905822754
1775340777248261600,6.47126171875,0.16965293884277344,-0.0676736831665039,-0.12055462598800659
1775340777258261500,6.481261474609375,-0.6265697479248047,-0.20426368713378906,-0.18861123919487
1775340777268261600,6.49126171875,0.6822094917297363,-0.0016078948974609375,-0.16099712252616882
1775340777278261500,6.501261474609375,-0.24263858795166016,-0.08170795440673828,0.12235592305660248
1775340777288261600,6.51126171875,0.14181995391845703,0.002582550048828125,-0.014894545078277588
1775340777298261500,6.521261474609375,-0.20553064346313477,0.09191322326660156,-0.00011098384857177734
1775340777308261600,6.53126171875,-0.22488689422607422,0.06693840026855469,0.08739849925041199
1775340777318261500,6.541261474609375,-0.2239837646484375,0.12227630615234375,0.07898154854774475
1775340777328261600,6.55126171875,-0.08691167831420898,-0.012856483459472656,0.03668054938316345
1775340777338261500,6.561261474609375,0.12543725967407227,0.11736297607421875,-0.021693289279937744
1775340777348261600,6.57126171875,-1.0676078796386719,0.535304069519043,0.10872045159339905
1775340777358261500,6.581261474609375,0.4940919876098633,-0.005976676940917969,0.09508764743804932
1775340777368261600,6.59126171875,0.1285839080810547,0.054978370666503906,0.03503958880901337
1775340777378261500,6.601261474609375,-0.14078092575073242,0.363800048828125,0.16021348536014557
1775340777388261600,6.61126171875,-0.4805440902709961,0.5136995315551758,0.08119812607765198
1775340777398261500,6.621261474609375,-0.5860378742218018,0.9178199768066406,-0.01944062113761902
1775340777408261600,6.63126171875,-0.688549280166626,0.9456110000610352,-0.06494954228401184
1775340777418261500,6.641261474609375,0.4280734062194824,0.18644237518310547,-0.1264171600341797
1775340777428261600,6.65126171875,0.9412751197814941,0.4844064712524414,-0.02578914165496826
1775340777438261500,6.661261474609375,-0.6455423831939697,0.8901920318603516,0.020772784948349
1775340777448261600,6.67126171875,0.2395329475402832,0.7394142150878906,-0.1410256326198578
1775340777458261500,6.681261474609375,0.6343674659729004,0.48375511169433594,-0.08689653873443604
1775340777468261600,6.69126171875,-0.5383367538452148,1.1991138458251953,0.20572777092456818
1775340777478261500,6.701261474609375,-0.527407169342041,0.8866729736328125,-0.0980270504951477
1775340777488261600,6.71126171875,-0.12782621383666992,0.9901618957519531,-0.15519830584526062
1775340777498261500,6.721261474609375,-0.45821189880371094,1.4022607803344727,0.2875249683856964
1775340777508261600,6.73126171875,-0.7427890300750732,1.0264463424682617,0.2728603482246399
1775340777518261500,6.741261474609375,-0.30560827255249023,0.8242721557617188,-0.10900858044624329
1775340777528261600,6.75126171875,0.018307209014892578,1.5507612228393555,-0.2657843232154846
1775340777538261500,6.761261474609375,-3.354372024536133,2.187673568725586,0.06223997473716736
1775340777548261600,6.77126171875,-4.378175258636475,2.614325523376465,0.04696190357208252
1775340777558261500,6.781261474609375,-0.33873701095581055,0.6015682220458984,-0.025154143571853638
1775340777568261600,6.79126171875,0.10815048217773438,0.3948249816894531,-0.045361489057540894
1775340777578261500,6.801261474609375,1.8375029563903809,-0.6325454711914062,0.07949098944664001
1775340777588261600,6.81126171875,3.5051236152648926,-1.0184574127197266,0.08377215266227722
1775340777598261500,6.821261474609375,2.5463075637817383,-0.8421082496643066,-0.07990714907646179
1775340777608261600,6.83126171875,3.0783772468566895,-1.0993266105651855,-0.24145343899726868
1775340777618261500,6.841261474609375,1.6376495361328125,-0.2961463928222656,-0.14505454897880554
1775340777628261600,6.85126171875,0.021965980529785156,0.233306884765625,0.1170710027217865
1775340777638261500,6.861261474609375,0.3344759941101074,0.32135963439941406,-0.2213207483291626
1775340777648261600,6.87126171875,-0.21551132202148438,0.35065269470214844,-0.1835889220237732
1775340777658261500,6.881261474609375,0.12034130096435547,0.010838508605957031,-0.007681399583816528
1775340777668261600,6.89126171875,0.5444307327270508,0.03165435791015625,0.04184901714324951
1775340777678261500,6.901261474609375,0.4179415702819824,-0.36260986328125,0.0033857226371765137
1775340777688261600,6.91126171875,0.44185876846313477,-0.048778533935546875,-0.22340145707130432
1775340777698261500,6.921261474609375,0.009228706359863281,-0.030658721923828125,-0.03118690848350525
1775340777708261600,6.93126171875,-0.3180227279663086,-0.0806264877319336,0.18060293793678284
1775340777718261500,6.941261474609375,-0.5921730995178223,0.23807430267333984,-0.1523827314376831
1775340777728261600,6.95126171875,-0.6624636650085449,-0.005070686340332031,-0.19908669590950012
1775340777738261500,6.961261474609375,-1.1849517822265625,0.28432369232177734,-0.12106016278266907
1775340777748261600,6.97126171875,-1.7483129501342773,0.33983325958251953,-0.00003781914710998535
1775340777758261500,6.981261474609375,-1.880105972290039,0.6353616714477539,-0.058123767375946045
1775340777768261600,6.99126171875,-2.564603328704834,0.7880382537841797,0.010475248098373413
1775340777778261500,7.001261474609375,-2.412137985229492,0.40251588821411133,0.18693450093269348
1775340777788261600,7.01126171875,-2.503732681274414,0.32317495346069336,0.19367173314094543
1775340777798261500,7.021261474609375,-1.8873958587646484,0.14759445190429688,0.23363441228866577
1775340777808261600,7.03126171875,-1.592231273651123,-0.42548656463623047,-0.02801614999771118
1775340777818261500,7.041261474609375,-0.8473491668701172,-0.46480703353881836,-0.1837673783302307
1775340777828261600,7.05126171875,-0.8297147750854492,-0.8615632057189941,0.1138300895690918
1775340777838261500,7.061261474609375,-0.8595962524414062,-0.8613591194152832,-0.06771436333656311
1775340777848261600,7.07126171875,-1.3123502731323242,-0.9199762344360352,-0.2928689122200012
1775340777858261500,7.081261474609375,-1.325507640838623,-0.7947211265563965,-0.12896472215652466
1775340777868261600,7.09126171875,-1.4766936302185059,-0.8363261222839355,0.0962056815624237
1775340777878261500,7.101261474609375,-1.574195384979248,-1.030785083770752,0.2980961203575134
1775340777888261600,7.11126171875,-1.256598949432373,-1.050865650177002,-0.06504428386688232
1775340777898261500,7.121261474609375,-1.1862716674804688,-1.6409635543823242,-0.05830684304237366
1775340777908261600,7.13126171875,-0.25344228744506836,-2.112882614135742,0.02301257848739624
1775340777918261500,7.141261474609375,0.4277620315551758,-2.042363166809082,0.07402065396308899
1775340777928261600,7.15126171875,0.35968875885009766,-2.0634422302246094,-0.30282336473464966
1775340777938261500,7.161261474609375,0.7125816345214844,-2.0577945709228516,-0.07759329676628113
1775340777948261600,7.17126171875,0.5242476463317871,-2.192714214324951,0.0997920036315918
1775340777958261500,7.181261474609375,0.5002632141113281,-1.9359893798828125,0.07630199193954468
1775340777968261600,7.19126171875,0.18093585968017578,-1.7497076988220215,0.23976139724254608
1775340777978261500,7.201261474609375,-0.7475862503051758,-1.0949249267578125,0.08097460865974426
1775340777988261600,7.21126171875,-0.7933349609375,-1.1130304336547852,0.2325502336025238
1775340777998261500,7.221261474609375,-0.7223320007324219,-1.346231460571289,0.35315030813217163
1775340778008261600,7.23126171875,11.092628479003906,-6.256503582000732,-0.5922821760177612
1775340778018261500,7.241261474609375,13.332916259765625,-8.053325653076172,-0.5119025707244873
1775340778028261600,7.25126171875,-6.627068519592285,2.701651096343994,0.893980860710144
1775340778038261500,7.261261474609375,-9.889512062072754,3.5127434730529785,0.48642686009407043
1775340778048261600,7.27126171875,2.320833206176758,-1.413175106048584,-1.003723382949829
1775340778058261500,7.281261474609375,2.1815710067749023,-1.7981932163238525,-0.4071756899356842
1775340778068261600,7.29126171875,2.0866165161132812,-1.1423296928405762,0.41848990321159363
1775340778078261500,7.301261474609375,-2.470212936401367,0.6780490875244141,0.5598900318145752
1775340778088261600,7.31126171875,-1.5983266830444336,0.29340219497680664,-0.3234677314758301
1775340778098261500,7.321261474609375,0.8986644744873047,-0.5720806121826172,-0.653685450553894
1775340778108261600,7.33126171875,0.7026710510253906,-0.5771698951721191,0.10219964385032654
1775340778118261500,7.341261474609375,-0.2846212387084961,-0.07867240905761719,0.40594282746315
1775340778128261600,7.35126171875,-0.5403833389282227,-0.10675716400146484,0.00013425946235656738
1775340778138261500,7.361261474609375,0.1228494644165039,-0.2368779182434082,-0.5361193418502808
1775340778148261600,7.37126171875,0.11640071868896484,-0.28064727783203125,-0.10872983932495117
1775340778158261500,7.381261474609375,0.08807849884033203,-0.24553155899047852,0.5315386056900024
1775340778168261600,7.39126171875,-0.25595664978027344,-0.13962984085083008,0.33450379967689514
1775340778178261500,7.401261474609375,0.16258716583251953,-0.11872482299804688,-0.26759159564971924
1775340778188261600,7.41126171875,0.07874584197998047,0.07423591613769531,-0.23258107900619507
1775340778198261500,7.421261474609375,-0.09219169616699219,0.17643404006958008,0.22586680948734283
1775340778208261600,7.43126171875,0.7282075881958008,-0.10194683074951172,0.26555582880973816
1775340778218261500,7.441261474609375,0.04312610626220703,0.18790245056152344,-0.15591353178024292
1775340778228261600,7.45126171875,-0.166656494140625,0.3346133232116699,-0.356040894985199
1775340778238261500,7.461261474609375,0.06305122375488281,0.26702117919921875,-0.05748757719993591
1775340778248261600,7.47126171875,-0.201263427734375,0.2530069351196289,0.16112050414085388
1775340778258261500,7.481261474609375,0.4950447082519531,-0.122772216796875,-0.016796857118606567
1775340778268261600,7.49126171875,1.9068059921264648,-0.8078618049621582,-0.3498065173625946
1775340778278261500,7.501261474609375,-1.355931282043457,0.458343505859375,-0.002046048641204834
1775340778288261600,7.51126171875,-0.2791471481323242,-0.06701946258544922,0.22993464767932892
1775340778298261500,7.521261474609375,0.8976230621337891,-0.5461759567260742,0.04084339737892151
1775340778308261600,7.53126171875,-0.550105094909668,0.09938240051269531,-0.05646350979804993
1775340778318261500,7.541261474609375,-0.4412355422973633,0.03002643585205078,-0.028324753046035767
1775340778328261600,7.55126171875,0.3667163848876953,-0.32734060287475586,0.09395715594291687
1775340778338261500,7.561261474609375,-0.3459510803222656,-0.06447601318359375,0.04171141982078552
1775340778348261600,7.57126171875,-0.3701200485229492,-0.07539892196655273,-0.1982412040233612
1775340778358261500,7.581261474609375,0.13155364990234375,-0.3027973175048828,-0.22817689180374146
1775340778368261600,7.59126171875,-0.30310821533203125,-0.1917119026184082,-0.06856679916381836
1775340778378261500,7.601261474609375,-0.1479034423828125,-0.2674674987792969,0.0006933212280273438
1775340778388261600,7.61126171875,-0.10346508026123047,-0.33930015563964844,-0.04638391733169556
1775340778398261500,7.621261474609375,-0.29641151428222656,-0.22888517379760742,-0.046859800815582275
1775340778408261600,7.63126171875,-0.2579689025878906,-0.3310122489929199,0.1145240068435669
1775340778418261500,7.641261474609375,-0.30028533935546875,-0.38725805282592773,0.16848531365394592
1775340778428261600,7.65126171875,-0.34988880157470703,-0.3844008445739746,0.014806985855102539
1775340778438261500,7.661261474609375,-0.26656436920166016,-0.46172475814819336,-0.06699478626251221
1775340778448261600,7.67126171875,-0.2693948745727539,-0.4390377998352051,0.019160717725753784
1775340778458261500,7.681261474609375,-0.4396944046020508,-0.3561701774597168,0.08710828423500061
1775340778468261600,7.69126171875,-0.3840065002441406,-0.3076510429382324,0.010224461555480957
1775340778478261500,7.701261474609375,-0.3904390335083008,-0.29028749465942383,-0.053765833377838135
1775340778488261600,7.71126171875,-0.33627891540527344,-0.3226780891418457,0.004899650812149048
1775340778498261500,7.721261474609375,-0.2317218780517578,-0.35323476791381836,0.05841180682182312
1775340778508261600,7.73126171875,-0.3145313262939453,-0.27231407165527344,-0.009459376335144043
1775340778518261500,7.741261474609375,-0.2534341812133789,-0.3146963119506836,-0.07448616623878479
1775340778528261600,7.75126171875,-0.12910747528076172,-0.34717416763305664,-0.02142423391342163
1775340778538261500,7.761261474609375,-0.09858226776123047,-0.2774991989135742,0.10738939046859741
1775340778548261600,7.77126171875,-0.21255970001220703,-0.2002401351928711,0.11942121386528015
1775340778558261500,7.781261474609375,-0.04271221160888672,-0.15622282028198242,-0.029979586601257324
1775340778568261600,7.79126171875,0.0832223892211914,-0.11394548416137695,-0.10334625840187073
1775340778578261500,7.801261474609375,0.06700897216796875,0.020094871520996094,-0.06284913420677185
1775340778588261600,7.81126171875,0.04133415222167969,0.04851675033569336,-0.00869685411453247
1775340778598261500,7.821261474609375,0.20292091369628906,0.043407440185546875,-0.043537795543670654
1775340778608261600,7.83126171875,0.17504310607910156,0.04686403274536133,-0.063913494348526
1775340778618261500,7.841261474609375,0.15299129486083984,0.1365499496459961,-0.01031196117401123
1775340778628261600,7.85126171875,0.14848041534423828,0.13124561309814453,0.08068731427192688
1775340778638261500,7.861261474609375,0.2227611541748047,0.046276092529296875,0.06518563628196716
1775340778648261600,7.87126171875,0.15195465087890625,-0.011711597442626953,-0.03255343437194824
1775340778658261500,7.881261474609375,0.006453514099121094,0.03069448471069336,-0.06789079308509827
1775340778668261600,7.89126171875,0.09059810638427734,-0.06590414047241211,0.014256864786148071
1775340778678261500,7.901261474609375,0.05987739562988281,-0.14284372329711914,0.05271539092063904
1775340778688261600,7.91126171875,-0.14571285247802734,-0.10624313354492188,-0.05428794026374817
1775340778698261500,7.921261474609375,-0.09285259246826172,-0.1502065658569336,-0.11990776658058167
1775340778708261600,7.93126171875,-0.14406204223632812,-0.15956401824951172,-0.022158324718475342
1775340778718261500,7.941261474609375,-0.18687152862548828,-0.14829444885253906,0.033162057399749756
1775340778728261600,7.95126171875,-0.013688087463378906,-0.28551626205444336,-0.01686081290245056
1775340778738261500,7.961261474609375,-0.11281013488769531,-0.23186349868774414,-0.1039121150970459
1775340778748261600,7.97126171875,-0.30001354217529297,-0.22656917572021484,-0.08786529302597046
1775340778758261500,7.981261474609375,-0.04174995422363281,-0.4277505874633789,-0.0024666190147399902
1775340778768261600,7.99126171875,0.19807052612304688,-0.5217957496643066,0.03111410140991211
1775340778778261500,8.001261474609375,-0.4440727233886719,-0.22412967681884766,0.06679272651672363
1775340778788261600,8.01126171875,-0.4029202461242676,-0.3184051513671875,0.07671797275543213
1775340778798261500,8.021261474609375,-0.7971405982971191,-0.08971452713012695,0.14089533686637878
1775340778808261600,8.03126171875,-0.7476644515991211,-0.16676759719848633,0.05329608917236328
1775340778818261500,8.041261474609374,0.14958763122558594,-0.4398531913757324,-0.043386369943618774
1775340778828261600,8.05126171875,-0.3836030960083008,-0.09011554718017578,0.015643686056137085
1775340778838261500,8.061261474609376,-0.23361778259277344,-0.22488784790039062,-0.010023951530456543
1775340778848261600,8.07126171875,0.09470081329345703,-0.24176883697509766,-0.14406278729438782
1775340778858261500,8.081261474609375,-0.05222797393798828,-0.14220762252807617,-0.028630495071411133
1775340778868261600,8.09126171875,0.14252376556396484,-0.2445993423461914,0.103005051612854
1775340778878261500,8.101261474609375,0.03769493103027344,-0.18844127655029297,-0.002156972885131836
1775340778888261600,8.11126171875,-0.2726316452026367,-0.0323939323425293,-0.07831406593322754
1775340778898261500,8.121261474609375,0.07299995422363281,-0.07773685455322266,-0.09714901447296143
1775340778908261600,8.13126171875,-0.16674327850341797,-0.0037627220153808594,0.022983700037002563
1775340778918261500,8.141261474609376,-0.5293946266174316,0.16308832168579102,0.04355856776237488
1775340778928261600,8.15126171875,0.4519538879394531,-0.1930561065673828,-0.09309786558151245
1775340778938261500,8.161261474609375,0.6739683151245117,-0.3586859703063965,-0.08164429664611816
1775340778948261600,8.17126171875,-0.876072883605957,0.2749333381652832,0.11501738429069519
1775340778958261500,8.181261474609375,-0.12893295288085938,-0.08922290802001953,0.07235786318778992
1775340778968261600,8.19126171875,0.24360942840576172,-0.3585357666015625,-0.051909834146499634
1775340778978261500,8.201261474609375,-0.6438775062561035,0.005949974060058594,-0.06310147047042847
1775340778988261600,8.21126171875,-0.40375328063964844,-0.4208683967590332,0.1253056824207306
1775340778998261500,8.221261474609374,0.02782917022705078,-0.581031322479248,0.17810456454753876
1775340779008261600,8.23126171875,-0.5296669006347656,-0.43819761276245117,0.13502958416938782
1775340779018261500,8.241261474609376,-0.3107876777648926,-0.5273213386535645,-0.027449071407318115
1775340779028261600,8.25126171875,-0.2826089859008789,-0.4255824089050293,-0.08558738231658936
1775340779038261500,8.261261474609375,-0.5594558715820312,-0.4352908134460449,0.07767105102539062
1775340779048261600,8.27126171875,-0.5692062377929688,-0.4099116325378418,-0.0756598711013794
1775340779058261500,8.281261474609375,-0.6796064376831055,-0.5167636871337891,-0.11918297410011292
1775340779068261600,8.29126171875,-0.8733549118041992,-0.5396389961242676,-0.011076033115386963
1775340779078261500,8.301261474609374,-0.9864501953125,-0.6974282264709473,0.05127802491188049
1775340779088261600,8.31126171875,-1.0970258712768555,-0.7674312591552734,0.22346752882003784
1775340779098261500,8.321261474609376,-1.5266399383544922,-0.4950752258300781,0.23046432435512543
1775340779108261600,8.33126171875,0.21227073669433594,-1.1384387016296387,0.015772193670272827
1775340779118261500,8.341261474609375,0.019556045532226562,-0.9700145721435547,0.023848682641983032
1775340779128261600,8.35126171875,-0.8342370986938477,-0.5206351280212402,0.17984133958816528
1775340779138261500,8.361261474609375,-3.7524871826171875,0.4235820770263672,0.07729080319404602
1775340779148261600,8.37126171875,1.114232063293457,-1.2945661544799805,-0.24204584956169128
1775340779158261500,8.381261474609374,0.20407485961914062,-1.1582484245300293,0.00992003083229065
1775340779168261600,8.39126171875,-1.9056549072265625,0.09322118759155273,-0.022075235843658447
1775340779178261500,8.401261474609376,0.3021669387817383,-0.9718670845031738,-0.11108356714248657
1775340779188261600,8.41126171875,0.05718421936035156,-0.9166288375854492,-0.2042817771434784
1775340779198261500,8.421261474609375,-1.850022315979004,-0.16739130020141602,0.1387937068939209
1775340779208261600,8.43126171875,-0.09892463684082031,-0.5208864212036133,0.04084184765815735
1775340779218261500,8.441261474609375,-0.7695145606994629,-0.8175344467163086,0.10294139385223389
1775340779228261600,8.45126171875,-0.8782339096069336,-0.004983425140380859,-0.2653793394565582
1775340779238261500,8.461261474609374,-0.4823026657104492,-0.36351871490478516,-0.11179566383361816
1775340779248261600,8.47126171875,0.1826457977294922,-0.6208863258361816,-0.16571182012557983
1775340779258261500,8.481261474609376,-0.6944923400878906,-0.16360902786254883,-0.35426974296569824
1775340779268261600,8.49126171875,-0.8877987861633301,-0.2486739158630371,-0.34159591794013977
1775340779278261500,8.501261474609375,-0.08933401107788086,-0.46964168548583984,-0.4054557681083679
1775340779288261600,8.51126171875,0.03609657287597656,-0.48436498641967773,-0.13818120956420898
1775340779298261500,8.521261474609375,-0.16209983825683594,-0.08168506622314453,0.17282435297966003
1775340779308261600,8.53126171875,-0.11710071563720703,-0.1917285919189453,0.2630552053451538
1775340779318261500,8.541261474609374,0.4047250747680664,-0.31237030029296875,0.04691767692565918
1775340779328261600,8.55126171875,-0.0037946701049804688,-0.09751749038696289,0.1940608024597168
1775340779338261500,8.561261474609376,-0.09789657592773438,-0.07228422164916992,0.07728418707847595
1775340779348261600,8.57126171875,0.03997516632080078,0.1659698486328125,-0.12005001306533813
1775340779358261500,8.581261474609375,0.20592117309570312,0.2692379951477051,-0.2850925326347351
1775340779368261600,8.59126171875,0.3318462371826172,0.1270899772644043,-0.13433292508125305
1775340779378261500,8.601261474609375,0.28157997131347656,0.4171638488769531,0.05037468671798706
1775340779388261600,8.61126171875,0.4448270797729492,0.23486900329589844,0.006036102771759033
1775340779398261500,8.621261474609375,0.7337303161621094,0.5267443656921387,0.07086530327796936
1775340779408261600,8.63126171875,-1.3927392959594727,0.8397884368896484,0.17365381121635437
1775340779418261500,8.641261474609376,1.3557548522949219,0.10288000106811523,-0.16122320294380188
1775340779428261600,8.65126171875,0.6846761703491211,0.08807134628295898,-0.12927615642547607
1775340779438261500,8.661261474609375,-0.4092445373535156,0.5295310020446777,0.06052953004837036
1775340779448261600,8.67126171875,0.12080097198486328,-0.04985475540161133,0.05739280581474304
1775340779458261500,8.681261474609375,1.0745906829833984,0.1878342628479004,-0.14140185713768005
1775340779468261600,8.69126171875,0.21919822692871094,0.2629542350769043,-0.031792253255844116
1775340779478261500,8.701261474609375,0.4503917694091797,0.5658950805664062,-0.06692790985107422
1775340779488261600,8.71126171875,1.0928010940551758,0.2977409362792969,-0.2188989818096161
1775340779498261500,8.721261474609374,0.6558208465576172,0.3108038902282715,-0.05018976330757141
1775340779508261600,8.73126171875,0.1039113998413086,0.47697973251342773,0.030195653438568115
1775340779518261500,8.741261474609376,1.0362844467163086,-0.09489107131958008,-0.02807632088661194
1775340779528261600,8.75126171875,0.7156906127929688,0.46196889877319336,0.020138293504714966
1775340779538261500,8.761261474609375,-0.46196842193603516,0.518928050994873,0.26732462644577026
1775340779548261600,8.77126171875,1.0442724227905273,0.19825983047485352,-0.04621341824531555
1775340779558261500,8.781261474609375,0.12601757049560547,0.37656641006469727,-0.08176442980766296
1775340779568261600,8.79126171875,-0.3796529769897461,0.559967041015625,0.05746832489967346
1775340779578261500,8.801261474609374,0.3243255615234375,0.11415624618530273,0.018259942531585693
1775340779588261600,8.81126171875,0.24384784698486328,0.13953876495361328,-0.22652891278266907
1775340779598261500,8.821261474609376,0.24182891845703125,0.5108747482299805,-0.3660776913166046
1775340779608261600,8.83126171875,0.4618558883666992,-0.002785205841064453,-0.08670604228973389
1775340779618261500,8.841261474609375,0.6463174819946289,0.05975341796875,-0.27558633685112
1775340779628261600,8.85126171875,-0.05335044860839844,0.1100616455078125,-0.2361704409122467
1775340779638261500,8.861261474609375,0.26068973541259766,-0.1853170394897461,-0.1697305142879486
1775340779648261600,8.87126171875,0.30449962615966797,-0.03274869918823242,-0.09659135341644287
1775340779658261500,8.881261474609374,-0.03265571594238281,-0.10944366455078125,0.13519436120986938
1775340779668261600,8.89126171875,0.26775550842285156,-0.08157491683959961,-0.004017889499664307
1775340779678261500,8.901261474609376,-0.15262746810913086,0.1987309455871582,0.10303544998168945
1775340779688261600,8.91126171875,-0.19677495956420898,0.015424251556396484,0.10444015264511108
1775340779698261500,8.921261474609375,0.05301952362060547,0.012842178344726562,0.15339455008506775
1775340779708261600,8.93126171875,-0.42649173736572266,0.1161642074584961,0.11681252717971802
1775340779718261500,8.941261474609375,0.2851295471191406,0.1987299919128418,-0.09993016719818115
1775340779728261600,8.95126171875,0.23143672943115234,0.09154939651489258,0.2726690173149109
1775340779738261500,8.961261474609374,-0.06937122344970703,-0.005005359649658203,0.12180164456367493
1775340779748261600,8.97126171875,0.23052597045898438,0.11202383041381836,0.17315635085105896
1775340779758261500,8.981261474609376,0.11515235900878906,0.043042659759521484,0.21329280734062195
1775340779768261600,8.99126171875,0.5579814910888672,-0.07606172561645508,-0.1487957239151001
1775340779778261500,9.001261474609375,0.08824729919433594,0.12355756759643555,-0.060928523540496826
1775340779788261600,9.01126171875,0.17357730865478516,0.28177404403686523,0.009009242057800293
1775340779798261500,9.021261474609375,0.7964754104614258,0.12767648696899414,-0.32569727301597595
1775340779808261600,9.03126171875,0.24644088745117188,0.2663874626159668,-0.2134837806224823
1775340779818261500,9.041261474609374,-0.2466449737548828,0.40042591094970703,0.21587112545967102
1775340779828261600,9.05126171875,0.40361595153808594,0.0114288330078125,-0.03546607494354248
1775340779838261500,9.061261474609376,0.2660484313964844,0.3148961067199707,-0.19013527035713196
1775340779848261600,9.07126171875,-0.0071735382080078125,0.5270733833312988,0.03089633584022522
1775340779858261500,9.081261474609375,0.3260345458984375,0.06128692626953125,0.10215851664543152
1775340779868261600,9.09126171875,0.06264781951904297,0.17283058166503906,0.03344571590423584
1775340779878261500,9.101261474609375,0.04536628723144531,0.33817625045776367,-0.18747207522392273
1775340779888261600,9.11126171875,0.26984596252441406,0.21077823638916016,-0.2537555396556854
1775340779898261500,9.121261474609375,0.3783149719238281,0.10106515884399414,-0.10366344451904297
1775340779908261600,9.13126171875,0.11350727081298828,0.04224443435668945,-0.12984958291053772
1775340779918261500,9.141261474609376,0.2581920623779297,0.19320392608642578,-0.3213026821613312
1775340779928261600,9.15126171875,0.5473623275756836,-0.07774496078491211,-0.2145223617553711
1775340779938261500,9.161261474609375,0.364959716796875,0.21347427368164062,0.07277441024780273
1775340779948261600,9.17126171875,0.2755851745605469,0.13148069381713867,0.3327929973602295
1775340779958261500,9.181261474609375,0.45701122283935547,0.05693531036376953,0.10834643244743347
1775340779968261600,9.19126171875,0.45503997802734375,0.2105545997619629,0.07885709404945374
1775340779978261500,9.201261474609375,0.16166114807128906,0.18379640579223633,0.07667136192321777
1775340779988261600,9.21126171875,-0.1768045425415039,0.3528776168823242,0.06303626298904419
1775340779998261500,9.221261474609374,0.2787809371948242,0.13969755172729492,-0.07988858222961426
1775340780008261600,9.23126171875,0.2580442428588867,0.22345685958862305,-0.22139301896095276
1775340780018261500,9.241261474609376,-0.254702091217041,0.42591094970703125,0.013869255781173706
1775340780028261600,9.25126171875,0.21455955505371094,-0.01551675796508789,0.03604188561439514
1775340780038261500,9.261261474609375,0.30419921875,-0.035143375396728516,-0.13495001196861267
1775340780048261600,9.27126171875,0.4808692932128906,0.07011890411376953,-0.26307040452957153
1775340780058261500,9.281261474609375,-0.2109513282775879,0.07844734191894531,0.2652340233325958
1775340780068261600,9.29126171875,0.05162620544433594,0.41414928436279297,0.13308900594711304
1775340780078261500,9.301261474609374,0.8918142318725586,0.16844511032104492,-0.08504226803779602
1775340780088261600,9.31126171875,-0.03508567810058594,0.3145565986633301,0.01058778166770935
1775340780098261500,9.321261474609376,0.1062154769897461,0.123382568359375,0.11616373062133789
1775340780108261600,9.33126171875,0.8023262023925781,0.24733257293701172,-0.17693057656288147
1775340780118261500,9.341261474609375,0.27959537506103516,0.02485179901123047,-0.09589457511901855
1775340780128261600,9.35126171875,0.17379188537597656,0.4271845817565918,0.07593914866447449
1775340780138261500,9.361261474609375,0.23746109008789062,0.16307592391967773,0.05689391493797302
1775340780148261600,9.37126171875,0.1828479766845703,0.0885457992553711,0.025758832693099976
1775340780158261500,9.381261474609374,-0.08872032165527344,0.06789016723632812,-0.06696900725364685
1775340780168261600,9.39126171875,0.02274036407470703,-0.09847164154052734,0.1358269453048706
1775340780178261500,9.401261474609376,-0.4170570373535156,0.14301300048828125,0.15462937951087952
1775340780188261600,9.41126171875,-0.5165004730224609,0.24276304244995117,-0.08859202265739441
1775340780198261500,9.421261474609375,0.4333839416503906,-0.10304069519042969,-0.15557974576950073
1775340780208261600,9.43126171875,-0.031017303466796875,-0.2167654037475586,0.09723836183547974
1775340780218261500,9.441261474609375,-0.00331878662109375,0.03164863586425781,0.07225218415260315
1775340780228261600,9.45126171875,0.3490772247314453,-0.08309125900268555,-0.0961209237575531
1775340780238261500,9.461261474609374,0.1558685302734375,-0.22000694274902344,-0.05439668893814087
1775340780248261600,9.47126171875,0.0011453628540039062,-0.18013858795166016,0.042206406593322754
1775340780258261500,9.481261474609376,-0.07704830169677734,0.05537128448486328,0.09231424331665039
1775340780268261600,9.49126171875,-0.27426719665527344,-0.09201574325561523,0.16136154532432556
1775340780278261500,9.501261474609375,0.05903053283691406,0.1955280303955078,-0.04124268889427185
1775340780288261600,9.51126171875,-0.012088775634765625,0.2857508659362793,0.09296530485153198
1775340780298261500,9.521261474609375,-0.1563720703125,0.3166203498840332,0.11755943298339844
1775340780308261600,9.53126171875,0.06305408477783203,0.0604548454284668,0.1351340115070343
1775340780318261500,9.541261474609374,0.19927120208740234,-0.12826013565063477,0.05427995324134827
1775340780328261600,9.55126171875,0.12517738342285156,0.2111515998840332,-0.015025079250335693
1775340780338261500,9.561261474609376,0.013500213623046875,-0.024343013763427734,0.0007318854331970215
1775340780348261600,9.57126171875,0.3829946517944336,0.13557195663452148,-0.13981488347053528
1775340780358261500,9.581261474609375,0.3349628448486328,0.004748344421386719,0.008103013038635254
1775340780368261600,9.59126171875,-0.13425731658935547,-0.12048006057739258,-0.03711235523223877
1775340780378261500,9.601261474609375,0.1817922592163086,-0.03270578384399414,-0.08127307891845703
1775340780388261600,9.61126171875,-0.016448020935058594,-0.24280357360839844,-0.05036249756813049
1775340780398261500,9.621261474609375,-0.0135650634765625,0.21433687210083008,-0.15769270062446594
1775340780408261600,9.63126171875,-0.16044998168945312,0.10543155670166016,0.031621724367141724
1775340780418261500,9.641261474609376,0.27765750885009766,0.16474103927612305,-0.20917853713035583
1775340780428261600,9.65126171875,0.123138427734375,0.11303329467773438,-0.10407915711402893
1775340780438261500,9.661261474609375,-0.020125389099121094,0.2192225456237793,0.13381817936897278
1775340780448261600,9.67126171875,-0.08275604248046875,-0.17885351181030273,0.3139208257198334
1775340780458261500,9.681261474609375,-0.0035581588745117188,0.23058414459228516,-0.0023082196712493896
1775340780468261600,9.69126171875,0.2087564468383789,0.07705402374267578,-0.017109662294387817
1775340780478261500,9.701261474609375,-0.05000877380371094,-0.08584260940551758,0.11711424589157104
1775340780488261600,9.71126171875,0.13140392303466797,-0.06903743743896484,0.004705190658569336
1775340780498261500,9.721261474609374,-0.19262027740478516,0.006611824035644531,-0.10503202676773071
1775340780508261600,9.73126171875,0.12117767333984375,0.09351825714111328,-0.0949779748916626
1775340780518261500,9.741261474609376,0.1857595443725586,-0.004918098449707031,0.10224410891532898
1775340780528261600,9.75126171875,0.06997489929199219,0.03041982650756836,0.03405416011810303
1775340780538261500,9.761261474609375,-0.020142555236816406,0.09702396392822266,0.006995737552642822
1775340780548261600,9.77126171875,0.012264251708984375,0.09778928756713867,0.030504494905471802
1775340780558261500,9.781261474609375,-0.14548492431640625,0.2843203544616699,0.0848689079284668
1775340780568261600,9.79126171875,-0.07169151306152344,0.09708929061889648,0.018255561590194702
1775340780578261500,9.801261474609374,0.32776641845703125,0.009694099426269531,-0.20681360363960266
1775340780588261600,9.81126171875,-0.08151054382324219,0.08410787582397461,-0.14486226439476013
1775340780598261500,9.821261474609376,-0.02725982666015625,-0.011150360107421875,0.06186574697494507
1775340780608261600,9.83126171875,0.365234375,-0.0015139579772949219,-0.10752293467521667
1775340780618261500,9.841261474609375,0.36984729766845703,0.09629249572753906,0.05037057399749756
1775340780628261600,9.85126171875,0.24150943756103516,0.2135305404663086,0.17728906869888306
1775340780638261500,9.861261474609375,0.10508537292480469,-0.060079097747802734,0.25340545177459717
1775340780648261600,9.87126171875,0.16098785400390625,0.11377096176147461,0.13766762614250183
1775340780658261500,9.881261474609374,0.24947643280029297,0.07321929931640625,-0.030149102210998535
1775340780668261600,9.89126171875,-0.01700878143310547,0.04093503952026367,-0.054544597864151
1775340780678261500,9.901261474609376,-0.08275985717773438,0.0677180290222168,-0.022425681352615356
1775340780688261600,9.91126171875,0.28156471252441406,-0.012892723083496094,-0.12901198863983154
1775340780698261500,9.921261474609375,-0.005680084228515625,0.026834964752197266,-0.19288042187690735
1775340780708261600,9.93126171875,-0.21288490295410156,-0.046950340270996094,-0.025268375873565674
1775340780718261500,9.941261474609375,0.12200069427490234,-0.18032407760620117,0.0266629159450531
1775340780728261600,9.95126171875,-0.22589588165283203,-0.1666584014892578,0.009213894605636597
1775340780738261500,9.961261474609374,-0.2782306671142578,0.0026488304138183594,-0.1597101390361786
1775340780748261600,9.97126171875,-0.10714054107666016,-0.15587615966796875,-0.011008530855178833
1775340780758261500,9.981261474609376,-0.10738754272460938,-0.01584005355834961,0.04869300127029419
1775340780768261600,9.99126171875,-0.27079105377197266,-0.28912830352783203,0.12252740561962128
1775340780778261500,10.001261474609375,0.005497932434082031,-0.05984926223754883,-0.07384318113327026
1775340780788261600,10.01126171875,-0.044551849365234375,-0.10076093673706055,0.04900836944580078
1775340780798261500,10.021261474609375,0.0912628173828125,-0.19027090072631836,0.06580796837806702
1775340780808261600,10.03126171875,-0.17284870147705078,0.26582813262939453,0.015782326459884644
1775340780818261500,10.041261474609374,-0.045101165771484375,0.19932079315185547,0.12398558855056763
1775340780828261600,10.05126171875,0.4391136169433594,0.10645484924316406,0.07115340232849121
1775340780838261500,10.061261474609376,-0.01661968231201172,0.3796095848083496,0.03743946552276611
1775340780848261600,10.07126171875,-0.08561325073242188,0.15434789657592773,0.020946592092514038
1775340780858261500,10.081261474609375,0.6488924026489258,-0.03704118728637695,-0.07097747921943665
1775340780868261600,10.09126171875,0.2694578170776367,0.37717533111572266,0.0009195208549499512
1775340780878261500,10.101261474609375,0.05470085144042969,0.24997711181640625,0.050237059593200684
1775340780888261600,10.11126171875,0.5579872131347656,-0.011480331420898438,-0.014240056276321411
1775340780898261500,10.121261474609375,0.5155544281005859,0.32028627395629883,-0.14551255106925964
1775340780908261600,10.13126171875,-0.051178932189941406,0.2868008613586426,-0.1687810719013214
1775340780918261500,10.141261474609376,0.5747394561767578,0.13104772567749023,-0.17049789428710938
1775340780928261600,10.15126171875,0.5495986938476562,0.2987537384033203,-0.031127214431762695
1775340780938261500,10.161261474609375,0.0441436767578125,0.36031484603881836,0.006662994623184204
1775340780948261600,10.17126171875,0.49749755859375,0.27626848220825195,-0.04690638184547424
1775340780958261500,10.181261474609375,0.40639686584472656,0.3355708122253418,0.06358671188354492
1775340780968261600,10.19126171875,0.27400684356689453,0.35126256942749023,-0.03753557801246643
1775340780978261500,10.201261474609375,0.4518766403198242,0.2981300354003906,-0.11653083562850952
1775340780988261600,10.21126171875,0.2875642776489258,0.2875862121582031,-0.032654643058776855
1775340780998261500,10.221261474609374,0.3881950378417969,0.40715885162353516,-0.15401029586791992
1775340781008261600,10.23126171875,0.45818424224853516,0.27936363220214844,-0.024860888719558716
1775340781018261500,10.241261474609376,0.4871673583984375,0.36074304580688477,0.04853367805480957
1775340781028261600,10.25126171875,0.3673124313354492,0.4379611015319824,0.02237418293952942
1775340781038261500,10.261261474609375,0.6548185348510742,0.37547874450683594,-0.03296607732772827
1775340781048261600,10.27126171875,0.5445880889892578,0.41877174377441406,-0.03792870044708252
1775340781058261500,10.281261474609375,0.40737056732177734,0.534876823425293,-0.05483192205429077
1775340781068261600,10.29126171875,0.7415771484375,0.3829307556152344,-0.05600839853286743
1775340781078261500,10.301261474609374,0.48195552825927734,0.5207138061523438,-0.01055106520652771
1775340781088261600,10.31126171875,0.5563478469848633,0.594174861907959,-0.007092595100402832
1775340781098261500,10.321261474609376,0.6876373291015625,0.48644351959228516,-0.08623585104942322
1775340781108261600,10.33126171875,0.5889682769775391,0.5749149322509766,-0.16280683875083923
1775340781118261500,10.341261474609375,0.7605752944946289,0.6265478134155273,-0.07629486918449402
1775340781128261600,10.35126171875,0.8539323806762695,0.6477866172790527,-0.033887237310409546
1775340781138261500,10.361261474609375,0.6004648208618164,0.7461133003234863,0.025782108306884766
1775340781148261600,10.37126171875,0.8742780685424805,0.6219482421875,0.05416843295097351
1775340781158261500,10.381261474609374,0.7887983322143555,0.709923267364502,-0.06525060534477234
1775340781168261600,10.39126171875,0.7782125473022461,0.6736893653869629,-0.019541233777999878
1775340781178261500,10.401261474609376,0.8112850189208984,0.5339798927307129,-0.02303716540336609
1775340781188261600,10.41126171875,0.6385879516601562,0.5207281112670898,-0.07746335864067078
1775340781198261500,10.421261474609375,0.8767080307006836,0.6914563179016113,-0.18490037322044373
1775340781208261600,10.43126171875,0.42471981048583984,0.34964561462402344,0.07081916928291321
1775340781218261500,10.441261474609375,0.7265682220458984,0.602351188659668,0.0041366517543792725
1775340781228261600,10.45126171875,0.7525787353515625,0.4081234931945801,0.0439988374710083
1775340781238261500,10.461261474609374,0.8527097702026367,0.6143746376037598,-0.06253105401992798
1775340781248261600,10.47126171875,0.7382345199584961,0.5463237762451172,0.062210530042648315
1775340781258261500,10.481261474609376,0.573704719543457,0.5601181983947754,0.20159636437892914
1775340781268261600,10.49126171875,0.5203075408935547,0.6159825325012207,0.16343984007835388
1775340781278261500,10.501261474609375,0.7886362075805664,0.6030282974243164,-0.10027030110359192
1775340781288261600,10.51126171875,0.6231346130371094,0.45751476287841797,-0.07234656810760498
1775340781298261500,10.521261474609375,0.5139274597167969,0.7152376174926758,-0.06368035078048706
1775340781308261600,10.53126171875,0.6581869125366211,0.49028539657592773,0.03258979320526123
1775340781318261500,10.541261474609374,0.845616340637207,0.7199053764343262,0.029514729976654053
1775340781328261600,10.55126171875,0.5009279251098633,0.7082905769348145,0.10357335209846497
1775340781338261500,10.561261474609376,0.8137216567993164,0.5750174522399902,0.11603957414627075
1775340781348261600,10.57126171875,0.8185691833496094,0.6117281913757324,0.20729917287826538
1775340781358261500,10.581261474609375,-0.03968334197998047,0.35756731033325195,0.05306953191757202
1775340781368261600,10.59126171875,1.0034818649291992,0.3030886650085449,-0.26505646109580994
1775340781378261500,10.601261474609375,0.44513607025146484,0.25829076766967773,-0.1169913113117218
1775340781388261600,10.61126171875,0.6433544158935547,0.5781545639038086,-0.22004088759422302
1775340781398261500,10.621261474609375,0.7711210250854492,0.17740154266357422,0.1073082983493805
1775340781408261600,10.63126171875,0.5354337692260742,0.6354465484619141,-0.14850348234176636
1775340781418261500,10.641261474609376,0.3744955062866211,0.39487314224243164,0.07218053936958313
1775340781428261600,10.65126171875,0.458282470703125,0.5471000671386719,0.01746124029159546
1775340781438261500,10.661261474609375,0.48464488983154297,0.327298641204834,0.11194270849227905
1775340781448261600,10.67126171875,0.38581180572509766,0.14775657653808594,-0.3195730447769165
1775340781458261500,10.681261474609375,0.3417081832885742,0.3811049461364746,-0.29485055804252625
1775340781468261600,10.69126171875,0.3403282165527344,0.4084663391113281,0.04393342137336731
1775340781478261500,10.701261474609375,0.5144491195678711,0.32665109634399414,0.4908830523490906
1775340781488261600,10.71126171875,0.38370609283447266,0.7754216194152832,0.15319766104221344
1775340781498261500,10.721261474609374,0.397735595703125,0.48805761337280273,0.3293534219264984
1775340781508261600,10.73126171875,0.4506950378417969,0.07676506042480469,-0.043506473302841187
1775340781518261500,10.741261474609376,0.10556507110595703,0.39285707473754883,-0.09588927030563354
1775340781528261600,10.75126171875,-0.022548675537109375,0.10315656661987305,0.1430892050266266
1775340781538261500,10.761261474609375,0.28882408142089844,0.09981632232666016,-0.13628724217414856
1775340781548261600,10.77126171875,0.13374805450439453,0.07993841171264648,0.02631312608718872
1775340781558261500,10.781261474609375,0.09262466430664062,0.08819150924682617,-0.0894346535205841
1775340781568261600,10.79126171875,0.08781147003173828,-0.20418405532836914,-0.25617295503616333
1775340781578261500,10.801261474609374,0.19712066650390625,-0.11061811447143555,-0.3870997130870819
1775340781588261600,10.81126171875,-0.15220928192138672,-0.10834407806396484,-0.2100835144519806
1775340781598261500,10.821261474609376,0.06692123413085938,-0.33863306045532227,-0.36860391497612
1775340781608261600,10.83126171875,-0.5438261032104492,-0.351043701171875,-0.22948715090751648
1775340781618261500,10.841261474609375,-0.6818857192993164,-0.3019447326660156,0.12120181322097778
1775340781628261600,10.85126171875,-0.6094198226928711,-0.548551082611084,0.23798657953739166
1775340781638261500,10.861261474609375,-0.5223569869995117,-0.7000060081481934,0.11548548936843872
1775340781648261600,10.87126171875,-0.842228889465332,-0.18891572952270508,-0.08564481139183044
1775340781658261500,10.881261474609374,-0.9627790451049805,-1.0094494819641113,0.12433135509490967
1775340781668261600,10.89126171875,-1.0027999877929688,-0.9018912315368652,0.03285148739814758
1775340781678261500,10.901261474609376,-1.7436237335205078,-0.9830069541931152,0.35059329867362976
1775340781688261600,10.91126171875,-1.7493877410888672,-1.3431849479675293,0.632275402545929
1775340781698261500,10.921261474609375,-1.727407455444336,-1.8149242401123047,0.23461531102657318
1775340781708261600,10.93126171875,-1.3932280540466309,-1.4963650703430176,-0.1431567370891571
1775340781718261500,10.941261474609375,-1.657947063446045,-2.0465378761291504,0.0725746750831604
1775340781728261600,10.95126171875,-2.6895952224731445,-2.090571880340576,0.178289532661438
1775340781738261500,10.961261474609374,-3.0807323455810547,-1.8442473411560059,0.09569132328033447
1775340781748261600,10.97126171875,-2.7807512283325195,-2.124220371246338,-0.3141634464263916
1775340781758261500,10.981261474609376,-2.4399094581604004,-2.4142112731933594,-0.15001678466796875
1775340781768261600,10.99126171875,-2.8836069107055664,-2.2470862865448,0.0716620683670044
1775340781778261500,11.001261474609375,-3.2191162109375,-2.3137593269348145,0.049612969160079956
1775340781788261600,11.01126171875,-2.527909755706787,-2.321115016937256,0.08935138583183289
1775340781798261500,11.021261474609375,-4.002918720245361,-2.7723236083984375,0.3990628123283386
1775340781808261600,11.03126171875,-3.1776046752929688,-2.5465164184570312,-0.033277809619903564
1775340781818261500,11.041261474609374,-3.74224853515625,-3.145965099334717,0.31044065952301025
1775340781828261600,11.05126171875,-3.0362930297851562,-2.791844129562378,-0.07117053866386414
1775340781838261500,11.061261474609376,-3.447815418243408,-2.984792470932007,0.043875545263290405
1775340781848261600,11.07126171875,-3.7229013442993164,-2.8456838130950928,0.0997752845287323
1775340781858261500,11.081261474609375,-3.546154022216797,-3.054503917694092,0.23916424810886383
1775340781868261600,11.09126171875,-3.2155237197875977,-2.8601622581481934,0.21301651000976562
1775340781878261500,11.101261474609375,-3.461528778076172,-2.5933618545532227,0.031491994857788086
1775340781888261600,11.11126171875,-3.2760815620422363,-2.7041738033294678,0.04418516159057617
1775340781898261500,11.121261474609375,-3.1618785858154297,-2.782555103302002,0.10385182499885559
1775340781908261600,11.13126171875,-3.6596875190734863,-2.6643452644348145,0.2432476282119751
1775340781918261500,11.141261474609376,-3.1463212966918945,-2.7001724243164062,0.10002541542053223
1775340781928261600,11.15126171875,-2.7911863327026367,-2.588172435760498,0.09555736184120178
1775340781938261500,11.161261474609375,-3.043637275695801,-2.4838337898254395,0.12010586261749268
1775340781948261600,11.17126171875,-2.968827247619629,-2.464512825012207,0.018897920846939087
1775340781958261500,11.181261474609375,-2.802004337310791,-2.3505539894104004,-0.08369326591491699
1775340781968261600,11.19126171875,-3.1641836166381836,-2.2863199710845947,0.06628653407096863
1775340781978261500,11.201261474609375,-2.5683579444885254,-2.183022975921631,-0.10998320579528809
1775340781988261600,11.21126171875,-2.3755931854248047,-1.9416027069091797,-0.16686952114105225
1775340781998261500,11.221261474609374,-2.3505373001098633,-2.1418371200561523,-0.062591552734375
1775340782008261600,11.23126171875,-2.12595796585083,-1.8526201248168945,-0.009911179542541504
1775340782018261500,11.241261474609376,-1.8096990585327148,-1.6188673973083496,0.28637632727622986
1775340782028261600,11.25126171875,-1.3830881118774414,-1.5997204780578613,0.2597423493862152
1775340782038261500,11.261261474609375,-0.8535447120666504,-1.233168601989746,0.17607152462005615
1775340782048261600,11.27126171875,-3.002671718597412,-1.116300106048584,-0.11820313334465027
1775340782058261500,11.281261474609375,-3.9585118293762207,0.011475563049316406,0.09250825643539429
1775340782068261600,11.29126171875,0.3997955322265625,-1.8155794143676758,-0.16706356406211853
1775340782078261500,11.301261474609374,1.872288703918457,-2.1825194358825684,-0.4550243020057678
1775340782088261600,11.31126171875,-2.018186569213867,-0.6315016746520996,-0.06042018532752991
1775340782098261500,11.321261474609376,-2.6311850547790527,-0.09693002700805664,-0.18114349246025085
1775340782108261600,11.33126171875,0.2772636413574219,-1.2052001953125,0.10338115692138672
1775340782118261500,11.341261474609375,-0.8597030639648438,-0.8868308067321777,0.5369390249252319
1775340782128261600,11.35126171875,-0.8511910438537598,-0.7382059097290039,0.36147719621658325
1775340782138261500,11.361261474609375,-0.7707366943359375,-0.34250688552856445,-0.022166401147842407
1775340782148261600,11.37126171875,-1.124420166015625,-0.3621792793273926,0.03186929225921631
1775340782158261500,11.381261474609374,-0.1843719482421875,-0.11925697326660156,0.07127618789672852
1775340782168261600,11.39126171875,-0.23140430450439453,-0.18536758422851562,0.15960726141929626
1775340782178261500,11.401261474609376,-0.7132811546325684,-0.13289833068847656,-0.1728672981262207
1775340782188261600,11.41126171875,0.20317363739013672,-0.6410079002380371,-0.33775246143341064
1775340782198261500,11.421261474609375,-0.2436351776123047,-0.35246992111206055,-0.33794334530830383
1775340782208261600,11.43126171875,-0.15649986267089844,-0.4941983222961426,-0.09503060579299927
1775340782218261500,11.441261474609375,0.0682535171508789,-0.48908424377441406,-0.020650386810302734
1775340782228261600,11.45126171875,-0.37606334686279297,-0.2393789291381836,0.12307342886924744
1775340782238261500,11.461261474609374,-0.30526256561279297,-0.5479435920715332,0.4451943635940552
1775340782248261600,11.47126171875,-0.6436567306518555,-0.40193700790405273,0.42592930793762207
1775340782258261500,11.481261474609376,-1.081460952758789,0.06514644622802734,-0.10231921076774597
1775340782268261600,11.49126171875,-0.41718482971191406,0.4663724899291992,-0.19551539421081543
1775340782278261500,11.501261474609375,-0.008096694946289062,-0.5666661262512207,0.1997867226600647
1775340782288261600,11.51126171875,-0.30626964569091797,0.02254486083984375,-0.39347630739212036
1775340782298261500,11.521261474609375,-0.068450927734375,0.09605932235717773,-0.3130180537700653
1775340782308261600,11.53126171875,0.08815383911132812,-0.5648365020751953,-0.2830963730812073
1775340782318261500,11.541261474609374,0.1109771728515625,-0.03742551803588867,-0.46516355872154236
1775340782328261600,11.55126171875,-0.12098884582519531,-0.005776405334472656,-0.03957831859588623
1775340782338261500,11.561261474609376,0.21645736694335938,-0.3096737861633301,0.37241131067276
1775340782348261600,11.57126171875,-0.17929935455322266,-0.009408950805664062,0.14359766244888306
1775340782358261500,11.581261474609375,0.03467369079589844,0.022671222686767578,0.028210312128067017
1775340782368261600,11.59126171875,0.06462764739990234,-0.22778654098510742,0.04958099126815796
1775340782378261500,11.601261474609375,0.16098690032958984,-0.07147359848022461,0.07460927963256836
1775340782388261600,11.61126171875,0.13620853424072266,0.042999267578125,-0.22300571203231812
1775340782398261500,11.621261474609375,0.5442695617675781,0.1462712287902832,-0.3363324999809265
1775340782408261600,11.63126171875,0.16852760314941406,0.4195833206176758,-0.306978702545166
1775340782418261500,11.641261474609376,0.17227935791015625,0.29012584686279297,0.11334297060966492
1775340782428261600,11.65126171875,0.5487298965454102,0.5494613647460938,-0.1036270260810852
1775340782438261500,11.661261474609375,0.08172130584716797,0.30201148986816406,0.1079443097114563
1775340782448261600,11.67126171875,0.28301429748535156,0.30210208892822266,0.2395153045654297
1775340782458261500,11.681261474609375,0.1380167007446289,0.2570667266845703,0.006321161985397339
1775340782468261600,11.69126171875,0.5038995742797852,0.14551115036010742,-0.10494169592857361
1775340782478261500,11.701261474609375,0.041843414306640625,0.37566661834716797,-0.0658215880393982
1775340782488261600,11.71126171875,0.34253978729248047,0.035223960876464844,-0.11614987254142761
1775340782498261500,11.721261474609374,0.5917730331420898,-0.021441936492919922,-0.16244232654571533
1775340782508261600,11.73126171875,-0.47580814361572266,0.1964564323425293,-0.17624133825302124
1775340782518261500,11.741261474609376,0.8552103042602539,-0.002353191375732422,-0.32540425658226013
1775340782528261600,11.75126171875,0.512721061706543,-0.18769311904907227,0.019441843032836914
1775340782538261500,11.761261474609375,-0.34437084197998047,0.04666948318481445,0.21366173028945923
1775340782548261600,11.77126171875,0.3292083740234375,0.05121469497680664,-0.16839814186096191
1775340782558261500,11.781261474609375,0.052565574645996094,0.1613903045654297,-0.03929412364959717
1775340782568261600,11.79126171875,-0.08871746063232422,0.32698488235473633,0.10692277550697327
1775340782578261500,11.801261474609374,0.08628559112548828,-0.00037384033203125,0.06407633423805237
1775340782588261600,11.81126171875,0.22345733642578125,0.16806650161743164,-0.24985548853874207
1775340782598261500,11.821261474609376,-0.2516593933105469,0.07400178909301758,-0.13951915502548218
1775340782608261600,11.83126171875,0.41452598571777344,-0.032170772552490234,-0.3517666161060333
1775340782618261500,11.841261474609375,0.30284595489501953,0.17859601974487305,-0.17003104090690613
1775340782628261600,11.85126171875,-0.32766151428222656,0.05050468444824219,-0.1644798219203949
1775340782638261500,11.861261474609375,0.42592334747314453,-0.0701746940612793,-0.04409027099609375
1775340782648261600,11.87126171875,-0.052315711975097656,0.12778854370117188,0.24884656071662903
1775340782658261500,11.881261474609374,-0.094146728515625,0.02084827423095703,0.22781458497047424
1775340782668261600,11.89126171875,0.0931558609008789,0.045678138732910156,0.17235375940799713
1775340782678261500,11.901261474609376,0.22038936614990234,0.0925760269165039,-0.012235522270202637
1775340782688261600,11.91126171875,0.1474294662475586,0.006279468536376953,0.07975485920906067
1775340782698261500,11.921261474609375,0.20306396484375,0.08938789367675781,0.14489731192588806
1775340782708261600,11.93126171875,-0.08587837219238281,0.26906585693359375,0.01498761773109436
1775340782718261500,11.941261474609375,0.17231082916259766,0.11775922775268555,-0.06436142325401306
1775340782728261600,11.95126171875,0.15393447875976562,-0.03313112258911133,-0.034105777740478516
1775340782738261500,11.961261474609374,0.030004501342773438,0.02758169174194336,-0.08828571438789368
1775340782748261600,11.97126171875,0.07993698120117188,0.07776784896850586,-0.03310537338256836
1775340782758261500,11.981261474609376,0.01761627197265625,0.04793262481689453,0.046898871660232544
1775340782768261600,11.99126171875,-0.1258716583251953,-0.1060476303100586,0.12756505608558655
1775340782778261500,12.001261474609375,-0.1315174102783203,-0.02400684356689453,0.07449698448181152
1775340782788261600,12.01126171875,-0.14517688751220703,-0.08538627624511719,0.007015049457550049
1775340782798261500,12.021261474609375,-0.13679122924804688,0.09933757781982422,-0.18909594416618347
1775340782808261600,12.03126171875,0.20141029357910156,0.022489070892333984,-0.19419434666633606
1775340782818261500,12.041261474609374,0.048198699951171875,-0.08688497543334961,-0.021855056285858154
1775340782828261600,12.05126171875,-0.055999755859375,0.05890989303588867,-0.06838881969451904
1775340782838261500,12.061261474609376,0.07612895965576172,-0.1477527618408203,-0.1166735291481018
1775340782848261600,12.07126171875,0.11425209045410156,0.03454303741455078,-0.04810047149658203
1775340782858261500,12.081261474609375,-0.11852169036865234,0.09028005599975586,0.1625678837299347
1775340782868261600,12.09126171875,0.3663330078125,-0.04349231719970703,0.14894217252731323
1775340782878261500,12.101261474609375,-0.07707786560058594,0.26507139205932617,0.03798040747642517
1775340782888261600,12.11126171875,0.10435295104980469,0.13365554809570312,0.028912097215652466
1775340782898261500,12.121261474609375,0.20746612548828125,0.2582869529724121,0.07632431387901306
1775340782908261600,12.13126171875,-0.0038843154907226562,0.2744317054748535,0.027271419763565063
1775340782918261500,12.141261474609376,0.6042881011962891,0.0931997299194336,-0.0825914740562439
1775340782928261600,12.15126171875,0.37409114837646484,0.2531547546386719,0.04061555862426758
1775340782938261500,12.161261474609375,0.17843151092529297,0.27347230911254883,0.06230288743972778
1775340782948261600,12.17126171875,0.5416927337646484,0.16736507415771484,-0.035671621561050415
1775340782958261500,12.181261474609375,0.30689048767089844,0.3328862190246582,-0.15292388200759888
1775340782968261600,12.19126171875,0.2669506072998047,0.2274327278137207,-0.06018024682998657
1775340782978261500,12.201261474609375,0.4535408020019531,0.32794189453125,-0.09344583749771118
1775340782988261600,12.21126171875,0.48816394805908203,0.40496253967285156,-0.046588510274887085
1775340782998261500,12.221261474609374,0.2318267822265625,0.3659243583679199,0.003957420587539673
1775340783008261600,12.23126171875,0.6292514801025391,0.49398040771484375,-0.16629254817962646
1775340783018261500,12.241261474609376,0.49428558349609375,0.3717961311340332,-0.08690887689590454
1775340783028261600,12.25126171875,0.3176231384277344,0.6465463638305664,-0.16141164302825928
1775340783038261500,12.261261474609375,0.6028165817260742,0.3791518211364746,-0.12360218167304993
1775340783048261600,12.27126171875,0.40509033203125,0.4502553939819336,-0.12565171718597412
1775340783058261500,12.281261474609375,0.40576839447021484,0.45919322967529297,0.001653820276260376
1775340783068261600,12.29126171875,0.7357692718505859,0.3280911445617676,0.14796790480613708
1775340783078261500,12.301261474609374,0.6435775756835938,0.39820003509521484,0.30902358889579773
