time,seconds_elapsed,z,y,x
1775340770841014500,0.0640146484375,0.009162971749901772,-0.009162971749901772,-0.002443459117785096
1775340770857801500,0.080801513671875,0.006719512399286032,-0.007330377586185932,-0.001221729558892548
1775340770874590500,0.097590576171875,0.011606430634856224,-0.009162971749901772,-0.001832594396546483
1775340770891379700,0.114379638671875,0.007941242307424545,-0.007941242307424545,-0.000610864779446274
1775340770908168700,0.131168701171875,0.010384701192378998,-0.009162971749901772,-0.0030543238390237093
1775340770924957700,0.147957763671875,0.009162971749901772,-0.009162971749901772,-0.000610864779446274
1775340770941747000,0.164746826171875,0.009162971749901772,-0.007941242307424545,-0.002443459117785096
1775340770958536000,0.181535888671875,0.009773836471140385,-0.009773836471140385,-0.001832594396546483
1775340770975325200,0.1983251953125,0.008552107028663158,-0.009162971749901772,-0.002443459117785096
1775340770992114200,0.2151142578125,0.009162971749901772,-0.009162971749901772,-0.0030543238390237093
1775340771008903200,0.231903076171875,0.009162971749901772,-0.009162971749901772,-0.000610864779446274
1775340771025692400,0.2486923828125,0.008552107028663158,-0.007941242307424545,-0.003665188793092966
1775340771042481400,0.2654814453125,0.009773836471140385,-0.009773836471140385,-0.003665188793092966
1775340771059270700,0.282270751953125,0.008552107028663158,-0.007330377586185932,-0.001221729558892548
1775340771076059600,0.2990595703125,0.009773836471140385,-0.007941242307424545,-0.004276053514331579
1775340771092848600,0.3158486328125,0.010384701192378998,-0.009773836471140385,-0.004276053514331579
1775340771109638000,0.332637939453125,0.009773836471140385,-0.008552107028663158,-0.004276053514331579
1775340771126427000,0.349427001953125,0.010384701192378998,-0.009773836471140385,-0.003665188793092966
1775340771143215900,0.3662158203125,0.009773836471140385,-0.008552107028663158,-0.003665188793092966
1775340771160005000,0.383005126953125,0.009162971749901772,-0.009773836471140385,-0.002443459117785096
1775340771176794000,0.399794189453125,0.009773836471140385,-0.008552107028663158,-0.002443459117785096
1775340771193583400,0.416583251953125,0.010384701192378998,-0.008552107028663158,-0.0030543238390237093
1775340771210372400,0.433372314453125,0.009162971749901772,-0.008552107028663158,-0.002443459117785096
1775340771227161300,0.450161376953125,0.010384701192378998,-0.009162971749901772,-0.001832594396546483
1775340771243950600,0.46695068359375,0.009162971749901772,-0.009773836471140385,-0.002443459117785096
1775340771260739600,0.483739501953125,0.009162971749901772,-0.009162971749901772,-0.003665188793092966
1775340771277528800,0.50052880859375,0.009773836471140385,-0.010384701192378998,-0.0030543238390237093
1775340771294317800,0.51731787109375,0.010384701192378998,-0.009162971749901772,-0.0054977829568088055
1775340771311106800,0.53410693359375,0.009773836471140385,-0.008552107028663158,-0.002443459117785096
1775340771327896000,0.55089599609375,0.009162971749901772,-0.008552107028663158,-0.0030543238390237093
1775340771344685000,0.56768505859375,0.009162971749901772,-0.008552107028663158,-0.0030543238390237093
1775340771361474000,0.58447412109375,0.010384701192378998,-0.009162971749901772,-0.001832594396546483
1775340771378263300,0.60126318359375,0.009773836471140385,-0.008552107028663158,-0.0030543238390237093
1775340771395052300,0.61805224609375,0.009162971749901772,-0.008552107028663158,-0.0030543238390237093
1775340771411841500,0.634841552734375,0.010384701192378998,-0.009162971749901772,-0.0030543238390237093
1775340771428630500,0.651630615234375,0.009773836471140385,-0.010384701192378998,-0.007330377586185932
1775340771445419500,0.66841943359375,0.009773836471140385,-0.009162971749901772,-0.003665188793092966
1775340771462208800,0.685208740234375,0.009162971749901772,-0.007330377586185932,-0.006108647678047419
1775340771478997800,0.701997802734375,0.009162971749901772,-0.008552107028663158,-0.003665188793092966
1775340771495786800,0.718786865234375,0.009773836471140385,-0.009162971749901772,-0.002443459117785096
1775340771512576000,0.735575927734375,0.007941242307424545,-0.007330377586185932,-0.004276053514331579
1775340771529365000,0.752364990234375,0.010995565913617611,-0.009162971749901772,-0.001221729558892548
1775340771546154200,0.769154296875,0.008552107028663158,-0.007941242307424545,-0.001832594396546483
1775340771562943200,0.785943115234375,0.009162971749901772,-0.009162971749901772,-0.002443459117785096
1775340771579732200,0.802732177734375,0.010384701192378998,-0.009162971749901772,0
1775340771596521500,0.819521484375,0.009162971749901772,-0.009773836471140385,-0.001221729558892548
1775340771613310500,0.836310546875,0.008552107028663158,-0.009162971749901772,0
1775340771630099500,0.853099365234375,0.009773836471140385,-0.008552107028663158,0.000610864779446274
1775340771646888700,0.869888671875,0.008552107028663158,-0.007941242307424545,-0.002443459117785096
1775340771663677700,0.886677734375,0.008552107028663158,-0.009162971749901772,0
1775340771680467000,0.903467041015625,0.010384701192378998,-0.008552107028663158,-0.002443459117785096
1775340771697256000,0.920255859375,0.009162971749901772,-0.007941242307424545,-0.003665188793092966
1775340771714045000,0.937044921875,0.009162971749901772,-0.008552107028663158,-0.000610864779446274
1775340771730834200,0.953834228515625,0.009773836471140385,-0.009773836471140385,-0.004886918235570192
1775340771747623200,0.970623046875,0.010995565913617611,-0.009162971749901772,-0.001832594396546483
1775340771764412200,0.987412109375,0.009773836471140385,-0.009162971749901772,-0.001221729558892548
1775340771781201400,1.004201416015625,0.008552107028663158,-0.007941242307424545,-0.001221729558892548
1775340771797990400,1.020990478515625,0.010384701192378998,-0.009162971749901772,-0.000610864779446274
1775340771814779400,1.037779296875,0.009162971749901772,-0.009773836471140385,-0.001221729558892548
1775340771831568600,1.054568603515625,0.009162971749901772,-0.010995565913617611,0.0030543238390237093
1775340771848357600,1.071357666015625,0.008552107028663158,-0.007941242307424545,0.001221729558892548
1775340771865147000,1.08814697265625,0.009162971749901772,-0.009162971749901772,0.001221729558892548
1775340771881936000,1.104935791015625,0.009773836471140385,-0.009773836471140385,0.004886918235570192
1775340771898724900,1.121724853515625,0.008552107028663158,-0.008552107028663158,0.000610864779446274
1775340771915514000,1.13851416015625,0.009162971749901772,-0.009773836471140385,0.001832594396546483
1775340771932303000,1.15530322265625,0.009162971749901772,-0.011606430634856224,0.01588248461484909
1775340771949092000,1.172092041015625,0.009773836471140385,-0.007941242307424545,-0.015271619893610477
1775340771965881300,1.18888134765625,0.009162971749901772,-0.010995565913617611,0.01954767294228077
1775340771982670300,1.20567041015625,0.012217295356094837,-0.007941242307424545,-0.017715077847242355
1775340771999459300,1.222459228515625,0.0054977829568088055,-0.009162971749901772,0.014660755172371864
1775340772016248600,1.23924853515625,0.012217295356094837,-0.008552107028663158,-0.003665188793092966
1775340772033037600,1.25603759765625,0.0054977829568088055,-0.006108647678047419,0.006108647678047419
1775340772049826600,1.27282666015625,0.014049889519810677,-0.008552107028663158,0.006108647678047419
1775340772066615800,1.28961572265625,0.007330377586185932,-0.006719512399286032,0
1775340772083404800,1.30640478515625,0.012217295356094837,-0.011606430634856224,0.017715077847242355
1775340772100194000,1.323194091796875,0.006108647678047419,-0.007330377586185932,-0.0054977829568088055
1775340772116983000,1.339983154296875,0.013439024798572063,-0.010995565913617611,0.000610864779446274
1775340772133772000,1.35677197265625,0.004886918235570192,-0.008552107028663158,0.008552107028663158
1775340772150561300,1.373561279296875,0.011606430634856224,-0.008552107028663158,-0.010384701192378998
1775340772167350300,1.390350341796875,0.008552107028663158,-0.010384701192378998,0.01282816007733345
1775340772184139300,1.40713916015625,0.009773836471140385,-0.009162971749901772,0
1775340772200928500,1.423928466796875,0.009773836471140385,-0.007941242307424545,0.006108647678047419
1775340772217717500,1.440717529296875,0.007330377586185932,-0.007330377586185932,0.01893680728971958
1775340772234506500,1.457506591796875,0.010995565913617611,-0.007330377586185932,-0.002443459117785096
1775340772251295700,1.474295654296875,0.0054977829568088055,-0.008552107028663158,0.0256563201546669
1775340772268084700,1.491084716796875,0.012217295356094837,-0.008552107028663158,-0.006108647678047419
1775340772284873700,1.507873779296875,0.009773836471140385,-0.009773836471140385,0.007941242307424545
1775340772301663000,1.5246630859375,0.007941242307424545,-0.009162971749901772,0.002443459117785096
1775340772318452000,1.541451904296875,0.010995565913617611,-0.009162971749901772,-0.01282816007733345
1775340772335241200,1.5582412109375,0.007941242307424545,-0.008552107028663158,0.0054977829568088055
1775340772352030200,1.5750302734375,0.009162971749901772,-0.008552107028663158,-0.006108647678047419
1775340772368819200,1.591819091796875,0.009773836471140385,-0.007941242307424545,-0.003665188793092966
1775340772385608400,1.6086083984375,0.008552107028663158,-0.007330377586185932,-0.0030543238390237093
1775340772402397400,1.6253974609375,0.010384701192378998,-0.007941242307424545,-0.010995565913617611
1775340772419186400,1.6421865234375,0.007941242307424545,-0.010384701192378998,-0.003665188793092966
1775340772435975700,1.6589755859375,0.011606430634856224,-0.010384701192378998,-0.001221729558892548
1775340772452764700,1.6757646484375,0.007941242307424545,-0.007330377586185932,-0.0030543238390237093
1775340772469553700,1.6925537109375,0.010384701192378998,-0.008552107028663158,-0.001832594396546483
1775340772486343000,1.709343017578125,0.010384701192378998,-0.007941242307424545,-0.004886918235570192
1775340772503132000,1.7261318359375,0.009162971749901772,-0.008552107028663158,-0.0054977829568088055
1775340772519921000,1.7429208984375,0.008552107028663158,-0.009162971749901772,-0.002443459117785096
1775340772536710100,1.759710205078125,0.008552107028663158,-0.009162971749901772,-0.010995565913617611
1775340772553499100,1.7764990234375,0.009773836471140385,-0.009773836471140385,-0.001221729558892548
1775340772570288000,1.7932880859375,0.009162971749901772,-0.006719512399286032,-0.008552107028663158
1775340772587077400,1.810077392578125,0.010384701192378998,-0.006719512399286032,-0.010995565913617611
1775340772603866400,1.826866455078125,0.010995565913617611,-0.007941242307424545,-0.003665188793092966
1775340772620655600,1.843655517578125,0.009773836471140385,-0.008552107028663158,-0.011606430634856224
1775340772637444600,1.860444580078125,0.009773836471140385,-0.009773836471140385,-0.004276053514331579
1775340772654233600,1.877233642578125,0.009162971749901772,-0.009773836471140385,-0.0054977829568088055
1775340772671022800,1.89402294921875,0.008552107028663158,-0.007330377586185932,-0.006719512399286032
1775340772687811800,1.910811767578125,0.008552107028663158,-0.008552107028663158,-0.006719512399286032
1775340772704600800,1.927600830078125,0.008552107028663158,-0.007941242307424545,-0.007330377586185932
1775340772721390000,1.94439013671875,0.010384701192378998,-0.009773836471140385,-0.004276053514331579
1775340772738179000,1.961178955078125,0.009162971749901772,-0.009162971749901772,-0.006108647678047419
1775340772754968000,1.977968017578125,0.009773836471140385,-0.008552107028663158,-0.0030543238390237093
1775340772771757300,1.99475732421875,0.010384701192378998,-0.009162971749901772,-0.003665188793092966
1775340772788546300,2.01154638671875,0.009773836471140385,-0.008552107028663158,-0.003665188793092966
1775340772805335300,2.028335205078125,0.009162971749901772,-0.009773836471140385,-0.002443459117785096
1775340772822124500,2.04512451171875,0.009162971749901772,-0.009162971749901772,-0.001832594396546483
1775340772838913500,2.06191357421875,0.009773836471140385,-0.008552107028663158,-0.0030543238390237093
1775340772855702500,2.07870263671875,0.008552107028663158,-0.009162971749901772,-0.004276053514331579
1775340772872491800,2.09549169921875,0.009162971749901772,-0.009162971749901772,0.000610864779446274
1775340772889280800,2.11228076171875,0.010384701192378998,-0.009773836471140385,-0.004276053514331579
1775340772906069800,2.12906982421875,0.009162971749901772,-0.008552107028663158,-0.000610864779446274
1775340772922859000,2.14585888671875,0.008552107028663158,-0.009162971749901772,-0.000610864779446274
1775340772939648000,2.16264794921875,0.010384701192378998,-0.007941242307424545,-0.007941242307424545
1775340772956437000,2.17943701171875,0.009162971749901772,-0.008552107028663158,-0.001832594396546483
1775340772973226200,2.196226318359375,0.007941242307424545,-0.008552107028663158,-0.004276053514331579
1775340772990015200,2.21301513671875,0.009162971749901772,-0.009773836471140385,-0.0030543238390237093
1775340773006804200,2.22980419921875,0.009162971749901772,-0.008552107028663158,0
1775340773023593500,2.246593505859375,0.009162971749901772,-0.009773836471140385,0.001221729558892548
1775340773040382500,2.263382568359375,0.008552107028663158,-0.008552107028663158,-0.001221729558892548
1775340773057171700,2.280171630859375,0.009162971749901772,-0.009773836471140385,-0.001832594396546483
1775340773073960700,2.296960693359375,0.009162971749901772,-0.009773836471140385,-0.001832594396546483
1775340773090749700,2.313749755859375,0.009773836471140385,-0.009162971749901772,-0.001221729558892548
1775340773107538700,2.33053857421875,0.010384701192378998,-0.009162971749901772,0.001221729558892548
1775340773124328000,2.347327880859375,0.009162971749901772,-0.010384701192378998,0.001221729558892548
1775340773141117000,2.364116943359375,0.009773836471140385,-0.009773836471140385,0.001832594396546483
1775340773157906200,2.38090625,0.009773836471140385,-0.009773836471140385,-0.0030543238390237093
1775340773174695200,2.397695068359375,0.008552107028663158,-0.010995565913617611,0.000610864779446274
1775340773191484200,2.414484130859375,0.009773836471140385,-0.009773836471140385,-0.001832594396546483
1775340773208273400,2.4312734375,0.010995565913617611,-0.009162971749901772,-0.001832594396546483
1775340773225062400,2.4480625,0.007941242307424545,-0.009162971749901772,-0.003665188793092966
1775340773241851400,2.464851318359375,0.010995565913617611,-0.010384701192378998,-0.006719512399286032
1775340773258640600,2.481640625,0.008552107028663158,-0.010384701192378998,-0.001832594396546483
1775340773275429600,2.4984296875,0.009162971749901772,-0.008552107028663158,0
1775340773292218600,2.515218505859375,0.007330377586185932,-0.009162971749901772,-0.001832594396546483
1775340773309008000,2.5320078125,0.009773836471140385,-0.010384701192378998,0.001221729558892548
1775340773325796900,2.548796875,0.011606430634856224,-0.009162971749901772,-0.003665188793092966
1775340773342585900,2.5655859375,0.007941242307424545,-0.006108647678047419,-0.007330377586185932
1775340773359375000,2.582375,0.011606430634856224,-0.008552107028663158,-0.010384701192378998
1775340773376164000,2.5991640625,0.010995565913617611,-0.007330377586185932,-0.01282816007733345
1775340773392953300,2.615953369140625,0.009773836471140385,-0.007330377586185932,-0.011606430634856224
1775340773409742300,2.632742431640625,0.009162971749901772,-0.008552107028663158,-0.009162971749901772
1775340773426531300,2.64953125,0.008552107028663158,-0.007330377586185932,0
1775340773443320600,2.666320556640625,0.010384701192378998,-0.009162971749901772,-0.008552107028663158
1775340773460109600,2.683109619140625,0.007941242307424545,-0.007330377586185932,-0.0054977829568088055
1775340773476898600,2.699898681640625,0.010384701192378998,-0.007941242307424545,-0.009773836471140385
1775340773493687800,2.716687744140625,0.010995565913617611,-0.008552107028663158,-0.008552107028663158
1775340773510476800,2.733476806640625,0.010995565913617611,-0.008552107028663158,-0.010384701192378998
1775340773527265800,2.750265869140625,0.010384701192378998,-0.007941242307424545,-0.01954767294228077
1775340773544055000,2.767054931640625,0.009162971749901772,-0.008552107028663158,-0.018325943499803543
1775340773560844000,2.783843994140625,0.008552107028663158,-0.006719512399286032,-0.01954767294228077
1775340773577633000,2.800633056640625,0.009162971749901772,-0.009162971749901772,-0.010995565913617611
1775340773594422300,2.81742236328125,0.009773836471140385,-0.008552107028663158,-0.003665188793092966
1775340773611211300,2.834211181640625,0.009773836471140385,-0.006719512399286032,-0.0030543238390237093
1775340773628000300,2.851000244140625,0.008552107028663158,-0.007941242307424545,-0.0030543238390237093
1775340773644789500,2.86778955078125,0.01282816007733345,-0.009773836471140385,-0.007941242307424545
1775340773661578500,2.88457861328125,0.008552107028663158,-0.007330377586185932,-0.007941242307424545
1775340773678367500,2.901367431640625,0.009162971749901772,-0.009162971749901772,-0.006719512399286032
1775340773695156700,2.91815673828125,0.011606430634856224,-0.009162971749901772,-0.001832594396546483
1775340773711945700,2.93494580078125,0.007941242307424545,-0.007941242307424545,-0.008552107028663158
1775340773728734700,2.951734619140625,0.010995565913617611,-0.008552107028663158,-0.004886918235570192
1775340773745524000,2.96852392578125,0.009162971749901772,-0.007941242307424545,-0.01282816007733345
1775340773762313000,2.98531298828125,0.007941242307424545,-0.007330377586185932,-0.01282816007733345
1775340773779102200,3.002102294921875,0.010995565913617611,-0.006719512399286032,-0.013439024798572063
1775340773795891200,3.01889111328125,0.009162971749901772,-0.006108647678047419,-0.014049889519810677
1775340773812680200,3.03568017578125,0.010384701192378998,-0.007330377586185932,-0.01588248461484909
1775340773829469400,3.052469482421875,0.010384701192378998,-0.008552107028663158,-0.017104214057326317
1775340773846258400,3.069258544921875,0.006719512399286032,-0.007941242307424545,-0.020158538594841957
1775340773863047400,3.08604736328125,0.013439024798572063,-0.009162971749901772,-0.017104214057326317
1775340773879836700,3.102836669921875,0.007941242307424545,-0.007941242307424545,-0.017104214057326317
1775340773896625700,3.119625732421875,0.010995565913617611,-0.009162971749901772,-0.012217295356094837
1775340773913414700,3.13641455078125,0.009773836471140385,-0.007330377586185932,-0.008552107028663158
1775340773930204000,3.153203857421875,0.007330377586185932,-0.007941242307424545,-0.007330377586185932
1775340773946993000,3.169992919921875,0.013439024798572063,-0.009773836471140385,-0.004886918235570192
1775340773963782000,3.186781982421875,0.006719512399286032,-0.006719512399286032,-0.009773836471140385
1775340773980571100,3.203571044921875,0.011606430634856224,-0.008552107028663158,-0.01588248461484909
1775340773997360000,3.220360107421875,0.009773836471140385,-0.009162971749901772,-0.011606430634856224
1775340774014149000,3.237149169921875,0.010384701192378998,-0.008552107028663158,-0.014049889519810677
1775340774030938000,3.253938232421875,0.010384701192378998,-0.009162971749901772,-0.010995565913617611
1775340774047727400,3.270727294921875,0.007941242307424545,-0.008552107028663158,-0.009162971749901772
1775340774064516400,3.287516357421875,0.010384701192378998,-0.009162971749901772,-0.009162971749901772
1775340774081305600,3.3043056640625,0.008552107028663158,-0.007330377586185932,-0.009162971749901772
1775340774098094600,3.321094482421875,0.007330377586185932,-0.009162971749901772,-0.002443459117785096
1775340774114883600,3.337883544921875,0.010384701192378998,-0.008552107028663158,-0.009773836471140385
1775340774131672800,3.3546728515625,0.007941242307424545,-0.007330377586185932,-0.01282816007733345
1775340774148461800,3.3714619140625,0.009773836471140385,-0.008552107028663158,-0.006719512399286032
1775340774165250800,3.388250732421875,0.010384701192378998,-0.009162971749901772,-0.010995565913617611
1775340774182040000,3.4050400390625,0.009162971749901772,-0.007330377586185932,-0.007941242307424545
1775340774198829000,3.4218291015625,0.010995565913617611,-0.009773836471140385,-0.007941242307424545
1775340774215618000,3.4386181640625,0.009162971749901772,-0.008552107028663158,-0.006108647678047419
1775340774232407300,3.4554072265625,0.009773836471140385,-0.008552107028663158,-0.007330377586185932
1775340774249196300,3.4721962890625,0.009773836471140385,-0.009162971749901772,-0.008552107028663158
1775340774265985300,3.4889853515625,0.009162971749901772,-0.009162971749901772,-0.009162971749901772
1775340774282774300,3.505774169921875,0.009773836471140385,-0.008552107028663158,-0.010384701192378998
1775340774299563500,3.5225634765625,0.009773836471140385,-0.007330377586185932,-0.012217295356094837
1775340774316352500,3.5393525390625,0.010384701192378998,-0.009773836471140385,-0.010384701192378998
1775340774333141500,3.5561416015625,0.008552107028663158,-0.009162971749901772,-0.004276053514331579
1775340774349930800,3.5729306640625,0.009162971749901772,-0.008552107028663158,-0.002443459117785096
1775340774366719700,3.5897197265625,0.009773836471140385,-0.008552107028663158,0
1775340774383508700,3.6065087890625,0.009162971749901772,-0.009162971749901772,-0.001832594396546483
1775340774400298000,3.623298095703125,0.010384701192378998,-0.009773836471140385,0
1775340774417087000,3.6400869140625,0.008552107028663158,-0.009162971749901772,-0.001221729558892548
1775340774433876000,3.6568759765625,0.008552107028663158,-0.009773836471140385,-0.001832594396546483
1775340774450665200,3.673665283203125,0.010995565913617611,-0.010384701192378998,-0.002443459117785096
1775340774467454200,3.6904541015625,0.009773836471140385,-0.009773836471140385,-0.001832594396546483
1775340774484243500,3.707243408203125,0.009773836471140385,-0.008552107028663158,-0.004276053514331579
1775340774501032400,3.724032470703125,0.009773836471140385,-0.009773836471140385,-0.0030543238390237093
1775340774517821400,3.740821533203125,0.010995565913617611,-0.010384701192378998,-0.003665188793092966
1775340774534610700,3.757610595703125,0.009773836471140385,-0.009162971749901772,-0.002443459117785096
1775340774551399700,3.774399658203125,0.009162971749901772,-0.009162971749901772,-0.003665188793092966
1775340774568188700,3.791188720703125,0.010995565913617611,-0.009773836471140385,-0.004276053514331579
1775340774584977700,3.807977783203125,0.009773836471140385,-0.009162971749901772,-0.001221729558892548
1775340774601767000,3.824766845703125,0.009773836471140385,-0.007941242307424545,-0.002443459117785096
1775340774618556000,3.841555908203125,0.007941242307424545,-0.008552107028663158,-0.001832594396546483
1775340774635345000,3.858344970703125,0.009773836471140385,-0.009773836471140385,-0.000610864779446274
1775340774652134100,3.875134033203125,0.009773836471140385,-0.009773836471140385,0
1775340774668923100,3.891923095703125,0.008552107028663158,-0.009773836471140385,-0.001221729558892548
1775340774685712100,3.908712158203125,0.009162971749901772,-0.009773836471140385,0.000610864779446274
1775340774702501400,3.92550146484375,0.010384701192378998,-0.009162971749901772,-0.001221729558892548
1775340774719290400,3.942290283203125,0.007330377586185932,-0.009773836471140385,0.004276053514331579
1775340774736079400,3.959079345703125,0.008552107028663158,-0.009162971749901772,0.004886918235570192
1775340774752868600,3.97586865234375,0.008552107028663158,-0.009162971749901772,0.006719512399286032
1775340774769657600,3.99265771484375,0.007330377586185932,-0.010384701192378998,0.009773836471140385
1775340774786446600,4.009446533203125,0.007941242307424545,-0.011606430634856224,0.011606430634856224
1775340774803235800,4.02623583984375,0.008552107028663158,-0.010995565913617611,0.013439024798572063
1775340774820024800,4.04302490234375,0.007941242307424545,-0.010995565913617611,0.011606430634856224
1775340774836813800,4.059813720703125,0.007330377586185932,-0.009162971749901772,0.009773836471140385
1775340774853603000,4.07660302734375,0.006719512399286032,-0.009773836471140385,0.003665188793092966
1775340774870392000,4.09339208984375,0.008552107028663158,-0.009773836471140385,0.001221729558892548
1775340774887181000,4.11018115234375,0.009162971749901772,-0.009773836471140385,-0.001832594396546483
1775340774903970000,4.126969970703125,0.010384701192378998,-0.010384701192378998,-0.001832594396546483
1775340774920759300,4.14375927734375,0.012217295356094837,-0.010384701192378998,-0.003665188793092966
1775340774937548300,4.16054833984375,0.011606430634856224,-0.010995565913617611,-0.006108647678047419
1775340774954337300,4.177337158203125,0.010995565913617611,-0.011606430634856224,-0.006108647678047419
1775340774971126500,4.19412646484375,0.009773836471140385,-0.010995565913617611,-0.003665188793092966
1775340774987915500,4.21091552734375,0.011606430634856224,-0.009773836471140385,-0.0030543238390237093
1775340775004704500,4.22770458984375,0.007941242307424545,-0.007330377586185932,-0.001221729558892548
1775340775021493800,4.24449365234375,0.008552107028663158,-0.008552107028663158,0.002443459117785096
1775340775038282800,4.26128271484375,0.009773836471140385,-0.007941242307424545,0.001832594396546483
1775340775055071700,4.27807177734375,0.007330377586185932,-0.009773836471140385,0.006719512399286032
1775340775071861000,4.294861083984375,0.006108647678047419,-0.010995565913617611,0.012217295356094837
1775340775088650000,4.31164990234375,0.007330377586185932,-0.009162971749901772,0.01893680728971958
1775340775105439000,4.32843896484375,0.007330377586185932,-0.010384701192378998,0.027488915249705315
1775340775122228200,4.345228271484375,0.009162971749901772,-0.008552107028663158,0.029932374134659767
1775340775139017200,4.362017333984375,0.010995565913617611,-0.008552107028663158,0.023212861269712448
1775340775155806200,4.37880615234375,0.012217295356094837,-0.007941242307424545,0.014660755172371864
1775340775172595200,4.39559521484375,0.011606430634856224,-0.008552107028663158,-0.004276053514331579
1775340775189384400,4.412384521484375,0.008552107028663158,-0.010384701192378998,-0.011606430634856224
1775340775206173400,4.42917333984375,0.010384701192378998,-0.010995565913617611,-0.012217295356094837
1775340775222962400,4.44596240234375,0.009162971749901772,-0.009162971749901772,-0.004886918235570192
1775340775239751700,4.462751708984375,0.008552107028663158,-0.009773836471140385,0.0030543238390237093
1775340775256540700,4.479540771484375,0.007941242307424545,-0.007941242307424545,0.001832594396546483
1775340775273329700,4.49632958984375,0.009773836471140385,-0.009773836471140385,0.001832594396546483
1775340775290119000,4.513118896484375,0.009162971749901772,-0.009773836471140385,0.003665188793092966
1775340775306908000,4.529907958984375,0.009162971749901772,-0.009162971749901772,0.007941242307424545
1775340775323697000,4.54669677734375,0.011606430634856224,-0.007330377586185932,0.006719512399286032
1775340775340486100,4.563486083984375,0.011606430634856224,-0.008552107028663158,0.002443459117785096
1775340775357275100,4.580275146484375,0.008552107028663158,-0.009773836471140385,-0.014049889519810677
1775340775374064000,4.597064208984375,0.007330377586185932,-0.010384701192378998,-0.010995565913617611
1775340775390853400,4.613853271484375,0.007330377586185932,-0.009162971749901772,-0.000610864779446274
1775340775407642400,4.630642333984375,0.010995565913617611,-0.007941242307424545,0.000610864779446274
1775340775424431400,4.647431396484375,0.008552107028663158,-0.008552107028663158,0.004276053514331579
1775340775441220400,4.664220458984375,0.008552107028663158,-0.007330377586185932,-0.0054977829568088055
1775340775458009600,4.681009521484375,0.009162971749901772,-0.007941242307424545,-0.008552107028663158
1775340775474798600,4.697798583984375,0.010995565913617611,-0.009162971749901772,-0.008552107028663158
1775340775491587600,4.714587646484375,0.007941242307424545,-0.0054977829568088055,-0.007330377586185932
1775340775508376800,4.731376953125,0.0054977829568088055,-0.004886918235570192,-0.001832594396546483
1775340775525165800,4.748165771484375,0.009773836471140385,-0.006719512399286032,-0.007941242307424545
1775340775541954800,4.764954833984375,0.009162971749901772,-0.007941242307424545,-0.009162971749901772
1775340775558744000,4.781744140625,0.009162971749901772,-0.011606430634856224,-0.006719512399286032
1775340775575533000,4.798532958984375,0.010995565913617611,-0.01282816007733345,0.000610864779446274
1775340775592322000,4.815322021484375,0.010384701192378998,-0.012217295356094837,0.006108647678047419
1775340775609111000,4.832111083984375,0.009773836471140385,-0.010995565913617611,0.010384701192378998
1775340775625900300,4.848900390625,0.006719512399286032,-0.009162971749901772,0.011606430634856224
1775340775642689300,4.865689208984375,0.007330377586185932,-0.010995565913617611,0.023212861269712448
1775340775659478300,4.882478271484375,0.0054977829568088055,-0.007941242307424545,0.025045456364750862
1775340775676267500,4.899267578125,0.007330377586185932,-0.007941242307424545,0.033597562462091446
1775340775693056500,4.916056396484375,0.008552107028663158,-0.007330377586185932,0.03481929376721382
1775340775709845500,4.932845458984375,0.008552107028663158,-0.006108647678047419,0.01282816007733345
1775340775726634800,4.949634765625,0.010384701192378998,-0.007330377586185932,0.006108647678047419
1775340775743423700,4.966423828125,0.010384701192378998,-0.007941242307424545,-0.01954767294228077
1775340775760212700,4.983212646484375,0.010995565913617611,-0.009773836471140385,-0.021380268037319183
1775340775777001700,5.000001708984375,0.009162971749901772,-0.009162971749901772,-0.01954767294228077
1775340775793791000,5.016791015625,0.011606430634856224,-0.009162971749901772,-0.023212861269712448
1775340775810580000,5.033580078125,0.010384701192378998,-0.008552107028663158,-0.01649334840476513
1775340775827369000,5.050368896484375,0.006108647678047419,-0.006719512399286032,-0.021380268037319183
1775340775844158000,5.067157958984375,0.009773836471140385,-0.007330377586185932,-0.009773836471140385
1775340775860947200,5.083947265625,0.009162971749901772,-0.008552107028663158,0.003665188793092966
1775340775877736200,5.100736083984375,0.009162971749901772,-0.008552107028663158,0.009162971749901772
1775340775894525200,5.117525146484375,0.009773836471140385,-0.007941242307424545,0.001832594396546483
1775340775911314400,5.134314453125,0.009773836471140385,-0.009162971749901772,-0.006719512399286032
1775340775928103400,5.151103515625,0.009162971749901772,-0.010995565913617611,-0.0054977829568088055
1775340775944892400,5.167892333984375,0.007330377586185932,-0.009162971749901772,-0.002443459117785096
1775340775961681700,5.184681640625,0.008552107028663158,-0.009773836471140385,0.009773836471140385
1775340775978470700,5.201470703125,0.007941242307424545,-0.007330377586185932,0.007941242307424545
1775340775995259600,5.218259765625,0.009162971749901772,-0.007330377586185932,0.006719512399286032
1775340776012048600,5.235048583984375,0.008552107028663158,-0.007330377586185932,-0.0030543238390237093
1775340776028838000,5.251837890625,0.010384701192378998,-0.010995565913617611,-0.006108647678047419
1775340776045627000,5.268626953125,0.009773836471140385,-0.009773836471140385,-0.006108647678047419
1775340776062416000,5.285415771484375,0.009773836471140385,-0.008552107028663158,-0.004886918235570192
1775340776079205000,5.302205078125,0.01282816007733345,-0.010995565913617611,-0.003665188793092966
1775340776095994000,5.318994140625,0.008552107028663158,-0.009162971749901772,-0.003665188793092966
1775340776112783000,5.335783203125,0.009162971749901772,-0.010995565913617611,-0.001221729558892548
1775340776129572000,5.352572021484375,0.008552107028663158,-0.009773836471140385,0.000610864779446274
1775340776146361300,5.369361328125,0.009773836471140385,-0.009773836471140385,-0.000610864779446274
1775340776163150300,5.386150390625,0.008552107028663158,-0.008552107028663158,-0.002443459117785096
1775340776179939300,5.402939208984375,0.007941242307424545,-0.007941242307424545,-0.001832594396546483
1775340776196728600,5.419728515625,0.009162971749901772,-0.009162971749901772,-0.002443459117785096
1775340776213517600,5.436517578125,0.009773836471140385,-0.009773836471140385,-0.001221729558892548
1775340776230306600,5.453306640625,0.007330377586185932,-0.009773836471140385,0.004276053514331579
1775340776247095600,5.470095458984375,0.007941242307424545,-0.010384701192378998,0.004886918235570192
1775340776263884800,5.486884765625,0.009773836471140385,-0.010384701192378998,0.004886918235570192
1775340776280673800,5.503673828125,0.012217295356094837,-0.008552107028663158,0.006719512399286032
1775340776297462800,5.520462890625,0.01588248461484909,-0.009162971749901772,0.001221729558892548
1775340776314252000,5.537251953125,0.004886918235570192,-0.012217295356094837,-0.010384701192378998
1775340776331041000,5.554041015625,0.004886918235570192,-0.007330377586185932,0.006108647678047419
1775340776347830000,5.570830078125,0.004276053514331579,-0.0030543238390237093,0.002443459117785096
1775340776364619000,5.587618896484375,0.008552107028663158,-0.0030543238390237093,0.018325943499803543
1775340776381408300,5.604408203125,0.01282816007733345,-0.003665188793092966,0.004276053514331579
1775340776398197200,5.621197265625,0.013439024798572063,-0.006108647678047419,-0.020769402384757996
1775340776414986200,5.637986328125,0.009773836471140385,-0.009773836471140385,-0.025045456364750862
1775340776431775500,5.654775390625,0.010995565913617611,-0.010384701192378998,-0.040317077189683914
1775340776448564500,5.671564453125,0.011606430634856224,-0.01282816007733345,-0.026878049597144127
1775340776465353500,5.688353515625,0.003665188793092966,-0.010384701192378998,-0.007330377586185932
1775340776482142500,5.705142578125,0.014660755172371864,-0.009773836471140385,-0.004276053514331579
1775340776498931700,5.721931640625,0.011606430634856224,-0.008552107028663158,0.007330377586185932
1775340776515720700,5.738720703125,0.01282816007733345,-0.009162971749901772,-0.001221729558892548
1775340776532509700,5.755509765625,0.009162971749901772,-0.010995565913617611,0.001832594396546483
1775340776549298700,5.772298583984375,0.0054977829568088055,-0.009773836471140385,0.012217295356094837
1775340776566088000,5.789087890625,0.009773836471140385,-0.011606430634856224,0.01588248461484909
1775340776582877000,5.805876953125,0.006719512399286032,-0.006719512399286032,0.021380268037319183
1775340776599666000,5.822666015625,0.008552107028663158,-0.001221729558892548,0.004886918235570192
1775340776616455200,5.839455078125,0.010995565913617611,-0.004886918235570192,-0.004276053514331579
1775340776633244200,5.856244140625,0.010384701192378998,-0.006108647678047419,-0.020158538594841957
1775340776650033200,5.873033203125,0.007941242307424545,-0.006719512399286032,-0.012217295356094837
1775340776666822100,5.889822265625,0.009162971749901772,-0.007941242307424545,-0.009773836471140385
1775340776683611400,5.906611328125,0.009162971749901772,-0.007330377586185932,-0.004886918235570192
1775340776700400400,5.923400390625,0.007330377586185932,-0.009162971749901772,-0.002443459117785096
1775340776717189400,5.940189453125,0.007330377586185932,-0.011606430634856224,-0.002443459117785096
1775340776733978400,5.956978271484375,0.007941242307424545,-0.012217295356094837,0.012217295356094837
1775340776750767600,5.973767578125,0.007941242307424545,-0.007941242307424545,0.017715077847242355
1775340776767556600,5.990556640625,0.004276053514331579,-0.007941242307424545,0.0360410213470459
1775340776784345600,6.007345703125,0.007330377586185932,-0.01282816007733345,0.0409279391169548
1775340776801134800,6.024134765625,0.009773836471140385,-0.012217295356094837,0.04886918142437935
1775340776817923800,6.040923828125,0.006719512399286032,-0.009773836471140385,0.03176496922969818
1775340776834712800,6.057712890625,0.007941242307424545,-0.010384701192378998,0.018325943499803543
1775340776851501800,6.074501708984375,0.010384701192378998,-0.007941242307424545,0.006108647678047419
1775340776868290800,6.091290771484375,0.007941242307424545,-0.004886918235570192,-0.003665188793092966
1775340776885080000,6.108080078125,0.009162971749901772,-0.007330377586185932,0.004276053514331579
1775340776901869000,6.124869140625,0.01282816007733345,-0.015271619893610477,-0.006719512399286032
1775340776918658300,6.141658203125,0.010384701192378998,-0.014049889519810677,-0.006108647678047419
1775340776935447300,6.158447265625,0.006719512399286032,-0.010384701192378998,-0.004276053514331579
1775340776952236300,6.175236328125,0.007330377586185932,-0.0054977829568088055,0.006108647678047419
1775340776969025300,6.192025390625,0.006108647678047419,-0.002443459117785096,0.012217295356094837
1775340776985814300,6.208814208984375,0.0054977829568088055,-0.003665188793092966,0.013439024798572063
1775340777002603500,6.225603515625,0.006719512399286032,-0.007941242307424545,0.009773836471140385
1775340777019392500,6.242392578125,0.006719512399286032,-0.010384701192378998,0.004886918235570192
1775340777036181500,6.259181396484375,0.006108647678047419,-0.010384701192378998,0.0030543238390237093
1775340777052970800,6.275970703125,0.006719512399286032,-0.008552107028663158,-0.007330377586185932
1775340777069759700,6.292759765625,0.006108647678047419,-0.004276053514331579,0.011606430634856224
1775340777086548700,6.309548828125,0.006719512399286032,-0.001832594396546483,0
1775340777103337700,6.326337646484375,0.007330377586185932,-0.004886918235570192,0.011606430634856224
1775340777120126700,6.343126708984375,0.007330377586185932,-0.007330377586185932,0.023212861269712448
1775340777136916000,6.359916015625,0.004276053514331579,-0.007941242307424545,0.027488915249705315
1775340777153705000,6.376705078125,0.0030543238390237093,-0.007941242307424545,0.04459312930703163
1775340777170494000,6.393493896484375,0.0030543238390237093,-0.0030543238390237093,0.047036588191986084
1775340777187283200,6.410283203125,0.006108647678047419,-0.006108647678047419,0.06108647957444191
1775340777204072200,6.427072265625,0.007330377586185932,-0.0054977829568088055,0.08002328872680664
1775340777220861200,6.443861083984375,0.007330377586185932,0.003665188793092966,0.0818558782339096
1775340777237650200,6.460650146484375,0.004276053514331579,-0.006719512399286032,0.0977383628487587
1775340777254439200,6.477439208984375,-0.001221729558892548,-0.007941242307424545,0.06963858753442764
1775340777271228400,6.494228515625,0.007941242307424545,-0.010995565913617611,0.046425722539424896
1775340777288017400,6.511017333984375,-0.001221729558892548,-0.009162971749901772,0.01893680728971958
1775340777304806400,6.527806396484375,0.001832594396546483,-0.01282816007733345,-0.004276053514331579
1775340777321595600,6.544595703125,0,-0.009162971749901772,-0.03176496922969818
1775340777338384600,6.561384521484375,0.001221729558892548,-0.007941242307424545,-0.021380268037319183
1775340777355173600,6.578173583984375,0.001221729558892548,-0.001832594396546483,-0.08857539296150208
1775340777371962600,6.594962646484375,-0.000610864779446274,-0.001221729558892548,-0.0360410213470459
1775340777388752000,6.611751953125,-0.007941242307424545,0.0030543238390237093,-0.06108647957444191
1775340777405540900,6.628540771484375,-0.010384701192378998,0.004886918235570192,-0.14782927930355072
1775340777422329900,6.645329833984375,-0.009773836471140385,0.003665188793092966,-0.20341797173023224
1775340777439118800,6.662118896484375,-0.017715077847242355,0.003665188793092966,-0.19669845700263977
1775340777455908000,6.678908203125,-0.01954767294228077,-0.002443459117785096,-0.2461785078048706
1775340777472697000,6.695697021484375,-0.021380268037319183,0,-0.2883281707763672
1775340777489486000,6.712486083984375,-0.023823726922273636,-0.004276053514331579,-0.35796675086021423
1775340777506275000,6.729275146484375,-0.031154103577136993,0.004886918235570192,-0.42882707715034485
1775340777523064300,6.746064208984375,-0.03176496922969818,0.004276053514331579,-0.5106829404830933
1775340777539853300,6.762853271484375,-0.023212861269712448,-0.004276053514331579,-0.676227331161499
1775340777556642300,6.779642333984375,-0.029932374134659767,0.004886918235570192,-1.1588104963302612
1775340777573431300,6.796431396484375,-0.023823726922273636,-0.000610864779446274,-1.1881320476531982
1775340777590220500,6.813220458984375,-0.027488915249705315,-0.0030543238390237093,-0.9657772183418274
1775340777607009500,6.830009521484375,-0.01588248461484909,0.001221729558892548,-0.6914989352226257
1775340777623798500,6.846798583984375,-0.010995565913617611,-0.004276053514331579,-0.44898560643196106
1775340777640587500,6.86358740234375,-0.009162971749901772,-0.001832594396546483,-0.4477638900279999
1775340777657376500,6.88037646484375,0.004276053514331579,-0.010995565913617611,-0.4734202027320862
1775340777674165800,6.897165771484375,-0.000610864779446274,-0.009773836471140385,-0.43921178579330444
1775340777690954800,6.913954833984375,0.006719512399286032,-0.01282816007733345,-0.38667741417884827
1775340777707743700,6.93074365234375,0.0054977829568088055,-0.013439024798572063,-0.3970620930194855
1775340777724533000,6.947532958984375,0.006108647678047419,-0.017104214057326317,-0.4667007029056549
1775340777741322000,6.964322021484375,0.012217295356094837,-0.023212861269712448,-0.564439058303833
1775340777758111000,6.981111083984375,0.009773836471140385,-0.023823726922273636,-0.7452550530433655
1775340777774900000,6.99789990234375,0.01893680728971958,-0.02626718580722809,-0.9902117848396301
1775340777791689000,7.01468896484375,0.008552107028663158,-0.023823726922273636,-1.2253947257995605
1775340777808478000,7.03147802734375,-0.0030543238390237093,-0.01954767294228077,-1.4080432653427124
1775340777825267200,7.04826708984375,0.0030543238390237093,-0.025045456364750862,-1.4941751956939697
1775340777842056200,7.06505615234375,-0.001832594396546483,-0.0256563201546669,-1.5265511274337769
1775340777858845200,7.08184521484375,0.007330377586185932,-0.030543239787220955,-1.6053526401519775
1775340777875634400,7.098634521484375,-0.001221729558892548,-0.033597562462091446,-1.6804890632629395
1775340777892423400,7.11542333984375,-0.012217295356094837,-0.0256563201546669,-1.750738501548767
1775340777909212400,7.13221240234375,-0.006719512399286032,-0.024434590712189674,-1.7372994422912598
1775340777926001400,7.14900146484375,-0.01893680728971958,-0.01649334840476513,-1.588248372077942
1775340777942790400,7.165790283203125,-0.0054977829568088055,-0.020769402384757996,-1.4080432653427124
1775340777959579600,7.18257958984375,-0.007941242307424545,-0.010995565913617611,-1.2217295169830322
1775340777976368600,7.19936865234375,-0.017715077847242355,-0.009162971749901772,-1.094058871269226
1775340777993157600,7.21615771484375,-0.014049889519810677,-0.006108647678047419,-1.0855066776275635
1775340778009947000,7.23294677734375,-0.004276053514331579,0.02871064469218254,-0.8271108865737915
1775340778026735900,7.24973583984375,0.004276053514331579,-0.0360410213470459,0.7605266571044922
1775340778043524900,7.26652490234375,-0.036651886999607086,0.03481929376721382,-0.3347539007663727
1775340778060313900,7.28331396484375,0.02626718580722809,-0.006719512399286032,-0.10629047453403473
1775340778077102800,7.300102783203125,-0.009773836471140385,0.010384701192378998,0.12034036219120026
1775340778093892000,7.31689208984375,-0.017104214057326317,0.015271619893610477,-0.08307760953903198
1775340778110681000,7.33368115234375,0.021991131827235222,-0.0030543238390237093,0.01649334840476513
1775340778127470000,7.350469970703125,-0.013439024798572063,0.006719512399286032,0.010995565913617611
1775340778144259000,7.367259033203125,0.01588248461484909,-0.008552107028663158,0.001832594396546483
1775340778161048300,7.38404833984375,0.006719512399286032,0,0.014049889519810677
1775340778177837300,7.40083740234375,-0.017104214057326317,0.014049889519810677,-0.008552107028663158
1775340778194626300,7.417626220703125,0.012217295356094837,-0.001221729558892548,-0.01282816007733345
1775340778211415300,7.434415283203125,-0.007330377586185932,0.004886918235570192,-0.01282816007733345
1775340778228204500,7.45120458984375,0.0054977829568088055,-0.001832594396546483,-0.03176496922969818
1775340778244993500,7.46799365234375,0.01588248461484909,-0.012217295356094837,-0.06597339361906052
1775340778261782500,7.484782470703125,0.006108647678047419,-0.007330377586185932,-0.08429934084415436
1775340778278571500,7.501571533203125,0.020769402384757996,-0.023212861269712448,0.043371398001909256
1775340778295360500,7.518360595703125,0.007941242307424545,-0.009773836471140385,-0.04276053607463837
1775340778312149800,7.535149658203125,0.004276053514331579,-0.009773836471140385,0.004276053514331579
1775340778328938800,7.551938720703125,0.010384701192378998,-0.006719512399286032,-0.014049889519810677
1775340778345727700,7.568727783203125,0.003665188793092966,-0.002443459117785096,-0.008552107028663158
1775340778362516700,7.585516845703125,0.017104214057326317,-0.009773836471140385,-0.000610864779446274
1775340778379305700,7.6023056640625,0.017104214057326317,-0.011606430634856224,-0.009773836471140385
1775340778396095000,7.619094970703125,0.017104214057326317,-0.01282816007733345,0.006719512399286032
1775340778412884000,7.635884033203125,0.017715077847242355,-0.013439024798572063,0.000610864779446274
1775340778429673000,7.6526728515625,0.009773836471140385,-0.008552107028663158,-0.002443459117785096
1775340778446462000,7.6694619140625,0.01588248461484909,-0.01649334840476513,0.001832594396546483
1775340778463251200,7.686251220703125,0.010384701192378998,-0.01649334840476513,-0.000610864779446274
1775340778480040200,7.703040283203125,0.009162971749901772,-0.014660755172371864,-0.003665188793092966
1775340778496829200,7.7198291015625,0.010384701192378998,-0.011606430634856224,-0.003665188793092966
1775340778513618200,7.7366181640625,0.008552107028663158,-0.007330377586185932,-0.002443459117785096
1775340778530407200,7.7534072265625,0.014660755172371864,-0.012217295356094837,-0.003665188793092966
1775340778547196400,7.770196533203125,0.007941242307424545,-0.006719512399286032,-0.002443459117785096
1775340778563985400,7.7869853515625,0.002443459117785096,-0.003665188793092966,-0.0054977829568088055
1775340778580774400,7.8037744140625,0.006719512399286032,-0.003665188793092966,0
1775340778597563400,7.8205634765625,0.004276053514331579,-0.003665188793092966,-0.003665188793092966
1775340778614352600,7.8373525390625,0.009162971749901772,-0.007330377586185932,0
1775340778631141600,7.8541416015625,0.010384701192378998,-0.010384701192378998,-0.003665188793092966
1775340778647930600,7.8709306640625,0.006719512399286032,-0.012217295356094837,0.001832594396546483
1775340778664719600,7.8877197265625,0.011606430634856224,-0.015271619893610477,0.001221729558892548
1775340778681508900,7.9045087890625,0.007330377586185932,-0.012217295356094837,0.01282816007733345
1775340778698297900,7.9212978515625,0.009162971749901772,-0.010995565913617611,0.007330377586185932
1775340778715086800,7.9380869140625,0.011606430634856224,-0.014049889519810677,0.004886918235570192
1775340778731875800,7.954875732421875,0.009162971749901772,-0.01282816007733345,0.004886918235570192
1775340778748664800,7.971664794921875,0.01893680728971958,-0.018325943499803543,0.006719512399286032
1775340778765454000,7.9884541015625,0.020158538594841957,-0.020769402384757996,0.024434590712189674
1775340778782243000,8.0052431640625,0.018325943499803543,-0.01893680728971958,0.05070177838206291
1775340778799032000,8.022031982421876,0.01282816007733345,-0.015271619893610477,0.03481929376721382
1775340778815821000,8.038821044921875,0.007941242307424545,-0.007330377586185932,-0.01282816007733345
1775340778832610000,8.055610107421876,0.013439024798572063,-0.006719512399286032,0.001832594396546483
1775340778849399300,8.0723994140625,0.01588248461484909,-0.010384701192378998,-0.003665188793092966
1775340778866188300,8.089188232421876,0.018325943499803543,-0.013439024798572063,-0.010384701192378998
1775340778882977300,8.105977294921875,0.010384701192378998,-0.01282816007733345,-0.004276053514331579
1775340778899766300,8.122766357421876,0.014049889519810677,-0.01588248461484909,-0.029932374134659767
1775340778916555300,8.13955517578125,0.009162971749901772,-0.013439024798572063,-0.040317077189683914
1775340778933344500,8.156344482421876,0.010995565913617611,-0.012217295356094837,-0.03481929376721382
1775340778950133500,8.173133544921875,0.017104214057326317,-0.015271619893610477,0.009773836471140385
1775340778966922500,8.189922607421876,0.014049889519810677,-0.013439024798572063,-0.0054977829568088055
1775340778983711500,8.20671142578125,0.023212861269712448,-0.015271619893610477,-0.012217295356094837
1775340779000500500,8.22350048828125,0.013439024798572063,-0.014049889519810677,0.002443459117785096
1775340779017289700,8.240289794921875,0.003665188793092966,-0.006108647678047419,-0.006719512399286032
1775340779034078700,8.25707861328125,0.008552107028663158,-0.008552107028663158,0.003665188793092966
1775340779050867700,8.27386767578125,0.008552107028663158,-0.008552107028663158,-0.002443459117785096
1775340779067656700,8.29065673828125,0.01588248461484909,-0.014049889519810677,-0.009162971749901772
1775340779084446000,8.307446044921875,0.017715077847242355,-0.014660755172371864,-0.020158538594841957
1775340779101235000,8.32423486328125,0.003665188793092966,-0.003665188793092966,-0.053756099194288254
1775340779118024000,8.34102392578125,-0.001221729558892548,0.004886918235570192,0.056810423731803894
1775340779134813000,8.35781298828125,-0.012217295356094837,0.009773836471140385,0.07574722915887833
1775340779151602000,8.374601806640625,-0.004886918235570192,0.017104214057326317,-0.07330377399921417
1775340779168391200,8.39139111328125,0.000610864779446274,0.006108647678047419,-0.001832594396546483
1775340779185180200,8.40818017578125,0.007330377586185932,-0.007330377586185932,-0.001832594396546483
1775340779201969200,8.42496923828125,0.006108647678047419,-0.006108647678047419,-0.01893680728971958
1775340779218758100,8.441758056640625,-0.009773836471140385,0.001832594396546483,0.023823726922273636
1775340779235547100,8.458547119140626,-0.008552107028663158,0.010995565913617611,-0.020158538594841957
1775340779252336000,8.475336181640625,-0.006719512399286032,0.008552107028663158,0.026878049597144127
1775340779269125400,8.49212548828125,0.001832594396546483,-0.000610864779446274,-0.014049889519810677
1775340779285914400,8.508914306640625,0.015271619893610477,-0.015271619893610477,-0.009162971749901772
1775340779302703400,8.525703369140626,0.007941242307424545,-0.01282816007733345,0.006719512399286032
1775340779319492400,8.542492431640625,0.004276053514331579,-0.004886918235570192,0.020769402384757996
1775340779336281300,8.55928125,-0.002443459117785096,0.002443459117785096,0.024434590712189674
1775340779353070600,8.576070556640625,-0.0054977829568088055,0.002443459117785096,0.010384701192378998
1775340779369859600,8.592859619140626,0.014049889519810677,-0.012217295356094837,0.008552107028663158
1775340779386648600,8.609648681640625,0.017104214057326317,-0.01954767294228077,0.01649334840476513
1775340779403437600,8.6264375,0.018325943499803543,-0.02626718580722809,0.04581485688686371
1775340779420226600,8.6432265625,0.023823726922273636,-0.02260199747979641,-0.026878049597144127
1775340779437015600,8.660015625,0.01893680728971958,-0.017104214057326317,0.020158538594841957
1775340779453804800,8.6768046875,0.007941242307424545,-0.007941242307424545,-0.010995565913617611
1775340779470593800,8.69359375,0.010995565913617611,-0.010384701192378998,0.010995565913617611
1775340779487382800,8.7103828125,0.01282816007733345,-0.01649334840476513,-0.020769402384757996
1775340779504171800,8.727171875,0.023212861269712448,-0.02871064469218254,0.001832594396546483
1775340779520960800,8.743960693359375,0.020769402384757996,-0.0256563201546669,-0.013439024798572063
1775340779537750000,8.76075,0.020769402384757996,-0.02871064469218254,0
1775340779554539000,8.7775390625,0.020158538594841957,-0.0256563201546669,0.015271619893610477
1775340779571328000,8.794327880859376,0.012217295356094837,-0.013439024798572063,-0.01282816007733345
1775340779588117000,8.811116943359375,0.010384701192378998,-0.003665188793092966,0.004276053514331579
1775340779604906000,8.827906005859376,0.01282816007733345,-0.008552107028663158,-0.017715077847242355
1775340779621695200,8.8446953125,0.018325943499803543,-0.015271619893610477,0.014660755172371864
1775340779638484200,8.861484130859376,0.020158538594841957,-0.01649334840476513,-0.007330377586185932
1775340779655273200,8.878273193359375,0.011606430634856224,-0.01649334840476513,0.001221729558892548
1775340779672062200,8.895062255859376,0.004886918235570192,-0.010384701192378998,0.01282816007733345
1775340779688851200,8.911851318359375,0.001221729558892548,-0.0054977829568088055,-0.006719512399286032
1775340779705640200,8.92864013671875,0.000610864779446274,-0.001832594396546483,0.006108647678047419
1775340779722429400,8.945429443359375,0.002443459117785096,0.001221729558892548,-0.017104214057326317
1775340779739218400,8.962218505859376,0.0030543238390237093,0.0054977829568088055,-0.012217295356094837
1775340779756007400,8.97900732421875,-0.007330377586185932,0.007330377586185932,-0.009773836471140385
1775340779772796400,8.99579638671875,-0.007330377586185932,0.009162971749901772,-0.000610864779446274
1775340779789585400,9.01258544921875,-0.003665188793092966,0.004886918235570192,-0.01282816007733345
1775340779806374700,9.029374755859376,0.007941242307424545,-0.006108647678047419,0.009773836471140385
1775340779823163600,9.04616357421875,0.000610864779446274,-0.004276053514331579,-0.01282816007733345
1775340779839952600,9.06295263671875,0.004276053514331579,-0.007330377586185932,0.014049889519810677
1775340779856741600,9.07974169921875,0.001832594396546483,0.001221729558892548,-0.007330377586185932
1775340779873530600,9.096530517578126,-0.004886918235570192,0.006108647678047419,0.010384701192378998
1775340779890319600,9.113319580078125,0.001221729558892548,0.001832594396546483,0
1775340779907108900,9.13010888671875,0.000610864779446274,-0.001221729558892548,0.007330377586185932
1775340779923897900,9.14689794921875,0.014660755172371864,-0.011606430634856224,-0.013439024798572063
1775340779940686800,9.163686767578126,0.020158538594841957,-0.018325943499803543,0.001221729558892548
1775340779957475800,9.180475830078125,0.010384701192378998,-0.015271619893610477,-0.006719512399286032
1775340779974264800,9.197264892578126,0.014049889519810677,-0.01649334840476513,0.0030543238390237093
1775340779991054000,9.21405419921875,0.006108647678047419,-0.01588248461484909,-0.007330377586185932
1775340780007843000,9.230843017578126,0.01893680728971958,-0.020158538594841957,0.004276053514331579
1775340780024632000,9.247632080078125,0.02626718580722809,-0.023212861269712448,-0.020769402384757996
1775340780041421000,9.264421142578126,0.02260199747979641,-0.018325943499803543,-0.004886918235570192
1775340780058210000,9.2812099609375,0.011606430634856224,-0.01893680728971958,0.020158538594841957
1775340780074999300,9.297999267578126,0.003665188793092966,-0.009162971749901772,-0.017715077847242355
1775340780091788300,9.314788330078125,0.014049889519810677,-0.014660755172371864,0.006108647678047419
1775340780108577300,9.331577392578126,0.01954767294228077,-0.01893680728971958,-0.010384701192378998
1775340780125366300,9.3483662109375,0.027488915249705315,-0.029932374134659767,0.007941242307424545
1775340780142155300,9.3651552734375,0.01954767294228077,-0.033597562462091446,-0.0030543238390237093
1775340780158944300,9.3819443359375,0.01893680728971958,-0.02260199747979641,0.011606430634856224
1775340780175733500,9.3987333984375,0.010995565913617611,-0.010384701192378998,0.034208428114652634
1775340780192522500,9.4155224609375,0.007330377586185932,-0.002443459117785096,-0.01954767294228077
1775340780209311500,9.4323115234375,0.01893680728971958,-0.006719512399286032,-0.0030543238390237093
1775340780226100500,9.4491005859375,0.010384701192378998,-0.010384701192378998,-0.014660755172371864
1775340780242889500,9.465889404296876,0.011606430634856224,-0.014660755172371864,0.009162971749901772
1775340780259678500,9.482678466796875,0.006108647678047419,-0.011606430634856224,0.008552107028663158
1775340780276467700,9.4994677734375,0.003665188793092966,-0.0030543238390237093,0
1775340780293256700,9.516256591796875,0.002443459117785096,-0.000610864779446274,-0.006108647678047419
1775340780310045700,9.533045654296876,0.001221729558892548,0.002443459117785096,-0.026878049597144127
1775340780326834700,9.549834716796875,0,0.0054977829568088055,-0.0054977829568088055
1775340780343623700,9.566623779296876,0,0.002443459117785096,-0.01282816007733345
1775340780360412700,9.58341259765625,0.0054977829568088055,-0.002443459117785096,-0.003665188793092966
1775340780377201700,9.60020166015625,0,0.001221729558892548,-0.009162971749901772
1775340780393991000,9.616990966796875,-0.004276053514331579,0.007330377586185932,-0.003665188793092966
1775340780410780000,9.63377978515625,-0.004276053514331579,0.000610864779446274,-0.014049889519810677
1775340780427569000,9.65056884765625,0.014660755172371864,-0.007941242307424545,-0.002443459117785096
1775340780444358000,9.66735791015625,0.012217295356094837,-0.003665188793092966,-0.006108647678047419
1775340780461147000,9.68414697265625,0.002443459117785096,-0.001221729558892548,0
1775340780477935900,9.700935791015626,0.0054977829568088055,-0.008552107028663158,0.0030543238390237093
1775340780494725000,9.71772509765625,0.0030543238390237093,-0.01282816007733345,0.003665188793092966
1775340780511514000,9.73451416015625,0.017104214057326317,-0.020158538594841957,-0.010384701192378998
1775340780528303000,9.75130322265625,0.01649334840476513,-0.017715077847242355,0.003665188793092966
1775340780545092000,9.768092041015626,0.008552107028663158,-0.013439024798572063,0.004276053514331579
1775340780561881000,9.784881103515625,0.006719512399286032,-0.014660755172371864,0.002443459117785096
1775340780578670000,9.801670166015626,0.010384701192378998,-0.011606430634856224,-0.001832594396546483
1775340780595459300,9.818459228515625,0.01954767294228077,-0.015271619893610477,-0.002443459117785096
1775340780612248300,9.835248291015626,0.020158538594841957,-0.01649334840476513,-0.002443459117785096
1775340780629037300,9.852037353515625,0.01893680728971958,-0.017104214057326317,-0.006108647678047419
1775340780645826300,9.868826416015626,0.010384701192378998,-0.017715077847242355,0.0030543238390237093
1775340780662615300,9.885615234375,0.009773836471140385,-0.017104214057326317,0.001832594396546483
1775340780679404300,9.902404296875,0.01588248461484909,-0.017715077847242355,0.000610864779446274
1775340780696193300,9.919193359375,0.020769402384757996,-0.017104214057326317,0.0054977829568088055
1775340780712982500,9.935982421875,0.021991131827235222,-0.01588248461484909,-0.004886918235570192
1775340780729771500,9.952771484375,0.011606430634856224,-0.01282816007733345,0.010384701192378998
1775340780746560500,9.969560546875,0.009773836471140385,-0.010995565913617611,-0.002443459117785096
1775340780763349500,9.986349609375,0.010995565913617611,-0.006108647678047419,-0.000610864779446274
1775340780780138500,10.003138427734376,0.010384701192378998,-0.004886918235570192,-0.001221729558892548
1775340780796927500,10.019927490234375,0.007941242307424545,-0.004276053514331579,0.000610864779446274
1775340780813716700,10.036716796875,-0.001221729558892548,-0.004886918235570192,-0.009162971749901772
1775340780830505700,10.053505615234375,-0.000610864779446274,-0.000610864779446274,-0.004276053514331579
1775340780847294700,10.070294677734376,0.002443459117785096,0.002443459117785096,-0.01588248461484909
1775340780864083700,10.087083740234375,0.006108647678047419,-0.001832594396546483,0.0054977829568088055
1775340780880872700,10.103872802734376,0.001221729558892548,-0.006108647678047419,-0.014660755172371864
1775340780897661700,10.12066162109375,-0.000610864779446274,-0.001832594396546483,0.004276053514331579
1775340780914451000,10.137450927734376,0.004886918235570192,-0.001832594396546483,-0.01588248461484909
1775340780931240000,10.154239990234375,0.009162971749901772,-0.004276053514331579,0.002443459117785096
1775340780948029000,10.17102880859375,0.004886918235570192,-0.004886918235570192,-0.009773836471140385
1775340780964818000,10.18781787109375,0.001832594396546483,-0.006108647678047419,0
1775340780981607000,10.20460693359375,0.006108647678047419,-0.006108647678047419,-0.0030543238390237093
1775340780998396000,10.22139599609375,0.010995565913617611,-0.006719512399286032,-0.004886918235570192
1775340781015185000,10.238184814453126,0.010384701192378998,-0.008552107028663158,-0.000610864779446274
1775340781031974000,10.254973876953125,0.0030543238390237093,-0.007330377586185932,-0.008552107028663158
1775340781048763100,10.27176318359375,0.002443459117785096,-0.009162971749901772,0.001221729558892548
1775340781065552100,10.28855224609375,0.007941242307424545,-0.009162971749901772,-0.010995565913617611
1775340781082341000,10.305341064453126,0.010995565913617611,-0.010384701192378998,-0.000610864779446274
1775340781099130000,10.322130126953125,0.009773836471140385,-0.010384701192378998,-0.004276053514331579
1775340781115919000,10.338919189453126,0.014049889519810677,-0.01282816007733345,-0.011606430634856224
1775340781132708000,10.3557080078125,0.01282816007733345,-0.013439024798572063,-0.004886918235570192
1775340781149497300,10.372497314453126,0.010384701192378998,-0.014660755172371864,-0.009773836471140385
1775340781166286300,10.389286376953125,0.01893680728971958,-0.01649334840476513,-0.006108647678047419
1775340781183075300,10.406075439453126,0.018325943499803543,-0.015271619893610477,0.001221729558892548
1775340781199864300,10.4228642578125,0.021991131827235222,-0.017715077847242355,-0.004276053514331579
1775340781216653300,10.4396533203125,0.017104214057326317,-0.01954767294228077,0.000610864779446274
1775340781233442300,10.4564423828125,0.01649334840476513,-0.017104214057326317,0.001221729558892548
1775340781250231300,10.473231201171876,0.018325943499803543,-0.01282816007733345,-0.001832594396546483
1775340781267020500,10.4900205078125,0.006108647678047419,-0.006108647678047419,-0.001832594396546483
1775340781283809500,10.5068095703125,0.011606430634856224,-0.007941242307424545,-0.001832594396546483
1775340781300598500,10.5235986328125,0.015271619893610477,-0.010384701192378998,-0.004886918235570192
1775340781317387500,10.540387451171876,0.012217295356094837,-0.010995565913617611,0.001221729558892548
1775340781334176500,10.557176513671875,0.010995565913617611,-0.010995565913617611,-0.004886918235570192
1775340781350965500,10.573965576171876,0.008552107028663158,-0.008552107028663158,0.011606430634856224
1775340781367754500,10.59075439453125,0.008552107028663158,-0.002443459117785096,-0.014049889519810677
1775340781384543500,10.60754345703125,0.011606430634856224,-0.004276053514331579,-0.0030543238390237093
1775340781401332500,10.62433251953125,0.008552107028663158,-0.007330377586185932,0.000610864779446274
1775340781418121700,10.641121826171876,0.009162971749901772,-0.010995565913617611,-0.0054977829568088055
1775340781434910700,10.65791064453125,0.006719512399286032,-0.007330377586185932,-0.012217295356094837
1775340781451699700,10.67469970703125,0.015271619893610477,-0.0054977829568088055,-0.001221729558892548
1775340781468488700,10.69148876953125,0.01954767294228077,-0.009162971749901772,-0.009162971749901772
1775340781485277700,10.708277587890626,0.009773836471140385,-0.004276053514331579,0.006108647678047419
1775340781502067000,10.72506689453125,0.010995565913617611,-0.009162971749901772,-0.004276053514331579
1775340781518856000,10.74185595703125,0.01588248461484909,-0.009162971749901772,0.006108647678047419
1775340781535645000,10.75864501953125,0.013439024798572063,-0.004886918235570192,-0.008552107028663158
1775340781552434000,10.775433837890626,0.008552107028663158,-0.004886918235570192,0.001221729558892548
1775340781569223000,10.792222900390625,0.008552107028663158,-0.009773836471140385,-0.008552107028663158
1775340781586012000,10.809011962890626,0.014660755172371864,-0.013439024798572063,-0.006108647678047419
1775340781602801000,10.82580078125,0.01649334840476513,-0.014049889519810677,-0.004276053514331579
1775340781619590100,10.842590087890626,0.01588248461484909,-0.014049889519810677,-0.007941242307424545
1775340781636379100,10.859379150390625,0.014660755172371864,-0.015271619893610477,-0.000610864779446274
1775340781653168000,10.876168212890626,0.015271619893610477,-0.017104214057326317,-0.006108647678047419
1775340781669957000,10.89295703125,0.0256563201546669,-0.014660755172371864,0.0054977829568088055
1775340781686746000,10.90974609375,0.023823726922273636,-0.012217295356094837,-0.014049889519810677
1775340781703535000,10.92653515625,0.015271619893610477,-0.007330377586185932,0.000610864779446274
1775340781720324400,10.943324462890626,0.015271619893610477,-0.014049889519810677,0.020158538594841957
1775340781737113300,10.96011328125,0.004276053514331579,-0.01282816007733345,0.001221729558892548
1775340781753902300,10.97690234375,0.009162971749901772,-0.014049889519810677,-0.027488915249705315
1775340781770691300,10.99369140625,0.011606430634856224,-0.012217295356094837,0.000610864779446274
1775340781787480600,11.01048046875,0.007941242307424545,-0.004276053514331579,-0.01282816007733345
1775340781804269600,11.02726953125,0.009773836471140385,-0.000610864779446274,-0.007330377586185932
1775340781821058600,11.04405859375,0.001221729558892548,0.003665188793092966,-0.015271619893610477
1775340781837847600,11.06084765625,0.006108647678047419,-0.0030543238390237093,0.011606430634856224
1775340781854636500,11.077636474609376,0.008552107028663158,-0.004276053514331579,-0.003665188793092966
1775340781871425800,11.09442578125,0.000610864779446274,-0.001221729558892548,0.006719512399286032
1775340781888214800,11.11121484375,0.012217295356094837,-0.008552107028663158,-0.0054977829568088055
1775340781905003800,11.128003662109375,0.01588248461484909,-0.01282816007733345,0.008552107028663158
1775340781921792800,11.144792724609376,0.011606430634856224,-0.011606430634856224,-0.010384701192378998
1775340781938581800,11.161581787109375,0.007941242307424545,-0.013439024798572063,0.011606430634856224
1775340781955371000,11.17837109375,0.002443459117785096,-0.010995565913617611,0.01649334840476513
1775340781972160000,11.195159912109375,0.004886918235570192,-0.0054977829568088055,0.004276053514331579
1775340781988949000,11.211948974609374,0.009773836471140385,-0.007330377586185932,0.002443459117785096
1775340782005738000,11.228738037109375,0.015271619893610477,-0.008552107028663158,0.0054977829568088055
1775340782022527200,11.24552734375,0.006719512399286032,-0.007941242307424545,0.010384701192378998
1775340782039316200,11.262316162109375,0.002443459117785096,-0.001832594396546483,0.06047561392188072
1775340782056105200,11.279105224609374,0.003665188793092966,0.0054977829568088055,-0.07147117704153061
1775340782072894200,11.295894287109375,0.002443459117785096,0.0030543238390237093,-0.13561198115348816
1775340782089683500,11.312683349609374,0.018325943499803543,-0.01649334840476513,0.06780599057674408
1775340782106472400,11.329472412109375,0.01954767294228077,-0.02260199747979641,-0.10018182545900345
1775340782123261400,11.346261474609374,0.004886918235570192,-0.01649334840476513,-0.0030543238390237093
1775340782140050400,11.363050537109375,-0.0054977829568088055,-0.0054977829568088055,0.003665188793092966
1775340782156839700,11.379839599609374,0.004276053514331579,0.0030543238390237093,-0.017104214057326317
1775340782173628700,11.396628662109375,-0.006719512399286032,0.009773836471140385,-0.0054977829568088055
1775340782190417700,11.413417724609374,0.002443459117785096,-0.001221729558892548,-0.009162971749901772
1775340782207206700,11.43020654296875,0.020158538594841957,-0.021380268037319183,0.001221729558892548
1775340782223996000,11.446995849609374,0.02260199747979641,-0.033597562462091446,0.03237583488225937
1775340782240785000,11.463784912109375,0.009162971749901772,-0.017104214057326317,0.02932151034474373
1775340782257574000,11.480573974609374,-0.01588248461484909,0.0054977829568088055,0.03848448023200035
1775340782274363000,11.49736279296875,-0.0030543238390237093,0.008552107028663158,-0.026878049597144127
1775340782291152000,11.51415185546875,-0.001221729558892548,0.004886918235570192,0.001221729558892548
1775340782307940900,11.53094091796875,0.007941242307424545,-0.007941242307424545,-0.010384701192378998
1775340782324730000,11.547730224609374,0.027488915249705315,-0.024434590712189674,0.010995565913617611
1775340782341519000,11.56451904296875,0.0030543238390237093,-0.007941242307424545,0.004886918235570192
1775340782358308000,11.58130810546875,-0.007330377586185932,0.0054977829568088055,-0.009162971749901772
1775340782375097300,11.598097412109375,-0.007941242307424545,0.011606430634856224,-0.006719512399286032
1775340782391886300,11.61488623046875,-0.010384701192378998,0.009773836471140385,-0.009162971749901772
1775340782408675300,11.63167529296875,0.010384701192378998,-0.012217295356094837,0.0030543238390237093
1775340782425464300,11.64846435546875,0.006719512399286032,-0.014049889519810677,-0.007330377586185932
1775340782442253300,11.66525341796875,0.006719512399286032,-0.007941242307424545,-0.003665188793092966
1775340782459042600,11.68204248046875,-0.001221729558892548,0.0054977829568088055,-0.0030543238390237093
1775340782475831600,11.69883154296875,0.006108647678047419,-0.000610864779446274,0.011606430634856224
1775340782492620500,11.71562060546875,0.010384701192378998,-0.003665188793092966,-0.018325943499803543
1775340782509409800,11.732409912109375,0.013439024798572063,-0.015271619893610477,-0.009162971749901772
1775340782526198800,11.74919873046875,0.025045456364750862,-0.024434590712189674,-0.001221729558892548
1775340782542987800,11.76598779296875,0.006719512399286032,-0.012217295356094837,-0.004276053514331579
1775340782559776800,11.78277685546875,0.000610864779446274,-0.010384701192378998,0.014049889519810677
1775340782576565800,11.799565673828125,0.009162971749901772,-0.006719512399286032,-0.007330377586185932
1775340782593355000,11.81635498046875,0.010384701192378998,-0.009162971749901772,0.003665188793092966
1775340782610144000,11.83314404296875,0.014660755172371864,-0.014049889519810677,-0.009773836471140385
1775340782626933000,11.84993310546875,0.013439024798572063,-0.020769402384757996,0.000610864779446274
1775340782643722000,11.866721923828125,0.01649334840476513,-0.01893680728971958,0.015271619893610477
1775340782660511200,11.88351123046875,0.009162971749901772,-0.006719512399286032,0.003665188793092966
1775340782677300200,11.90030029296875,0.002443459117785096,-0.000610864779446274,-0.006108647678047419
1775340782694089200,11.917089111328124,0.004886918235570192,-0.0054977829568088055,-0.003665188793092966
1775340782710878200,11.933878173828125,0.0030543238390237093,-0.008552107028663158,-0.008552107028663158
1775340782727667500,11.95066748046875,0.014049889519810677,-0.014660755172371864,-0.004276053514331579
1775340782744456400,11.96745654296875,0.01954767294228077,-0.01588248461484909,0.003665188793092966
1775340782761245400,11.984245361328124,0.01649334840476513,-0.012217295356094837,0.004886918235570192
1775340782778034400,12.001034423828125,0.0054977829568088055,-0.006108647678047419,0.008552107028663158
1775340782794823400,12.017823486328124,-0.0030543238390237093,-0.003665188793092966,0.004886918235570192
1775340782811612700,12.03461279296875,0.010995565913617611,-0.006108647678047419,-0.0054977829568088055
1775340782828401700,12.051401611328124,0.012217295356094837,-0.004886918235570192,-0.0030543238390237093
1775340782845190700,12.068190673828125,0.009773836471140385,-0.007330377586185932,-0.000610864779446274
1775340782861979600,12.084979736328124,0.006108647678047419,-0.007330377586185932,-0.01282816007733345
1775340782878768600,12.1017685546875,-0.001832594396546483,-0.003665188793092966,0.0054977829568088055
1775340782895558000,12.118557861328124,0.001832594396546483,-0.000610864779446274,-0.0030543238390237093
1775340782912347000,12.135346923828125,0.006108647678047419,0.001221729558892548,-0.01649334840476513
1775340782929135900,12.152135986328124,0.004276053514331579,-0.0030543238390237093,0.0030543238390237093
1775340782945924900,12.1689248046875,0.001832594396546483,-0.004886918235570192,-0.006719512399286032
1775340782962714000,12.185714111328124,0.004886918235570192,-0.008552107028663158,0.000610864779446274
1775340782979503000,12.202503173828125,0.009162971749901772,-0.007330377586185932,-0.007941242307424545
1775340782996292000,12.2192919921875,0.006108647678047419,-0.004886918235570192,-0.000610864779446274
1775340783013081000,12.2360810546875,0.0054977829568088055,-0.004886918235570192,-0.003665188793092966
1775340783029870000,12.2528701171875,0.006108647678047419,-0.011606430634856224,0
1775340783046659300,12.269659423828125,0.014660755172371864,-0.017715077847242355,0.002443459117785096
1775340783063448300,12.2864482421875,0.024434590712189674,-0.020769402384757996,-0.01282816007733345
1775340783080237300,12.3032373046875,0.014660755172371864,-0.01282816007733345,0.004276053514331579
1775340783097026300,12.3200263671875,0.001221729558892548,-0.010995565913617611,-0.006719512399286032
1775340783113815300,12.336815185546875,0.010384701192378998,-0.01954767294228077,-0.006108647678047419
1775340783130604500,12.3536044921875,0.020769402384757996,-0.021991131827235222,-0.001221729558892548
1775340783147393500,12.3703935546875,0.02626718580722809,-0.0256563201546669,0
1775340783164182500,12.3871826171875,0.033597562462091446,-0.02932151034474373,-0.006108647678047419
1775340783180971500,12.403971435546875,0.024434590712189674,-0.02626718580722809,0.009162971749901772
1775340783197760500,12.420760498046874,0.01649334840476513,-0.020158538594841957,-0.004276053514331579
1775340783214549800,12.4375498046875,0.01893680728971958,-0.01649334840476513,0.017715077847242355
1775340783231338800,12.4543388671875,0.01282816007733345,-0.009162971749901772,-0.0054977829568088055
1775340783248127700,12.471127685546875,0.017715077847242355,-0.010384701192378998,0.003665188793092966
1775340783264916700,12.487916748046874,0.004886918235570192,-0.0030543238390237093,-0.006108647678047419
1775340783281705700,12.504705810546875,0.002443459117785096,-0.002443459117785096,0.000610864779446274
1775340783298495000,12.521494873046874,0.0030543238390237093,0,-0.009162971749901772
1775340783315284000,12.538283935546875,-0.0030543238390237093,0.001221729558892548,-0.007941242307424545
1775340783332073000,12.555072998046874,0.004886918235570192,0,-0.011606430634856224
1775340783348862000,12.571862060546875,0.000610864779446274,0.003665188793092966,-0.01588248461484909
1775340783365651200,12.588651123046875,0.001221729558892548,-0.000610864779446274,0
1775340783382440200,12.605440185546875,0.009773836471140385,-0.0030543238390237093,-0.014660755172371864
1775340783399229200,12.622229248046875,0.002443459117785096,-0.003665188793092966,0.004886918235570192
1775340783416018200,12.63901806640625,0.006719512399286032,-0.007330377586185932,-0.013439024798572063
1775340783432807200,12.65580712890625,0.01649334840476513,-0.0054977829568088055,-0.002443459117785096
1775340783449596400,12.672596435546875,0.013439024798572063,-0.008552107028663158,0.001832594396546483
1775340783466385400,12.689385498046875,0.018325943499803543,-0.010995565913617611,-0.009162971749901772
1775340783483174400,12.70617431640625,0.011606430634856224,-0.01282816007733345,0.002443459117785096
1775340783499963400,12.72296337890625,0.015271619893610477,-0.011606430634856224,0.001832594396546483
1775340783516752400,12.73975244140625,0.02260199747979641,-0.013439024798572063,-0.003665188793092966
1775340783533541600,12.756541748046875,0.017715077847242355,-0.01649334840476513,0.007941242307424545
1775340783550330600,12.77333056640625,0.01893680728971958,-0.021991131827235222,-0.004886918235570192
1775340783567119600,12.79011962890625,0.014049889519810677,-0.015271619893610477,0.001221729558892548
1775340783583908600,12.80690869140625,0.017104214057326317,-0.010384701192378998,-0.010384701192378998
1775340783600697600,12.823697509765625,0.021991131827235222,-0.017104214057326317,0.0030543238390237093
1775340783617486600,12.840486572265625,0.01954767294228077,-0.009773836471140385,-0.011606430634856224
1775340783634275800,12.85727587890625,0.01649334840476513,-0.010384701192378998,0.006108647678047419
1775340783651064800,12.87406494140625,0.004886918235570192,-0.004276053514331579,0.004276053514331579
1775340783667853800,12.890853759765625,0.01588248461484909,-0.008552107028663158,-0.004276053514331579
1775340783684642800,12.907642822265625,0.018325943499803543,-0.01282816007733345,-0.001832594396546483
1775340783701431800,12.924431884765625,0.008552107028663158,-0.008552107028663158,0
1775340783718221000,12.941220947265625,0.018325943499803543,-0.017715077847242355,-0.001832594396546483
1775340783735010000,12.958010009765625,0.008552107028663158,-0.009773836471140385,-0.001832594396546483
1775340783751799000,12.974799072265625,0.010384701192378998,-0.01588248461484909,0.025045456364750862
1775340783768588000,12.991588134765625,0.007330377586185932,-0.0054977829568088055,-0.014660755172371864
1775340783785377000,13.008376953125,0.010995565913617611,-0.006108647678047419,0.015271619893610477
1775340783802166000,13.025166015625,0.006108647678047419,0.001221729558892548,-0.047036588191986084
1775340783818955300,13.041955322265625,0.004276053514331579,-0.002443459117785096,0.009162971749901772
1775340783835744300,13.058744140625,0.01282816007733345,-0.009773836471140385,-0.007941242307424545
1775340783852533200,13.075533203125,0.0030543238390237093,-0.001221729558892548,-0.001832594396546483
1775340783869322200,13.092322265625,-0.000610864779446274,-0.001221729558892548,0.014660755172371864
1775340783886111200,13.109111328125,0.013439024798572063,-0.003665188793092966,0.006108647678047419
1775340783902900500,13.125900390625,0.007941242307424545,-0.001832594396546483,0.004276053514331579
1775340783919689500,13.142689453125,0.013439024798572063,-0.009773836471140385,-0.014049889519810677
1775340783936478500,13.159478515625,0.01954767294228077,-0.017715077847242355,-0.013439024798572063
1775340783953267500,13.176267333984375,0.006108647678047419,-0.015271619893610477,-0.013439024798572063
1775340783970056400,13.193056396484375,0.009162971749901772,-0.014049889519810677,-0.003665188793092966
1775340783986845400,13.209845458984375,0.014660755172371864,-0.014660755172371864,-0.01649334840476513
1775340784003634400,13.226634521484375,0.013439024798572063,-0.01282816007733345,0.001832594396546483
1775340784020423700,13.243423583984375,0.006108647678047419,-0.003665188793092966,-0.010384701192378998
1775340784037212700,13.260212646484375,0.007941242307424545,-0.006719512399286032,0.0030543238390237093
1775340784054001700,13.277001708984375,0.003665188793092966,-0.001221729558892548,0.017715077847242355
1775340784070790700,13.293790771484375,0.004886918235570192,0.001221729558892548,0.06719512492418289
1775340784087579600,13.31057958984375,0.009162971749901772,-0.007330377586185932,0.11423171311616898
1775340784104368600,13.32736865234375,0.010995565913617611,0.001832594396546483,-0.16615521907806396
1775340784121158000,13.344157958984376,0.010384701192378998,-0.01282816007733345,0.053756099194288254
1775340784137947000,13.36094677734375,-0.014049889519810677,0.004886918235570192,-0.12705987691879272
1775340784154735900,13.37773583984375,0,0.003665188793092966,-0.0360410213470459
1775340784171524900,13.39452490234375,-0.010995565913617611,0.014049889519810677,-0.0030543238390237093
1775340784188313900,13.41131396484375,0.002443459117785096,-0.001221729558892548,-0.03787361457943916
1775340784205102800,13.428102783203125,0.021380268037319183,-0.020158538594841957,-0.040317077189683914
1775340784221892000,13.44489208984375,0.008552107028663158,-0.024434590712189674,0.001221729558892548
1775340784238681000,13.46168115234375,0.004276053514331579,-0.010995565913617611,0.017104214057326317
1775340784255470000,13.478469970703125,-0.01282816007733345,0.012217295356094837,0.009773836471140385
1775340784272259000,13.495259033203125,-0.01649334840476513,0.012217295356094837,0.04581485688686371
1775340784289048000,13.512048095703125,0.011606430634856224,0,-0.033597562462091446
1775340784305837000,13.528837158203125,0.021991131827235222,-0.0256563201546669,0.01282816007733345
1775340784322626000,13.5456259765625,0.020158538594841957,-0.030543239787220955,-0.011606430634856224
1775340784339415000,13.5624150390625,0.021991131827235222,-0.033597562462091446,0.009773836471140385
1775340784356204300,13.579204345703126,0.013439024798572063,-0.01893680728971958,0.023823726922273636
1775340784372993300,13.5959931640625,-0.001221729558892548,0.000610864779446274,-0.021380268037319183
1775340784389782300,13.6127822265625,-0.000610864779446274,0.001832594396546483,-0.001221729558892548
1775340784406571300,13.6295712890625,0.014660755172371864,-0.006108647678047419,0.009162971749901772
1775340784423360300,13.6463603515625,0.017104214057326317,-0.01893680728971958,-0.007330377586185932
1775340784440149200,13.663149169921875,0.021991131827235222,-0.023212861269712448,0.013439024798572063
1775340784456938500,13.6799384765625,0.001832594396546483,-0.010384701192378998,-0.004886918235570192
1775340784473727500,13.6967275390625,-0.000610864779446274,-0.004886918235570192,0.001221729558892548
1775340784490516500,13.7135166015625,-0.000610864779446274,-0.001221729558892548,0.006719512399286032
1775340784507305500,13.730305419921875,0.006108647678047419,-0.000610864779446274,-0.010384701192378998
1775340784524094500,13.747094482421875,0.023212861269712448,-0.017104214057326317,0
1775340784540883500,13.763883544921875,0.013439024798572063,-0.015271619893610477,0.012217295356094837
1775340784557672400,13.78067236328125,0.010384701192378998,-0.006108647678047419,0.0054977829568088055
1775340784574461400,13.79746142578125,0,-0.003665188793092966,0.008552107028663158
1775340784591250700,13.814250732421876,-0.004276053514331579,0.001832594396546483,-0.008552107028663158
1775340784608039700,13.831039794921875,0.004276053514331579,-0.006108647678047419,-0.004276053514331579
1775340784624828700,13.84782861328125,0.002443459117785096,-0.010384701192378998,0.006108647678047419
1775340784641617700,13.86461767578125,0.003665188793092966,-0.011606430634856224,0.002443459117785096
1775340784658406700,13.88140673828125,0.004886918235570192,-0.007941242307424545,0.009162971749901772
1775340784675195600,13.898195556640625,-0.007330377586185932,0.0054977829568088055,-0.001221729558892548
1775340784691985000,13.91498486328125,-0.000610864779446274,0.004886918235570192,0.006719512399286032
1775340784708774000,13.93177392578125,0.01649334840476513,-0.001221729558892548,-0.01954767294228077
1775340784725563000,13.94856298828125,0.009773836471140385,-0.004886918235570192,-0.000610864779446274
1775340784742352000,13.965351806640625,0.01282816007733345,-0.01649334840476513,-0.007330377586185932
1775340784759140900,13.982140869140625,0.01649334840476513,-0.017715077847242355,0.004276053514331579
1775340784775929900,13.998929931640625,0.0054977829568088055,-0.01588248461484909,0.006108647678047419
1775340784792718800,14.01571875,0.007330377586185932,-0.010995565913617611,0.007941242307424545
1775340784809508000,14.032508056640625,0.006108647678047419,-0.0030543238390237093,-0.014049889519810677
1775340784826297000,14.049297119140626,0.014049889519810677,-0.007330377586185932,0.0030543238390237093
1775340784843086000,14.066086181640625,0.01588248461484909,-0.009162971749901772,-0.007941242307424545
1775340784859875000,14.082875,0.009773836471140385,-0.014660755172371864,0
1775340784876664000,14.0996640625,0.015271619893610477,-0.021380268037319183,0.009773836471140385
1775340784893453000,14.116453125,0.017715077847242355,-0.014049889519810677,-0.007330377586185932
1775340784910242000,14.133241943359375,0.009162971749901772,-0.008552107028663158,-0.000610864779446274
1775340784927031000,14.150031005859375,0.006108647678047419,-0.003665188793092966,-0.006719512399286032
1775340784943820000,14.166820068359375,0.0054977829568088055,-0.006719512399286032,-0.014049889519810677
1775340784960609300,14.183609375,0.014049889519810677,-0.015271619893610477,0.010384701192378998
1775340784977398300,14.200398193359375,0.013439024798572063,-0.009162971749901772,-0.017104214057326317
1775340784994187300,14.217187255859375,0.002443459117785096,-0.004276053514331579,0.006719512399286032
1775340785010976300,14.233976318359375,-0.004276053514331579,0.000610864779446274,-0.004276053514331579
1775340785027765200,14.25076513671875,0.001221729558892548,-0.000610864779446274,-0.01954767294228077
1775340785044554200,14.26755419921875,0.017104214057326317,-0.011606430634856224,0.002443459117785096
1775340785061343200,14.28434326171875,0.013439024798572063,-0.010995565913617611,-0.01282816007733345
1775340785078132200,14.30113232421875,0.007941242307424545,-0.01282816007733345,0.004886918235570192
1775340785094921500,14.31792138671875,0.002443459117785096,-0.010384701192378998,-0.001221729558892548
1775340785111710500,14.33471044921875,0.006108647678047419,-0.010384701192378998,-0.003665188793092966
1775340785128499500,14.35149951171875,0.014049889519810677,-0.01282816007733345,-0.003665188793092966
1775340785145288400,14.368288330078125,0.009162971749901772,-0.009773836471140385,-0.006719512399286032
1775340785162077400,14.385077392578125,0.010995565913617611,-0.013439024798572063,-0.0054977829568088055
1775340785178866400,14.401866455078125,0.01282816007733345,-0.011606430634856224,-0.0054977829568088055
1775340785195655400,14.418655517578125,0.01893680728971958,-0.01588248461484909,-0.006719512399286032
1775340785212444700,14.435444580078125,0.02260199747979641,-0.017715077847242355,0.001221729558892548
1775340785229233700,14.452233642578125,0.017715077847242355,-0.017104214057326317,-0.001832594396546483
1775340785246022700,14.469022705078125,0.01282816007733345,-0.017715077847242355,0.000610864779446274
1775340785262811600,14.485811767578125,0.01893680728971958,-0.01954767294228077,-0.0054977829568088055
1775340785279600600,14.5026005859375,0.021380268037319183,-0.01954767294228077,0.0030543238390237093
1775340785296389600,14.5193896484375,0.012217295356094837,-0.014049889519810677,0.009162971749901772
1775340785313178600,14.5361787109375,0.01649334840476513,-0.013439024798572063,-0.0054977829568088055
1775340785329967600,14.552967529296875,0.010384701192378998,-0.009773836471140385,0.009773836471140385
1775340785346756600,14.569756591796875,0.0054977829568088055,-0.002443459117785096,-0.006108647678047419
1775340785363545900,14.5865458984375,0.010995565913617611,-0.0030543238390237093,-0.003665188793092966
1775340785380334800,14.6033349609375,0.009773836471140385,-0.001832594396546483,-0.004276053514331579
1775340785397123800,14.620123779296875,0.008552107028663158,-0.002443459117785096,-0.009162971749901772
1775340785413912800,14.636912841796875,0.001221729558892548,-0.002443459117785096,-0.015271619893610477
1775340785430701800,14.653701904296875,0.0054977829568088055,-0.004276053514331579,0.004276053514331579
1775340785447490800,14.67049072265625,0.004276053514331579,-0.002443459117785096,-0.007330377586185932
1775340785464279800,14.68727978515625,0.0054977829568088055,-0.003665188793092966,-0.006719512399286032
1775340785481068800,14.70406884765625,0.013439024798572063,-0.0054977829568088055,-0.0030543238390237093
1775340785497857800,14.72085791015625,0.010384701192378998,-0.010384701192378998,-0.004276053514331579
1775340785514647000,14.73764697265625,0.007941242307424545,-0.01282816007733345,0.000610864779446274
1775340785531436000,14.75443603515625,0.011606430634856224,-0.007330377586185932,0.002443459117785096
1775340785548225000,14.77122509765625,0.015271619893610477,-0.006719512399286032,0
1775340785565014000,14.788013916015625,0.017715077847242355,-0.008552107028663158,0.004886918235570192
1775340785581803000,14.804802978515625,0.007941242307424545,-0.012217295356094837,-0.003665188793092966
1775340785598592000,14.821592041015625,0.015271619893610477,-0.017715077847242355,0.011606430634856224
1775340785615381000,14.838381103515625,0.017104214057326317,-0.01649334840476513,-0.003665188793092966
1775340785632170000,14.855169921875,0.01588248461484909,-0.009773836471140385,0.0030543238390237093
1775340785648959200,14.871959228515625,0.014660755172371864,-0.004886918235570192,-0.009162971749901772
1775340785665748000,14.888748046875,0.01649334840476513,-0.009162971749901772,-0.0030543238390237093
1775340785682537200,14.905537109375,0.021380268037319183,-0.014660755172371864,-0.009773836471140385
1775340785699326200,14.922326171875,0.01649334840476513,-0.007941242307424545,0.001221729558892548
1775340785716115200,14.939115234375,0.006719512399286032,0.000610864779446274,-0.004886918235570192
1775340785732904200,14.955904296875,0.009162971749901772,-0.004886918235570192,-0.006108647678047419
1775340785749693200,14.972693115234375,0.020158538594841957,-0.014049889519810677,-0.018325943499803543
1775340785766482200,14.989482177734375,0.021991131827235222,-0.01893680728971958,-0.0030543238390237093
1775340785783271200,15.006271240234375,0.007941242307424545,-0.011606430634856224,-0.006719512399286032
1775340785800060200,15.02306005859375,0.014660755172371864,-0.01588248461484909,-0.000610864779446274
1775340785816849200,15.03984912109375,0.009773836471140385,-0.014049889519810677,-0.000610864779446274
1775340785833638400,15.056638427734375,0.011606430634856224,-0.011606430634856224,-0.001221729558892548
1775340785850427400,15.073427490234375,0.015271619893610477,-0.007941242307424545,0.008552107028663158
1775340785867216400,15.09021630859375,0.007941242307424545,-0.0054977829568088055,-0.001832594396546483
1775340785884005400,15.10700537109375,0.017715077847242355,-0.011606430634856224,0
1775340785900794400,15.12379443359375,0.011606430634856224,-0.007330377586185932,-0.024434590712189674
1775340785917583400,15.140583251953124,0.012217295356094837,-0.010995565913617611,0.04153880476951599
1775340785934372400,15.157372314453125,0,0.004276053514331579,-0.030543239787220955
1775340785951161300,15.174161376953125,0.010384701192378998,-0.006108647678047419,0.029932374134659767
1775340785967950300,15.190950439453125,0.0030543238390237093,0.000610864779446274,-0.008552107028663158
1775340785984739300,15.2077392578125,0.007941242307424545,-0.003665188793092966,-0.004276053514331579
1775340786001528300,15.2245283203125,0.012217295356094837,-0.014660755172371864,0.006108647678047419
1775340786018317600,15.241317626953125,0.0054977829568088055,-0.007941242307424545,-0.010384701192378998
1775340786035106600,15.2581064453125,0.007941242307424545,-0.008552107028663158,0.017104214057326317
1775340786051895600,15.2748955078125,0.010995565913617611,-0.006719512399286032,-0.0054977829568088055
1775340786068684500,15.2916845703125,0.009773836471140385,-0.009773836471140385,-0.006108647678047419
1775340786085473500,15.3084736328125,0.004276053514331579,-0.007941242307424545,-0.001221729558892548
1775340786102262500,15.325262451171875,0.010384701192378998,-0.007330377586185932,0.000610864779446274
1775340786119051500,15.342051513671874,0.008552107028663158,-0.0054977829568088055,0.021380268037319183
1775340786135840500,15.358840576171875,0.006719512399286032,0.001221729558892548,0.10445787757635117
1775340786152629500,15.37562939453125,-0.004886918235570192,0.0054977829568088055,-0.07391463965177536
1775340786169418500,15.39241845703125,0.014660755172371864,-0.009162971749901772,-0.08124501258134842
1775340786186207500,15.40920751953125,0,0.000610864779446274,-0.040317077189683914
1775340786202996700,15.425996826171875,0.010995565913617611,-0.017104214057326317,0.003665188793092966
1775340786219785700,15.44278564453125,0.007941242307424545,-0.014660755172371864,-0.0054977829568088055
1775340786236574500,15.459574462890625,-0.013439024798572063,0.004276053514331579,-0.004276053514331579
1775340786253363700,15.47636376953125,0.001832594396546483,0.009162971749901772,-0.02260199747979641
1775340786270152700,15.493152587890625,0.001832594396546483,0.006108647678047419,-0.03237583488225937
1775340786286941700,15.509941650390624,0.015271619893610477,-0.013439024798572063,-0.010995565913617611
1775340786303730700,15.526730712890625,0.020769402384757996,-0.02871064469218254,0.004886918235570192
1775340786320519700,15.543519775390624,0.009162971749901772,-0.018325943499803543,0.009773836471140385
1775340786337308700,15.56030859375,0.0030543238390237093,-0.010995565913617611,0.023823726922273636
1775340786354097700,15.57709765625,-0.011606430634856224,0.004886918235570192,-0.014660755172371864
1775340786370886700,15.59388671875,0.006108647678047419,-0.0030543238390237093,-0.015271619893610477
1775340786387675600,15.610675537109374,0.003665188793092966,-0.007941242307424545,-0.007941242307424545
1775340786404464600,15.627464599609375,0.017715077847242355,-0.02871064469218254,0.007330377586185932
1775340786421253600,15.644253662109374,0.020158538594841957,-0.023212861269712448,0.0030543238390237093
1775340786438043000,15.66104296875,0.0054977829568088055,-0.013439024798572063,0.004276053514331579
1775340786454831900,15.677831787109374,0.007941242307424545,-0.000610864779446274,-0.010995565913617611
1775340786471620900,15.694620849609375,-0.010995565913617611,0.012217295356094837,-0.010995565913617611
1775340786488409900,15.711409912109374,0.006108647678047419,0.000610864779446274,-0.0030543238390237093
1775340786505198800,15.72819873046875,0.01282816007733345,-0.009162971749901772,0.000610864779446274
1775340786521987800,15.74498779296875,0.008552107028663158,-0.010384701192378998,-0.004276053514331579
1775340786538776800,15.76177685546875,0.014049889519810677,-0.015271619893610477,0.006719512399286032
1775340786555565800,15.77856591796875,-0.004276053514331579,-0.004886918235570192,0.007941242307424545
1775340786572354800,15.795354736328125,0.002443459117785096,-0.003665188793092966,-0.01893680728971958
1775340786589143800,15.812143798828124,0.000610864779446274,-0.001832594396546483,-0.000610864779446274
1775340786605932800,15.828932861328125,-0.002443459117785096,0,0.010995565913617611
1775340786622721800,15.8457216796875,0.01282816007733345,-0.009162971749901772,-0.02871064469218254
1775340786639510800,15.8625107421875,0.006719512399286032,-0.010995565913617611,0.014660755172371864
1775340786656299800,15.8792998046875,0.009773836471140385,-0.012217295356094837,-0.001221729558892548
1775340786673088800,15.8960888671875,0.018325943499803543,-0.014660755172371864,-0.009773836471140385
1775340786689877800,15.912877685546874,0.004886918235570192,-0.010384701192378998,0.018325943499803543
1775340786706666800,15.929666748046875,0.007330377586185932,-0.009162971749901772,-0.014660755172371864
1775340786723456000,15.9464560546875,0.009773836471140385,-0.01282816007733345,0.014049889519810677
1775340786740245000,15.963244873046875,0.007330377586185932,-0.006719512399286032,-0.007941242307424545
1775340786757034000,15.980033935546874,0.007330377586185932,-0.004886918235570192,-0.002443459117785096
1775340786773823000,15.996822998046875,0.006108647678047419,-0.004276053514331579,-0.010995565913617611
1775340786790612000,16.013612060546876,0.012217295356094837,-0.009773836471140385,-0.000610864779446274
1775340786807401000,16.03040087890625,0.008552107028663158,-0.012217295356094837,-0.009162971749901772
1775340786824190000,16.04718994140625,0.007330377586185932,-0.010995565913617611,0.001221729558892548
1775340786840979000,16.06397900390625,0.007330377586185932,-0.008552107028663158,-0.008552107028663158
1775340786857768000,16.080767822265624,0.009162971749901772,-0.006719512399286032,0.000610864779446274
1775340786874557000,16.097556884765623,0.009773836471140385,-0.006719512399286032,-0.0054977829568088055
1775340786891346000,16.114345947265626,0.01588248461484909,-0.010384701192378998,-0.001221729558892548
1775340786908135000,16.131135009765625,0.01893680728971958,-0.017715077847242355,-0.0030543238390237093
1775340786924924000,16.147923828125,0.01954767294228077,-0.020769402384757996,0.004276053514331579
1775340786941713000,16.164712890625,0.015271619893610477,-0.01588248461484909,-0.000610864779446274
1775340786958502000,16.181501953125,0.009773836471140385,-0.008552107028663158,-0.0054977829568088055
1775340786975291000,16.198290771484373,0.012217295356094837,-0.008552107028663158,-0.004886918235570192
1775340786992080000,16.215079833984376,0.010995565913617611,-0.008552107028663158,-0.001832594396546483
1775340787008868900,16.231868896484375,0.014660755172371864,-0.018325943499803543,-0.0030543238390237093
1775340787025657900,16.248657958984374,0.011606430634856224,-0.015271619893610477,0.004276053514331579
1775340787042447000,16.265447021484373,0.007941242307424545,-0.010995565913617611,-0.003665188793092966
1775340787059236000,16.282236083984376,0.007330377586185932,-0.004276053514331579,0
1775340787076024600,16.299024658203123,0.003665188793092966,-0.000610864779446274,-0.003665188793092966
1775340787092813600,16.3158134765625,0.008552107028663158,-0.006108647678047419,0.001832594396546483
1775340787109602600,16.3326025390625,0.010384701192378998,-0.008552107028663158,-0.010995565913617611
1775340787126391600,16.3493916015625,0.011606430634856224,-0.014660755172371864,0.001832594396546483
1775340787143180500,16.3661806640625,0.014660755172371864,-0.014049889519810677,-0.0030543238390237093
1775340787159969800,16.3829697265625,0.007330377586185932,-0.0030543238390237093,-0.004886918235570192
1775340787176758800,16.3997587890625,0.004886918235570192,-0.002443459117785096,-0.001221729558892548
1775340787193547800,16.4165478515625,0,0.000610864779446274,-0.010995565913617611
1775340787210336800,16.433336669921875,0.006108647678047419,0.001221729558892548,-0.000610864779446274
1775340787227125800,16.450125732421874,0.009162971749901772,-0.002443459117785096,-0.013439024798572063
1775340787243914800,16.466914794921873,0.003665188793092966,-0.001221729558892548,0.006719512399286032
1775340787260703700,16.483703857421876,-0.006108647678047419,0.003665188793092966,-0.010995565913617611
1775340787277492700,16.50049267578125,-0.008552107028663158,0.0054977829568088055,0.004276053514331579
1775340787294281700,16.51728173828125,0.012217295356094837,0.000610864779446274,-0.01649334840476513
1775340787311070700,16.53407080078125,-0.006719512399286032,0.010384701192378998,-0.004886918235570192
1775340787327859700,16.550859619140624,-0.0030543238390237093,0.001832594396546483,0.003665188793092966
1775340787344648700,16.567648681640627,0.003665188793092966,-0.003665188793092966,0.008552107028663158
1775340787361437700,16.584437744140626,0.002443459117785096,-0.004276053514331579,-0.014660755172371864
1775340787378226700,16.601226806640625,0.021380268037319183,-0.014660755172371864,0.0054977829568088055
1775340787395015700,16.618015625,0.011606430634856224,-0.013439024798572063,-0.008552107028663158
1775340787411804700,16.6348046875,0.014660755172371864,-0.01649334840476513,-0.001221729558892548
1775340787428593700,16.65159375,0.014660755172371864,-0.017104214057326317,-0.003665188793092966
1775340787445382700,16.668382568359377,0.010384701192378998,-0.014660755172371864,-0.007330377586185932
1775340787462171600,16.685171630859376,0.021991131827235222,-0.020158538594841957,-0.001832594396546483
1775340787478960600,16.701960693359375,0.017104214057326317,-0.020158538594841957,-0.006108647678047419
1775340787495749600,16.71874951171875,0.011606430634856224,-0.01893680728971958,0.007330377586185932
1775340787512538600,16.73553857421875,0.009162971749901772,-0.017715077847242355,0.000610864779446274
1775340787529327600,16.75232763671875,0.023212861269712448,-0.02260199747979641,-0.004276053514331579
1775340787546116600,16.76911669921875,0.026878049597144127,-0.023212861269712448,0.004886918235570192
1775340787562905600,16.785905517578126,0.017715077847242355,-0.017104214057326317,-0.008552107028663158
1775340787579694600,16.802694580078125,0.023212861269712448,-0.023212861269712448,0.000610864779446274
1775340787596483600,16.819483642578124,0.009162971749901772,-0.017715077847242355,0.002443459117785096
1775340787613272600,16.8362724609375,0.014049889519810677,-0.015271619893610477,-0.001832594396546483
1775340787630061600,16.8530615234375,0.014049889519810677,-0.006719512399286032,-0.0054977829568088055
1775340787646850600,16.8698505859375,0.007330377586185932,-0.007330377586185932,-0.004886918235570192
1775340787663639600,16.8866396484375,0.014049889519810677,-0.010384701192378998,0.0030543238390237093
1775340787680428500,16.903428466796875,0.003665188793092966,-0.004886918235570192,-0.009162971749901772
1775340787697217500,16.920217529296874,0.013439024798572063,-0.007941242307424545,0.002443459117785096
1775340787714006500,16.937006591796877,0.012217295356094837,-0.006719512399286032,0.002443459117785096
1775340787730795800,16.953795654296876,0.001221729558892548,-0.001221729558892548,-0.004276053514331579
1775340787747584800,16.970584716796875,0.009162971749901772,-0.002443459117785096,0.003665188793092966
1775340787764373500,16.98737353515625,0.006108647678047419,-0.002443459117785096,-0.010384701192378998
1775340787781162800,17.004162841796877,0.014049889519810677,-0.010995565913617611,0.010995565913617611
1775340787797951500,17.020951416015624,0.009162971749901772,-0.007330377586185932,-0.020158538594841957
1775340787814740700,17.03774072265625,0.004886918235570192,-0.007941242307424545,0.010995565913617611
1775340787831529700,17.05452978515625,0.010384701192378998,-0.007941242307424545,-0.010995565913617611
1775340787848318700,17.071318603515625,0.003665188793092966,-0.0030543238390237093,-0.01893680728971958
1775340787865107500,17.088107421875,0.01282816007733345,-0.011606430634856224,0.014049889519810677
1775340787881896700,17.104896728515627,0.014660755172371864,-0.007941242307424545,-0.017104214057326317
1775340787898685700,17.121685791015626,0.0054977829568088055,-0.010384701192378998,-0.001221729558892548
1775340787915474700,17.138474609375,0.017104214057326317,-0.01649334840476513,0.009162971749901772
1775340787932263700,17.155263671875,0.014049889519810677,-0.012217295356094837,-0.006719512399286032
1775340787949052700,17.172052734375,0.006108647678047419,-0.007330377586185932,0.001221729558892548
1775340787965841700,17.188841552734374,0.013439024798572063,-0.006719512399286032,-0.0030543238390237093
1775340787982630700,17.205630615234377,0.013439024798572063,-0.006108647678047419,-0.008552107028663158
1775340787999419600,17.222419677734376,0.012217295356094837,-0.008552107028663158,-0.004886918235570192
1775340788016208600,17.239208740234375,0.012217295356094837,-0.011606430634856224,0.006719512399286032
1775340788032997600,17.25599755859375,0.01282816007733345,-0.007941242307424545,-0.012217295356094837
1775340788049786600,17.27278662109375,0.012217295356094837,-0.007941242307424545,-0.009162971749901772
1775340788066575600,17.28957568359375,0.009162971749901772,-0.004276053514331579,-0.006719512399286032
1775340788083364600,17.306364501953126,0.006719512399286032,0.001221729558892548,0.001221729558892548
1775340788100153600,17.323153564453126,0.01282816007733345,-0.002443459117785096,-0.010384701192378998
1775340788116942600,17.339942626953125,0.009773836471140385,-0.007330377586185932,-0.000610864779446274
1775340788133731600,17.356731689453124,0.009773836471140385,-0.008552107028663158,0.004886918235570192
1775340788150520600,17.3735205078125,0.011606430634856224,-0.009162971749901772,-0.010995565913617611
1775340788167309600,17.3903095703125,0.014049889519810677,-0.010384701192378998,0.006719512399286032
1775340788184098600,17.4070986328125,0.027488915249705315,-0.020158538594841957,0
1775340788200887600,17.423887451171876,0.037262752652168274,-0.0256563201546669,-0.006719512399286032
1775340788217676500,17.440676513671875,0.025045456364750862,-0.021991131827235222,-0.004276053514331579
1775340788234465500,17.457465576171874,0.02871064469218254,-0.021991131827235222,0.011606430634856224
1775340788251254500,17.474254638671876,0.017104214057326317,-0.017104214057326317,0.037262752652168274
1775340788268043500,17.49104345703125,0.006108647678047419,-0.010995565913617611,-0.006108647678047419
1775340788284832500,17.50783251953125,0.01893680728971958,-0.011606430634856224,-0.023212861269712448
1775340788301621500,17.52462158203125,0.011606430634856224,-0.008552107028663158,-0.02260199747979641
1775340788318410500,17.541410400390625,0.007330377586185932,-0.008552107028663158,0.01649334840476513
1775340788335199500,17.558199462890624,0.000610864779446274,-0.001221729558892548,-0.01954767294228077
1775340788351988500,17.574988525390626,-0.004276053514331579,0.001832594396546483,0.009162971749901772
1775340788368777500,17.591777587890626,0.007330377586185932,0.000610864779446274,-0.009162971749901772
1775340788385566500,17.60856640625,0,0.011606430634856224,0.021380268037319183
1775340788402355500,17.62535546875,0.000610864779446274,0.006719512399286032,0.008552107028663158
1775340788419144400,17.64214453125,0.01649334840476513,-0.002443459117785096,-0.003665188793092966
1775340788435933400,17.658933349609374,0.007941242307424545,-0.0030543238390237093,0.01893680728971958
1775340788452722400,17.675722412109376,0.010995565913617611,-0.006719512399286032,-0.007941242307424545
1775340788469511400,17.692511474609375,0.010995565913617611,-0.012217295356094837,0.004886918235570192
1775340788486300400,17.709300537109375,0.0030543238390237093,-0.010384701192378998,0.015271619893610477
1775340788503089400,17.72608935546875,0.006719512399286032,-0.01282816007733345,0.002443459117785096
1775340788519878100,17.742878173828124,0.007941242307424545,-0.011606430634856224,0.01893680728971958
1775340788536667400,17.75966748046875,0.004276053514331579,-0.009773836471140385,0.0616973415017128
1775340788553456400,17.776456298828126,-0.001832594396546483,0.004886918235570192,-0.05925388261675835
1775340788570245000,17.7932451171875,0.006108647678047419,-0.002443459117785096,-0.034208428114652634
1775340788587034400,17.810034423828125,0.007330377586185932,-0.0054977829568088055,-0.04520399495959282
1775340788603823000,17.826822998046875,0.001221729558892548,-0.003665188793092966,-0.09162971377372742
1775340788620612000,17.843612060546874,0.014660755172371864,-0.015271619893610477,0.02626718580722809
1775340788637401000,17.860401123046874,0.007941242307424545,-0.01282816007733345,-0.043982263654470444
1775340788654190000,17.877190185546876,0.013439024798572063,-0.015271619893610477,0.01282816007733345
1775340788670979000,17.89397900390625,0.001832594396546483,-0.003665188793092966,-0.01893680728971958
1775340788687768000,17.91076806640625,0.01954767294228077,-0.012217295356094837,-0.010384701192378998
1775340788704557000,17.92755712890625,0.010384701192378998,-0.009773836471140385,-0.014660755172371864
1775340788721346000,17.944345947265624,0.006719512399286032,-0.013439024798572063,-0.010384701192378998
1775340788738135000,17.961135009765623,0.009773836471140385,-0.01588248461484909,-0.0030543238390237093
1775340788754924000,17.977924072265626,-0.007941242307424545,-0.001221729558892548,-0.009162971749901772
1775340788771713000,17.994713134765625,-0.001221729558892548,0,-0.013439024798572063
1775340788788502000,18.011501953125,0,-0.000610864779446274,-0.007941242307424545
1775340788805291000,18.028291015625,0,-0.0030543238390237093,-0.004276053514331579
1775340788822080000,18.045080078125,0.008552107028663158,-0.007941242307424545,-0.001832594396546483
1775340788838869000,18.061868896484373,-0.0030543238390237093,0.006719512399286032,-0.006719512399286032
1775340788855658000,18.078657958984376,-0.006719512399286032,0.010384701192378998,-0.004276053514331579
1775340788872447000,18.095447021484375,-0.003665188793092966,0.009162971749901772,-0.011606430634856224
1775340788889236000,18.112236083984374,0.004276053514331579,-0.004886918235570192,0.004276053514331579
1775340788906025000,18.12902490234375,0.007941242307424545,-0.014049889519810677,-0.011606430634856224
1775340788922814000,18.14581396484375,0.015271619893610477,-0.01954767294228077,0
1775340788939603000,18.16260302734375,0.010384701192378998,-0.01588248461484909,-0.006719512399286032
1775340788956392000,18.179391845703126,0.007330377586185932,-0.009162971749901772,-0.009773836471140385
1775340788973181000,18.196180908203125,0.007330377586185932,-0.007330377586185932,0.011606430634856224
1775340788989970000,18.212969970703124,0.010384701192378998,-0.001832594396546483,-0.013439024798572063
1775340789006759000,18.229759033203123,0.014049889519810677,-0.010995565913617611,-0.007941242307424545
1775340789023548000,18.2465478515625,0.015271619893610477,-0.020158538594841957,0.010384701192378998
1775340789040337000,18.2633369140625,0.015271619893610477,-0.01954767294228077,-0.015271619893610477
1775340789057126000,18.2801259765625,0.007941242307424545,-0.015271619893610477,0.000610864779446274
1775340789073915000,18.296914794921875,0.012217295356094837,-0.017104214057326317,0.012217295356094837
1775340789090704000,18.313703857421874,0.007941242307424545,-0.009773836471140385,-0.010384701192378998
1775340789107492900,18.330492919921873,0.009162971749901772,-0.01282816007733345,-0.001221729558892548
1775340789124281900,18.34728173828125,0.023212861269712448,-0.017715077847242355,-0.0030543238390237093
1775340789141070600,18.364070556640623,0.017104214057326317,-0.014660755172371864,-0.006719512399286032
1775340789157859800,18.38085986328125,0.01588248461484909,-0.014660755172371864,0.007330377586185932
1775340789174648600,18.397648681640625,0.006719512399286032,-0.008552107028663158,-0.01588248461484909
1775340789191437600,18.4144375,0.011606430634856224,-0.010995565913617611,0.000610864779446274
1775340789208226600,18.4312265625,0.013439024798572063,-0.007330377586185932,-0.004276053514331579
1775340789225015600,18.448015625,0.009773836471140385,-0.010384701192378998,-0.000610864779446274
1775340789241804500,18.464804443359377,0.010384701192378998,-0.010995565913617611,0.002443459117785096
1775340789258593500,18.481593505859376,0.002443459117785096,-0.003665188793092966,-0.015271619893610477
1775340789275382500,18.498382568359375,0.0030543238390237093,-0.0030543238390237093,0.010995565913617611
1775340789292171500,18.515171630859374,0.009162971749901772,-0.001832594396546483,-0.017715077847242355
1775340789308960500,18.53196044921875,0.010384701192378998,-0.004886918235570192,0.000610864779446274
1775340789325749500,18.54874951171875,0.008552107028663158,-0.009162971749901772,-0.006719512399286032
1775340789342538500,18.56553857421875,0.006719512399286032,-0.009162971749901772,-0.015271619893610477
1775340789359327500,18.582327392578126,0.004886918235570192,-0.007941242307424545,0.014660755172371864
1775340789376116500,18.599116455078125,0,0.001832594396546483,-0.017104214057326317
1775340789392905500,18.615905517578124,0.009773836471140385,-0.004276053514331579,-0.003665188793092966
1775340789409694500,18.632694580078127,0,-0.0054977829568088055,0.010384701192378998
1775340789426483500,18.6494833984375,0.007941242307424545,-0.006719512399286032,-0.018325943499803543
1775340789443272400,18.6662724609375,0.015271619893610477,-0.010995565913617611,0.014049889519810677
1775340789460061400,18.6830615234375,0.009773836471140385,-0.007330377586185932,-0.010384701192378998
1775340789476850400,18.699850341796875,0.007330377586185932,-0.006108647678047419,-0.004886918235570192
1775340789493639400,18.716639404296874,-0.000610864779446274,-0.004276053514331579,0.001221729558892548
1775340789510428200,18.73342822265625,0.008552107028663158,-0.004886918235570192,-0.013439024798572063
1775340789527217200,18.750217041015624,0.011606430634856224,-0.006719512399286032,0.007941242307424545
1775340789544006100,18.767006103515627,0.0054977829568088055,-0.002443459117785096,-0.009773836471140385
1775340789560795100,18.783795166015626,0.004886918235570192,-0.006108647678047419,0.000610864779446274
1775340789577584000,18.800584228515625,0.000610864779446274,-0.0054977829568088055,-0.001832594396546483
1775340789594373000,18.817373046875,0.007941242307424545,-0.007330377586185932,-0.0030543238390237093
1775340789611162000,18.834162109375,0.007330377586185932,-0.004276053514331579,-0.001221729558892548
1775340789627951000,18.850951171875,0.007941242307424545,-0.007330377586185932,-0.004886918235570192
1775340789644740000,18.867739990234377,0.010384701192378998,-0.01282816007733345,0.002443459117785096
1775340789661529000,18.884529052734376,0.010995565913617611,-0.014660755172371864,-0.007941242307424545
1775340789678318000,18.901318115234375,0.02626718580722809,-0.021380268037319183,-0.006719512399286032
1775340789695107000,18.918107177734374,0.020769402384757996,-0.02260199747979641,0.001221729558892548
1775340789711896000,18.93489599609375,0.01649334840476513,-0.023212861269712448,-0.004276053514331579
1775340789728685000,18.95168505859375,0.017715077847242355,-0.024434590712189674,-0.001221729558892548
1775340789745474000,18.96847412109375,0.020158538594841957,-0.01893680728971958,0.0030543238390237093
1775340789762263000,18.985262939453126,0.0256563201546669,-0.021380268037319183,-0.009162971749901772
1775340789779052000,19.002052001953125,0.01954767294228077,-0.017104214057326317,0.004886918235570192
1775340789795840800,19.0188408203125,0.009162971749901772,-0.01588248461484909,-0.01588248461484909
1775340789812629800,19.035629638671875,0.013439024798572063,-0.013439024798572063,0.02932151034474373
1775340789829418800,19.052418701171874,0.007330377586185932,-0.004276053514331579,-0.014660755172371864
1775340789846207700,19.069207763671876,0.017104214057326317,-0.009162971749901772,-0.002443459117785096
1775340789862996700,19.085996826171876,0.012217295356094837,-0.010384701192378998,0.007941242307424545
1775340789879785700,19.10278564453125,0.001832594396546483,-0.001832594396546483,-0.009773836471140385
1775340789896574700,19.11957470703125,0.002443459117785096,0.000610864779446274,0.0030543238390237093
1775340789913363700,19.13636376953125,0.004276053514331579,0.003665188793092966,-0.01649334840476513
1775340789930152700,19.153152587890624,0.012217295356094837,-0.004276053514331579,0.0054977829568088055
1775340789946941700,19.169941650390626,0.004886918235570192,-0.0054977829568088055,-0.011606430634856224
1775340789963730700,19.186730712890625,-0.003665188793092966,-0.004886918235570192,-0.006108647678047419
1775340789980519700,19.203519775390625,0.001221729558892548,0,-0.001832594396546483
1775340789997308700,19.22030859375,0.01282816007733345,0,-0.015271619893610477
1775340790014097700,19.23709765625,0.021380268037319183,-0.008552107028663158,0.007941242307424545
1775340790030886700,19.25388671875,0.009773836471140385,-0.010384701192378998,-0.0054977829568088055
1775340790047675400,19.27067529296875,0.004276053514331579,-0.009773836471140385,-0.001832594396546483
1775340790064464400,19.28746435546875,0.014660755172371864,-0.009162971749901772,0.001221729558892548
1775340790081253400,19.30425341796875,0.018325943499803543,-0.009162971749901772,-0.006719512399286032
1775340790098042400,19.32104248046875,0.01649334840476513,-0.011606430634856224,-0.003665188793092966
1775340790114831400,19.337831298828124,0.014049889519810677,-0.013439024798572063,0.002443459117785096
1775340790131620400,19.354620361328124,0.011606430634856224,-0.013439024798572063,0
1775340790148409300,19.371409423828126,0.015271619893610477,-0.013439024798572063,0.002443459117785096
1775340790165198300,19.3881982421875,0.01588248461484909,-0.011606430634856224,-0.001221729558892548
1775340790181987300,19.4049873046875,0.023212861269712448,-0.017715077847242355,-0.004886918235570192
1775340790198776300,19.4217763671875,0.018325943499803543,-0.01649334840476513,-0.004276053514331579
1775340790215565300,19.4385654296875,0.007941242307424545,-0.004886918235570192,-0.004276053514331579
1775340790232354300,19.455354248046874,0.007330377586185932,0.004276053514331579,-0.004886918235570192
1775340790249143000,19.47214306640625,0.009773836471140385,0,-0.0054977829568088055
1775340790265932300,19.488932373046875,0.01893680728971958,-0.0054977829568088055,-0.008552107028663158
1775340790282721000,19.505720947265626,0.01954767294228077,-0.012217295356094837,-0.012217295356094837
1775340790299510000,19.522510009765625,0.0054977829568088055,-0.014049889519810677,0.007330377586185932
1775340790316299000,19.539299072265624,0.001832594396546483,-0.006719512399286032,-0.0054977829568088055
1775340790333088000,19.556087890625,0.011606430634856224,-0.008552107028663158,0.004886918235570192
1775340790349877000,19.572876953125,0.017715077847242355,-0.011606430634856224,0.002443459117785096
1775340790366666000,19.589666015625,0.017104214057326317,-0.012217295356094837,-0.001221729558892548
1775340790383455000,19.606455078125,0.011606430634856224,-0.009162971749901772,-0.006108647678047419
1775340790400244000,19.623243896484375,0.0030543238390237093,-0.004276053514331579,0.012217295356094837
1775340790417033000,19.640032958984374,-0.004276053514331579,-0.0030543238390237093,-0.0030543238390237093
1775340790433822000,19.656822021484373,0.010995565913617611,-0.009773836471140385,0.0054977829568088055
1775340790450610700,19.673610595703124,0.025045456364750862,-0.017715077847242355,-0.008552107028663158
1775340790467399700,19.690399658203123,0.018325943499803543,-0.013439024798572063,-0.009773836471140385
1775340790484188700,19.707188720703126,0.004276053514331579,-0.002443459117785096,-0.021380268037319183
1775340790500977700,19.723977783203125,0.0030543238390237093,-0.000610864779446274,0.014660755172371864
1775340790517766700,19.7407666015625,0.007941242307424545,-0.004886918235570192,-0.017104214057326317
1775340790534555600,19.7575556640625,0.0054977829568088055,-0.004886918235570192,-0.026878049597144127
1775340790551344600,19.7743447265625,0.006719512399286032,-0.0030543238390237093,-0.03481929376721382
1775340790568133600,19.791133544921873,0.017104214057326317,-0.009773836471140385,-0.04276053607463837
1775340790584922600,19.807922607421876,0.010384701192378998,-0.007941242307424545,-0.013439024798572063
1775340790601711600,19.824711669921875,-0.01282816007733345,0.004276053514331579,-0.015271619893610477
1775340790618500600,19.84150048828125,0.009773836471140385,-0.003665188793092966,-0.017715077847242355
1775340790635289300,19.858289306640625,0.02260199747979641,-0.01588248461484909,-0.004276053514331579
1775340790652078600,19.87507861328125,0.023823726922273636,-0.024434590712189674,-0.004886918235570192
1775340790668867300,19.891867431640627,0.017715077847242355,-0.025045456364750862,-0.03909534588456154
1775340790685656300,19.90865625,0.006719512399286032,-0.013439024798572063,-0.024434590712189674
1775340790702445300,19.9254453125,0.010995565913617611,-0.020158538594841957,-0.008552107028663158
1775340790719234300,19.942234375,0.007330377586185932,-0.012217295356094837,0.01282816007733345
1775340790736023300,19.959023193359375,0.01282816007733345,-0.0054977829568088055,-0.001221729558892548
1775340790752812300,19.975812255859374,0.01649334840476513,-0.012217295356094837,0.020769402384757996
