time,seconds_elapsed,z,y,x
1775340638124261400,0.070261474609375,0,0,0
1775340638134261200,0.08026123046875,-0.005786895751953125,0.009552001953125,-0.022991597652435303
1775340638144261400,0.090261474609375,-0.06279754638671875,0.029199600219726562,-0.016864150762557983
1775340638154261200,0.10026123046875,0.03059673309326172,-0.012689590454101562,0.019916236400604248
1775340638164261400,0.110261474609375,-0.026882648468017578,0.00649261474609375,0.020303040742874146
1775340638174261200,0.12026123046875,-0.06252861022949219,0.01202392578125,-0.004060328006744385
1775340638184261400,0.130261474609375,0.0399017333984375,-0.011083602905273438,-0.014791876077651978
1775340638194261200,0.14026123046875,-0.035616397857666016,0.0031261444091796875,0.028638780117034912
1775340638204261400,0.150261474609375,-0.030403614044189453,0.0018444061279296875,0.037830889225006104
1775340638214261200,0.16026123046875,0.03947305679321289,-0.019054412841796875,0.00302046537399292
1775340638224261400,0.170261474609375,-0.036376953125,0.008234024047851562,-0.009474724531173706
1775340638234261200,0.18026123046875,0.012623310089111328,-0.014841079711914062,0.009328916668891907
1775340638244261400,0.190261474609375,0.022862911224365234,-0.005951881408691406,0.02665013074874878
1775340638254261200,0.20026123046875,-0.022082805633544922,0.01615428924560547,-0.0009203404188156128
1775340638264261400,0.210261474609375,0.02509450912475586,-0.005812644958496094,-0.002572089433670044
1775340638274261200,0.22026123046875,-0.018830299377441406,0.0021343231201171875,-0.004203855991363525
1775340638284261400,0.230261474609375,-0.029107093811035156,0.02714252471923828,0.004848584532737732
1775340638294261200,0.24026123046875,0.025913238525390625,-0.018874168395996094,-0.013257980346679688
1775340638304261400,0.250261474609375,-0.028763294219970703,0.015671730041503906,-0.00470384955406189
1775340638314261200,0.26026123046875,-0.005404472351074219,-0.013698577880859375,-0.006738424301147461
1775340638324261400,0.270261474609375,0.0016894340515136719,-0.0013074874877929688,-0.005271106958389282
1775340638334261200,0.28026123046875,-0.022873401641845703,0.0055694580078125,-0.006610661745071411
1775340638344261400,0.290261474609375,0.023083209991455078,0.0021772384643554688,-0.017038196325302124
1775340638354261200,0.30026123046875,-0.01056671142578125,0.007814407348632812,0.0034824758768081665
1775340638364261400,0.310261474609375,-0.034417152404785156,0.0021038055419921875,0.007804811000823975
1775340638374261200,0.32026123046875,0.01516103744506836,-0.006796836853027344,0.00765092670917511
1775340638384261400,0.330261474609375,-0.020908355712890625,0.001953125,0.005753546953201294
1775340638394261200,0.34026123046875,0.010132789611816406,-0.000652313232421875,0.001182466745376587
1775340638404261400,0.350261474609375,0.011274337768554688,0.010344505310058594,0.010176807641983032
1775340638414261200,0.36026123046875,-0.019148826599121094,0.0011510848999023438,0.013710319995880127
1775340638424261400,0.370261474609375,0.014956474304199219,-0.004176139831542969,-0.0033329129219055176
1775340638434261200,0.38026123046875,-0.014902114868164062,0.0008134841918945312,-0.008962452411651611
1775340638444261400,0.390261474609375,-0.011247634887695312,-0.002105712890625,-0.007216125726699829
1775340638454261200,0.40026123046875,0.008853912353515625,-0.008419990539550781,0.006140902638435364
1775340638464261400,0.410261474609375,-0.0350651741027832,0.02471446990966797,0.004121184349060059
1775340638474261200,0.42026123046875,0.0258636474609375,-0.011805534362792969,-0.016534864902496338
1775340638484261400,0.430261474609375,0.01920795440673828,-0.001911163330078125,-0.012093186378479004
1775340638494261200,0.44026123046875,-0.018604755401611328,0.009787559509277344,0.00652649998664856
1775340638504261400,0.450261474609375,0.030536651611328125,-0.019006729125976562,0.001061081886291504
1775340638514261200,0.46026123046875,-0.035945892333984375,0.009001731872558594,-0.009786933660507202
1775340638524261400,0.470261474609375,0.02031087875366211,0.0013799667358398438,-0.006372272968292236
1775340638534261200,0.48026123046875,0.02375030517578125,-0.021592140197753906,0.016213610768318176
1775340638544261400,0.490261474609375,-0.06107044219970703,0.022614479064941406,0.012539416551589966
1775340638554261200,0.50026123046875,0.049733638763427734,-0.017206192016601562,-0.007447928190231323
1775340638564261400,0.510261474609375,-0.03172016143798828,0.013560295104980469,-0.0004298686981201172
1775340638574261200,0.52026123046875,-0.019979476928710938,0.0024662017822265625,0.007695108652114868
1775340638584261400,0.530261474609375,0.04004669189453125,-0.010796546936035156,-0.0028593838214874268
1775340638594261200,0.54026123046875,-0.06541633605957031,0.022447586059570312,-0.012975811958312988
1775340638604261400,0.550261474609375,0.02902507781982422,-0.016884803771972656,-0.0048045814037323
1775340638614261200,0.56026123046875,-0.007050514221191406,-0.0022783279418945312,-0.0004981458187103271
1775340638624261400,0.570261474609375,-0.024959087371826172,0.008139610290527344,-0.004285484552383423
1775340638634261200,0.58026123046875,0.04709196090698242,-0.018166542053222656,-0.01653575897216797
1775340638644261400,0.590261474609375,-0.03160572052001953,0.018255233764648438,-0.012971282005310059
1775340638654261200,0.60026123046875,0.012707233428955078,0.0022344589233398438,-0.005584061145782471
1775340638664261400,0.610261474609375,0.011830806732177734,-0.004530906677246094,0.00396236777305603
1775340638674261200,0.62026123046875,-0.038518428802490234,0.009632110595703125,-0.005165964365005493
1775340638684261400,0.630261474609375,0.02397632598876953,-0.00862884521484375,-0.006617724895477295
1775340638694261200,0.64026123046875,0.007433891296386719,0.00925445556640625,0.008251503109931946
1775340638704261400,0.650261474609375,-0.02613973617553711,0.0189056396484375,0.020041167736053467
1775340638714261200,0.66026123046875,0.025032520294189453,-0.011356353759765625,0.007509082555770874
1775340638724261400,0.670261474609375,0.000043392181396484375,-0.0022792816162109375,0.004028379917144775
1775340638734261200,0.68026123046875,0.00900888442993164,-0.010327339172363281,0.01552891731262207
1775340638744261400,0.690261474609375,0.03443336486816406,-0.007954597473144531,0.00802534818649292
1775340638754261200,0.70026123046875,-0.043691158294677734,0.010527610778808594,-0.000015556812286376953
1775340638764261400,0.710261474609375,0.03828763961791992,-0.02161121368408203,-0.0030981898307800293
1775340638774261200,0.72026123046875,-0.006775379180908203,-0.005160331726074219,-0.00994950532913208
1775340638784261400,0.730261474609375,-0.006669521331787109,0.015974044799804688,0.011435449123382568
1775340638794261200,0.74026123046875,0.0065326690673828125,0.0033779144287109375,0.009037449955940247
1775340638804261400,0.750261474609375,-0.022220611572265625,0.010344505310058594,-0.03879415988922119
1775340638814261200,0.76026123046875,0.06981182098388672,-0.023077011108398438,-0.04344460368156433
1775340638824261400,0.770261474609375,-0.01270914077758789,0.006581306457519531,0.031546831130981445
1775340638834261200,0.78026123046875,-0.036165714263916016,0.014903068542480469,0.042752355337142944
1775340638844261400,0.790261474609375,0.008348941802978516,-0.007901191711425781,-0.015406548976898193
1775340638854261200,0.80026123046875,-0.040068626403808594,0.02474498748779297,-0.04808112978935242
1775340638864261400,0.810261474609375,0.03150510787963867,-0.020441055297851562,-0.0038602054119110107
1775340638874261200,0.82026123046875,0.023616790771484375,-0.012923240661621094,0.03951840102672577
1775340638884261400,0.830261474609375,-0.027081966400146484,0.017515182495117188,0.029197126626968384
1775340638894261200,0.84026123046875,0.05768013000488281,-0.00785064697265625,-0.014771044254302979
1775340638904261400,0.850261474609375,-0.053277015686035156,0.03560066223144531,0.005094483494758606
1775340638914261200,0.86026123046875,-0.015489578247070312,0.009748458862304688,0.010351389646530151
1775340638924261400,0.870261474609375,0.054320335388183594,-0.03525733947753906,-0.008784055709838867
1775340638934261200,0.88026123046875,-0.09646415710449219,0.042677879333496094,-0.0002441704273223877
1775340638944261400,0.890261474609375,0.03412914276123047,-0.008348464965820312,0.00528910756111145
1775340638954261200,0.90026123046875,-0.0035657882690429688,-0.010671615600585938,0.014402493834495544
1775340638964261400,0.910261474609375,-0.10409212112426758,0.033987998962402344,-0.014583110809326172
1775340638974261200,0.92026123046875,0.14636564254760742,-0.07126140594482422,-0.028950482606887817
1775340638984261400,0.930261474609375,-0.035938262939453125,0.02260303497314453,0.0005903244018554688
1775340638994261200,0.94026123046875,-0.035170555114746094,0.011385917663574219,0.012627005577087402
1775340639004261400,0.950261474609375,0.11535835266113281,-0.03915214538574219,0.01130889356136322
1775340639014261200,0.96026123046875,-0.07965850830078125,0.029523849487304688,-0.008752614259719849
1775340639024261400,0.970261474609375,0.016194820404052734,-0.0021238327026367188,-0.027923256158828735
1775340639034261200,0.98026123046875,0.03503561019897461,-0.0038576126098632812,0.004716157913208008
1775340639044261400,0.990261474609375,-0.11055755615234375,0.041179656982421875,0.04037018120288849
1775340639054261200,1.00026123046875,0.0633540153503418,-0.011147499084472656,0.006565719842910767
1775340639064261400,1.010261474609375,-0.008343696594238281,0.004665374755859375,-0.00778624415397644
1775340639074261200,1.02026123046875,-0.053639888763427734,0.017525672912597656,-0.004088908433914185
1775340639084261400,1.030261474609375,0.10987663269042969,-0.03350257873535156,0.012913286685943604
1775340639094261200,1.04026123046875,-0.05063629150390625,0.016048431396484375,0.014404445886611938
1775340639104261400,1.050261474609375,0.02120828628540039,-0.0038204193115234375,-0.02020081877708435
1775340639114261200,1.06026123046875,0.06666803359985352,-0.02392101287841797,-0.01337459683418274
1775340639124261400,1.070261474609375,-0.05525541305541992,0.02032470703125,-0.008542895317077637
1775340639134261200,1.08026123046875,0.03173398971557617,-0.02949047088623047,-0.009300947189331055
1775340639144261400,1.090261474609375,-0.002871990203857422,0.0026988983154296875,-0.018232107162475586
1775340639154261200,1.10026123046875,-0.0499424934387207,0.007166862487792969,0.004355251789093018
1775340639164261400,1.110261474609375,0.017621994018554688,-0.0060272216796875,0.0014318525791168213
1775340639174261200,1.12026123046875,-0.006827831268310547,0.01125335693359375,0.011408805847167969
1775340639184261400,1.130261474609375,-0.02481985092163086,0.0008802413940429688,0.003991037607192993
1775340639194261200,1.14026123046875,0.03818798065185547,-0.012792587280273438,0.005178898572921753
1775340639204261400,1.150261474609375,0.028196334838867188,-0.006243705749511719,0.014234289526939392
1775340639214261200,1.16026123046875,-0.0615386962890625,0.022630691528320312,0.019571930170059204
1775340639224261400,1.170261474609375,0.06562519073486328,-0.026452064514160156,0.0016110241413116455
1775340639234261200,1.18026123046875,-0.03609514236450195,0.01874542236328125,-0.0038093626499176025
1775340639244261400,1.190261474609375,0.015722274780273438,0.0010042190551757812,0.0004234611988067627
1775340639254261200,1.20026123046875,0.054062843322753906,-0.012480735778808594,-0.006929218769073486
1775340639264261400,1.210261474609375,-0.06696510314941406,0.03611183166503906,-0.017884939908981323
1775340639274261200,1.22026123046875,0.051015377044677734,-0.02845478057861328,-0.012777358293533325
1775340639284261400,1.230261474609375,-0.013460636138916016,0.013186454772949219,0.004977628588676453
1775340639294261200,1.24026123046875,0.0009980201721191406,0.00038909912109375,0.011938929557800293
1775340639304261400,1.250261474609375,0.008730411529541016,-0.002307891845703125,0.0004767775535583496
1775340639314261200,1.26026123046875,0.01595783233642578,-0.00006198883056640625,-0.010128885507583618
1775340639324261400,1.270261474609375,0.034517765045166016,-0.0077686309814453125,0.014669090509414673
1775340639334261200,1.28026123046875,0.02745676040649414,-0.010494232177734375,0.017928913235664368
1775340639344261400,1.290261474609375,0.046021461486816406,-0.0015964508056640625,0.011556446552276611
1775340639354261200,1.30026123046875,-0.06601381301879883,0.040256500244140625,0.001978635787963867
1775340639364261400,1.310261474609375,0.024553775787353516,-0.01279449462890625,0.019748538732528687
1775340639374261200,1.32026123046875,0.010043621063232422,0.0031709671020507812,0.02754455804824829
1775340639384261400,1.330261474609375,-0.049872398376464844,0.013371467590332031,0.011164337396621704
1775340639394261200,1.34026123046875,0.03543663024902344,-0.024789810180664062,-0.019535034894943237
1775340639404261400,1.350261474609375,-0.0346531867980957,0.0072536468505859375,-0.02347046136856079
1775340639414261200,1.36026123046875,-0.04088735580444336,-0.005198478698730469,-0.02155172824859619
1775340639424261400,1.370261474609375,0.049035072326660156,-0.02909374237060547,-0.015374988317489624
1775340639434261200,1.38026123046875,-0.03714561462402344,-0.004000663757324219,0.0013206005096435547
1775340639444261400,1.390261474609375,0.023499488830566406,-0.02521991729736328,-0.014423578977584839
1775340639454261200,1.40026123046875,0.04332733154296875,-0.009914398193359375,-0.036284565925598145
1775340639464261400,1.410261474609375,-0.04652070999145508,0.019133567810058594,-0.02985590696334839
1775340639474261200,1.42026123046875,0.058467864990234375,-0.009305953979492188,-0.019346654415130615
1775340639484261400,1.430261474609375,-0.017184734344482422,0.0023698806762695312,0.016881078481674194
1775340639494261200,1.44026123046875,-0.02405071258544922,0.014403343200683594,0.02512538433074951
1775340639504261400,1.450261474609375,0.06696939468383789,-0.027362823486328125,0.012443333864212036
1775340639514261200,1.46026123046875,-0.08563375473022461,0.02266216278076172,-0.013370990753173828
1775340639524261400,1.470261474609375,0.041272640228271484,-0.01601123809814453,-0.026058614253997803
1775340639534261200,1.48026123046875,0.042116641998291016,0.000274658203125,0.01717197895050049
1775340639544261400,1.490261474609375,-0.022745609283447266,0.015615463256835938,0.043365076184272766
1775340639554261200,1.50026123046875,0.07303810119628906,-0.014527320861816406,0.02062581479549408
1775340639564261400,1.510261474609375,-0.061524391174316406,0.02345561981201172,-0.006999015808105469
1775340639574261200,1.52026123046875,0.05612897872924805,-0.015845298767089844,-0.02403685450553894
1775340639584261400,1.530261474609375,-0.03454256057739258,0.00836181640625,0.0016131103038787842
1775340639594261200,1.54026123046875,-0.05001497268676758,0.010974884033203125,0.006858929991722107
1775340639604261400,1.550261474609375,0.08539962768554688,-0.023618698120117188,-0.009470492601394653
1775340639614261200,1.56026123046875,-0.06506729125976562,0.03228950500488281,0.0019828081130981445
1775340639624261400,1.570261474609375,0.04379701614379883,-0.015568733215332031,-0.011659860610961914
1775340639634261200,1.58026123046875,0.039763450622558594,-0.030435562133789062,-0.023889601230621338
1775340639644261400,1.590261474609375,-0.06912803649902344,0.009455680847167969,-0.020680338144302368
1775340639654261200,1.60026123046875,0.055821895599365234,-0.018039703369140625,-0.018006205558776855
1775340639664261400,1.610261474609375,-0.09676074981689453,-0.013468742370605469,-0.007578819990158081
1775340639674261200,1.62026123046875,0.08539724349975586,0.02131175994873047,0.031409889459609985
1775340639684261400,1.630261474609375,-0.0520024299621582,0.0016622543334960938,0.0520767867565155
1775340639694261200,1.64026123046875,-0.05817461013793945,0.05208110809326172,-0.04911717772483826
1775340639704261400,1.650261474609375,0.13289451599121094,-0.07090282440185547,-0.042075514793395996
1775340639714261200,1.66026123046875,-0.13235855102539062,0.04990673065185547,0.04121369123458862
1775340639724261400,1.670261474609375,0.059999942779541016,-0.01677417755126953,0.0658784806728363
1775340639734261200,1.68026123046875,0.07259273529052734,-0.008729934692382812,0.019545748829841614
1775340639744261400,1.690261474609375,-0.19429540634155273,0.08763599395751953,-0.03284713625907898
1775340639754261200,1.70026123046875,0.12079286575317383,-0.04429340362548828,-0.0580880343914032
1775340639764261400,1.710261474609375,-0.015883922576904297,0.0033464431762695312,0.006514251232147217
1775340639774261200,1.72026123046875,-0.0701913833618164,0.03249549865722656,0.03506714105606079
1775340639784261400,1.730261474609375,0.10652685165405273,-0.03449535369873047,-0.0045698583126068115
1775340639794261200,1.74026123046875,-0.06517934799194336,0.040038108825683594,-0.00248149037361145
1775340639804261400,1.750261474609375,0.015952110290527344,-0.02562713623046875,-0.013698011636734009
1775340639814261200,1.76026123046875,0.08603191375732422,-0.049041748046875,-0.011404961347579956
1775340639824261400,1.770261474609375,-0.06619691848754883,0.03016376495361328,-0.0010584592819213867
1775340639834261200,1.78026123046875,0.0515284538269043,-0.016533851623535156,0.02897050976753235
1775340639844261400,1.790261474609375,0.008067607879638672,0.0033273696899414062,0.03679049015045166
1775340639854261200,1.80026123046875,-0.004997730255126953,0.0015382766723632812,0.01333114504814148
1775340639864261400,1.810261474609375,0.028879642486572266,-0.02916431427001953,-0.03677740693092346
1775340639874261200,1.82026123046875,-0.11754226684570312,0.05404472351074219,-0.03580540418624878
1775340639884261400,1.830261474609375,0.06075000762939453,-0.027425765991210938,-0.012907266616821289
1775340639894261200,1.84026123046875,-0.026563167572021484,-0.003192901611328125,0.013592451810836792
1775340639904261400,1.850261474609375,-0.061926841735839844,0.03411102294921875,0.008938655257225037
1775340639914261200,1.86026123046875,0.0929708480834961,-0.022357940673828125,-0.01269298791885376
1775340639924261400,1.870261474609375,-0.09177827835083008,0.03397560119628906,-0.031572043895721436
1775340639934261200,1.88026123046875,0.055941104888916016,-0.03540611267089844,-0.03702530264854431
1775340639944261400,1.890261474609375,0.037445068359375,-0.025977134704589844,0.0020025968551635742
1775340639954261200,1.90026123046875,-0.05184745788574219,0.02427959442138672,0.04127880930900574
1775340639964261400,1.910261474609375,0.07911491394042969,-0.02739429473876953,0.0400049090385437
1775340639974261200,1.92026123046875,-0.05539894104003906,0.029130935668945312,0.009658217430114746
1775340639984261400,1.930261474609375,-0.024145126342773438,0.013407707214355469,-0.004119664430618286
1775340639994261200,1.94026123046875,0.06427335739135742,-0.009924888610839844,0.04376256465911865
1775340640004261400,1.950261474609375,-0.08041954040527344,0.04038238525390625,0.09207980334758759
1775340640014261200,1.96026123046875,-0.002475738525390625,-0.0036401748657226562,0.013537704944610596
1775340640024261400,1.970261474609375,0.040955543518066406,-0.033972740173339844,-0.09782841801643372
1775340640034261200,1.98026123046875,-0.06793212890625,0.04957103729248047,-0.05265069007873535
1775340640044261400,1.990261474609375,0.08113336563110352,-0.03225994110107422,0.04659225046634674
1775340640054261200,2.00026123046875,0.02591419219970703,-0.002147674560546875,0.028975993394851685
1775340640064261400,2.010261474609375,-0.043914794921875,0.03561210632324219,-0.0688830316066742
1775340640074261200,2.02026123046875,0.058690547943115234,-0.040246009826660156,-0.09921818971633911
1775340640084261400,2.030261474609375,0.024913311004638672,0.0027036666870117188,-0.04242587089538574
1775340640094261200,2.04026123046875,-0.09119558334350586,0.03604316711425781,0.026668161153793335
1775340640104261400,2.050261474609375,0.09978246688842773,-0.03954887390136719,0.012708038091659546
1775340640114261200,2.06026123046875,-0.059628963470458984,0.03670215606689453,0.03220099210739136
1775340640124261400,2.070261474609375,-0.058214664459228516,0.02662181854248047,0.05507926642894745
1775340640134261200,2.08026123046875,0.10422897338867188,-0.04092216491699219,0.05157887935638428
1775340640144261400,2.090261474609375,-0.09046268463134766,0.03792858123779297,0.02866549789905548
1775340640154261200,2.10026123046875,0.06780004501342773,-0.021778106689453125,0.010333925485610962
1775340640164261400,2.110261474609375,0.0890054702758789,-0.02598285675048828,0.058270350098609924
1775340640174261200,2.12026123046875,-0.08487796783447266,0.029770851135253906,0.07475924491882324
1775340640184261400,2.130261474609375,0.11932182312011719,-0.06591224670410156,0.0025832802057266235
1775340640194261200,2.14026123046875,-0.04039430618286133,0.015778541564941406,-0.0760888159275055
1775340640204261400,2.150261474609375,-0.05512714385986328,0.018718719482421875,-0.06635111570358276
1775340640214261200,2.16026123046875,0.06581354141235352,-0.02707958221435547,-0.02058631181716919
1775340640224261400,2.170261474609375,-0.0510096549987793,0.014642715454101562,-0.032350122928619385
1775340640234261200,2.18026123046875,0.013041019439697266,-0.019014358520507812,-0.05986890196800232
1775340640244261400,2.190261474609375,0.0434412956237793,-0.0050678253173828125,-0.04245308041572571
1775340640254261200,2.20026123046875,-0.055472373962402344,0.014699935913085938,-0.017576158046722412
1775340640264261400,2.210261474609375,0.01563262939453125,-0.022667884826660156,-0.046106427907943726
1775340640274261200,2.22026123046875,0.0025811195373535156,-0.003673553466796875,-0.034710705280303955
1775340640284261400,2.230261474609375,-0.020822525024414062,0.005627632141113281,0.03951556980609894
1775340640294261200,2.24026123046875,0.06279277801513672,-0.009077072143554688,0.08001969754695892
1775340640304261400,2.250261474609375,-0.021944522857666016,0.0062618255615234375,0.06614284217357635
1775340640314261200,2.26026123046875,-0.003108978271484375,-0.010994911193847656,0.04517851769924164
1775340640324261400,2.270261474609375,0.039974212646484375,-0.008562088012695312,0.03637665510177612
1775340640334261200,2.28026123046875,-0.0014309883117675781,0.014065742492675781,0.06978322565555573
1775340640344261400,2.290261474609375,-0.009963512420654297,0.015604019165039062,0.055124133825302124
1775340640354261200,2.30026123046875,0.050023555755615234,-0.019042015075683594,0.014723405241966248
1775340640364261400,2.310261474609375,-0.017258167266845703,-0.001300811767578125,-0.00036178529262542725
1775340640374261200,2.32026123046875,-0.08462285995483398,0.027757644653320312,-0.03702670335769653
1775340640384261400,2.330261474609375,0.07338714599609375,-0.041413307189941406,-0.0691225528717041
1775340640394261200,2.34026123046875,-0.0639643669128418,0.02668285369873047,-0.04662969708442688
1775340640404261400,2.350261474609375,0.03551197052001953,-0.011257171630859375,-0.04876124858856201
1775340640414261200,2.36026123046875,0.0564422607421875,-0.029981613159179688,-0.056674033403396606
1775340640424261400,2.370261474609375,-0.06891345977783203,0.04258155822753906,-0.06317642331123352
1775340640434261200,2.38026123046875,0.0862274169921875,-0.013924598693847656,-0.02222856879234314
1775340640444261400,2.390261474609375,-0.04949617385864258,0.024758338928222656,0.020882010459899902
1775340640454261200,2.40026123046875,-0.002975940704345703,0.0051784515380859375,0.03251442313194275
1775340640464261400,2.410261474609375,0.0666813850402832,-0.032561302185058594,0.05964866280555725
1775340640474261200,2.42026123046875,-0.035573482513427734,0.0037736892700195312,0.07135070860385895
1775340640484261400,2.430261474609375,0.04326343536376953,-0.005316734313964844,0.05240711569786072
1775340640494261200,2.44026123046875,-0.0106048583984375,0.016241073608398438,0.04840819537639618
1775340640504261400,2.450261474609375,0.005237579345703125,0.0076808929443359375,0.032253414392471313
1775340640514261200,2.46026123046875,0.04137372970581055,-0.028352737426757812,0.024711862206459045
1775340640524261400,2.470261474609375,0.00220489501953125,0.00115203857421875,0.005342304706573486
1775340640534261200,2.48026123046875,-0.03607654571533203,0.012752532958984375,-0.02757975459098816
1775340640544261400,2.490261474609375,-0.021022796630859375,0.025424957275390625,-0.06472709774971008
1775340640554261200,2.50026123046875,-0.017173290252685547,-0.010840415954589844,-0.07553115487098694
1775340640564261400,2.510261474609375,0.004918098449707031,-0.011595726013183594,-0.07923072576522827
1775340640574261200,2.52026123046875,0.016535282135009766,-0.0059032440185546875,-0.05923646688461304
1775340640584261400,2.530261474609375,-0.018860340118408203,0.018387794494628906,-0.04404342174530029
1775340640594261200,2.54026123046875,0.050538063049316406,-0.008658409118652344,-0.025933831930160522
1775340640604261400,2.550261474609375,-0.0027933120727539062,0.0009202957153320312,-0.012024611234664917
1775340640614261200,2.56026123046875,0.0004830360412597656,-0.01336669921875,0.01815873384475708
1775340640624261400,2.570261474609375,0.05400419235229492,-0.013913154602050781,0.060690075159072876
1775340640634261200,2.58026123046875,-0.032651424407958984,0.037827491760253906,0.09360232949256897
1775340640644261400,2.590261474609375,-0.021520137786865234,0.016744613647460938,0.06667126715183258
1775340640654261200,2.60026123046875,0.02162647247314453,0.0046138763427734375,0.06022500991821289
1775340640664261400,2.610261474609375,0.010443687438964844,0.010976791381835938,0.052374958992004395
1775340640674261200,2.62026123046875,-0.0004782676696777344,0.008126258850097656,0.04222118854522705
1775340640684261400,2.630261474609375,0.026116371154785156,0.007869720458984375,0.005800783634185791
1775340640694261200,2.64026123046875,0.030339717864990234,0.0016908645629882812,-0.017929166555404663
1775340640704261400,2.650261474609375,-0.02751445770263672,0.0010728836059570312,-0.068011075258255
1775340640714261200,2.66026123046875,0.04187202453613281,-0.05513572692871094,-0.08511203527450562
1775340640724261400,2.670261474609375,-0.009821891784667969,-0.009510993957519531,-0.09124109148979187
1775340640734261200,2.68026123046875,-0.023315906524658203,-0.0032806396484375,-0.09617924690246582
1775340640744261400,2.690261474609375,0.01803731918334961,-0.018596649169921875,-0.07612836360931396
1775340640754261200,2.70026123046875,-0.054976463317871094,0.016831398010253906,-0.03506582975387573
1775340640764261400,2.710261474609375,0.02188587188720703,-0.02930450439453125,-0.019628077745437622
1775340640774261200,2.72026123046875,0.07007408142089844,-0.013958930969238281,0.002626657485961914
1775340640784261400,2.730261474609375,-0.0673069953918457,0.04199504852294922,0.05466178059577942
1775340640794261200,2.74026123046875,0.04951286315917969,-0.0036439895629882812,0.07078193128108978
1775340640804261400,2.750261474609375,-0.003127574920654297,0.007359504699707031,0.06790362298488617
1775340640814261200,2.76026123046875,-0.05074167251586914,0.012860298156738281,0.10873618721961975
1775340640824261400,2.770261474609375,0.02379465103149414,-0.0010156631469726562,0.10395252704620361
1775340640834261200,2.78026123046875,-0.000026702880859375,0.012488365173339844,0.05408234894275665
1775340640844261400,2.790261474609375,-0.04288291931152344,0.022881507873535156,-0.00577932596206665
1775340640854261200,2.80026123046875,0.0653986930847168,-0.02225780487060547,-0.05010417103767395
1775340640864261400,2.810261474609375,-0.007935523986816406,-0.00176239013671875,-0.023141980171203613
1775340640874261200,2.82026123046875,0.006672382354736328,-0.015969276428222656,-0.01362907886505127
1775340640884261400,2.830261474609375,0.004765033721923828,-0.022475242614746094,-0.04243019223213196
1775340640894261200,2.84026123046875,0.006818294525146484,-0.0007352828979492188,-0.10338172316551208
1775340640904261400,2.850261474609375,0.020309925079345703,-0.015167236328125,-0.1093045175075531
1775340640914261200,2.86026123046875,0.02814340591430664,0.00017833709716796875,-0.061054497957229614
1775340640924261400,2.870261474609375,-0.01803874969482422,0.014513969421386719,0.0012192130088806152
1775340640934261200,2.88026123046875,0.0003871917724609375,0.010130882263183594,0.03590679168701172
1775340640944261400,2.890261474609375,-0.054907798767089844,0.0286865234375,0.06547068059444427
1775340640954261200,2.90026123046875,0.005272865295410156,0.019568443298339844,0.04645097255706787
1775340640964261400,2.910261474609375,0.014321327209472656,-0.000728607177734375,0.060899823904037476
1775340640974261200,2.92026123046875,-0.015301227569580078,0.0073375701904296875,0.09963235259056091
1775340640984261400,2.930261474609375,-0.002952098846435547,-0.0012006759643554688,0.0896911472082138
1775340640994261200,2.94026123046875,-0.012845516204833984,0.004769325256347656,0.07154469192028046
1775340641004261400,2.950261474609375,-0.036774635314941406,-0.0029239654541015625,0.02346813678741455
1775340641014261200,2.96026123046875,0.06300926208496094,-0.035233497619628906,-0.019492000341415405
1775340641024261400,2.970261474609375,-0.03728342056274414,0.01859760284423828,-0.017805442214012146
1775340641034261200,2.98026123046875,-0.02131366729736328,0.011564254760742188,-0.03531506657600403
1775340641044261400,2.990261474609375,0.05751180648803711,-0.02552318572998047,-0.06794044375419617
1775340641054261200,3.00026123046875,-0.06251287460327148,0.01759052276611328,-0.09289273619651794
1775340641064261400,3.010261474609375,0.038781166076660156,-0.028589248657226562,-0.08931949734687805
1775340641074261200,3.02026123046875,0.01907062530517578,0.004100799560546875,-0.05527690052986145
1775340641084261400,3.030261474609375,-0.025336265563964844,0.03603935241699219,-0.029236555099487305
1775340641094261200,3.04026123046875,0.04416704177856445,0.002643585205078125,-0.014144301414489746
1775340641104261400,3.050261474609375,0.017441749572753906,0.020537376403808594,0.02814362943172455
1775340641114261200,3.06026123046875,-0.0037832260131835938,0.0039501190185546875,0.057702869176864624
1775340641124261400,3.070261474609375,0.032314300537109375,-0.002471923828125,0.04578578472137451
1775340641134261200,3.08026123046875,-0.03723573684692383,0.03075122833251953,0.07708537578582764
1775340641144261400,3.090261474609375,-0.01776599884033203,-0.0007696151733398438,0.08971115946769714
1775340641154261200,3.10026123046875,0.07546472549438477,-0.02869892120361328,0.08334508538246155
1775340641164261400,3.110261474609375,-0.04364824295043945,0.014795303344726562,0.04931022226810455
1775340641174261200,3.12026123046875,0.026846885681152344,-0.024570465087890625,0.011565685272216797
1775340641184261400,3.130261474609375,0.03352928161621094,-0.018329620361328125,-0.031449735164642334
1775340641194261200,3.14026123046875,-0.06439924240112305,-0.0014019012451171875,-0.051189273595809937
1775340641204261400,3.150261474609375,0.02486276626586914,-0.03497600555419922,-0.049977123737335205
1775340641214261200,3.16026123046875,-0.031902313232421875,-0.0020608901977539062,-0.04008081555366516
1775340641224261400,3.170261474609375,0.030358314514160156,-0.019962310791015625,-0.06150519847869873
1775340641234261200,3.18026123046875,-0.006800651550292969,0.0012502670288085938,-0.06710317730903625
1775340641244261400,3.190261474609375,0.0540928840637207,-0.028695106506347656,-0.0619674026966095
1775340641254261200,3.20026123046875,0.038558006286621094,-0.01690673828125,-0.0177212655544281
1775340641264261400,3.210261474609375,-0.024120807647705078,0.004504203796386719,-0.032810479402542114
1775340641274261200,3.22026123046875,0.025888919830322266,-0.023014068603515625,-0.021244674921035767
1775340641284261400,3.230261474609375,-0.06976509094238281,0.04246234893798828,0.07133877277374268
1775340641294261200,3.24026123046875,-0.02550983428955078,0.015786170959472656,0.14044807851314545
1775340641304261400,3.250261474609375,0.004736900329589844,-0.0053005218505859375,0.07590755820274353
1775340641314261200,3.26026123046875,-0.10613489151000977,0.04936981201171875,-0.010790139436721802
1775340641324261400,3.270261474609375,0.04738759994506836,-0.030054092407226562,-0.006186783313751221
1775340641334261200,3.28026123046875,-0.023593425750732422,-0.013012886047363281,0.07085110247135162
1775340641344261400,3.290261474609375,-0.0732259750366211,0.009490013122558594,0.03419199585914612
1775340641354261200,3.30026123046875,0.07362842559814453,-0.016660690307617188,-0.046590834856033325
1775340641364261400,3.310261474609375,-0.017849445343017578,-0.017910003662109375,-0.057260751724243164
1775340641374261200,3.32026123046875,0.01213836669921875,-0.02960491180419922,-0.06513404846191406
1775340641384261400,3.330261474609375,0.10613393783569336,-0.046813011169433594,-0.10314434766769409
1775340641394261200,3.34026123046875,-0.08569478988647461,0.03716850280761719,-0.12894824147224426
1775340641404261400,3.350261474609375,0.018033981323242188,-0.008679389953613281,-0.09911122918128967
1775340641414261200,3.36026123046875,-0.04261016845703125,-0.023612022399902344,0.0013966858386993408
1775340641424261400,3.370261474609375,-0.0906682014465332,-0.009770393371582031,0.016126394271850586
1775340641434261200,3.38026123046875,0.03923320770263672,-0.03956794738769531,-0.05018395185470581
1775340641444261400,3.390261474609375,-0.11136865615844727,0.012995719909667969,-0.0328693687915802
1775340641454261200,3.40026123046875,0.04024028778076172,-0.03670215606689453,0.04051180183887482
1775340641464261400,3.410261474609375,0.11283349990844727,-0.04818248748779297,0.09946981072425842
1775340641474261200,3.42026123046875,-0.13433837890625,0.06104469299316406,0.0801558792591095
1775340641484261400,3.430261474609375,0.08227396011352539,-0.0235595703125,0.01070907711982727
1775340641494261200,3.44026123046875,0.06702566146850586,-0.009179115295410156,-0.0022346973419189453
1775340641504261400,3.450261474609375,-0.05704164505004883,0.01975727081298828,0.04027670621871948
1775340641514261200,3.46026123046875,-0.009009361267089844,0.014814376831054688,0.008894741535186768
1775340641524261400,3.470261474609375,0.005253791809082031,0.01861095428466797,-0.04367527365684509
1775340641534261200,3.48026123046875,-0.058133602142333984,0.008289337158203125,-0.03792408108711243
1775340641544261400,3.490261474609375,-0.027433395385742188,0.016092300415039062,-0.06316223740577698
1775340641554261200,3.50026123046875,0.039793968200683594,-0.03892803192138672,-0.03989502787590027
1775340641564261400,3.510261474609375,-0.06533050537109375,0.0010509490966796875,-0.02863416075706482
1775340641574261200,3.52026123046875,-0.007007122039794922,-0.006157875061035156,-0.041297465562820435
1775340641584261400,3.530261474609375,0.07375526428222656,-0.03917503356933594,0.0036063790321350098
1775340641594261200,3.54026123046875,-0.0923914909362793,0.04794502258300781,0.006953507661819458
1775340641604261400,3.550261474609375,0.021246910095214844,0.010995864868164062,0.01546168327331543
1775340641614261200,3.56026123046875,0.07382488250732422,-0.024019241333007812,0.05208402872085571
1775340641624261400,3.570261474609375,-0.08913373947143555,0.05231475830078125,0.08121661841869354
1775340641634261200,3.58026123046875,0.1247415542602539,-0.04407978057861328,0.03581660985946655
1775340641644261400,3.590261474609375,-0.07258987426757812,0.03498554229736328,0.013277888298034668
1775340641654261200,3.60026123046875,0.012651920318603516,-0.006218910217285156,0.052557170391082764
1775340641664261400,3.610261474609375,0.12178277969360352,-0.06953144073486328,0.07768940925598145
1775340641674261200,3.62026123046875,-0.10703849792480469,0.045090675354003906,0.037578850984573364
1775340641684261400,3.630261474609375,0.024646282196044922,-0.008523941040039062,-0.05864432454109192
1775340641694261200,3.64026123046875,0.043736934661865234,-0.019535064697265625,-0.08103299140930176
1775340641704261400,3.650261474609375,-0.07722091674804688,0.039157867431640625,0.0011397302150726318
1775340641714261200,3.66026123046875,0.0616755485534668,-0.021528244018554688,0.019744932651519775
1775340641724261400,3.670261474609375,0.035151004791259766,0.005181312561035156,-0.01783272624015808
1775340641734261200,3.68026123046875,-0.011280059814453125,0.0050716400146484375,-0.06124347448348999
1775340641744261400,3.690261474609375,-0.061725616455078125,0.028677940368652344,-0.045952945947647095
1775340641754261200,3.70026123046875,0.026407718658447266,-0.004096031188964844,-0.010514795780181885
1775340641764261400,3.710261474609375,-0.0066776275634765625,-0.0063266754150390625,0.02764090895652771
1775340641774261200,3.72026123046875,-0.03739023208618164,0.010418891906738281,0.05274170637130737
1775340641784261400,3.730261474609375,0.047924041748046875,-0.0292510986328125,0.03974148631095886
1775340641794261200,3.74026123046875,0.010417461395263672,-0.005852699279785156,0.052126094698905945
1775340641804261400,3.750261474609375,-0.029362201690673828,0.0033464431762695312,0.02692165970802307
1775340641814261200,3.76026123046875,0.024918079376220703,0.003964424133300781,0.010176405310630798
1775340641824261400,3.770261474609375,0.022658348083496094,-0.012836456298828125,0.02663499116897583
1775340641834261200,3.78026123046875,-0.027924060821533203,0.01933574676513672,0.027234062552452087
1775340641844261400,3.790261474609375,-0.0011739730834960938,0.0064716339111328125,-0.002791106700897217
1775340641854261200,3.80026123046875,-0.012061595916748047,0.010303497314453125,-0.05023622512817383
1775340641864261400,3.810261474609375,-0.02324390411376953,0.011286735534667969,-0.06503254175186157
1775340641874261200,3.82026123046875,0.007544517517089844,0.0001163482666015625,-0.01934736967086792
1775340641884261400,3.830261474609375,0.034162044525146484,0.004967689514160156,0.01367776095867157
1775340641894261200,3.84026123046875,0.006768226623535156,-0.0024499893188476562,-0.008593618869781494
1775340641904261400,3.850261474609375,0.01396036148071289,-0.0025539398193359375,-0.059500157833099365
1775340641914261200,3.86026123046875,0.03217267990112305,-0.010409355163574219,-0.03918018937110901
1775340641924261400,3.870261474609375,-0.01630258560180664,-0.0037622451782226562,-0.0025443732738494873
1775340641934261200,3.88026123046875,0.010485649108886719,-0.04137611389160156,0.03856712579727173
1775340641944261400,3.890261474609375,-0.024663448333740234,-0.0072536468505859375,0.053678467869758606
1775340641954261200,3.90026123046875,-0.03442955017089844,0.022979736328125,0.08361943066120148
1775340641964261400,3.910261474609375,0.04513216018676758,0.005991935729980469,0.07963380217552185
1775340641974261200,3.92026123046875,-0.028804302215576172,0.0418548583984375,0.06363338232040405
1775340641984261400,3.930261474609375,0.04261159896850586,0.014195442199707031,0.043980374932289124
1775340641994261200,3.94026123046875,0.10455036163330078,-0.01988506317138672,0.030472099781036377
1775340642004261400,3.950261474609375,-0.059838294982910156,0.02591705322265625,-0.004560381174087524
1775340642014261200,3.96026123046875,0.1150965690612793,-0.08150196075439453,-0.06484425067901611
1775340642024261400,3.970261474609375,-0.05185508728027344,0.008183479309082031,-0.032268524169921875
1775340642034261200,3.98026123046875,-0.03531646728515625,-0.050354957580566406,0.0025595426559448242
1775340642044261400,3.990261474609375,0.12766790390014648,-0.07952404022216797,-0.09733042120933533
1775340642054261200,4.00026123046875,-0.10089445114135742,0.02472400665283203,-0.1268346607685089
1775340642064261400,4.010261474609375,0.030167102813720703,-0.012975692749023438,-0.07141420245170593
1775340642074261200,4.02026123046875,-0.0017437934875488281,0.03118896484375,0.0309922993183136
1775340642084261400,4.030261474609375,-0.033124446868896484,0.01457977294921875,0.014646664261817932
1775340642094261200,4.04026123046875,0.021820545196533203,0.0255279541015625,-0.07775822281837463
1775340642104261400,4.050261474609375,-0.044621944427490234,0.02382659912109375,-0.025347530841827393
1775340642114261200,4.06026123046875,-0.08530664443969727,0.03572654724121094,0.054661765694618225
1775340642124261400,4.070261474609375,-0.017893314361572266,0.005351066589355469,0.033230990171432495
1775340642134261200,4.08026123046875,-0.07849359512329102,-0.0017442703247070312,0.01186487078666687
1775340642144261400,4.090261474609375,-0.06092119216918945,0.008391380310058594,0.0684836208820343
1775340642154261200,4.10026123046875,0.08356857299804688,-0.052870750427246094,0.10638940334320068
1775340642164261400,4.110261474609375,0.01233816146850586,-0.010588645935058594,0.044119566679000854
1775340642174261200,4.12026123046875,0.016276836395263672,-0.007927894592285156,-0.031361550092697144
1775340642184261400,4.130261474609375,0.08804464340209961,-0.04150676727294922,-0.011679381132125854
1775340642194261200,4.14026123046875,0.006186962127685547,0.01797199249267578,0.03318297863006592
1775340642204261400,4.150261474609375,0.006357669830322266,-0.003955841064453125,0.03367882966995239
1775340642214261200,4.16026123046875,0.020606040954589844,-0.018602371215820312,-0.0748576819896698
1775340642224261400,4.170261474609375,-0.07077550888061523,0.018705368041992188,-0.08969837427139282
1775340642234261200,4.18026123046875,-0.08276557922363281,0.024727821350097656,-0.033086419105529785
1775340642244261400,4.190261474609375,-0.05612516403198242,0.02882862091064453,-0.019858241081237793
1775340642254261200,4.20026123046875,0.021136760711669922,0.013113021850585938,-0.03692618012428284
1775340642264261400,4.210261474609375,0.04473257064819336,-0.00670623779296875,-0.031079620122909546
1775340642274261200,4.22026123046875,0.04896974563598633,0.006709098815917969,0.030904963612556458
1775340642284261400,4.230261474609375,0.04259157180786133,0.019529342651367188,0.026567906141281128
1775340642294261200,4.24026123046875,0.018688678741455078,0.001819610595703125,-0.035631418228149414
1775340642304261400,4.250261474609375,0.004675388336181641,-0.008090019226074219,-0.022477298974990845
1775340642314261200,4.26026123046875,0.03473329544067383,-0.023822784423828125,0.08723711967468262
1775340642324261400,4.270261474609375,0.00726318359375,0.0016307830810546875,0.11134149134159088
1775340642334261200,4.28026123046875,-0.025907516479492188,0.010194778442382812,0.022151261568069458
1775340642344261400,4.290261474609375,-0.0340123176574707,0.036133766174316406,-0.04293063282966614
1775340642354261200,4.30026123046875,0.013227462768554688,0.01627635955810547,-0.01992228627204895
1775340642364261400,4.310261474609375,0.043829917907714844,-0.014209747314453125,0.042951032519340515
1775340642374261200,4.32026123046875,-0.0035696029663085938,0.009221076965332031,0.03502589464187622
1775340642384261400,4.330261474609375,0.029247760772705078,-0.014088630676269531,-0.01826760172843933
1775340642394261200,4.34026123046875,0.01290130615234375,-0.01771259307861328,-0.05168844759464264
1775340642404261400,4.350261474609375,-0.07196760177612305,0.014166831970214844,-0.04555810987949371
1775340642414261200,4.36026123046875,0.01009988784790039,0.0020723342895507812,-0.03959310054779053
1775340642424261400,4.370261474609375,0.037097930908203125,-0.014041900634765625,-0.004142940044403076
1775340642434261200,4.38026123046875,-0.046260833740234375,0.03047657012939453,0.011969044804573059
1775340642444261400,4.390261474609375,0.04136323928833008,-0.007620811462402344,0.011342436075210571
1775340642454261200,4.40026123046875,0.022446632385253906,0.0027132034301757812,0.00871671736240387
1775340642464261400,4.410261474609375,-0.03769683837890625,0.01953125,-0.0074742138385772705
1775340642474261200,4.42026123046875,0.03566169738769531,-0.034010887145996094,0.0034595876932144165
1775340642484261400,4.430261474609375,0.01602792739868164,-0.0154266357421875,0.04271292686462402
1775340642494261200,4.44026123046875,-0.0634007453918457,0.004946708679199219,0.04706704616546631
1775340642504261400,4.450261474609375,-0.03468894958496094,-0.0001544952392578125,-0.009026661515235901
1775340642514261200,4.46026123046875,-0.007415294647216797,0.015489578247070312,-0.026786670088768005
1775340642524261400,4.470261474609375,-0.03338623046875,0.019285202026367188,0.004313990473747253
1775340642534261200,4.48026123046875,0.024349689483642578,0.024514198303222656,-0.006866633892059326
1775340642544261400,4.490261474609375,0.0030083656311035156,0.02176666259765625,-0.025939270853996277
1775340642554261200,4.50026123046875,0.012418746948242188,0.012799263000488281,-0.04426559805870056
1775340642564261400,4.510261474609375,0.07398509979248047,-0.02239513397216797,-0.05723956227302551
1775340642574261200,4.52026123046875,-0.00014972686767578125,-0.008951187133789062,-0.041949301958084106
1775340642584261400,4.530261474609375,0.0027074813842773438,-0.006638526916503906,-0.022670239210128784
1775340642594261200,4.54026123046875,0.042922019958496094,-0.038818359375,-0.03695663809776306
1775340642604261400,4.550261474609375,0.013247966766357422,-0.022437095642089844,-0.02075996994972229
1775340642614261200,4.56026123046875,-0.024107933044433594,0.013558387756347656,0.02800866961479187
1775340642624261400,4.570261474609375,-0.030872344970703125,0.02235126495361328,0.06945663690567017
1775340642634261200,4.58026123046875,-0.0422215461730957,0.01863861083984375,0.06474147737026215
1775340642644261400,4.590261474609375,-0.021452903747558594,0.007674217224121094,0.040537312626838684
1775340642654261200,4.60026123046875,-0.030790328979492188,0.009936332702636719,0.02988789975643158
1775340642664261400,4.610261474609375,-0.0001354217529296875,0.013278961181640625,0.0401017963886261
1775340642674261200,4.62026123046875,0.007431983947753906,-0.005382537841796875,0.03259332478046417
1775340642684261400,4.630261474609375,-0.047521114349365234,0.04649925231933594,-0.005927741527557373
1775340642694261200,4.64026123046875,0.15291976928710938,-0.04865264892578125,-0.043812721967697144
1775340642704261400,4.650261474609375,0.05923795700073242,-0.008599281311035156,-0.0426764190196991
1775340642714261200,4.66026123046875,0.006194591522216797,0.031505584716796875,-0.03653290867805481
1775340642724261400,4.670261474609375,0.13320398330688477,-0.04652881622314453,-0.04259267449378967
1775340642734261200,4.68026123046875,0.0031981468200683594,0.03023052215576172,-0.044173240661621094
1775340642744261400,4.690261474609375,-0.015370845794677734,0.013020515441894531,-0.043611079454422
1775340642754261200,4.70026123046875,0.11065483093261719,-0.06575870513916016,-0.018363118171691895
1775340642764261400,4.710261474609375,-0.027051925659179688,-0.013598442077636719,0.01511317491531372
1775340642774261200,4.72026123046875,-0.10845232009887695,0.021256446838378906,0.023606061935424805
1775340642784261400,4.730261474609375,0.004556179046630859,-0.011631965637207031,-0.002737194299697876
1775340642794261200,4.74026123046875,-0.06824922561645508,-0.0019054412841796875,0.029339969158172607
1775340642804261400,4.750261474609375,-0.11818456649780273,0.013270378112792969,0.06253321468830109
1775340642814261200,4.76026123046875,0.025531291961669922,-0.04512500762939453,0.06197500228881836
1775340642824261400,4.770261474609375,-0.0721597671508789,0.009699821472167969,0.06100618839263916
1775340642834261200,4.78026123046875,-0.059386253356933594,0.02020263671875,0.09970131516456604
1775340642844261400,4.790261474609375,0.03675127029418945,-0.028646469116210938,0.08697804808616638
1775340642854261200,4.80026123046875,-0.027337074279785156,0.011847496032714844,0.0000928044319152832
1775340642864261400,4.810261474609375,0.026081085205078125,0.008229255676269531,-0.08187991380691528
1775340642874261200,4.82026123046875,0.03601264953613281,-0.00002765655517578125,-0.07516950368881226
1775340642884261400,4.830261474609375,0.040656089782714844,0.012369155883789062,-0.010297909379005432
1775340642894261200,4.84026123046875,0.05391550064086914,-0.015482902526855469,0.0370812863111496
1775340642904261400,4.850261474609375,-0.019572734832763672,0.02459716796875,0.00023503601551055908
1775340642914261200,4.86026123046875,0.08051347732543945,-0.003200531005859375,-0.08174514770507812
1775340642924261400,4.870261474609375,-0.06970024108886719,0.02768993377685547,-0.05788120627403259
1775340642934261200,4.88026123046875,-0.003975868225097656,-0.012226104736328125,-0.008933424949645996
1775340642944261400,4.890261474609375,0.04145669937133789,-0.035457611083984375,0.053311437368392944
1775340642954261200,4.90026123046875,-0.13830852508544922,0.013890266418457031,0.06337319314479828
1775340642964261400,4.910261474609375,0.020426273345947266,-0.021872520446777344,0.03897163271903992
1775340642974261200,4.92026123046875,-0.09889078140258789,-0.01701641082763672,0.07084757089614868
1775340642984261400,4.930261474609375,-0.0419306755065918,-0.011759757995605469,0.044624507427215576
1775340642994261200,4.94026123046875,0.05009937286376953,-0.0316162109375,0.03255271911621094
1775340643004261400,4.950261474609375,-0.10716819763183594,0.08251571655273438,0.07652753591537476
1775340643014261200,4.96026123046875,0.13103342056274414,-0.0014190673828125,0.08889846503734589
1775340643024261400,4.970261474609375,0.03401327133178711,0.017572402954101562,-0.02358880639076233
1775340643034261200,4.98026123046875,-0.02713632583618164,0.03806018829345703,-0.10222622752189636
1775340643044261400,4.990261474609375,0.21982669830322266,-0.059932708740234375,-0.09073123335838318
1775340643054261200,5.00026123046875,-0.038186073303222656,0.016803741455078125,-0.04072919487953186
1775340643064261400,5.010261474609375,-0.023039817810058594,-0.0040683746337890625,-0.09890004992485046
1775340643074261200,5.02026123046875,0.09880399703979492,-0.044231414794921875,-0.1089579164981842
1775340643084261400,5.030261474609375,-0.08444499969482422,0.014258384704589844,-0.02857789397239685
1775340643094261200,5.04026123046875,0.02160501480102539,-0.024939537048339844,0.012969404458999634
1775340643104261400,5.050261474609375,0.056984901428222656,-0.010524749755859375,-0.019907206296920776
1775340643114261200,5.06026123046875,-0.06583690643310547,0.03182792663574219,-0.0016754865646362305
1775340643124261400,5.070261474609375,0.0929412841796875,-0.02775096893310547,0.027672573924064636
1775340643134261200,5.08026123046875,0.051723480224609375,-0.012847900390625,0.09112153947353363
1775340643144261400,5.090261474609375,-0.04554414749145508,0.014184951782226562,0.10339449346065521
1775340643154261200,5.10026123046875,0.06601333618164062,-0.025318145751953125,0.033840298652648926
1775340643164261400,5.110261474609375,-0.004360198974609375,-0.00167083740234375,-0.0011904537677764893
1775340643174261200,5.12026123046875,-0.08195257186889648,0.016721725463867188,-0.0017951130867004395
1775340643184261400,5.130261474609375,0.06632089614868164,-0.04291248321533203,-0.00819060206413269
1775340643194261200,5.14026123046875,-0.08338069915771484,0.019026756286621094,-0.020035699009895325
1775340643204261400,5.150261474609375,-0.1367020606994629,0.03708457946777344,-0.03548687696456909
1775340643214261200,5.16026123046875,0.14612579345703125,-0.06710624694824219,-0.0984325110912323
1775340643224261400,5.170261474609375,-0.0692281723022461,0.017477035522460938,-0.07421603798866272
1775340643234261200,5.18026123046875,-0.07701635360717773,0.04324913024902344,0.025363057851791382
1775340643244261400,5.190261474609375,0.2294926643371582,-0.048526763916015625,0.040053993463516235
1775340643254261200,5.20026123046875,-0.007228851318359375,0.032062530517578125,-0.028113752603530884
1775340643264261400,5.210261474609375,-0.1174015998840332,0.06815528869628906,-0.019573092460632324
1775340643274261200,5.22026123046875,0.25986576080322266,-0.09236431121826172,0.024004921317100525
1775340643284261400,5.230261474609375,-0.09366655349731445,0.04084014892578125,0.010833799839019775
1775340643294261200,5.24026123046875,-0.14523696899414062,0.04882526397705078,-0.015316992998123169
1775340643304261400,5.250261474609375,0.08014440536499023,-0.09316730499267578,0.07678011059761047
1775340643314261200,5.26026123046875,-0.21316289901733398,0.04673004150390625,0.08248132467269897
1775340643324261400,5.270261474609375,-0.0424199104309082,-0.00524139404296875,-0.03432998061180115
1775340643334261200,5.28026123046875,0.013714790344238281,-0.0052051544189453125,-0.04084238409996033
1775340643344261400,5.290261474609375,-0.1430039405822754,0.07016372680664062,0.03746277093887329
1775340643354261200,5.30026123046875,0.08021402359008789,-0.030000686645507812,0.018786683678627014
1775340643364261400,5.310261474609375,0.021487712860107422,0.009593963623046875,-0.05663102865219116
1775340643374261200,5.32026123046875,0.001110076904296875,0.022794723510742188,-0.03128954768180847
1775340643384261400,5.330261474609375,0.09907722473144531,-0.0374908447265625,0.03217163681983948
1775340643394261200,5.34026123046875,-0.014545917510986328,0.04264640808105469,-0.002054184675216675
1775340643404261400,5.350261474609375,0.03397798538208008,0.0029058456420898438,-0.06842386722564697
1775340643414261200,5.36026123046875,0.06366348266601562,0.007388114929199219,-0.03818067908287048
1775340643424261400,5.370261474609375,-0.02455615997314453,0.012720108032226562,0.023106902837753296
1775340643434261200,5.38026123046875,-0.01108694076538086,-0.022644996643066406,0.03150534629821777
1775340643444261400,5.390261474609375,-0.02992868423461914,-0.017946243286132812,-0.018091291189193726
1775340643454261200,5.40026123046875,-0.03343820571899414,-0.03534221649169922,0.002745524048805237
1775340643464261400,5.410261474609375,-0.01569366455078125,0.005000114440917969,0.04055085778236389
1775340643474261200,5.42026123046875,0.05051136016845703,-0.04278373718261719,0.052385151386260986
1775340643484261400,5.430261474609375,-0.006635189056396484,0.012542724609375,0.048743948340415955
1775340643494261200,5.44026123046875,-0.013791561126708984,0.05130767822265625,0.08162584900856018
1775340643504261400,5.450261474609375,0.09756183624267578,-0.026407241821289062,0.013752207159996033
1775340643514261200,5.46026123046875,-0.09771060943603516,0.10451984405517578,-0.089697927236557
1775340643524261400,5.470261474609375,0.09152936935424805,-0.06084156036376953,-0.06898915767669678
1775340643534261200,5.48026123046875,-0.024967193603515625,0.010802268981933594,-0.02174505591392517
1775340643544261400,5.490261474609375,0.0010061264038085938,-0.02770709991455078,-0.02532908320426941
1775340643554261200,5.50026123046875,-0.014406204223632812,-0.034249305725097656,-0.07435065507888794
1775340643564261400,5.510261474609375,-0.053137779235839844,-0.014162063598632812,-0.11121392250061035
1775340643574261200,5.52026123046875,0.06689453125,-0.04868030548095703,-0.05911988019943237
1775340643584261400,5.530261474609375,-0.060900211334228516,0.018647193908691406,-0.020664066076278687
1775340643594261200,5.54026123046875,0.06115531921386719,-0.014927864074707031,0.0032976865768432617
1775340643604261400,5.550261474609375,0.029877185821533203,0.002918243408203125,0.01866316795349121
1775340643614261200,5.56026123046875,-0.0571751594543457,0.037215232849121094,0.0742579996585846
1775340643624261400,5.570261474609375,0.1419820785522461,-0.08821582794189453,0.11151158809661865
1775340643634261200,5.58026123046875,-0.0996861457824707,0.020944595336914062,0.08730731904506683
1775340643644261400,5.590261474609375,-0.09402799606323242,0.03256511688232422,0.014206290245056152
1775340643654261200,5.60026123046875,0.08562040328979492,-0.031716346740722656,0.029048249125480652
1775340643664261400,5.610261474609375,-0.12142038345336914,0.070343017578125,0.09217387437820435
1775340643674261200,5.62026123046875,0.01351022720336914,0.0074138641357421875,0.11259648203849792
1775340643684261400,5.630261474609375,0.0800638198852539,-0.0031747817993164062,0.015142053365707397
1775340643694261200,5.64026123046875,-0.12517833709716797,0.059261322021484375,-0.07302439212799072
1775340643704261400,5.650261474609375,0.0584559440612793,-0.023909568786621094,-0.07860872149467468
1775340643714261200,5.66026123046875,0.04941082000732422,-0.06112957000732422,-0.052806586027145386
1775340643724261400,5.670261474609375,-0.08485794067382812,-0.0126495361328125,-0.08844250440597534
1775340643734261200,5.68026123046875,0.07894182205200195,-0.054877281188964844,-0.0948522686958313
1775340643744261400,5.690261474609375,-0.0500025749206543,0.011556625366210938,-0.03422632813453674
1775340643754261200,5.70026123046875,-0.06342935562133789,0.029959678649902344,-0.03462669253349304
1775340643764261400,5.710261474609375,0.12831926345825195,-0.06113624572753906,-0.06254297494888306
1775340643774261200,5.72026123046875,-0.09801149368286133,0.047072410583496094,-0.018241673707962036
1775340643784261400,5.730261474609375,-0.029506206512451172,0.013490676879882812,0.034225523471832275
1775340643794261200,5.74026123046875,0.01734018325805664,-0.019646644592285156,0.050661563873291016
1775340643804261400,5.750261474609375,-0.1287837028503418,0.05279731750488281,0.07134222984313965
1775340643814261200,5.76026123046875,0.01567983627319336,-0.031650543212890625,0.07332473993301392
1775340643824261400,5.770261474609375,-0.02764129638671875,0.009360313415527344,0.0397125780582428
1775340643834261200,5.78026123046875,-0.06478023529052734,0.05214405059814453,0.018665656447410583
1775340643844261400,5.790261474609375,0.038136959075927734,0.0026836395263671875,0.06962677836418152
1775340643854261200,5.80026123046875,0.012868404388427734,0.029291152954101562,0.08336256444454193
1775340643864261400,5.810261474609375,0.011371612548828125,0.019202232360839844,0.022349953651428223
1775340643874261200,5.82026123046875,0.056415557861328125,0.0029840469360351562,-0.029779493808746338
1775340643884261400,5.830261474609375,0.025037765502929688,0.013897895812988281,-0.020550161600112915
1775340643894261200,5.84026123046875,0.02478790283203125,-0.005085945129394531,-0.02340012788772583
1775340643904261400,5.850261474609375,0.0510706901550293,-0.04419994354248047,-0.02443292737007141
1775340643914261200,5.86026123046875,-0.007893562316894531,-0.017249107360839844,-0.04285368323326111
1775340643924261400,5.870261474609375,0.030226707458496094,-0.05714893341064453,-0.0038655996322631836
1775340643934261200,5.88026123046875,0.0001468658447265625,-0.04013347625732422,0.03126192092895508
1775340643944261400,5.890261474609375,-0.0014185905456542969,-0.015106201171875,-0.006832689046859741
1775340643954261200,5.90026123046875,0.02892446517944336,-0.02818012237548828,-0.04081735014915466
1775340643964261400,5.910261474609375,-0.08908891677856445,0.026983261108398438,-0.025531113147735596
1775340643974261200,5.92026123046875,0.0012941360473632812,-0.023862838745117188,0.008200213313102722
1775340643984261400,5.930261474609375,-0.09748506546020508,0.04979896545410156,0.015733450651168823
1775340643994261200,5.94026123046875,-0.04219198226928711,0.0638570785522461,0.01568099856376648
1775340644004261400,5.950261474609375,-0.025118350982666016,0.05784034729003906,-0.011710315942764282
1775340644014261200,5.96026123046875,-0.09870147705078125,0.08847999572753906,-0.07993155717849731
1775340644024261400,5.970261474609375,0.009725570678710938,0.012712478637695312,-0.09725630283355713
1775340644034261200,5.98026123046875,-0.023974895477294922,0.04318809509277344,-0.04255214333534241
1775340644044261400,5.990261474609375,0.038269996643066406,-0.006922721862792969,0.02365514636039734
1775340644054261200,6.00026123046875,0.17340326309204102,-0.07523059844970703,0.006098806858062744
1775340644064261400,6.010261474609375,-0.06595993041992188,0.011736869812011719,-0.04613611102104187
1775340644074261200,6.02026123046875,0.1389307975769043,-0.07990455627441406,-0.07838550209999084
1775340644084261400,6.030261474609375,0.1103510856628418,-0.047214508056640625,0.024112552404403687
1775340644094261200,6.04026123046875,-0.03493642807006836,-0.025625228881835938,0.12355361878871918
1775340644104261400,6.050261474609375,0.1282343864440918,-0.06086540222167969,0.12560513615608215
1775340644114261200,6.06026123046875,-0.061808109283447266,-0.00045680999755859375,0.09877587854862213
1775340644124261400,6.070261474609375,-0.041675567626953125,0.008677482604980469,0.10983309149742126
1775340644134261200,6.08026123046875,0.04627847671508789,-0.02350139617919922,0.09080633521080017
1775340644144261400,6.090261474609375,-0.1266164779663086,0.027976036071777344,0.018621623516082764
1775340644154261200,6.10026123046875,-0.062041282653808594,0.030635833740234375,-0.035353392362594604
1775340644164261400,6.110261474609375,0.023545265197753906,0.0031671524047851562,-0.015466898679733276
1775340644174261200,6.12026123046875,-0.047991275787353516,0.006557464599609375,0.0029199421405792236
1775340644184261400,6.130261474609375,0.024396896362304688,-0.030246734619140625,-0.07689493894577026
1775340644194261200,6.14026123046875,0.002033710479736328,0.016002655029296875,-0.14138367772102356
1775340644204261400,6.150261474609375,-0.03442573547363281,0.020195960998535156,-0.12647569179534912
1775340644214261200,6.16026123046875,0.011008739471435547,0.0022935867309570312,-0.10282695293426514
1775340644224261400,6.170261474609375,-0.02028179168701172,0.013270378112792969,-0.0881895124912262
1775340644234261200,6.18026123046875,-0.03312969207763672,0.023069381713867188,-0.04585540294647217
1775340644244261400,6.190261474609375,0.03174161911010742,0.02550983428955078,0.0192258358001709
1775340644254261200,6.20026123046875,-0.05646562576293945,0.061496734619140625,0.06849399209022522
1775340644264261400,6.210261474609375,-0.011883258819580078,0.033138275146484375,0.07050231099128723
1775340644274261200,6.22026123046875,0.09518241882324219,0.0035810470581054688,0.05266478657722473
1775340644284261400,6.230261474609375,0.03722572326660156,0.01581287384033203,0.10790961980819702
1775340644294261200,6.24026123046875,0.045993804931640625,0.011122703552246094,0.1433955430984497
1775340644304261400,6.250261474609375,0.0772089958190918,-0.022081375122070312,0.10376305878162384
1775340644314261200,6.26026123046875,0.019788265228271484,-0.022736549377441406,0.05798134207725525
1775340644324261400,6.270261474609375,0.03255605697631836,-0.039211273193359375,0.0073022544384002686
1775340644334261200,6.28026123046875,-0.07451009750366211,0.019346237182617188,-0.03654465079307556
1775340644344261400,6.290261474609375,0.10073041915893555,-0.07860851287841797,-0.03553873300552368
1775340644354261200,6.30026123046875,-0.06391620635986328,-0.0032501220703125,-0.07188168168067932
1775340644364261400,6.310261474609375,-0.08841466903686523,-0.0127105712890625,-0.12217926979064941
1775340644374261200,6.32026123046875,0.13269281387329102,-0.10041332244873047,-0.15045419335365295
1775340644384261400,6.330261474609375,-0.1240243911743164,0.015801429748535156,-0.16240999102592468
1775340644394261200,6.34026123046875,0.012505531311035156,-0.030309677124023438,-0.1668916940689087
1775340644404261400,6.350261474609375,0.03851175308227539,-0.018238067626953125,-0.10169342160224915
1775340644414261200,6.36026123046875,-0.11315202713012695,0.04462432861328125,0.0294877290725708
1775340644424261400,6.370261474609375,0.12252378463745117,-0.024747848510742188,0.08504524827003479
1775340644434261200,6.38026123046875,-0.050983428955078125,0.038773536682128906,0.03458434343338013
1775340644444261400,6.390261474609375,-0.00965118408203125,0.03841876983642578,0.03341108560562134
1775340644454261200,6.40026123046875,0.08781623840332031,-0.008833885192871094,0.10150234401226044
1775340644464261400,6.410261474609375,-0.04736471176147461,0.042227745056152344,0.1444617360830307
1775340644474261200,6.42026123046875,0.029408931732177734,0.005795478820800781,0.12741437554359436
1775340644484261400,6.430261474609375,0.015761375427246094,0.013536453247070312,0.06903517246246338
1775340644494261200,6.44026123046875,-0.09561824798583984,0.03586769104003906,0.04449085891246796
1775340644504261400,6.450261474609375,0.012778759002685547,-0.01704692840576172,0.014565438032150269
1775340644514261200,6.46026123046875,-0.019480228424072266,-0.0066471099853515625,-0.03948548436164856
1775340644524261400,6.470261474609375,-0.03990459442138672,0.0056629180908203125,-0.06554839015007019
1775340644534261200,6.48026123046875,0.03378725051879883,-0.03186321258544922,-0.028465330600738525
1775340644544261400,6.490261474609375,0.041498661041259766,-0.025114059448242188,-0.01597386598587036
1775340644554261200,6.50026123046875,-0.006257534027099609,0.02163219451904297,-0.08985945582389832
1775340644564261400,6.510261474609375,0.04091167449951172,0.0021343231201171875,-0.1392194926738739
1775340644574261200,6.52026123046875,0.04045295715332031,0.0011034011840820312,-0.0588473379611969
1775340644584261400,6.530261474609375,-0.0035147666931152344,0.010376930236816406,0.057200729846954346
1775340644594261200,6.54026123046875,-0.01139068603515625,0.016323089599609375,0.06263382732868195
1775340644604261400,6.550261474609375,-0.03422737121582031,0.02552318572998047,0.04082082211971283
1775340644614261200,6.56026123046875,-0.036759376525878906,0.017948150634765625,0.0557233989238739
1775340644624261400,6.570261474609375,0.02030038833618164,-0.019255638122558594,0.07176443934440613
1775340644634261200,6.58026123046875,-0.017407894134521484,0.015025138854980469,0.05697450041770935
1775340644644261400,6.590261474609375,0.04768228530883789,-0.006819725036621094,0.055581897497177124
1775340644654261200,6.60026123046875,0.08736228942871094,-0.0050945281982421875,0.032174572348594666
1775340644664261400,6.610261474609375,-0.00774383544921875,0.008206367492675781,0.01657964289188385
1775340644674261200,6.62026123046875,0.07577896118164062,-0.010997772216796875,-0.01761949062347412
1775340644684261400,6.630261474609375,0.019809246063232422,0.00646209716796875,-0.08350291848182678
1775340644694261200,6.64026123046875,-0.06198549270629883,0.04990100860595703,-0.08345362544059753
1775340644704261400,6.650261474609375,0.0933837890625,-0.029266357421875,-0.0467132031917572
1775340644714261200,6.66026123046875,-0.1544017791748047,0.0716400146484375,-0.05506497621536255
1775340644724261400,6.670261474609375,-0.10085868835449219,0.028156280517578125,-0.03263181447982788
1775340644734261200,6.68026123046875,0.07789802551269531,-0.06258010864257812,0.009102284908294678
1775340644744261400,6.690261474609375,-0.16466903686523438,0.040350914001464844,-0.007082074880599976
1775340644754261200,6.70026123046875,0.1160283088684082,-0.05337810516357422,0.015940845012664795
1775340644764261400,6.710261474609375,0.0957498550415039,-0.051949501037597656,0.07735924422740936
1775340644774261200,6.72026123046875,-0.0038895606994628906,0.02322101593017578,0.09396523237228394
1775340644784261400,6.730261474609375,0.2682218551635742,-0.11028766632080078,0.05071546137332916
1775340644794261200,6.74026123046875,0.008260250091552734,0.029790878295898438,-0.04227820038795471
1775340644804261400,6.750261474609375,-0.035424232482910156,0.010911941528320312,-0.006532132625579834
1775340644814261200,6.76026123046875,0.08438301086425781,-0.043701171875,0.11521314084529877
1775340644824261400,6.770261474609375,-0.18524789810180664,0.037108421325683594,0.057074934244155884
1775340644834261200,6.78026123046875,-0.11252737045288086,0.017881393432617188,-0.07862508296966553
1775340644844261400,6.790261474609375,-0.09177255630493164,0.05145835876464844,-0.048182785511016846
1775340644854261200,6.80026123046875,-0.10115861892700195,0.022655487060546875,0.060089945793151855
1775340644864261400,6.810261474609375,0.016092300415039062,0.014031410217285156,0.016042649745941162
1775340644874261200,6.82026123046875,0.035959720611572266,0.03860282897949219,-0.1226361095905304
1775340644884261400,6.830261474609375,0.027198314666748047,0.053269386291503906,-0.10888126492500305
1775340644894261200,6.84026123046875,0.06821489334106445,0.019150733947753906,0.02057933807373047
1775340644904261400,6.850261474609375,0.05381631851196289,0.0000629425048828125,0.06638678908348083
1775340644914261200,6.86026123046875,0.2325153350830078,-0.05742835998535156,-0.0793512761592865
1775340644924261400,6.870261474609375,-0.21837759017944336,0.1217641830444336,-0.1293967366218567
1775340644934261200,6.88026123046875,-0.10148811340332031,0.046921730041503906,0.02308991551399231
1775340644944261400,6.890261474609375,0.14867067337036133,-0.03440666198730469,0.09939339756965637
1775340644954261200,6.90026123046875,-0.1638636589050293,-0.0729684829711914,-0.01108938455581665
1775340644964261400,6.910261474609375,-0.08728885650634766,0.15171527862548828,0.19136729836463928
1775340644974261200,6.92026123046875,-0.12881183624267578,0.13405418395996094,0.15887722373008728
1775340644984261400,6.930261474609375,0.09786558151245117,-0.1229085922241211,0.09189265966415405
1775340644994261200,6.94026123046875,-0.08121919631958008,-0.1657695770263672,-0.13618957996368408
1775340645004261400,6.950261474609375,0.33853721618652344,-0.09135818481445312,-0.16410768032073975
1775340645014261200,6.96026123046875,-0.1963191032409668,0.0020542144775390625,0.07511965930461884
1775340645024261400,6.970261474609375,0.34822750091552734,-0.08723163604736328,0.01230841875076294
1775340645034261200,6.98026123046875,-0.02867889404296875,-0.04663372039794922,-0.056686729192733765
1775340645044261400,6.990261474609375,-0.22365903854370117,0.09754657745361328,-0.069551020860672
1775340645054261200,7.00026123046875,0.018448352813720703,-0.0763406753540039,0.019264966249465942
1775340645064261400,7.010261474609375,0.051242828369140625,-0.06459236145019531,0.03225168585777283
1775340645074261200,7.02026123046875,-0.2945833206176758,0.15469741821289062,-0.08915969729423523
1775340645084261400,7.030261474609375,-0.07006549835205078,0.0764627456665039,-0.08403530716896057
1775340645094261200,7.04026123046875,-0.11535406112670898,0.09816169738769531,0.0006402134895324707
1775340645104261400,7.050261474609375,0.06254863739013672,-0.0033235549926757812,-0.001223444938659668
1775340645114261200,7.06026123046875,0.1825394630432129,-0.018415451049804688,-0.06596556305885315
1775340645124261400,7.070261474609375,-0.11641311645507812,0.07405567169189453,-0.020961463451385498
1775340645134261200,7.08026123046875,0.20276165008544922,-0.11049747467041016,0.11541876196861267
1775340645144261400,7.090261474609375,-0.029849529266357422,0.009097099304199219,0.1474495679140091
1775340645154261200,7.10026123046875,-0.25786828994750977,0.11832523345947266,0.10004149377346039
1775340645164261400,7.110261474609375,-0.030167579650878906,0.010602951049804688,0.023883670568466187
1775340645174261200,7.12026123046875,0.27106571197509766,-0.12842845916748047,0.04953742027282715
1775340645184261400,7.130261474609375,0.008878707885742188,0.07225608825683594,0.10781128704547882
1775340645194261200,7.14026123046875,-0.4290943145751953,0.3121910095214844,0.0009874403476715088
1775340645204261400,7.150261474609375,0.245758056640625,0.02008056640625,-0.08452111482620239
1775340645214261200,7.16026123046875,-0.055352210998535156,0.2260875701904297,-0.04725739359855652
1775340645224261400,7.170261474609375,-0.6148457527160645,0.5986557006835938,0.0688566118478775
1775340645234261200,7.18026123046875,-0.35992860794067383,0.4134101867675781,0.1528177708387375
1775340645244261400,7.190261474609375,-0.25327444076538086,0.4303464889526367,0.16325464844703674
1775340645254261200,7.20026123046875,-0.23865556716918945,0.43987464904785156,0.09930968284606934
1775340645264261400,7.210261474609375,-0.5648512840270996,0.764704704284668,0.1441527009010315
1775340645274261200,7.22026123046875,0.550969123840332,0.10378646850585938,0.2900054156780243
1775340645284261400,7.230261474609375,0.5618376731872559,0.2502431869506836,0.0688999742269516
1775340645294261200,7.24026123046875,-0.6526374816894531,0.9992027282714844,-0.19747087359428406
1775340645304261400,7.250261474609375,0.7247071266174316,0.18878746032714844,-0.05400833487510681
1775340645314261200,7.26026123046875,0.4600706100463867,0.5525054931640625,-0.049716562032699585
1775340645324261400,7.270261474609375,-1.0970370769500732,1.1855144500732422,-0.18985673785209656
1775340645334261200,7.28026123046875,0.3926510810852051,0.6598367691040039,-0.08294451236724854
1775340645344261400,7.290261474609375,-1.0525522232055664,1.2432842254638672,0.06161704659461975
1775340645354261200,7.30026123046875,-0.3967556953430176,1.1487579345703125,-0.0030747950077056885
1775340645364261400,7.310261474609375,-0.0714716911315918,0.34689998626708984,0.11145995557308197
1775340645374261200,7.32026123046875,-0.42450904846191406,1.3703136444091797,-0.18931084871292114
1775340645384261400,7.330261474609375,0.03399991989135742,0.952916145324707,-0.16318941116333008
1775340645394261200,7.34026123046875,-0.02423381805419922,0.9325265884399414,0.11599008738994598
1775340645404261400,7.350261474609375,-1.9322166442871094,1.6483182907104492,0.029429882764816284
1775340645414261200,7.36026123046875,-1.2584023475646973,1.032379150390625,-0.2555166482925415
1775340645424261400,7.370261474609375,-0.6308135986328125,0.7213230133056641,-0.24826952815055847
1775340645434261200,7.38026123046875,-1.3434410095214844,0.9398927688598633,0.12981164455413818
1775340645444261400,7.390261474609375,-0.684807300567627,0.5475587844848633,0.2260664999485016
1775340645454261200,7.40026123046875,-0.4286813735961914,0.33614349365234375,0.3583167493343353
1775340645464261400,7.410261474609375,0.1200871467590332,0.18726825714111328,0.23309066891670227
1775340645474261200,7.42026123046875,0.6277947425842285,-0.02264690399169922,-0.015345782041549683
1775340645484261400,7.430261474609375,0.8407526016235352,-0.18016433715820312,0.04766625165939331
1775340645494261200,7.44026123046875,0.8604063987731934,-0.13103103637695312,-0.0444505512714386
1775340645504261400,7.450261474609375,0.5129270553588867,0.11592483520507812,0.015445888042449951
1775340645514261200,7.46026123046875,-0.02471017837524414,0.2787342071533203,-0.08867180347442627
1775340645524261400,7.470261474609375,-0.39768171310424805,0.37184619903564453,-0.2212730050086975
1775340645534261200,7.48026123046875,-0.45744895935058594,0.4285011291503906,-0.18129000067710876
1775340645544261400,7.490261474609375,-0.42964744567871094,0.41595935821533203,-0.20323941111564636
1775340645554261200,7.50026123046875,-0.1949782371520996,0.5936756134033203,0.047083258628845215
1775340645564261400,7.510261474609375,-0.4813652038574219,0.2790412902832031,0.19222736358642578
1775340645574261200,7.52026123046875,-0.29413509368896484,0.16017532348632812,0.0505521297454834
1775340645584261400,7.530261474609375,-0.1123051643371582,0.030834197998046875,0.03827717900276184
1775340645594261200,7.54026123046875,0.12563610076904297,-0.18280792236328125,-0.09309351444244385
1775340645604261400,7.550261474609375,0.5177097320556641,-0.39006567001342773,-0.034837692975997925
1775340645614261200,7.56026123046875,0.48351621627807617,-0.42391443252563477,-0.019777655601501465
1775340645624261400,7.570261474609375,0.450594425201416,-0.4778923988342285,-0.003925234079360962
1775340645634261200,7.58026123046875,0.3541879653930664,-0.3697996139526367,0.1122540831565857
1775340645644261400,7.590261474609375,0.06927108764648438,-0.26214122772216797,0.12192387878894806
1775340645654261200,7.60026123046875,-0.012471199035644531,-0.30924034118652344,0.1613137573003769
1775340645664261400,7.610261474609375,-0.4165935516357422,-0.27912425994873047,0.02586984634399414
1775340645674261200,7.62026123046875,-0.532313346862793,-0.28354358673095703,0.012294888496398926
1775340645684261400,7.630261474609375,-0.6094002723693848,-0.13128662109375,0.129707470536232
1775340645694261200,7.64026123046875,-0.9896039962768555,-0.23992633819580078,0.11949789524078369
1775340645704261400,7.650261474609375,-1.109889030456543,-0.2314920425415039,0.033035874366760254
1775340645714261200,7.66026123046875,-1.14373779296875,-0.28513002395629883,0.0007908940315246582
1775340645724261400,7.670261474609375,-1.0997390747070312,-0.5457491874694824,-0.012823820114135742
1775340645734261200,7.68026123046875,-0.8906731605529785,-0.6394367218017578,-0.07760363817214966
1775340645744261400,7.690261474609375,-0.8535418510437012,-0.815821647644043,-0.06269925832748413
1775340645754261200,7.70026123046875,-0.8478522300720215,-0.931729793548584,0.011468559503555298
1775340645764261400,7.710261474609375,-0.9254193305969238,-0.9647340774536133,0.062342315912246704
1775340645774261200,7.72026123046875,-1.0078444480895996,-1.0042009353637695,0.05899447202682495
1775340645784261400,7.730261474609375,-1.0039148330688477,-0.9640769958496094,0.07103818655014038
1775340645794261200,7.74026123046875,-1.1204404830932617,-0.9518136978149414,0.14639797806739807
1775340645804261400,7.750261474609375,-1.096278190612793,-0.9682188034057617,0.14727436006069183
1775340645814261200,7.76026123046875,-1.041971206665039,-0.960911750793457,0.1318812519311905
1775340645824261400,7.770261474609375,-1.0764164924621582,-0.9496188163757324,0.14352461695671082
1775340645834261200,7.78026123046875,-1.1219921112060547,-0.9201011657714844,0.08263975381851196
1775340645844261400,7.790261474609375,-1.0974946022033691,-0.8736557960510254,0.05705171823501587
1775340645854261200,7.80026123046875,-0.9871392250061035,-0.8481426239013672,0.04059341549873352
1775340645864261400,7.810261474609375,-0.8827991485595703,-0.7328677177429199,0.04629424214363098
1775340645874261200,7.82026123046875,-0.7747049331665039,-0.70599365234375,0.06250327825546265
1775340645884261400,7.830261474609375,-0.7835063934326172,-0.632908821105957,0.09685271978378296
1775340645894261200,7.84026123046875,-0.9619364738464355,-0.6416988372802734,0.10713285207748413
1775340645904261400,7.850261474609375,1.072218894958496,-1.6884727478027344,-0.11563313007354736
1775340645914261200,7.86026123046875,10.329322814941406,-5.394833564758301,-0.3447795510292053
1775340645924261400,7.870261474609375,7.762348175048828,-3.8698198795318604,0.04479280114173889
1775340645934261200,7.88026123046875,-2.7367782592773438,-0.044350624084472656,0.44106554985046387
1775340645944261400,7.890261474609375,-1.6378173828125,0.05314970016479492,-0.2130984663963318
1775340645954261200,7.90026123046875,-0.29163599014282227,-0.28395509719848633,-0.645270586013794
1775340645964261400,7.910261474609375,0.5915937423706055,-0.8077073097229004,-0.3582612872123718
1775340645974261200,7.92026123046875,1.523794174194336,-0.9881224632263184,0.243634432554245
1775340645984261400,7.930261474609375,0.19167518615722656,-0.3155536651611328,0.2173471450805664
1775340645994261200,7.94026123046875,-0.8354077339172363,0.08517742156982422,-0.23699858784675598
1775340646004261400,7.950261474609375,-0.1738138198852539,-0.21073198318481445,-0.43864619731903076
1775340646014261200,7.96026123046875,0.6094141006469727,-0.5963826179504395,-0.10301738977432251
1775340646024261400,7.970261474609375,0.22110652923583984,-0.36206865310668945,0.3933565616607666
1775340646034261200,7.98026123046875,-0.6127758026123047,-0.10137796401977539,0.10437214374542236
1775340646044261400,7.990261474609375,0.09389400482177734,-0.4678826332092285,-0.21107548475265503
1775340646054261200,8.00026123046875,-0.06077766418457031,-0.4676074981689453,-0.1594763696193695
1775340646064261400,8.010261474609376,-0.660067081451416,-0.2374897003173828,0.11783602833747864
1775340646074261200,8.02026123046875,-0.09893798828125,-0.405545711517334,0.26995742321014404
1775340646084261400,8.030261474609375,-0.1836376190185547,-0.43172597885131836,-0.057409703731536865
1775340646094261200,8.04026123046875,-0.5373735427856445,-0.3205103874206543,-0.16988101601600647
1775340646104261400,8.050261474609375,-0.20467758178710938,-0.48815250396728516,-0.03326186537742615
1775340646114261200,8.06026123046875,-0.062432289123535156,-0.5160913467407227,0.07435786724090576
1775340646124261400,8.070261474609374,0.26570987701416016,-0.5958118438720703,0.09598717093467712
1775340646134261200,8.08026123046875,0.10348701477050781,-0.5923519134521484,-0.11134091019630432
1775340646144261400,8.090261474609376,-0.3071126937866211,-0.39840269088745117,-0.025953829288482666
1775340646154261200,8.10026123046875,-0.6640567779541016,-0.3621377944946289,0.10710075497627258
1775340646164261400,8.110261474609375,-0.38059520721435547,-0.2908186912536621,0.0838884711265564
1775340646174261200,8.12026123046875,0.09341239929199219,-0.4410996437072754,0.07328501343727112
1775340646184261400,8.130261474609375,-0.38743019104003906,-0.25991058349609375,-0.10429096221923828
1775340646194261200,8.14026123046875,-0.3395347595214844,-0.27935218811035156,-0.07929939031600952
1775340646204261400,8.150261474609374,0.01761913299560547,-0.433535099029541,-0.08259958028793335
1775340646214261200,8.16026123046875,-0.21192550659179688,-0.4035172462463379,-0.04659759998321533
1775340646224261400,8.170261474609376,-0.22440338134765625,-0.3354954719543457,-0.06407850980758667
1775340646234261200,8.18026123046875,-0.14752674102783203,-0.4437527656555176,-0.025367259979248047
1775340646244261400,8.190261474609375,-0.19531917572021484,-0.4594545364379883,-0.017929494380950928
1775340646254261200,8.20026123046875,-0.23448610305786133,-0.4831247329711914,-0.033227771520614624
1775340646264261400,8.210261474609375,-0.2361612319946289,-0.5692782402038574,-0.05433762073516846
1775340646274261200,8.22026123046875,-0.3724174499511719,-0.5499324798583984,-0.03030449151992798
1775340646284261400,8.230261474609375,-0.43432140350341797,-0.5384130477905273,0.01863691210746765
1775340646294261200,8.24026123046875,-0.4370841979980469,-0.4967975616455078,0.06376150250434875
1775340646304261400,8.250261474609376,-0.39341068267822266,-0.5111274719238281,0.09362685680389404
1775340646314261200,8.26026123046875,-0.4118642807006836,-0.4955606460571289,0.12411811947822571
1775340646324261400,8.270261474609375,-0.5508317947387695,-0.412325382232666,0.11759057641029358
1775340646334261200,8.28026123046875,-0.3131132125854492,-0.4913139343261719,0.06869518756866455
1775340646344261400,8.290261474609375,-0.2764124870300293,-0.46436309814453125,0.04864969849586487
1775340646354261200,8.30026123046875,-0.31871795654296875,-0.3617820739746094,0.015953272581100464
1775340646364261400,8.310261474609375,0.016233444213867188,-0.38464784622192383,0.005675315856933594
1775340646374261200,8.32026123046875,0.029802322387695312,-0.31439971923828125,0.06810414791107178
1775340646384261400,8.330261474609374,0.030731201171875,-0.1739177703857422,0.0998181700706482
1775340646394261200,8.34026123046875,0.11740684509277344,-0.15530633926391602,0.09468832612037659
1775340646404261400,8.350261474609376,0.5921916961669922,-0.16353607177734375,0.038223057985305786
1775340646414261200,8.36026123046875,0.6054267883300781,0.08929872512817383,-0.04520180821418762
1775340646424261400,8.370261474609375,0.4513845443725586,0.25168275833129883,-0.09055879712104797
1775340646434261200,8.38026123046875,0.464202880859375,0.31552839279174805,-0.08047100901603699
1775340646444261400,8.390261474609375,0.5481557846069336,0.3377246856689453,-0.045947879552841187
1775340646454261200,8.40026123046875,0.5303878784179688,0.39409494400024414,0.00006452202796936035
1775340646464261400,8.410261474609374,0.46381187438964844,0.46013832092285156,0.01904699206352234
1775340646474261200,8.42026123046875,0.6101903915405273,0.3395810127258301,0.018777400255203247
1775340646484261400,8.430261474609376,0.5207147598266602,0.3013782501220703,0.016086816787719727
1775340646494261200,8.44026123046875,0.45362281799316406,0.22336578369140625,0.006643414497375488
1775340646504261400,8.450261474609375,0.5677518844604492,0.07958316802978516,-0.014247983694076538
1775340646514261200,8.46026123046875,0.4905967712402344,0.03710603713989258,-0.039231568574905396
1775340646524261400,8.470261474609375,0.3892679214477539,0.0013070106506347656,-0.06599956750869751
1775340646534261200,8.48026123046875,0.43981361389160156,-0.08326578140258789,-0.11641886830329895
1775340646544261400,8.490261474609374,0.31508731842041016,-0.10570335388183594,-0.08793330192565918
1775340646554261200,8.50026123046875,0.11866188049316406,-0.14122962951660156,-0.01386365294456482
1775340646564261400,8.510261474609376,0.17655563354492188,-0.28753089904785156,0.01323661208152771
1775340646574261200,8.52026123046875,-0.11539840698242188,-0.19326114654541016,0.007961064577102661
1775340646584261400,8.530261474609375,-0.45049381256103516,-0.08081197738647461,-0.004965633153915405
1775340646594261200,8.54026123046875,-0.23223209381103516,-0.2004694938659668,0.003141731023788452
1775340646604261400,8.550261474609375,-0.2194509506225586,-0.26163530349731445,0.06579062342643738
1775340646614261200,8.56026123046875,-0.2767906188964844,-0.2938652038574219,0.07405000925064087
1775340646624261400,8.570261474609374,-0.1971435546875,-0.44005680084228516,-0.020091086626052856
1775340646634261200,8.58026123046875,-0.29650306701660156,-0.44948673248291016,-0.03877526521682739
1775340646644261400,8.590261474609376,-0.3669462203979492,-0.490816593170166,0.02432429790496826
1775340646654261200,8.60026123046875,-0.35779666900634766,-0.47468042373657227,0.042933642864227295
1775340646664261400,8.610261474609375,-0.31098270416259766,-0.5356950759887695,0.037041306495666504
1775340646674261200,8.62026123046875,-0.2938871383666992,-0.5686783790588379,0.04557526111602783
1775340646684261400,8.630261474609375,-0.3946094512939453,-0.5240230560302734,0.06976914405822754
1775340646694261200,8.64026123046875,-0.4583001136779785,-0.48994970321655273,0.05789807438850403
1775340646704261400,8.650261474609374,-0.3754720687866211,-0.5121927261352539,0.023502349853515625
1775340646714261200,8.66026123046875,-0.4100065231323242,-0.45729923248291016,0.020893573760986328
1775340646724261400,8.670261474609376,-0.45085716247558594,-0.3792409896850586,0.027146339416503906
1775340646734261200,8.68026123046875,-0.35950231552124023,-0.3380393981933594,-0.005976974964141846
1775340646744261400,8.690261474609375,-0.32536983489990234,-0.2729616165161133,-0.02189856767654419
1775340646754261200,8.70026123046875,-0.28450870513916016,-0.22995710372924805,0.01196780800819397
1775340646764261400,8.710261474609375,-0.16433048248291016,-0.24782085418701172,0.045460283756256104
1775340646774261200,8.72026123046875,-0.13272762298583984,-0.24136018753051758,0.04958975315093994
1775340646784261400,8.730261474609375,-0.14512062072753906,-0.23519611358642578,0.01938006281852722
1775340646794261200,8.74026123046875,-0.08858394622802734,-0.261138916015625,-0.012711912393569946
1775340646804261400,8.750261474609376,-0.04084968566894531,-0.282529354095459,-0.0008108019828796387
1775340646814261200,8.76026123046875,-0.0788717269897461,-0.26487064361572266,0.016611039638519287
1775340646824261400,8.770261474609375,-0.10555267333984375,-0.2513093948364258,0.007439464330673218
1775340646834261200,8.78026123046875,-0.14777755737304688,-0.21661758422851562,-0.003139674663543701
1775340646844261400,8.790261474609375,-0.17185211181640625,-0.20325183868408203,-0.0008758306503295898
1775340646854261200,8.80026123046875,-0.16822242736816406,-0.2186751365661621,0.010259181261062622
1775340646864261400,8.810261474609375,-0.2417135238647461,-0.19695568084716797,0.0045570433139801025
1775340646874261200,8.82026123046875,-0.24945449829101562,-0.1978449821472168,-0.021355479955673218
1775340646884261400,8.830261474609374,-0.15883922576904297,-0.23652410507202148,-0.013550609350204468
1775340646894261200,8.84026123046875,-0.16925907135009766,-0.2104482650756836,0.02404657006263733
1775340646904261400,8.850261474609376,-0.13567543029785156,-0.2266378402709961,0.07725116610527039
1775340646914261200,8.86026123046875,-0.20577430725097656,-0.28351640701293945,0.05085349082946777
1775340646924261400,8.870261474609375,-0.19980525970458984,-0.3146700859069824,-0.004385232925415039
1775340646934261200,8.88026123046875,-0.18996620178222656,-0.35622262954711914,0.01928350329399109
1775340646944261400,8.890261474609375,-0.2611265182495117,-0.33740758895874023,0.05999702215194702
1775340646954261200,8.90026123046875,-0.2978858947753906,-0.386171817779541,0.056544482707977295
1775340646964261400,8.910261474609374,-0.31466197967529297,-0.4361739158630371,0.019687294960021973
1775340646974261200,8.92026123046875,-0.40403127670288086,-0.41649866104125977,0.022715866565704346
1775340646984261400,8.930261474609376,-0.2579340934753418,-0.5206508636474609,0.06235042214393616
1775340646994261200,8.94026123046875,-0.38628196716308594,-0.4547843933105469,0.04258713126182556
1775340647004261400,8.950261474609375,-0.6162176132202148,-0.38023900985717773,-0.04044163227081299
1775340647014261200,8.96026123046875,-0.529381275177002,-0.47005462646484375,-0.11318543553352356
1775340647024261400,8.970261474609375,-0.6598172187805176,-0.4348907470703125,-0.08577227592468262
1775340647034261200,8.98026123046875,-0.6197347640991211,-0.609342098236084,0.002813100814819336
1775340647044261400,8.990261474609374,-0.6165876388549805,-0.5494909286499023,-0.03298741579055786
1775340647054261200,9.00026123046875,-0.7844295501708984,-0.6141009330749512,0.024137228727340698
1775340647064261400,9.010261474609376,-0.5948309898376465,-0.6855592727661133,-0.01691874861717224
1775340647074261200,9.02026123046875,-0.6866469383239746,-0.6695542335510254,0.07125073671340942
1775340647084261400,9.030261474609375,-0.6320686340332031,-0.7533893585205078,0.1063910722732544
1775340647094261200,9.04026123046875,-0.6410031318664551,-0.8071284294128418,0.061650604009628296
1775340647104261400,9.050261474609375,-0.7561659812927246,-0.7109107971191406,0.04415300488471985
1775340647114261200,9.06026123046875,-0.6011734008789062,-0.7142210006713867,0.12095895409584045
1775340647124261400,9.070261474609374,-0.5580391883850098,-0.6216144561767578,0.20452961325645447
1775340647134261200,9.08026123046875,-0.5237383842468262,-0.5594120025634766,0.13054464757442474
1775340647144261400,9.090261474609376,-0.5914797782897949,-0.479525089263916,0.02517920732498169
1775340647154261200,9.10026123046875,-0.6487689018249512,-0.41196584701538086,0.006575644016265869
1775340647164261400,9.110261474609375,-0.310089111328125,-0.44224023818969727,0.0004152655601501465
1775340647174261200,9.12026123046875,-0.32077980041503906,-0.15973758697509766,0.0583702027797699
1775340647184261400,9.130261474609375,-0.30129528045654297,-0.03837776184082031,0.09763655066490173
1775340647194261200,9.14026123046875,-0.1374683380126953,-0.03866720199584961,0.0005703568458557129
1775340647204261400,9.150261474609374,-0.3624439239501953,0.041846275329589844,-0.06226879358291626
1775340647214261200,9.16026123046875,-0.21557950973510742,-0.04949617385864258,-0.05327200889587402
1775340647224261400,9.170261474609376,0.1817150115966797,-0.13593578338623047,0.007243156433105469
1775340647234261200,9.18026123046875,0.2689228057861328,-0.16951894760131836,0.22808215022087097
1775340647244261400,9.190261474609375,-0.26156187057495117,0.07820940017700195,0.21248210966587067
1775340647254261200,9.20026123046875,-0.11019420623779297,-0.05016756057739258,0.06177195906639099
1775340647264261400,9.210261474609375,-0.024712085723876953,-0.20008611679077148,-0.07578223943710327
1775340647274261200,9.22026123046875,-0.34046077728271484,-0.13226842880249023,-0.13564109802246094
1775340647284261400,9.230261474609375,0.4189128875732422,-0.3090395927429199,-0.05950796604156494
1775340647294261200,9.24026123046875,-0.40750789642333984,0.0021686553955078125,0.025922715663909912
1775340647304261400,9.250261474609376,-0.3314671516418457,-0.03259086608886719,-0.011137783527374268
1775340647314261200,9.26026123046875,0.9112362861633301,-0.30063581466674805,-0.09256753325462341
1775340647324261400,9.270261474609375,-0.13219547271728516,0.15177106857299805,0.1158493161201477
1775340647334261200,9.28026123046875,0.2067399024963379,-0.06590890884399414,-0.058592408895492554
1775340647344261400,9.290261474609375,0.5149455070495605,-0.2849602699279785,-0.058664411306381226
1775340647354261200,9.30026123046875,0.5222430229187012,0.0807790756225586,0.16318954527378082
1775340647364261400,9.310261474609375,0.09077692031860352,0.14189672470092773,0.15986371040344238
1775340647374261200,9.32026123046875,-0.529144287109375,0.369417667388916,-0.22466972470283508
1775340647384261400,9.330261474609374,-0.3219590187072754,0.886378288269043,-0.3476080894470215
1775340647394261200,9.34026123046875,1.1313481330871582,-0.15718841552734375,-0.18033212423324585
1775340647404261400,9.350261474609376,-0.4237484931945801,0.1324620246887207,-0.08750462532043457
1775340647414261200,9.36026123046875,0.04122591018676758,0.5233087539672852,-0.1602686643600464
1775340647424261400,9.370261474609375,0.880486011505127,0.12494707107543945,-0.15903857350349426
1775340647434261200,9.38026123046875,0.1424398422241211,0.3367137908935547,0.07542845606803894
1775340647444261400,9.390261474609375,0.26232337951660156,0.07469797134399414,0.22971409559249878
1775340647454261200,9.40026123046875,0.5749387741088867,-0.014857292175292969,0.020441383123397827
1775340647464261400,9.410261474609374,-0.09055423736572266,-0.1178884506225586,-0.07987633347511292
1775340647474261200,9.42026123046875,0.66778564453125,-0.040392398834228516,0.09100928902626038
1775340647484261400,9.430261474609376,0.2424144744873047,0.05185079574584961,0.12041980028152466
1775340647494261200,9.44026123046875,-0.05905294418334961,-0.05432748794555664,-0.05594649910926819
1775340647504261400,9.450261474609375,0.3879384994506836,-0.11565971374511719,-0.009625017642974854
1775340647514261200,9.46026123046875,-0.14076566696166992,0.004731178283691406,-0.07036709785461426
1775340647524261400,9.470261474609375,-0.07324075698852539,0.2352123260498047,-0.13611674308776855
1775340647534261200,9.48026123046875,0.3762359619140625,0.31289052963256836,-0.09605267643928528
1775340647544261400,9.490261474609374,0.06828022003173828,0.2574477195739746,-0.049123138189315796
1775340647554261200,9.50026123046875,-0.0999917984008789,0.3644852638244629,-0.08007809519767761
1775340647564261400,9.510261474609376,0.10077190399169922,0.24742841720581055,-0.2877858281135559
1775340647574261200,9.52026123046875,0.5371685028076172,0.3249177932739258,-0.11816370487213135
1775340647584261400,9.530261474609375,0.4496622085571289,0.31653451919555664,0.07714366912841797
1775340647594261200,9.54026123046875,0.4699544906616211,0.5258474349975586,-0.025463372468948364
1775340647604261400,9.550261474609375,0.4600677490234375,0.3704833984375,-0.12994956970214844
1775340647614261200,9.56026123046875,0.945561408996582,-0.10416936874389648,-0.08082515001296997
1775340647624261400,9.570261474609374,0.47743701934814453,0.13391780853271484,0.14897987246513367
1775340647634261200,9.58026123046875,0.5025196075439453,0.14654874801635742,0.30144789814949036
1775340647644261400,9.590261474609376,0.5552005767822266,0.08817148208618164,0.06372007727622986
1775340647654261200,9.60026123046875,0.2055988311767578,0.5307378768920898,0.04848715662956238
1775340647664261400,9.610261474609375,0.4522542953491211,0.3330082893371582,0.2700016498565674
1775340647674261200,9.62026123046875,0.5996284484863281,0.3498244285583496,-0.024421364068984985
1775340647684261400,9.630261474609375,-0.1704425811767578,0.5116181373596191,-0.18864423036575317
1775340647694261200,9.64026123046875,0.39121150970458984,0.23649358749389648,-0.23630300164222717
1775340647704261400,9.650261474609374,0.3963356018066406,0.3844876289367676,-0.10966163873672485
1775340647714261200,9.66026123046875,-0.0694131851196289,0.5584607124328613,-0.10100415349006653
1775340647724261400,9.670261474609376,0.9559612274169922,-0.13561010360717773,-0.29919499158859253
1775340647734261200,9.68026123046875,-0.17127609252929688,0.18420743942260742,-0.22033479809761047
1775340647744261400,9.690261474609375,-0.08464717864990234,0.5247511863708496,0.2847048044204712
1775340647754261200,9.70026123046875,0.7706890106201172,-0.04158973693847656,0.34359925985336304
1775340647764261400,9.710261474609375,0.7213268280029297,0.36321258544921875,-0.10686048865318298
1775340647774261200,9.72026123046875,-0.32547712326049805,0.22513961791992188,-0.23857763409614563
1775340647784261400,9.730261474609375,0.8009757995605469,0.13845539093017578,-0.19429177045822144
1775340647794261200,9.74026123046875,0.9068632125854492,0.29382944107055664,0.13471892476081848
1775340647804261400,9.750261474609376,0.2597522735595703,0.1950511932373047,0.118745356798172
1775340647814261200,9.76026123046875,0.2038249969482422,0.5648231506347656,-0.1474534273147583
1775340647824261400,9.770261474609375,0.4157266616821289,0.2910575866699219,-0.057547926902770996
1775340647834261200,9.78026123046875,0.2916393280029297,0.10883569717407227,0.04389044642448425
1775340647844261400,9.790261474609375,-0.01625347137451172,0.2698373794555664,0.263309508562088
1775340647854261200,9.80026123046875,-0.4033994674682617,0.2555074691772461,0.12367841601371765
1775340647864261400,9.810261474609375,0.11618614196777344,0.1107029914855957,-0.12820035219192505
1775340647874261200,9.82026123046875,0.4462623596191406,0.003810405731201172,0.05273956060409546
1775340647884261400,9.830261474609374,-0.06247711181640625,-0.1151423454284668,0.23874728381633759
1775340647894261200,9.84026123046875,0.029715538024902344,0.3054194450378418,-0.2011483609676361
1775340647904261400,9.850261474609376,0.2127542495727539,0.0024175643920898438,-0.10888153314590454
1775340647914261200,9.86026123046875,0.3682861328125,-0.2583284378051758,-0.034861356019973755
1775340647924261400,9.870261474609375,0.15235328674316406,0.20773887634277344,-0.061465829610824585
1775340647934261200,9.88026123046875,0.16707420349121094,0.28687429428100586,-0.1764102280139923
1775340647944261400,9.890261474609375,0.6364641189575195,0.07737541198730469,-0.29111984372138977
1775340647954261200,9.90026123046875,0.36454105377197266,0.31720829010009766,-0.25596463680267334
1775340647964261400,9.910261474609374,0.35423755645751953,0.18957185745239258,-0.017987370491027832
1775340647974261200,9.92026123046875,0.560359001159668,0.03455686569213867,-0.14752456545829773
1775340647984261400,9.930261474609376,0.209381103515625,0.3955039978027344,-0.09336784482002258
1775340647994261200,9.94026123046875,-0.005219459533691406,0.43359375,0.0963398814201355
1775340648004261400,9.950261474609375,0.4195995330810547,0.09972620010375977,0.1434403359889984
1775340648014261200,9.96026123046875,0.014828681945800781,0.13661479949951172,0.0037313103675842285
1775340648024261400,9.970261474609375,-0.09816551208496094,0.1027064323425293,0.044110000133514404
1775340648034261200,9.98026123046875,0.4675483703613281,-0.42954206466674805,-0.06953206658363342
1775340648044261400,9.990261474609374,-1.1262454986572266,0.4163379669189453,0.06139668822288513
1775340648054261200,10.00026123046875,1.1848888397216797,-0.21537017822265625,0.19010306894779205
1775340648064261400,10.010261474609376,0.05500030517578125,0.3002352714538574,0.42471790313720703
1775340648074261200,10.02026123046875,-1.0860700607299805,0.4961280822753906,0.0020115673542022705
1775340648084261400,10.030261474609375,2.0701818466186523,-0.7597575187683105,-0.24121776223182678
1775340648094261200,10.04026123046875,-1.008253574371338,0.3682675361633301,0.17483271658420563
1775340648104261400,10.050261474609375,-0.09741783142089844,-0.003906726837158203,0.08264380693435669
1775340648114261200,10.06026123046875,0.9448308944702148,-0.20967435836791992,-0.1950080692768097
1775340648124261400,10.070261474609374,-0.1021127700805664,0.18245744705200195,-0.15744298696517944
1775340648134261200,10.08026123046875,-0.0070590972900390625,0.1578660011291504,0.09701943397521973
1775340648144261400,10.090261474609376,-0.27108001708984375,0.15345096588134766,-0.11577212810516357
1775340648154261200,10.10026123046875,0.6697463989257812,-0.10815048217773438,-0.025744616985321045
1775340648164261400,10.110261474609375,-0.31200742721557617,0.24341392517089844,0.07602334022521973
1775340648174261200,10.12026123046875,-0.07341861724853516,-0.0231475830078125,0.035848468542099
1775340648184261400,10.130261474609375,0.4464426040649414,0.026088714599609375,0.12767833471298218
1775340648194261200,10.14026123046875,-0.4096236228942871,0.046407222747802734,0.17676153779029846
1775340648204261400,10.150261474609374,0.0760049819946289,0.04985952377319336,0.05854612588882446
1775340648214261200,10.16026123046875,-0.2016468048095703,-0.0009284019470214844,-0.04819580912590027
1775340648224261400,10.170261474609376,0.4625883102416992,0.12285852432250977,-0.03956124186515808
1775340648234261200,10.18026123046875,-0.15897560119628906,-0.14429330825805664,-0.07245391607284546
1775340648244261400,10.190261474609375,0.1808156967163086,0.0945277214050293,-0.23324206471443176
1775340648254261200,10.20026123046875,0.14852333068847656,-0.13457536697387695,-0.0010037422180175781
1775340648264261400,10.210261474609375,0.218170166015625,-0.07807350158691406,0.0246315598487854
1775340648274261200,10.22026123046875,-0.1977672576904297,0.11812543869018555,-0.08598682284355164
1775340648284261400,10.230261474609375,0.12216758728027344,-0.15628433227539062,-0.21890509128570557
1775340648294261200,10.24026123046875,-0.11649799346923828,0.2016305923461914,-0.2969151735305786
1775340648304261400,10.250261474609376,-0.03387165069580078,0.09300613403320312,-0.05044552683830261
1775340648314261200,10.26026123046875,-0.0067691802978515625,0.1338205337524414,0.0069075822830200195
1775340648324261400,10.270261474609375,-0.12422466278076172,0.1266026496887207,0.1220540702342987
1775340648334261200,10.28026123046875,0.4399423599243164,-0.02251434326171875,0.03930160403251648
1775340648344261400,10.290261474609375,0.10571861267089844,0.1706690788269043,0.09913656115531921
1775340648354261200,10.30026123046875,0.07534599304199219,0.03182506561279297,0.07279151678085327
1775340648364261400,10.310261474609375,0.3772878646850586,0.05499553680419922,-0.12265956401824951
1775340648374261200,10.32026123046875,0.13160037994384766,0.1162261962890625,-0.04336586594581604
1775340648384261400,10.330261474609374,0.0019617080688476562,0.08334064483642578,-0.029833465814590454
1775340648394261200,10.34026123046875,0.31055450439453125,-0.012978553771972656,0.003581106662750244
1775340648404261400,10.350261474609376,0.016660690307617188,0.2380356788635254,0.002586573362350464
1775340648414261200,10.36026123046875,0.11968421936035156,0.007113456726074219,0.015670090913772583
1775340648424261400,10.370261474609375,0.011166572570800781,0.03667593002319336,0.035741060972213745
1775340648434261200,10.38026123046875,-0.07879352569580078,0.05326557159423828,0.028533518314361572
1775340648444261400,10.390261474609375,-0.053154945373535156,-0.04901552200317383,-0.05109855532646179
1775340648454261200,10.40026123046875,-0.291473388671875,0.11655235290527344,-0.22634905576705933
1775340648464261400,10.410261474609374,0.30490589141845703,-0.0890340805053711,-0.1682673990726471
1775340648474261200,10.42026123046875,0.18294143676757812,-0.1539759635925293,-0.05725759267807007
1775340648484261400,10.430261474609376,-0.38953590393066406,-0.24313831329345703,-0.009047180414199829
1775340648494261200,10.44026123046875,-0.26057910919189453,-0.1437540054321289,-0.1523749828338623
1775340648504261400,10.450261474609375,0.21198749542236328,-0.31311988830566406,-0.21442151069641113
1775340648514261200,10.46026123046875,-0.2209300994873047,-0.13777637481689453,0.030592113733291626
1775340648524261400,10.470261474609375,-0.22080516815185547,-0.002658367156982422,0.2661610543727875
1775340648534261200,10.48026123046875,-0.19286537170410156,-0.09615278244018555,0.32479387521743774
1775340648544261400,10.490261474609374,-0.1362781524658203,-0.002293109893798828,0.1715938001871109
1775340648554261200,10.50026123046875,-0.0356903076171875,-0.02139759063720703,0.20010915398597717
1775340648564261400,10.510261474609376,-0.2315073013305664,-0.06829357147216797,0.2578224241733551
1775340648574261200,10.52026123046875,-0.1894693374633789,-0.1156768798828125,0.028396159410476685
1775340648584261400,10.530261474609375,0.05153179168701172,-0.005465507507324219,-0.17257815599441528
1775340648594261200,10.54026123046875,-0.11793804168701172,0.017323017120361328,0.03857916593551636
1775340648604261400,10.550261474609375,-0.01868915557861328,-0.17116355895996094,0.13651655614376068
1775340648614261200,10.56026123046875,0.0789642333984375,-0.0024271011352539062,0.09784117341041565
1775340648624261400,10.570261474609374,-0.2801094055175781,0.029954910278320312,-0.11369404196739197
1775340648634261200,10.58026123046875,0.15471267700195312,-0.11681985855102539,-0.12199446558952332
1775340648644261400,10.590261474609376,-0.16323184967041016,-0.014465808868408203,-0.0363444983959198
1775340648654261200,10.60026123046875,-0.0132904052734375,-0.052520751953125,-0.09631431102752686
1775340648664261400,10.610261474609375,0.10734367370605469,0.034479618072509766,-0.1236652135848999
1775340648674261200,10.62026123046875,0.05255699157714844,0.04918384552001953,-0.11816471815109253
1775340648684261400,10.630261474609375,0.10933589935302734,-0.040261268615722656,0.07176622748374939
1775340648694261200,10.64026123046875,0.0060939788818359375,0.04211235046386719,0.11898735165596008
1775340648704261400,10.650261474609374,0.19510936737060547,0.20497655868530273,0.10818937420845032
1775340648714261200,10.66026123046875,-0.005463600158691406,0.10451269149780273,0.06398773193359375
1775340648724261400,10.670261474609376,0.0060329437255859375,0.2036428451538086,0.04363667964935303
1775340648734261200,10.68026123046875,0.12954998016357422,0.09862375259399414,0.09321051836013794
1775340648744261400,10.690261474609375,0.20359134674072266,0.07216215133666992,-0.11256662011146545
1775340648754261200,10.70026123046875,0.0946807861328125,0.17561578750610352,-0.07494112849235535
1775340648764261400,10.710261474609375,0.35226917266845703,0.2312631607055664,-0.001996368169784546
1775340648774261200,10.72026123046875,0.27898120880126953,0.21602582931518555,0.06878018379211426
1775340648784261400,10.730261474609375,0.015183448791503906,0.050147056579589844,0.06232881546020508
1775340648794261200,10.74026123046875,0.5508346557617188,0.1722426414489746,-0.2760030925273895
1775340648804261400,10.750261474609376,0.26404762268066406,0.48557519912719727,-0.2326604723930359
1775340648814261200,10.76026123046875,0.47455787658691406,0.11989688873291016,0.0009350180625915527
1775340648824261400,10.770261474609375,0.3917713165283203,0.3438582420349121,-0.05290946364402771
1775340648834261200,10.78026123046875,0.2685890197753906,0.27462148666381836,-0.08602267503738403
1775340648844261400,10.790261474609375,0.36567115783691406,0.1288013458251953,-0.11669161915779114
1775340648854261200,10.80026123046875,0.39279747009277344,0.3760557174682617,0.006438344717025757
1775340648864261400,10.810261474609375,0.4044675827026367,0.43830442428588867,0.14238709211349487
1775340648874261200,10.82026123046875,0.2716999053955078,0.3272676467895508,0.11412456631660461
1775340648884261400,10.830261474609374,0.3375225067138672,0.3754281997680664,-0.005186945199966431
1775340648894261200,10.84026123046875,0.4816770553588867,0.4044523239135742,-0.06365811824798584
1775340648904261400,10.850261474609376,0.2709636688232422,0.2640962600708008,-0.06881996989250183
1775340648914261200,10.86026123046875,0.4300661087036133,0.28980350494384766,-0.06973519921302795
1775340648924261400,10.870261474609375,0.6886310577392578,0.3586549758911133,0.00882333517074585
1775340648934261200,10.88026123046875,0.37287044525146484,0.39989519119262695,0.02091553807258606
1775340648944261400,10.890261474609375,0.6160688400268555,0.2783842086791992,0.12425658106803894
1775340648954261200,10.90026123046875,0.5120906829833984,0.4680047035217285,0.06638258695602417
1775340648964261400,10.910261474609374,0.5185909271240234,0.43996524810791016,-0.04947349429130554
1775340648974261200,10.92026123046875,0.5052261352539062,0.3569202423095703,-0.1381942331790924
1775340648984261400,10.930261474609376,0.49743080139160156,0.5414433479309082,-0.16238993406295776
1775340648994261200,10.94026123046875,0.4726552963256836,0.42241716384887695,-0.15057417750358582
1775340649004261400,10.950261474609375,0.568669319152832,0.527010440826416,-0.18114817142486572
1775340649014261200,10.96026123046875,0.6909875869750977,0.3745846748352051,0.040783464908599854
1775340649024261400,10.970261474609375,0.5437202453613281,0.6039748191833496,0.18270426988601685
1775340649034261200,10.98026123046875,0.45299625396728516,0.20775222778320312,-0.03092685341835022
1775340649044261400,10.990261474609374,0.3858346939086914,0.33974266052246094,-0.0038235485553741455
1775340649054261200,11.00026123046875,0.058793067932128906,0.4995126724243164,0.07045894861221313
1775340649064261400,11.010261474609376,0.7297554016113281,0.35996389389038086,-0.04798531532287598
1775340649074261200,11.02026123046875,0.40952491760253906,0.4797816276550293,-0.026820212602615356
1775340649084261400,11.030261474609375,0.5089273452758789,0.39067983627319336,0.021234989166259766
1775340649094261200,11.04026123046875,0.5450649261474609,0.37590885162353516,-0.10939571261405945
1775340649104261400,11.050261474609375,0.4471750259399414,0.27713823318481445,-0.006260126829147339
1775340649114261200,11.06026123046875,0.46328067779541016,0.2447962760925293,0.07690560817718506
1775340649124261400,11.070261474609374,0.5445680618286133,0.39892101287841797,-0.04850253462791443
1775340649134261200,11.08026123046875,0.32248497009277344,0.33322715759277344,-0.024134784936904907
1775340649144261400,11.090261474609376,0.4560546875,0.44766902923583984,-0.10791569948196411
1775340649154261200,11.10026123046875,0.39205074310302734,0.38964176177978516,0.06589359045028687
1775340649164261400,11.110261474609375,0.32225799560546875,0.4079294204711914,0.04523041844367981
1775340649174261200,11.12026123046875,0.18851089477539062,0.27933502197265625,0.09302634000778198
1775340649184261400,11.130261474609375,0.38472652435302734,0.29540157318115234,0.050281792879104614
1775340649194261200,11.14026123046875,0.5503501892089844,0.28403282165527344,-0.0825008749961853
1775340649204261400,11.150261474609374,0.4622030258178711,0.3861832618713379,-0.010556668043136597
1775340649214261200,11.16026123046875,0.6890754699707031,0.4860544204711914,0.08818620443344116
1775340649224261400,11.170261474609376,0.38032054901123047,0.34592628479003906,0.10130423307418823
1775340649234261200,11.18026123046875,0.19233989715576172,0.009616851806640625,-0.10357257723808289
1775340649244261400,11.190261474609375,0.7985305786132812,0.5303153991699219,-0.2630375921726227
1775340649254261200,11.20026123046875,0.24347591400146484,0.3087601661682129,-0.01309746503829956
1775340649264261400,11.210261474609375,0.9263954162597656,0.39818525314331055,0.025189995765686035
1775340649274261200,11.22026123046875,0.07762718200683594,0.3944091796875,0.13529780507087708
1775340649284261400,11.230261474609375,0.4369659423828125,0.36598682403564453,-0.09263893961906433
1775340649294261200,11.24026123046875,0.5210428237915039,0.16510963439941406,0.018555402755737305
1775340649304261400,11.250261474609376,0.013349533081054688,0.4323873519897461,-0.027969419956207275
1775340649314261200,11.26026123046875,0.3698158264160156,0.25609493255615234,-0.007508307695388794
1775340649324261400,11.270261474609375,0.6396055221557617,0.3733339309692383,-0.10295701026916504
1775340649334261200,11.28026123046875,0.35582447052001953,0.4945063591003418,0.05207374691963196
1775340649344261400,11.290261474609375,0.2778940200805664,0.3021707534790039,-0.037637531757354736
1775340649354261200,11.30026123046875,0.758519172668457,0.36065244674682617,-0.1327313482761383
1775340649364261400,11.310261474609375,0.3770456314086914,0.20157575607299805,0.18237802386283875
1775340649374261200,11.32026123046875,0.31479454040527344,0.2073659896850586,-0.08218240737915039
1775340649384261400,11.330261474609374,0.4522829055786133,0.26128625869750977,-0.23188656568527222
1775340649394261200,11.34026123046875,0.28302955627441406,0.19166278839111328,-0.0872856080532074
1775340649404261400,11.350261474609376,0.2683143615722656,0.09845876693725586,-0.012418925762176514
1775340649414261200,11.36026123046875,0.2639656066894531,0.47957897186279297,0.0008288919925689697
1775340649424261400,11.370261474609375,0.18689918518066406,0.25431251525878906,0.055174022912979126
1775340649434261200,11.38026123046875,-0.003192901611328125,0.12909650802612305,-0.005363553762435913
1775340649444261400,11.390261474609375,0.2965421676635742,0.3898320198059082,0.15394487977027893
1775340649454261200,11.40026123046875,0.004910469055175781,-0.010756492614746094,-0.04211932420730591
1775340649464261400,11.410261474609374,0.09767532348632812,0.09593629837036133,-0.1495269536972046
1775340649474261200,11.42026123046875,-0.1795978546142578,-0.07150888442993164,0.08969470858573914
1775340649484261400,11.430261474609376,0.11167240142822266,-0.09819746017456055,0.08593839406967163
1775340649494261200,11.44026123046875,0.15076828002929688,0.030391693115234375,-0.19294846057891846
1775340649504261400,11.450261474609375,-0.13544464111328125,0.14625787734985352,0.2731499671936035
1775340649514261200,11.46026123046875,-0.1336221694946289,-0.28677892684936523,0.26582902669906616
1775340649524261400,11.470261474609375,-0.2153329849243164,-0.33861589431762695,0.29934048652648926
1775340649534261200,11.48026123046875,-0.39879894256591797,0.04613304138183594,0.3119211792945862
1775340649544261400,11.490261474609374,-0.30229759216308594,-0.2046513557434082,0.17251542210578918
1775340649554261200,11.50026123046875,-0.4797496795654297,-0.5300002098083496,-0.17985153198242188
1775340649564261400,11.510261474609376,-0.19935131072998047,-0.3641366958618164,-0.22077056765556335
1775340649574261200,11.52026123046875,-0.48603343963623047,-0.5559878349304199,-0.09240999817848206
1775340649584261400,11.530261474609375,-0.5371799468994141,-0.24084997177124023,-0.05578500032424927
1775340649594261200,11.54026123046875,-0.43738651275634766,-0.3827528953552246,0.13415572047233582
1775340649604261400,11.550261474609375,-0.47140979766845703,-0.41017770767211914,-0.003117114305496216
1775340649614261200,11.56026123046875,-0.9433646202087402,-0.5243573188781738,-0.1413649320602417
1775340649624261400,11.570261474609374,-0.8156867027282715,-0.48097753524780273,0.061079204082489014
1775340649634261200,11.58026123046875,-0.6632137298583984,-0.5514545440673828,0.22022849321365356
1775340649644261400,11.590261474609376,-0.16057777404785156,-0.4943685531616211,-0.0773068368434906
1775340649654261200,11.60026123046875,-1.3972434997558594,-0.3819704055786133,0.15152065455913544
1775340649664261400,11.610261474609375,-0.7934713363647461,-0.8672142028808594,0.18012657761573792
1775340649674261200,11.62026123046875,-0.770230770111084,-0.9541449546813965,-0.013759732246398926
1775340649684261400,11.630261474609375,-1.6245803833007812,-0.8718352317810059,-0.03075769543647766
1775340649694261200,11.64026123046875,-1.4608464241027832,-1.5958056449890137,-0.133141428232193
1775340649704261400,11.650261474609374,-1.4792137145996094,-1.6524028778076172,-0.4375738501548767
1775340649714261200,11.66026123046875,-1.6012701988220215,-1.5949349403381348,-0.0578652024269104
1775340649724261400,11.670261474609376,-1.285348892211914,-1.4042096138000488,-0.011749237775802612
1775340649734261200,11.68026123046875,-2.912353038787842,-1.5377259254455566,0.25846046209335327
1775340649744261400,11.690261474609375,-1.8536911010742188,-1.932164192199707,0.00722929835319519
1775340649754261200,11.70026123046875,-2.0521726608276367,-1.7295098304748535,-0.04268500208854675
1775340649764261400,11.710261474609375,-2.655488967895508,-2.1633152961730957,-0.11180353164672852
1775340649774261200,11.72026123046875,-1.892622947692871,-1.891895055770874,-0.39492103457450867
1775340649784261400,11.730261474609375,-3.057279586791992,-2.1272101402282715,-0.11105397343635559
1775340649794261200,11.74026123046875,-2.4841814041137695,-2.278869867324829,0.022546857595443726
1775340649804261400,11.750261474609376,-2.4147214889526367,-3.175826072692871,0.2928341329097748
1775340649814261200,11.76026123046875,-3.0322561264038086,-1.839552879333496,0.0002904534339904785
1775340649824261400,11.770261474609375,-2.85430908203125,-2.140200138092041,-0.22148045897483826
1775340649834261200,11.78026123046875,-1.7589144706726074,-2.757162570953369,-0.029122650623321533
1775340649844261400,11.790261474609375,-3.6715450286865234,-1.8318467140197754,0.1984952837228775
1775340649854261200,11.80026123046875,-2.9118576049804688,-2.193783760070801,0.24179577827453613
1775340649864261400,11.810261474609375,-2.1939754486083984,-2.4356958866119385,-0.21029499173164368
1775340649874261200,11.82026123046875,-3.5860347747802734,-1.79856538772583,-0.1794714629650116
1775340649884261400,11.830261474609374,-2.686858654022217,-2.3016810417175293,0.10138964653015137
1775340649894261200,11.84026123046875,-2.756147861480713,-2.2331857681274414,0.13952216506004333
1775340649904261400,11.850261474609376,-3.3808345794677734,-2.2130746841430664,0.06271904706954956
1775340649914261200,11.86026123046875,-3.0045948028564453,-2.3296823501586914,0.09177610278129578
1775340649924261400,11.870261474609375,-2.467444896697998,-2.584721565246582,0.23808221518993378
1775340649934261200,11.88026123046875,-1.4958224296569824,-2.7712714672088623,0.09589910507202148
1775340649944261400,11.890261474609375,-3.2490291595458984,-2.0127573013305664,0.01959136128425598
1775340649954261200,11.90026123046875,-2.6864471435546875,-2.1570138931274414,0.06895977258682251
1775340649964261400,11.910261474609374,-1.9781713485717773,-2.140472650527954,0.087360680103302
1775340649974261200,11.92026123046875,-2.2626876831054688,-1.95389986038208,0.23315057158470154
1775340649984261400,11.930261474609376,-2.4532861709594727,-1.7504558563232422,0.020675301551818848
1775340649994261200,11.94026123046875,-2.418154239654541,-1.648146390914917,-0.08354118466377258
1775340650004261400,11.950261474609375,-1.8950815200805664,-1.7671804428100586,0.09101387858390808
1775340650014261200,11.96026123046875,-1.7170190811157227,-1.5329570770263672,0.3031094968318939
1775340650024261400,11.970261474609375,-2.178947925567627,-1.612654209136963,0.046126335859298706
1775340650034261200,11.98026123046875,-3.4903202056884766,-0.27047252655029297,-0.13345396518707275
1775340650044261400,11.990261474609374,-1.0116643905639648,-1.5289969444274902,0.057587653398513794
1775340650054261200,12.00026123046875,-1.1975421905517578,-1.4920058250427246,-0.2528749108314514
1775340650064261400,12.010261474609376,0.42333984375,-1.824991226196289,0.02919483184814453
1775340650074261200,12.02026123046875,-1.9604926109313965,-0.8810582160949707,0.130842387676239
1775340650084261400,12.030261474609375,-1.5242609977722168,-0.5075092315673828,-0.25604069232940674
1775340650094261200,12.04026123046875,-0.18471717834472656,-1.319040298461914,-0.2820146679878235
1775340650104261400,12.050261474609375,-1.0053739547729492,-0.2568683624267578,0.21925944089889526
1775340650114261200,12.06026123046875,-0.7559833526611328,-0.7536606788635254,0.674079179763794
1775340650124261400,12.070261474609374,-0.26897621154785156,-0.516352653503418,-0.05816271901130676
1775340650134261200,12.08026123046875,-0.5580964088439941,-0.1864013671875,-0.22871917486190796
1775340650144261400,12.090261474609376,-1.421281337738037,-0.4632720947265625,0.0734337568283081
1775340650154261200,12.10026123046875,-0.18128299713134766,-0.3033933639526367,-0.34081146121025085
1775340650164261400,12.110261474609375,-0.21260356903076172,-0.41309499740600586,-0.008469045162200928
