time,seconds_elapsed,z,y,x
1774658020136859400,0.036859375,0,0,0
1774658020146859300,0.046859375,-0.2177600860595703,0.07252025604248047,0.08501055836677551
1774658020156859400,0.056859375,-0.041734933853149414,0.018085479736328125,-0.1272432506084442
1774658020166859300,0.066859375,0.03663349151611328,-0.0009746551513671875,-0.128843292593956
1774658020176859400,0.076859375,-0.16294026374816895,0.049404144287109375,0.09728576242923737
1774658020186859300,0.086859375,0.09586095809936523,-0.041718482971191406,0.028112009167671204
1774658020196859400,0.096859375,-0.07403421401977539,0.04274463653564453,-0.12496154010295868
1774658020206859300,0.106859375,-0.06180572509765625,0.02180957794189453,-0.01946847140789032
1774658020216859400,0.116859375,0.05646872520446777,-0.02960491180419922,0.07855230569839478
1774658020226859300,0.126859375,-0.10013937950134277,0.037639617919921875,-0.02211090922355652
1774658020236859400,0.136859375,0.031389474868774414,-0.0017137527465820312,-0.1106388196349144
1774658020246859300,0.146859375,-0.01409149169921875,-0.0005064010620117188,0.023938260972499847
1774658020256859400,0.156859375,-0.05080223083496094,0.016684532165527344,0.0572546049952507
1774658020266859300,0.166859375,0.03350949287414551,-0.006031036376953125,-0.06542085111141205
1774658020276859400,0.176859375,-0.05680060386657715,0.023921966552734375,-0.0352194681763649
1774658020286859300,0.186859375,0.006196737289428711,0.0014123916625976562,0.05701891705393791
1774658020296859400,0.196859375,-0.0022537708282470703,-0.0008077621459960938,0.020454026758670807
1774658020306859300,0.206859375,-0.04355263710021973,0.02951526641845703,-0.05081729590892792
1774658020316859400,0.216859375,0.02355217933654785,-0.010919570922851562,-0.001741848886013031
1774658020326859300,0.226859375,-0.023367643356323242,-0.005046844482421875,0.04206066578626633
1774658020336859400,0.236859375,-0.020663738250732422,0.0030956268310546875,-0.027527637779712677
1774658020346859300,0.246859375,-0.005137443542480469,0.009898185729980469,-0.03506237268447876
1774658020356859400,0.256859375,-0.028827905654907227,0.007502555847167969,0.027606315910816193
1774658020366859300,0.266859375,-0.009835958480834961,-0.0009746551513671875,0.01610375940799713
1774658020376859400,0.276859375,-0.009284734725952148,0.010947227478027344,-0.04422847926616669
1774658020386859300,0.286859375,-0.019672393798828125,-0.004811286926269531,-0.012606196105480194
1774658020396859400,0.296859375,0.005327939987182617,-0.005558013916015625,0.011750280857086182
1774658020406859300,0.306859375,-0.016622543334960938,0.006781578063964844,-0.0086904838681221
1774658020416859400,0.316859375,-0.0015704631805419922,-0.007831573486328125,-0.03314109891653061
1774658020426859300,0.326859375,-0.01165628433227539,-0.0021390914916992188,0.008515939116477966
1774658020436859400,0.336859375,-0.007775545120239258,0.010858535766601562,-0.0003237426280975342
1774658020446859300,0.346859375,0.0135955810546875,0.0024166107177734375,-0.006655178964138031
1774658020456859400,0.356859375,-0.012351036071777344,0.008148193359375,-0.0035527795553207397
1774658020466859300,0.366859375,-0.023710250854492188,-0.0018768310546875,0.006821990013122559
1774658020476859400,0.376859375,0.007456302642822266,-0.007536888122558594,0.0028936266899108887
1774658020486859300,0.386859375,-0.011118412017822266,0.012134552001953125,0.0009122788906097412
1774658020496859400,0.396859375,-0.012924432754516602,-0.001132965087890625,-0.007356360554695129
1774658020506859300,0.406859375,0.0003829002380371094,0.0051670074462890625,0.008643493056297302
1774658020516859400,0.416859375,0.00029158592224121094,0.004481315612792969,-0.008620023727416992
1774658020526859300,0.426859375,-0.007291316986083984,0.015540122985839844,-0.01229267567396164
1774658020536859400,0.436859375,-0.023544788360595703,0.0027322769165039062,0.014085114002227783
1774658020546859300,0.446859375,-0.0032749176025390625,-0.0000743865966796875,-0.0055401623249053955
1774658020556859400,0.456859375,-0.009351253509521484,0.006732940673828125,-0.01578395813703537
1774658020566859300,0.466859375,-0.014888763427734375,0.0031385421752929688,-0.007432468235492706
1774658020576859400,0.476859375,0.00687408447265625,0.008524894714355469,-0.000044092535972595215
1774658020586859300,0.486859375,0.0063359737396240234,0.008859634399414062,-0.01531839370727539
1774658020596859400,0.496859375,-0.01372671127319336,-0.004635810852050781,-0.02418878674507141
1774658020606859300,0.506859375,-0.0034792423248291016,0.004276275634765625,-0.006642378866672516
1774658020616859400,0.516859375,-0.02337932586669922,-0.001644134521484375,0.006458945572376251
1774658020626859300,0.526859375,0.004557371139526367,0.014446258544921875,-0.0008113160729408264
1774658020636859400,0.536859375,-0.010379552841186523,0.00348663330078125,-0.0019811466336250305
1774658020646859300,0.546859375,-0.014012336730957031,0.010712623596191406,0.009412579238414764
1774658020656859400,0.556859375,0.00937652587890625,-0.0014657974243164062,0.015542246401309967
1774658020666859300,0.566859375,-0.004644632339477539,0.008084297180175781,-0.009936928749084473
1774658020676859400,0.576859375,-0.0254061222076416,-0.008177757263183594,-0.01578529179096222
1774658020686859300,0.586859375,0.02297663688659668,-0.014097213745117188,0.008195243775844574
1774658020696859400,0.596859375,-0.010541677474975586,0.008630752563476562,-0.0008976086974143982
1774658020706859300,0.606859375,-0.006277799606323242,0.018792152404785156,-0.005439549684524536
1774658020716859400,0.616859375,-0.0027008056640625,-0.001758575439453125,0.012723416090011597
1774658020726859300,0.626859375,-0.009586811065673828,-0.014104843139648438,0.006558738648891449
1774658020736859400,0.636859375,-0.008157014846801758,0.005267143249511719,-0.01799933612346649
1774658020746859300,0.646859375,-0.0035903453826904297,0.0037059783935546875,0.0018635690212249756
1774658020756859400,0.656859375,0.025660037994384766,-0.004525184631347656,0.016772888600826263
1774658020766859300,0.666859375,-0.009326457977294922,0.004886627197265625,-0.020699821412563324
1774658020776859400,0.676859375,-0.021322965621948242,0.005215644836425781,-0.011460848152637482
1774658020786859300,0.686859375,0.020722627639770508,-0.013874053955078125,0.02504974603652954
1774658020796859400,0.696859375,0.0008258819580078125,0.0038156509399414062,-0.0015145912766456604
1774658020806859300,0.706859375,-0.008213520050048828,0.01399993896484375,-0.02544333040714264
1774658020816859400,0.716859375,0.015134811401367188,-0.0056915283203125,0.006689302623271942
1774658020826859300,0.726859375,-0.01334381103515625,0.005873680114746094,0.020747698843479156
1774658020836859400,0.736859375,-0.025474071502685547,0.014979362487792969,-0.02757181227207184
1774658020846859300,0.746859375,0.007428884506225586,-0.003911018371582031,0.0054463595151901245
1774658020856859400,0.756859375,0.0014185905456542969,0.00116729736328125,0.01911032199859619
1774658020866859300,0.766859375,-0.02786397933959961,0.014584541320800781,-0.014064103364944458
1774658020876859400,0.776859375,-0.0029473304748535156,-0.0018939971923828125,-0.013084016740322113
1774658020886859300,0.786859375,0.01529073715209961,-0.006161689758300781,0.013295508921146393
1774658020896859400,0.796859375,-0.01055908203125,0.005957603454589844,-0.004639573395252228
1774658020906859300,0.806859375,0.00392460823059082,0.0029535293579101562,-0.016227245330810547
1774658020916859400,0.816859375,0.005995273590087891,-0.011091232299804688,-0.006119735538959503
1774658020926859300,0.826859375,-0.008918285369873047,-0.0005121231079101562,0.007375791668891907
1774658020936859400,0.836859375,-0.002096891403198242,-0.00041866302490234375,-0.010276339948177338
1774658020946859300,0.846859375,0.004297971725463867,-0.005688667297363281,-0.007662221789360046
1774658020956859400,0.856859375,0.006188869476318359,-0.0021076202392578125,0.0072863176465034485
1774658020966859300,0.866859375,-0.013749361038208008,0.007290840148925781,0.009206332266330719
1774658020976859400,0.876859375,0.0035979747772216797,-0.0011682510375976562,-0.003794267773628235
1774658020986859300,0.886859375,-0.002249002456665039,-0.0011739730834960938,-0.005547083914279938
1774658020996859400,0.896859375,-0.020495176315307617,0.0003376007080078125,0.02814183384180069
1774658021006859300,0.906859375,0.0023190975189208984,-0.0073375701904296875,0.002614714205265045
1774658021016859400,0.916859375,-0.006500720977783203,0.0060329437255859375,-0.010814189910888672
1774658021026859300,0.926859375,0.003034830093383789,-0.006007194519042969,0.02026022970676422
1774658021036859400,0.936859375,0.0036954879760742188,0.007063865661621094,0.013712771236896515
1774658021046859300,0.946859375,-0.028682708740234375,0.0010251998901367188,-0.0027820393443107605
1774658021056859400,0.956859375,0.0059659481048583984,0.013037681579589844,-0.0020287930965423584
1774658021066859300,0.966859375,0.01616811752319336,0.023458480834960938,0.01638856530189514
1774658021076859400,0.976859375,-0.023245573043823242,-0.019012451171875,-0.00996813178062439
1774658021086859300,0.986859375,0.0015916824340820312,-0.0035810470581054688,-0.019282236695289612
1774658021096859400,0.996859375,-0.009903192520141602,-0.007939338684082031,0.02017080783843994
1774658021106859300,1.006859375,0.0041539669036865234,0.008250236511230469,-0.007912196218967438
1774658021116859400,1.016859375,0.0026810169219970703,0.00484466552734375,-0.023123107850551605
1774658021126859300,1.026859375,-0.0245513916015625,-0.004802703857421875,0.00975935161113739
1774658021136859400,1.036859375,0.011787176132202148,0.0007486343383789062,0.028915733098983765
1774658021146859300,1.046859375,0.010616302490234375,0.014801025390625,-0.007044203579425812
1774658021156859400,1.056859375,-0.0023229122161865234,0.0067138671875,-0.02347204089164734
1774658021166859300,1.066859375,0.010174751281738281,0.0010976791381835938,0.018114298582077026
1774658021176859400,1.076859375,-0.008577346801757812,0.00046539306640625,0.024845212697982788
1774658021186859300,1.086859375,0.007064104080200195,0.004431724548339844,-0.026790909469127655
1774658021196859400,1.096859375,-0.0005762577056884766,0.005789756774902344,-0.009881190955638885
1774658021206859300,1.106859375,0.003633260726928711,-0.009325027465820312,0.02341526746749878
1774658021216859400,1.116859375,-0.008763790130615234,0.004483222961425781,-0.005212530493736267
1774658021226859300,1.126859375,-0.0036470890045166016,-0.0031757354736328125,-0.01927846670150757
1774658021236859400,1.136859375,-0.0012636184692382812,-0.0008716583251953125,0.012834131717681885
1774658021246859300,1.146859375,-0.0058934688568115234,0.005084991455078125,0.015676937997341156
1774658021256859400,1.156859375,-0.0008969306945800781,0.0023813247680664062,-0.02178432047367096
1774658021266859300,1.166859375,0.0023279190063476562,0.0037221908569335938,-0.009662032127380371
1774658021276859400,1.176859375,-0.012286901473999023,-0.0003814697265625,0.016642704606056213
1774658021286859300,1.186859375,-0.004444599151611328,0.0016679763793945312,0.0012846887111663818
1774658021296859400,1.196859375,0.0009148120880126953,-0.0083770751953125,-0.01289801299571991
1774658021306859300,1.206859375,0.0027730464935302734,0.009359359741210938,0.020376116037368774
1774658021316859400,1.216859375,0.003068685531616211,0.001163482666015625,0.010784447193145752
1774658021326859300,1.226859375,-0.0062100887298583984,0.0010499954223632812,-0.010127313435077667
1774658021336859400,1.236859375,0.0005404949188232422,-0.015108108520507812,0.001978941261768341
1774658021346859300,1.246859375,-0.004537343978881836,0.0073871612548828125,-0.0007559582591056824
1774658021356859400,1.256859375,-0.006224632263183594,-0.0044116973876953125,-0.00005727261304855347
1774658021366859300,1.266859375,0.0004489421844482422,0.006386756896972656,-0.0026647374033927917
1774658021376859400,1.276859375,0.01398468017578125,0.003930091857910156,0.0087590292096138
1774658021386859300,1.286859375,-0.008989095687866211,0.009212493896484375,0.011193916201591492
1774658021396859400,1.296859375,-0.004283905029296875,0.004425048828125,-0.0018106848001480103
1774658021406859300,1.306859375,-0.0010721683502197266,0.0018072128295898438,-0.003184899687767029
1774658021416859400,1.316859375,0.0027227401733398438,0.012265205383300781,0.0008179694414138794
1774658021426859300,1.326859375,0.00858306884765625,-0.0013484954833984375,0.010514147579669952
1774658021436859400,1.336859375,-0.011587858200073242,0.01997089385986328,0.00206129252910614
1774658021446859300,1.346859375,-0.001819610595703125,0.005764007568359375,-0.003764830529689789
1774658021456859400,1.356859375,0.0039048194885253906,0.00000667572021484375,0.003844544291496277
1774658021466859300,1.366859375,-0.009053945541381836,0.00450897216796875,0.006748028099536896
1774658021476859400,1.376859375,-0.012004375457763672,0.007658958435058594,-0.0011773109436035156
1774658021486859300,1.386859375,0.006416797637939453,0.008282661437988281,0.0004676133394241333
1774658021496859400,1.396859375,-0.016886234283447266,-0.0031719207763671875,0.006689630448818207
1774658021506859300,1.406859375,0.009033918380737305,-0.0045166015625,0.007891520857810974
1774658021516859400,1.416859375,-0.012696981430053711,0.013407707214355469,-0.01136510819196701
1774658021526859300,1.426859375,0.0036313533782958984,0.004517555236816406,-0.008401736617088318
1774658021536859400,1.436859375,0.0012710094451904297,0.004009246826171875,0.0028568878769874573
1774658021546859300,1.446859375,0.004579305648803711,-0.004364967346191406,-0.009807758033275604
1774658021556859400,1.456859375,-0.001791238784790039,-0.0029087066650390625,-0.010909400880336761
1774658021566859300,1.466859375,-0.026240825653076172,-0.0018873214721679688,0.0014339089393615723
1774658021576859400,1.476859375,-0.00010561943054199219,-0.006134033203125,0.014545448124408722
1774658021586859300,1.486859375,0.004117250442504883,0.0014591217041015625,-0.008221141993999481
1774658021596859400,1.496859375,0.0006563663482666016,-0.0036230087280273438,-0.011156462132930756
1774658021606859300,1.506859375,0.0017867088317871094,-0.004101753234863281,0.008570678532123566
1774658021616859400,1.516859375,-0.009272098541259766,-0.0019207000732421875,0.0023207291960716248
1774658021626859300,1.526859375,-0.006902456283569336,0.005326271057128906,-0.014722637832164764
1774658021636859400,1.536859375,0.0030219554901123047,0.00051116943359375,-0.0029124394059181213
1774658021646859300,1.546859375,-0.020767688751220703,0.00396728515625,0.008018411695957184
1774658021656859400,1.556859375,-0.007554054260253906,0.004990577697753906,-0.003444381058216095
1774658021666859300,1.566859375,0.0008327960968017578,-0.006194114685058594,0.009551391005516052
1774658021676859400,1.576859375,0.006223201751708984,0.0033521652221679688,0.010740436613559723
1774658021686859300,1.586859375,-0.0050470829010009766,-0.0023651123046875,-0.0024753138422966003
1774658021696859400,1.596859375,0.011606216430664062,0.010766983032226562,0.006380520761013031
1774658021706859300,1.606859375,0.002481222152709961,-0.011881828308105469,0.0055509209632873535
1774658021716859400,1.616859375,-0.005326032638549805,-0.0010023117065429688,-0.009452395141124725
1774658021726859300,1.626859375,-0.002766132354736328,0.0031633377075195312,-0.006587415933609009
1774658021736859400,1.636859375,0.008278369903564453,-0.0036020278930664062,0.004019588232040405
1774658021746859300,1.646859375,0.0165097713470459,0.004933357238769531,0.00559370219707489
1774658021756859400,1.656859375,-0.013428688049316406,0.005970001220703125,0.0007987022399902344
1774658021766859300,1.666859375,-0.0014801025390625,-0.0021753311157226562,-0.0009464845061302185
1774658021776859400,1.676859375,-0.016752243041992188,-0.0020847320556640625,0.0017232149839401245
1774658021786859300,1.686859375,-0.014500617980957031,0.004069328308105469,-0.0051296427845954895
1774658021796859400,1.696859375,-0.004941463470458984,0.0023374557495117188,0.004431404173374176
1774658021806859300,1.706859375,0.00898599624633789,-0.0031213760375976562,0.009337954223155975
1774658021816859400,1.716859375,-0.01606297492980957,0.013209342956542969,0.004279486835002899
1774658021826859300,1.726859375,0.03153061866760254,0.0016374588012695312,-0.00014082342386245728
1774658021836859400,1.736859375,-0.008676290512084961,0.0026063919067382812,0.0015789568424224854
1774658021846859300,1.746859375,0.006776332855224609,0.00528717041015625,-0.002298600971698761
1774658021856859400,1.756859375,-0.00101470947265625,0.006085395812988281,-0.004099428653717041
1774658021866859300,1.766859375,0.009353160858154297,0.003711700439453125,0.005159758031368256
1774658021876859400,1.776859375,0.00042748451232910156,0.0020360946655273438,-0.0028433427214622498
1774658021886859300,1.786859375,0.0009362697601318359,0.017487525939941406,-0.004457369446754456
1774658021896859400,1.796859375,-0.021275997161865234,-0.07377910614013672,-0.030430443584918976
1774658021906859300,1.806859375,0.16280341148376465,0.013615608215332031,0.05459178611636162
1774658021916859400,1.816859375,-0.5471713542938232,0.1868572235107422,-0.014188602566719055
1774658021926859300,1.826859375,0.6106672286987305,-0.264984130859375,-0.1348992884159088
1774658021936859400,1.836859375,-0.01624011993408203,0.058768272399902344,0.09926679730415344
1774658021946859300,1.846859375,-0.5106463432312012,0.18233299255371094,0.13129502534866333
1774658021956859400,1.856859375,0.48295092582702637,-0.21103286743164062,-0.16877883672714233
1774658021966859300,1.866859375,-0.00028705596923828125,0.0002765655517578125,-0.11981862783432007
1774658021976859400,1.876859375,-0.29398655891418457,0.15564823150634766,0.150369793176651
1774658021986859300,1.886859375,0.2063889503479004,-0.13884544372558594,0.06632290780544281
1774658021996859400,1.896859375,-0.018756628036499023,0.030226707458496094,-0.16498024761676788
1774658022006859300,1.906859375,-0.017898082733154297,0.03180694580078125,0.016742296516895294
1774658022016859400,1.916859375,-0.03198552131652832,-0.0009889602661132812,0.2984495759010315
1774658022026859300,1.926859375,0.02500629425048828,-0.03796195983886719,0.00674186646938324
1774658022036859400,1.936859375,0.1316816806793213,-0.052054405212402344,-0.2856402099132538
1774658022046859300,1.946859375,-0.3112063407897949,0.1567058563232422,0.06763388961553574
1774658022056859400,1.956859375,0.2510643005371094,-0.1660785675048828,0.18230503797531128
1774658022066859300,1.966859375,-0.019977569580078125,-0.005824089050292969,-0.14148491621017456
1774658022076859400,1.976859375,-0.2086939811706543,0.12625980377197266,-0.1520007848739624
1774658022086859300,1.986859375,0.1548779010772705,-0.09441375732421875,0.21060803532600403
1774658022096859400,1.996859375,-0.03606057167053223,-0.01762866973876953,0.14839142560958862
1774658022106859300,2.006859375,-0.04266929626464844,0.018929481506347656,-0.2508311867713928
1774658022116859400,2.016859375,-0.010396003723144531,0.05124950408935547,-0.13941141963005066
1774658022126859300,2.026859375,0.05252957344055176,-0.028961181640625,0.19621294736862183
1774658022136859400,2.036859375,0.07099199295043945,-0.02383899688720703,-0.015610136091709137
1774658022146859300,2.046859375,-0.14522910118103027,0.12527847290039062,-0.22909384965896606
1774658022156859400,2.056859375,0.009010553359985352,-0.013539314270019531,0.09755814075469971
1774658022166859300,2.066859375,0.1099252700805664,-0.07557964324951172,0.2655816674232483
1774658022176859400,2.076859375,-0.12069511413574219,0.060753822326660156,-0.08548196405172348
1774658022186859300,2.086859375,-0.05416989326477051,-0.00029277801513671875,-0.20029759407043457
1774658022196859400,2.096859375,0.22185659408569336,-0.06466865539550781,0.15007038414478302
1774658022206859300,2.106859375,-0.11835455894470215,0.04234886169433594,0.16721343994140625
1774658022216859400,2.116859375,-0.020618915557861328,0.03890800476074219,-0.1682119518518448
1774658022226859300,2.126859375,0.12495231628417969,-0.049381256103515625,-0.09412793815135956
1774658022236859400,2.136859375,-0.03197145462036133,0.018446922302246094,0.19195565581321716
1774658022246859300,2.146859375,-0.03950667381286621,-0.024072647094726562,0.010243870317935944
1774658022256859400,2.156859375,0.048299551010131836,-0.011078834533691406,-0.1927165538072586
1774658022266859300,2.166859375,-0.10537171363830566,0.037784576416015625,0.0012029781937599182
1774658022276859400,2.176859375,0.007391929626464844,-0.01788330078125,0.11999993771314621
1774658022286859300,2.186859375,0.08702754974365234,-0.047847747802734375,-0.08147229254245758
1774658022296859400,2.196859375,-0.08349394798278809,0.0731201171875,-0.1136789619922638
1774658022306859300,2.206859375,-0.0010640621185302734,-0.018187522888183594,0.06182670220732689
1774658022316859400,2.216859375,0.051043033599853516,-0.01183319091796875,0.01927199959754944
1774658022326859300,2.226859375,-0.0040357112884521484,0.002361297607421875,-0.12228719890117645
1774658022336859400,2.236859375,-0.05637478828430176,0.012048721313476562,-0.004622906446456909
1774658022346859300,2.246859375,0.07844424247741699,-0.05044364929199219,0.1294420212507248
1774658022356859400,2.256859375,-0.006071805953979492,0.017160415649414062,0.0012128502130508423
1774658022366859300,2.266859375,-0.0680081844329834,0.05244159698486328,-0.08618474751710892
1774658022376859400,2.276859375,0.13431596755981445,-0.05990409851074219,0.04734199494123459
1774658022386859300,2.286859375,-0.026317119598388672,0.01897144317626953,0.11853357404470444
1774658022396859400,2.296859375,-0.016582965850830078,0.013829231262207031,-0.0387217178940773
1774658022406859300,2.306859375,0.014725685119628906,0.007397651672363281,-0.05422716587781906
1774658022416859400,2.316859375,-0.04242563247680664,0.00704193115234375,0.12244722992181778
1774658022426859300,2.326859375,-0.005052328109741211,0.001922607421875,0.06506048887968063
1774658022436859400,2.336859375,-0.029483318328857422,0.0031909942626953125,-0.10096906125545502
1774658022446859300,2.346859375,-0.014482975006103516,-0.004657745361328125,-0.0511673241853714
1774658022456859400,2.356859375,0.013299942016601562,-0.012210845947265625,0.03361058235168457
1774658022466859300,2.366859375,0.010501861572265625,-0.005410194396972656,-0.034198276698589325
1774658022476859400,2.376859375,0.010415315628051758,-0.00131988525390625,-0.03847822546958923
1774658022486859300,2.386859375,0.00035834312438964844,-0.0007171630859375,0.05361881107091904
1774658022496859400,2.396859375,0.0634756088256836,-0.04094409942626953,0.02622266113758087
1774658022506859300,2.406859375,-0.011842012405395508,0.012910842895507812,-0.0723104327917099
1774658022516859400,2.416859375,-0.05388522148132324,0.033237457275390625,-0.0519692525267601
1774658022526859300,2.426859375,0.033525943756103516,-0.020859718322753906,0.028891094028949738
1774658022536859400,2.436859375,-0.04126310348510742,0.02440929412841797,0.00435812771320343
1774658022546859300,2.446859375,-0.03856015205383301,0.021251678466796875,-0.03017391264438629
1774658022556859400,2.456859375,0.006864070892333984,0.0006847381591796875,0.07085186243057251
1774658022566859300,2.466859375,0.005276203155517578,0.00699615478515625,0.1013522744178772
1774658022576859400,2.476859375,0.004723310470581055,0.00370025634765625,-0.018992356956005096
1774658022586859300,2.486859375,0.037845611572265625,0.0028867721557617188,-0.023660629987716675
1774658022596859400,2.496859375,0.03728985786437988,-0.018492698669433594,0.04721186310052872
1774658022606859300,2.506859375,-0.031080245971679688,0.0025339126586914062,0.0004063025116920471
1774658022616859400,2.516859375,0.025776147842407227,0.008532524108886719,-0.060330264270305634
1774658022626859300,2.526859375,-0.07279610633850098,-0.016292572021484375,0.007475577294826508
1774658022636859400,2.536859375,0.04789566993713379,-0.0068511962890625,0.02607966959476471
1774658022646859300,2.546859375,-0.02373194694519043,-0.0007753372192382812,-0.03882075101137161
1774658022656859400,2.556859375,-0.03730487823486328,0.044753074645996094,-0.010363169014453888
1774658022666859300,2.566859375,0.08621048927307129,-0.046059608459472656,0.024150677025318146
1774658022676859400,2.576859375,-0.06717991828918457,0.041106224060058594,0.0031063631176948547
1774658022686859300,2.586859375,0.016467571258544922,0.01911449432373047,-0.06372969597578049
1774658022696859400,2.596859375,0.008120536804199219,0.005103111267089844,-0.0045704469084739685
1774658022706859300,2.606859375,-0.07010555267333984,-0.008324623107910156,0.03836597502231598
1774658022716859400,2.616859375,0.0871272087097168,-0.044936180114746094,-0.05353374034166336
1774658022726859300,2.626859375,-0.12229156494140625,0.021249771118164062,-0.017478860914707184
1774658022736859400,2.636859375,0.13451027870178223,-0.07122135162353516,0.03969696909189224
1774658022746859300,2.646859375,-0.0050258636474609375,0.008744239807128906,0.04846479743719101
1774658022756859400,2.656859375,-0.10841727256774902,0.06246662139892578,0.0072099268436431885
1774658022766859300,2.666859375,0.27490735054016113,-0.045983314514160156,-0.041181065142154694
1774658022776859400,2.676859375,-0.26523661613464355,0.06728267669677734,0.07782575488090515
1774658022786859300,2.686859375,0.1253490447998047,-0.047196388244628906,-0.0036824792623519897
1774658022796859400,2.696859375,0.03801774978637695,0.007056236267089844,-0.07974083721637726
1774658022806859300,2.706859375,-0.1705186367034912,0.07251167297363281,0.059758834540843964
1774658022816859400,2.716859375,0.22701478004455566,-0.09328842163085938,0.014502204954624176
1774658022826859300,2.726859375,-0.14293336868286133,0.06276988983154297,-0.04779791086912155
1774658022836859400,2.736859375,0.028310298919677734,0.03290557861328125,-0.051654115319252014
1774658022846859300,2.746859375,0.09567928314208984,-0.03940010070800781,0.017261981964111328
1774658022856859400,2.756859375,-0.11490631103515625,0.050505638122558594,0.011792950332164764
1774658022866859300,2.766859375,0.08896541595458984,-0.02013683319091797,-0.03670373558998108
1774658022876859400,2.776859375,-0.060441017150878906,0.02886486053466797,0.04852602630853653
1774658022886859300,2.786859375,-0.00558924674987793,-0.012124061584472656,0.08430986106395721
1774658022896859400,2.796859375,0.05351710319519043,-0.04362678527832031,0.002920381724834442
1774658022906859300,2.806859375,-0.13734126091003418,0.044783592224121094,-0.00959150493144989
1774658022916859400,2.816859375,0.06128978729248047,-0.06157493591308594,0.038479000329971313
1774658022926859300,2.826859375,-0.02360248565673828,0.0046863555908203125,0.043189242482185364
1774658022936859400,2.836859375,-0.02324962615966797,0.012029647827148438,-0.012983359396457672
1774658022946859300,2.846859375,0.031334877014160156,-0.043010711669921875,-0.013196408748626709
1774658022956859400,2.856859375,-0.026568174362182617,0.018604278564453125,0.03806644678115845
1774658022966859300,2.866859375,0.017795801162719727,-0.05337047576904297,-0.008630648255348206
1774658022976859400,2.876859375,-0.02020263671875,0.015329360961914062,-0.0679892897605896
1774658022986859300,2.886859375,0.021205902099609375,-0.014596939086914062,-0.03810705989599228
1774658022996859400,2.896859375,0.03135490417480469,-0.0071315765380859375,-0.020651109516620636
1774658023006859300,2.906859375,-0.0604090690612793,0.049689292907714844,-0.046106480062007904
1774658023016859400,2.916859375,-0.017713308334350586,0.0031328201293945312,-0.0998881608247757
1774658023026859300,2.926859375,-0.021759033203125,-0.031818389892578125,-0.03302626311779022
1774658023036859400,2.936859375,-0.0035212039947509766,-0.0001220703125,0.01442822813987732
1774658023046859300,2.946859375,0.042691946029663086,0.0007762908935546875,-0.04328851401805878
1774658023056859400,2.956859375,0.024499893188476562,0.00392913818359375,-0.03892560303211212
1774658023066859300,2.966859375,0.025293350219726562,-0.025800704956054688,0.03692806512117386
1774658023076859400,2.976859375,-0.012921333312988281,0.00032138824462890625,0.04398944228887558
1774658023086859300,2.986859375,0.0009484291076660156,-0.018280029296875,-0.030454173684120178
1774658023096859400,2.996859375,-0.02785181999206543,-0.014413833618164062,-0.010531440377235413
1774658023106859300,3.006859375,-0.042957305908203125,-0.011479377746582031,0.07435622811317444
1774658023116859400,3.016859375,0.08503174781799316,-0.03220176696777344,0.03409211337566376
1774658023126859300,3.026859375,-0.06913256645202637,0.028847694396972656,-0.03700642287731171
1774658023136859400,3.036859375,-0.002543210983276367,0.0031147003173828125,0.004766136407852173
1774658023146859300,3.046859375,0.05672907829284668,-0.03150463104248047,0.03639288246631622
1774658023156859400,3.056859375,-0.035477638244628906,0.029081344604492188,-0.0561763271689415
1774658023166859300,3.066859375,0.04290294647216797,0.013854026794433594,-0.09935631603002548
1774658023176859400,3.076859375,0.02184152603149414,0.01772308349609375,0.02849855273962021
1774658023186859300,3.086859375,0.016276121139526367,0.042243003845214844,0.006547883152961731
1774658023196859400,3.096859375,-0.014651298522949219,0.01629924774169922,-0.09327791631221771
1774658023206859300,3.106859375,-0.07480001449584961,-0.06478309631347656,-0.023303531110286713
1774658023216859400,3.116859375,0.06391000747680664,0.0717763900756836,0.22820287942886353
1774658023226859300,3.126859375,-0.01572418212890625,0.07116985321044922,0.15487754344940186
1774658023236859400,3.136859375,-0.15488529205322266,-0.02793121337890625,-0.05762593448162079
1774658023246859300,3.146859375,0.07907724380493164,0.0025053024291992188,-0.04231250286102295
1774658023256859400,3.156859375,0.09475278854370117,0.0036935806274414062,0.030572332441806793
1774658023266859300,3.166859375,-0.07666468620300293,-0.025592803955078125,0.021703891456127167
1774658023276859400,3.176859375,0.13887596130371094,-0.03643989562988281,0.00023844093084335327
1774658023286859300,3.186859375,-0.0036046504974365234,-0.0006227493286132812,0.0843646228313446
1774658023296859400,3.196859375,-0.10413432121276855,0.030066490173339844,0.03445474058389664
1774658023306859300,3.206859375,0.04711747169494629,-0.048819541931152344,-0.06198491156101227
1774658023316859400,3.216859375,0.030838966369628906,-0.015741348266601562,-0.07749386131763458
1774658023326859300,3.226859375,-0.08664727210998535,0.050314903259277344,-0.03505294770002365
1774658023336859400,3.236859375,-0.021226167678833008,0.011478424072265625,-0.019350826740264893
1774658023346859300,3.246859375,0.012182474136352539,0.009418487548828125,-0.018991418182849884
1774658023356859400,3.256859375,-0.04025387763977051,0.0321502685546875,-0.014255799353122711
1774658023366859300,3.266859375,-0.0024302005767822266,0.004677772521972656,0.011086821556091309
1774658023376859400,3.276859375,0.08269357681274414,0.01262664794921875,0.05141254514455795
1774658023386859300,3.286859375,0.013629913330078125,0.021020889282226562,0.015449397265911102
1774658023396859400,3.296859375,-0.04119729995727539,0.02768993377685547,-0.029745250940322876
1774658023406859300,3.306859375,0.0228731632232666,-0.045479774475097656,0.012807734310626984
1774658023416859400,3.316859375,0.02761387825012207,0.004553794860839844,0.1173427477478981
1774658023426859300,3.326859375,-0.08428049087524414,0.007006645202636719,0.05678050220012665
1774658023436859400,3.336859375,0.08310914039611816,-0.01834392547607422,0.008870862424373627
1774658023446859300,3.346859375,-0.12564468383789062,0.024801254272460938,0.06467138230800629
1774658023456859400,3.356859375,0.07124543190002441,-0.014041900634765625,0.07790627330541611
1774658023466859300,3.366859375,0.045107364654541016,-0.01879596710205078,0.022498592734336853
1774658023476859400,3.376859375,-0.043187618255615234,0.009862899780273438,-0.02186787873506546
1774658023486859300,3.386859375,0.026899099349975586,-0.006579399108886719,-0.00915227085351944
1774658023496859400,3.396859375,-0.012811660766601562,0.034623146057128906,-0.018893428146839142
1774658023506859300,3.406859375,-0.033570289611816406,0.0038623809814453125,-0.06497137993574142
1774658023516859400,3.416859375,0.03289604187011719,-0.01900482177734375,-0.06598854809999466
1774658023526859300,3.426859375,-0.036511898040771484,0.026328086853027344,0.0024753957986831665
1774658023536859400,3.436859375,-0.06380534172058105,-0.007925033569335938,-0.02447688579559326
1774658023546859300,3.446859375,0.04535412788391113,-0.016805648803710938,-0.060366153717041016
1774658023556859400,3.456859375,0.031677961349487305,-0.012799263000488281,-0.018793240189552307
1774658023566859300,3.466859375,0.03918004035949707,-0.0029325485229492188,-0.006959967315196991
1774658023576859400,3.476859375,-0.04538297653198242,-0.022573471069335938,0.010905735194683075
1774658023586859300,3.486859375,-0.02132558822631836,0.022559165954589844,0.006569772958755493
1774658023596859400,3.496859375,0.09152436256408691,-0.028258323669433594,0.011295229196548462
1774658023606859300,3.506859375,-0.14467549324035645,0.03134918212890625,0.048254892230033875
1774658023616859400,3.516859375,0.15171074867248535,-0.07599735260009766,0.057260170578956604
1774658023626859300,3.526859375,-0.020514965057373047,0.0045490264892578125,0.041424110531806946
1774658023636859400,3.536859375,-0.12134552001953125,0.041808128356933594,0.012837857007980347
1774658023646859300,3.546859375,0.08258223533630371,-0.022057533264160156,-0.0011414960026741028
1774658023656859400,3.556859375,-0.0222623348236084,0.0063762664794921875,-0.010510936379432678
1774658023666859300,3.566859375,-0.0021169185638427734,0.02125072479248047,-0.03793971985578537
1774658023676859400,3.576859375,0.032041311264038086,-0.009258270263671875,-0.04115980863571167
1774658023686859300,3.586859375,0.02434515953063965,0.027298927307128906,-0.007247231900691986
1774658023696859400,3.596859375,-0.07133150100708008,0.04151344299316406,-0.022153690457344055
1774658023706859300,3.606859375,-0.0011322498321533203,-0.010986328125,-0.025379516184329987
1774658023716859400,3.616859375,0.043821096420288086,0.033039093017578125,0.010253697633743286
1774658023726859300,3.626859375,-0.022286176681518555,-0.022157669067382812,-0.019390232861042023
1774658023736859400,3.636859375,-0.0310366153717041,0.035935401916503906,-0.06710424274206161
1774658023746859300,3.646859375,0.07436108589172363,-0.0020284652709960938,0.026386037468910217
1774658023756859400,3.656859375,-0.11268901824951172,0.055085182189941406,0.10006211698055267
1774658023766859300,3.666859375,0.11419391632080078,-0.06661605834960938,0.019166551530361176
1774658023776859400,3.676859375,-0.02448272705078125,0.02787303924560547,0.006045013666152954
1774658023786859300,3.686859375,-0.10488319396972656,0.012913703918457031,0.07675907015800476
1774658023796859400,3.696859375,0.11541223526000977,-0.033867835998535156,0.02280014008283615
1774658023806859300,3.706859375,-0.06470847129821777,-0.020877838134765625,-0.011704891920089722
1774658023816859400,3.716859375,0.010565519332885742,0.022129058837890625,-0.011516302824020386
1774658023826859300,3.726859375,0.040302276611328125,-0.036940574645996094,0.014589011669158936
1774658023836859400,3.736859375,-0.052945852279663086,0.022008895874023438,-0.05052416771650314
1774658023846859300,3.746859375,0.07545113563537598,-0.03636360168457031,-0.10022676736116409
1774658023856859400,3.756859375,-0.05442929267883301,0.015483856201171875,-0.01572740077972412
1774658023866859300,3.766859375,0.033524274826049805,-0.011240959167480469,0.012997135519981384
1774658023876859400,3.776859375,0.07799434661865234,-0.03432750701904297,-0.038083791732788086
1774658023886859300,3.786859375,-0.1318044662475586,0.0547332763671875,-0.051198169589042664
1774658023896859400,3.796859375,0.065673828125,-0.014998435974121094,-0.008471332490444183
1774658023906859300,3.806859375,0.011873960494995117,-0.009877204895019531,0.02431797981262207
1774658023916859400,3.816859375,-0.042762041091918945,0.0372772216796875,-0.0029246509075164795
1774658023926859300,3.826859375,0.05116605758666992,-0.02803325653076172,-0.007740229368209839
1774658023936859400,3.836859375,-0.07689118385314941,0.02782726287841797,0.05783379077911377
1774658023946859300,3.846859375,0.08249187469482422,-0.006134986877441406,0.032873257994651794
1774658023956859400,3.856859375,-0.03240561485290527,0.011438369750976562,-0.0053880661725997925
1774658023966859300,3.866859375,-0.10997343063354492,0.04190254211425781,0.013414517045021057
1774658023976859400,3.876859375,0.10268807411193848,-0.06177234649658203,0.07151936739683151
1774658023986859300,3.886859375,-0.10134196281433105,0.044830322265625,0.029361270368099213
1774658023996859400,3.896859375,-0.04001951217651367,-0.0059566497802734375,-0.03109227865934372
1774658024006859300,3.906859375,0.07186555862426758,-0.050334930419921875,-0.01926720142364502
1774658024016859400,3.916859375,-0.0704042911529541,0.02891254425048828,0.024884507060050964
1774658024026859300,3.926859375,0.005587100982666016,0.027223587036132812,-0.052981093525886536
1774658024036859400,3.936859375,0.08688139915466309,-0.034653663635253906,-0.049395397305488586
1774658024046859300,3.946859375,0.016565799713134766,-0.021228790283203125,-0.011055223643779755
1774658024056859400,3.956859375,0.055997610092163086,-0.054637908935546875,-0.03598744422197342
1774658024066859300,3.966859375,0.00012874603271484375,0.025254249572753906,-0.04023271054029465
1774658024076859400,3.976859375,0.011641263961791992,0.00012874603271484375,0.02507580816745758
1774658024086859300,3.986859375,0.15742921829223633,-0.13752460479736328,0.020229116082191467
1774658024096859400,3.996859375,-0.06760740280151367,0.02167987823486328,0.012688897550106049
1774658024106859300,4.006859375,0.07902789115905762,-0.04275321960449219,-0.025992341339588165
1774658024116859400,4.016859375,-0.15503549575805664,0.04033660888671875,0.0032298043370246887
1774658024126859300,4.026859375,-0.03475189208984375,0.07233524322509766,0.008294537663459778
1774658024136859400,4.036859375,-0.0052165985107421875,-0.03587913513183594,0.04987238347530365
1774658024146859300,4.046859375,-0.05072593688964844,0.0387420654296875,0.10077324509620667
1774658024156859400,4.056859375,0.08812117576599121,-0.04459095001220703,0.041191063821315765
1774658024166859300,4.066859375,-0.3075740337371826,0.12261676788330078,-0.0109209343791008
1774658024176859400,4.076859375,0.22963285446166992,0.015872955322265625,0.009826600551605225
1774658024186859300,4.086859375,-0.14001131057739258,-0.019731521606445312,0.00931115448474884
1774658024196859400,4.096859375,-0.06919717788696289,-0.027202606201171875,-0.08667296171188354
1774658024206859300,4.106859375,0.2245180606842041,-0.02999114990234375,-0.116542287170887
1774658024216859400,4.116859375,-0.04779052734375,0.015985488891601562,0.11586293578147888
1774658024226859300,4.126859375,0.029404640197753906,0.016671180725097656,0.1545676290988922
1774658024236859400,4.136859375,0.20278120040893555,-0.13384723663330078,-0.035323284566402435
1774658024246859300,4.146859375,-0.04277944564819336,0.06352424621582031,-0.22417989373207092
1774658024256859400,4.156859375,-0.03919267654418945,-0.046547889709472656,-0.16001641750335693
1774658024266859300,4.166859375,0.09574151039123535,0.05859088897705078,-0.020805485546588898
1774658024276859400,4.176859375,-0.12037086486816406,0.03668403625488281,-0.0056500062346458435
1774658024286859300,4.186859375,-0.026090145111083984,-0.016399383544921875,-0.04386628419160843
1774658024296859400,4.196859375,-0.10155653953552246,0.08502006530761719,0.06272469460964203
1774658024306859300,4.206859375,0.05276155471801758,-0.10242080688476562,0.08164644986391068
1774658024316859400,4.216859375,0.07647109031677246,0.10693359375,-0.0026001855731010437
1774658024326859300,4.226859375,0.005939960479736328,0.11792755126953125,0.019680596888065338
1774658024336859400,4.236859375,0.03335404396057129,-0.06630706787109375,0.08494790643453598
1774658024346859300,4.246859375,-0.08480525016784668,-0.026551246643066406,0.10405589640140533
1774658024356859400,4.256859375,0.04732918739318848,0.08498764038085938,0.028082937002182007
1774658024366859300,4.266859375,0.2949178218841553,-0.13489723205566406,0.031317338347435
1774658024376859400,4.276859375,-0.2538919448852539,0.10243034362792969,0.02078183740377426
1774658024386859300,4.286859375,0.04200100898742676,-0.08844947814941406,-0.0438726469874382
1774658024396859400,4.296859375,-0.15142345428466797,-0.019500732421875,-0.1392894685268402
1774658024406859300,4.306859375,-0.05908060073852539,0.08925247192382812,0.04152818024158478
1774658024416859400,4.316859375,0.1931777000427246,0.02435016632080078,0.16476395726203918
1774658024426859300,4.326859375,-0.14699268341064453,-0.017273902893066406,-0.016246378421783447
1774658024436859400,4.336859375,-0.3095846176147461,0.23371410369873047,-0.11679653823375702
1774658024446859300,4.346859375,0.6435909271240234,-0.18538475036621094,-0.1381760537624359
1774658024456859400,4.356859375,-0.3114919662475586,-0.032375335693359375,0.15217217803001404
1774658024466859300,4.366859375,0.22010445594787598,-0.006305694580078125,0.08629018068313599
1774658024476859400,4.376859375,0.16002964973449707,-0.12076854705810547,-0.18808022141456604
1774658024486859300,4.386859375,-0.44582676887512207,0.3529996871948242,0.1326199173927307
1774658024496859400,4.396859375,0.6194860935211182,-0.08246040344238281,0.2470635175704956
1774658024506859300,4.406859375,0.02024388313293457,-0.056090354919433594,-0.10777366906404495
1774658024516859400,4.416859375,-0.6061716079711914,0.19963741302490234,-0.10424632579088211
1774658024526859300,4.426859375,0.61488938331604,-0.3095827102661133,0.1495441049337387
1774658024536859400,4.436859375,-0.9105515480041504,-0.07358360290527344,0.0544525645673275
1774658024546859300,4.446859375,0.6226027011871338,-0.15091228485107422,-0.38494256138801575
1774658024556859400,4.456859375,-0.021575450897216797,-0.13872909545898438,-0.19151858985424042
1774658024566859300,4.466859375,-0.4836878776550293,0.18615436553955078,-0.04521409422159195
1774658024576859400,4.476859375,0.393810510635376,-0.23727798461914062,-0.31873196363449097
1774658024586859300,4.486859375,-0.33584022521972656,0.1459817886352539,0.020688913762569427
1774658024596859400,4.496859375,0.2323453426361084,-0.2078399658203125,0.24585320055484772
1774658024606859300,4.506859375,0.09802031517028809,0.027133941650390625,-0.11411622911691666
1774658024616859400,4.516859375,-0.017148494720458984,0.018377304077148438,-0.22194506227970123
1774658024626859300,4.526859375,0.18387508392333984,-0.13374900817871094,0.2939205765724182
1774658024636859400,4.536859375,-0.2062366008758545,0.042000770568847656,0.05981969088315964
1774658024646859300,4.546859375,0.4863276481628418,0.09589672088623047,-0.4268648028373718
1774658024656859400,4.556859375,-0.5546643733978271,0.104949951171875,0.21071487665176392
1774658024666859300,4.566859375,0.06766366958618164,-0.039206504821777344,0.38521963357925415
1774658024676859400,4.576859375,0.0408625602722168,0.07851505279541016,-0.05679028481245041
1774658024686859300,4.586859375,-0.13059520721435547,0.01568603515625,-0.1160617470741272
1774658024696859400,4.596859375,-0.08512616157531738,0.026619911193847656,0.2765713334083557
1774658024706859300,4.606859375,0.20549869537353516,-0.1617259979248047,0.10376469045877457
1774658024716859400,4.616859375,-0.03906679153442383,0.07108306884765625,-0.3608682453632355
1774658024726859300,4.626859375,-0.1420445442199707,0.06291866302490234,-0.05312492698431015
1774658024736859400,4.636859375,0.276080846786499,-0.09863853454589844,0.23298296332359314
1774658024746859300,4.646859375,-0.0704190731048584,0.012457847595214844,-0.07995489239692688
1774658024756859400,4.656859375,-0.02176189422607422,0.050688743591308594,-0.21535557508468628
1774658024766859300,4.666859375,0.10565567016601562,-0.08068275451660156,0.14786583185195923
1774658024776859400,4.676859375,-0.048348188400268555,-0.01959991455078125,0.09459811449050903
1774658024786859300,4.686859375,-0.03221440315246582,0.08852005004882812,-0.2450951337814331
1774658024796859400,4.696859375,-0.01949310302734375,-0.0033245086669921875,-0.05741186439990997
1774658024806859300,4.706859375,0.0012898445129394531,0.0026941299438476562,0.21325388550758362
1774658024816859400,4.716859375,0.009561538696289062,0.042201995849609375,0.007806472480297089
1774658024826859300,4.726859375,-0.08363676071166992,0.035750389099121094,-0.10839772969484329
1774658024836859400,4.736859375,0.03177666664123535,-0.008582115173339844,0.13025858998298645
1774658024846859300,4.746859375,-0.0017969608306884766,-0.03759479522705078,0.14804217219352722
1774658024856859400,4.756859375,-0.036055803298950195,0.025048255920410156,-0.0586630180478096
1774658024866859300,4.766859375,0.0650491714477539,-0.04257774353027344,-0.024111315608024597
1774658024876859400,4.776859375,-0.04258871078491211,-0.004580497741699219,0.09822840243577957
1774658024886859300,4.786859375,0.004520893096923828,-0.005793571472167969,-0.012494057416915894
1774658024896859400,4.796859375,-0.0004949569702148438,-0.017180442810058594,-0.10272686183452606
1774658024906859300,4.806859375,-0.016880512237548828,0.0100250244140625,0.0027226805686950684
1774658024916859400,4.816859375,0.00051116943359375,-0.02947235107421875,0.05334097892045975
1774658024926859300,4.826859375,-0.014942169189453125,0.02498149871826172,-0.037439920008182526
1774658024936859400,4.836859375,-0.0423884391784668,0.032196998596191406,-0.05204383283853531
1774658024946859300,4.846859375,0.0047702789306640625,0.016020774841308594,-0.0024623647332191467
1774658024956859400,4.856859375,0.003353118896484375,0.00030612945556640625,-0.004951208829879761
1774658024966859300,4.866859375,-0.03361701965332031,0.02053356170654297,-0.05508621037006378
1774658024976859400,4.876859375,0.047321319580078125,0.0046367645263671875,-0.027606256306171417
1774658024986859300,4.886859375,-0.027797698974609375,0.00522613525390625,0.054328858852386475
1774658024996859400,4.896859375,-0.002433300018310547,0.012400627136230469,0.06048412621021271
1774658025006859300,4.906859375,0.007126808166503906,-0.005766868591308594,0.043642185628414154
1774658025016859400,4.916859375,-0.01885700225830078,-0.004719734191894531,0.04375416040420532
1774658025026859300,4.926859375,0.007462978363037109,0.04244804382324219,0.06682035326957703
1774658025036859400,4.936859375,-0.037728309631347656,0.013182640075683594,0.06025764346122742
1774658025046859300,4.946859375,-0.024059534072875977,-0.0030660629272460938,0.02469760924577713
1774658025056859400,4.956859375,0.01872396469116211,-0.0016450881958007812,0.04163583368062973
1774658025066859300,4.966859375,-0.0016589164733886719,0.0014390945434570312,0.049904223531484604
1774658025076859400,4.976859375,0.014061450958251953,-0.008886337280273438,0.014576159417629242
1774658025086859300,4.986859375,0.035243988037109375,-0.028611183166503906,-0.024777241051197052
1774658025096859400,4.996859375,-0.020656585693359375,0.025598526000976562,-0.053366489708423615
1774658025106859300,5.006859375,0.013669013977050781,-0.011010169982910156,-0.07425260543823242
1774658025116859400,5.016859375,-0.025107145309448242,0.033888816833496094,-0.10489217936992645
1774658025126859300,5.026859375,0.019913196563720703,0.02350330352783203,-0.0717005729675293
1774658025136859400,5.036859375,-0.018374204635620117,0.02109050750732422,-0.025966554880142212
1774658025146859300,5.046859375,0.03994417190551758,0.003490447998046875,-0.01179882138967514
1774658025156859400,5.056859375,0.04405498504638672,-0.00567626953125,-0.00857999175786972
1774658025166859300,5.066859375,-0.011564493179321289,0.01616954803466797,0.0037844032049179077
1774658025176859400,5.076859375,0.05225729942321777,-0.016452789306640625,-0.02061702311038971
1774658025186859300,5.086859375,-0.0032863616943359375,0.006279945373535156,0.01718571037054062
1774658025196859400,5.096859375,-0.03630995750427246,-0.00478363037109375,0.05094089359045029
1774658025206859300,5.106859375,-0.02432990074157715,-0.017174720764160156,0.04256769269704819
1774658025216859400,5.116859375,-0.07806682586669922,0.008503913879394531,0.04762090742588043
1774658025226859300,5.126859375,-0.05610537528991699,-0.017896652221679688,0.08830283582210541
1774658025236859400,5.136859375,-0.03995633125305176,0.04546642303466797,0.07662983983755112
1774658025246859300,5.146859375,0.030031442642211914,0.08929157257080078,0.022208072245121002
1774658025256859400,5.156859375,-0.007774829864501953,-0.0628814697265625,0.016997672617435455
1774658025266859300,5.166859375,-0.02748417854309082,0.008360862731933594,-0.011524178087711334
1774658025276859400,5.176859375,0.01773834228515625,-0.0002460479736328125,-0.05282019078731537
1774658025286859300,5.186859375,0.08470439910888672,-0.022779464721679688,-0.09308157116174698
1774658025296859400,5.196859375,-0.03846335411071777,0.004929542541503906,-0.05640540271997452
1774658025306859300,5.206859375,-0.02817845344543457,-0.03508472442626953,-0.047371119260787964
1774658025316859400,5.216859375,0.08013105392456055,-0.05932903289794922,-0.0611698254942894
1774658025326859300,5.226859375,-0.05817437171936035,0.008090019226074219,-0.014824986457824707
1774658025336859400,5.236859375,0.0343472957611084,-0.029615402221679688,0.02273400127887726
1774658025346859300,5.246859375,0.03794574737548828,-0.027891159057617188,0.00283253937959671
1774658025356859400,5.256859375,-0.07213854789733887,0.042850494384765625,-0.017952002584934235
1774658025366859300,5.266859375,0.011570215225219727,0.03674030303955078,0.007549189031124115
1774658025376859400,5.276859375,-0.03215169906616211,0.021512985229492188,0.10219068080186844
1774658025386859300,5.286859375,0.047292232513427734,-0.0017023086547851562,0.10687022656202316
1774658025396859400,5.296859375,-0.011899709701538086,0.009484291076660156,0.056006647646427155
1774658025406859300,5.306859375,0.02942800521850586,0.18790912628173828,0.12411103397607803
1774658025416859400,5.316859375,0.357891321182251,0.4570350646972656,0.13747373223304749
1774658025426859300,5.326859375,-0.21926093101501465,-0.15738964080810547,0.17438091337680817
1774658025436859400,5.336859375,-0.10977673530578613,0.05854320526123047,0.007499508559703827
1774658025446859300,5.346859375,-0.02417302131652832,0.03300189971923828,0.0004538595676422119
1774658025456859400,5.356859375,0.14078688621520996,-0.1464710235595703,0.054620686918497086
1774658025466859300,5.366859375,-0.1040349006652832,0.05169868469238281,-0.016692057251930237
1774658025476859400,5.376859375,0.0935359001159668,-0.03637218475341797,-0.12637603282928467
1774658025486859300,5.386859375,0.10422396659851074,-0.014707565307617188,-0.08999265730381012
1774658025496859400,5.396859375,-0.12179207801818848,0.0044689178466796875,-0.01094043254852295
1774658025506859300,5.406859375,0.05768418312072754,-0.010417938232421875,-0.11385170370340347
1774658025516859400,5.416859375,-0.058220863342285156,0.025902748107910156,-0.0741368979215622
1774658025526859300,5.426859375,-0.09580183029174805,0.05107307434082031,0.07173299789428711
1774658025536859400,5.436859375,0.018650054931640625,-0.00025081634521484375,0.04152483493089676
1774658025546859300,5.446859375,-0.040879011154174805,0.020044326782226562,-0.040203794836997986
1774658025556859400,5.456859375,0.029303550720214844,0.035210609436035156,0.020818576216697693
1774658025566859300,5.466859375,0.023143291473388672,-0.01595020294189453,0.08709637075662613
1774658025576859400,5.476859375,0.052629947662353516,0.027742385864257812,-0.009873367846012115
1774658025586859300,5.486859375,-0.017778873443603516,0.028444290161132812,-0.03700358420610428
1774658025596859400,5.496859375,-0.0012123584747314453,0.038931846618652344,0.018253520131111145
1774658025606859300,5.506859375,-0.013129711151123047,0.0016536712646484375,0.02904411405324936
1774658025616859400,5.516859375,-0.07511496543884277,-0.015462875366210938,-0.05609523504972458
1774658025626859300,5.526859375,-0.017305374145507812,-0.03771686553955078,-0.07836399972438812
1774658025636859400,5.536859375,-0.006905317306518555,-0.07269001007080078,-0.04545249789953232
1774658025646859300,5.546859375,-0.1157228946685791,-0.07762622833251953,-0.04407151788473129
1774658025656859400,5.556859375,0.010271072387695312,-0.07939910888671875,-0.07467541843652725
1774658025666859300,5.566859375,0.034342050552368164,-0.0813608169555664,0.011743925511837006
1774658025676859400,5.576859375,-0.026973962783813477,-0.04688262939453125,0.023474887013435364
1774658025686859300,5.586859375,0.12439966201782227,-0.05486583709716797,-0.031951069831848145
1774658025696859400,5.596859375,0.05850505828857422,0.015685081481933594,0.01800171285867691
1774658025706859300,5.606859375,0.06554484367370605,-0.017212867736816406,0.030865460634231567
1774658025716859400,5.616859375,0.013110160827636719,0.029038429260253906,-0.0477377325296402
1774658025726859300,5.626859375,-0.056303977966308594,0.042334556579589844,-0.01881600171327591
1774658025736859400,5.636859375,0.0022814273834228516,-0.0058498382568359375,0.06666433811187744
1774658025746859300,5.646859375,-0.07013797760009766,0.008721351623535156,0.006975717842578888
1774658025756859400,5.656859375,-0.1413412094116211,0.016582489013671875,-0.08035523444414139
1774658025766859300,5.666859375,0.08951592445373535,-0.00182342529296875,-0.07400242984294891
1774658025776859400,5.676859375,0.005307674407958984,-0.023912429809570312,0.05334722623229027
1774658025786859300,5.686859375,-0.04665040969848633,0.03301811218261719,0.04422749578952789
1774658025796859400,5.696859375,0.14966249465942383,-0.012994766235351562,0.001142546534538269
1774658025806859300,5.706859375,0.04745817184448242,0.00391387939453125,0.0779275894165039
1774658025816859400,5.716859375,0.005767345428466797,0.013593673706054688,0.09182658791542053
1774658025826859300,5.726859375,0.16737103462219238,-0.07941913604736328,0.007024258375167847
1774658025836859400,5.736859375,-0.02057933807373047,-0.0027561187744140625,-0.03445085138082504
1774658025846859300,5.746859375,-0.11022591590881348,0.006213188171386719,0.01949632167816162
1774658025856859400,5.756859375,-0.06842660903930664,-0.033545494079589844,0.014574192464351654
1774658025866859300,5.766859375,-0.1504828929901123,-0.0043582916259765625,-0.04834015667438507
1774658025876859400,5.776859375,-0.10847115516662598,-0.018924713134765625,-0.017256945371627808
1774658025886859300,5.786859375,-0.06320953369140625,-0.01915740966796875,0.03483538329601288
1774658025896859400,5.796859375,-0.1360945701599121,0.02705669403076172,0.02977818250656128
1774658025906859300,5.806859375,0.0822443962097168,-0.03278827667236328,-0.03123321384191513
1774658025916859400,5.816859375,0.10461997985839844,-0.021656036376953125,-0.051337264478206635
1774658025926859300,5.826859375,0.0753793716430664,0.032093048095703125,-0.014918848872184753
1774658025936859400,5.836859375,0.15992093086242676,0.0627279281616211,-0.014761954545974731
1774658025946859300,5.846859375,-0.044052839279174805,0.06816959381103516,-0.018721364438533783
1774658025956859400,5.856859375,-0.06225252151489258,0.01890087127685547,-0.006306298077106476
1774658025966859300,5.866859375,0.119598388671875,-0.04586219787597656,0.00687766820192337
1774658025976859400,5.876859375,-0.2577078342437744,0.09311103820800781,0.008610926568508148
1774658025986859300,5.886859375,0.16069388389587402,-0.055891990661621094,-0.05102400481700897
1774658025996859400,5.896859375,-0.08876299858093262,0.059108734130859375,-0.007960975170135498
1774658026006859300,5.906859375,-0.013444185256958008,0.02958393096923828,0.04926722124218941
1774658026016859400,5.916859375,0.23831772804260254,-0.04158210754394531,0.01514626294374466
1774658026026859300,5.926859375,-0.08925056457519531,0.013493537902832031,-0.02662394940853119
1774658026036859400,5.936859375,0.1309523582458496,-0.033349037170410156,-0.045405201613903046
1774658026046859300,5.946859375,-0.01929497718811035,-0.027904510498046875,0.07266858220100403
1774658026056859400,5.956859375,-0.12325215339660645,0.028283119201660156,0.12452977150678635
1774658026066859300,5.966859375,0.08537411689758301,-0.09947586059570312,0.04308747500181198
1774658026076859400,5.976859375,-0.0887460708618164,-0.03148651123046875,-0.00007859617471694946
1774658026086859300,5.986859375,-0.011852502822875977,-0.006098747253417969,0.03843868523836136
1774658026096859400,5.996859375,0.07349824905395508,-0.049057960510253906,0.04386872798204422
1774658026106859300,6.006859375,-0.07071924209594727,0.012815475463867188,-0.012141384184360504
1774658026116859400,6.016859375,0.09717011451721191,-0.03570365905761719,-0.0567692369222641
1774658026126859300,6.026859375,0.01506185531616211,-0.024750709533691406,-0.014614753425121307
1774658026136859400,6.036859375,-0.05976462364196777,0.023748397827148438,-0.0003323554992675781
1774658026146859300,6.046859375,0.04362320899963379,-0.03983497619628906,-0.023254647850990295
1774658026156859400,6.056859375,-0.14686822891235352,0.027398109436035156,0.0016171783208847046
1774658026166859300,6.066859375,0.021661758422851562,-0.04248809814453125,-0.024079814553260803
1774658026176859400,6.076859375,-0.08120322227478027,0.025617599487304688,-0.06562039256095886
1774658026186859300,6.086859375,-0.07610964775085449,0.0599212646484375,-0.07802623510360718
1774658026196859400,6.096859375,0.09960293769836426,-0.013140678405761719,-0.05324118584394455
1774658026206859300,6.106859375,-0.016463279724121094,0.04606151580810547,-0.009430691599845886
1774658026216859400,6.116859375,0.10036277770996094,-0.013143539428710938,0.00371638685464859
1774658026226859300,6.126859375,0.041391849517822266,-0.0032176971435546875,0.027737095952033997
1774658026236859400,6.136859375,0.012307167053222656,0.0007781982421875,0.028699606657028198
1774658026246859300,6.146859375,0.08177852630615234,-0.028267860412597656,-0.034683577716350555
1774658026256859400,6.156859375,-0.06804108619689941,0.013937950134277344,-0.04304801672697067
1774658026266859300,6.166859375,-0.0424959659576416,-0.013409614562988281,-0.031201347708702087
1774658026276859400,6.176859375,-0.07921361923217773,-0.01883220672607422,-0.047419048845767975
1774658026286859300,6.186859375,-0.13753318786621094,0.035419464111328125,-0.04898715019226074
1774658026296859400,6.196859375,0.03172159194946289,0.0013151168823242188,0.02276919037103653
1774658026306859300,6.206859375,-0.0610194206237793,0.02637004852294922,0.0732942670583725
1774658026316859400,6.216859375,0.11631226539611816,-0.03372001647949219,-0.009440429508686066
1774658026326859300,6.226859375,0.08138060569763184,-0.0006122589111328125,-0.10763227194547653
1774658026336859400,6.236859375,0.05885815620422363,-0.015151023864746094,-0.09393295645713806
1774658026346859300,6.246859375,0.09585428237915039,-0.014972686767578125,-0.027456462383270264
1774658026356859400,6.256859375,-0.09454059600830078,0.04987525939941406,-0.029188930988311768
1774658026366859300,6.266859375,-0.0365753173828125,0.010478973388671875,-0.05978400260210037
1774658026376859400,6.276859375,-0.05426645278930664,-0.01794147491455078,-0.011577479541301727
1774658026386859300,6.286859375,-0.04232311248779297,-0.030445098876953125,0.05237303674221039
1774658026396859400,6.296859375,-0.024280786514282227,-0.04596233367919922,0.00932960957288742
1774658026406859300,6.306859375,-0.07530522346496582,0.025214195251464844,-0.03664734959602356
1774658026416859400,6.316859375,0.13130712509155273,-0.05048084259033203,-0.007571659982204437
1774658026426859300,6.326859375,-0.07489347457885742,-0.0121002197265625,0.0545540452003479
1774658026436859400,6.336859375,0.05402731895446777,0.0015239715576171875,0.07265394926071167
1774658026446859300,6.346859375,0.08631324768066406,-0.049134254455566406,0.06338103115558624
1774658026456859400,6.356859375,-0.13234281539916992,-0.04283618927001953,0.011911191046237946
1774658026466859300,6.366859375,0.008958578109741211,-0.03883171081542969,-0.11001699417829514
1774658026476859400,6.376859375,0.0047130584716796875,-0.02296161651611328,-0.011562734842300415
1774658026486859300,6.386859375,-0.13826465606689453,0.036086082458496094,0.1328715682029724
1774658026496859400,6.396859375,0.09429597854614258,0.08635616302490234,0.10071918368339539
1774658026506859300,6.406859375,0.0361485481262207,0.09547615051269531,0.088524729013443
1774658026516859400,6.416859375,-0.03565049171447754,0.06374931335449219,0.1049521192908287
1774658026526859300,6.426859375,0.16315007209777832,-0.0007648468017578125,0.10915507376194
1774658026536859400,6.436859375,0.05827784538269043,0.048831939697265625,0.0005344972014427185
1774658026546859300,6.446859375,0.15340280532836914,-0.028227806091308594,-0.07154174149036407
1774658026556859400,6.456859375,-0.12001895904541016,0.067626953125,-0.004420623183250427
1774658026566859300,6.466859375,0.028029441833496094,-0.02468585968017578,-0.00023118406534194946
1774658026576859400,6.476859375,-0.11779594421386719,0.009550094604492188,-0.06867532432079315
1774658026586859300,6.486859375,-0.27858614921569824,0.08905601501464844,-0.018416352570056915
1774658026596859400,6.496859375,0.06048917770385742,-0.06924247741699219,0.024558402597904205
1774658026606859300,6.506859375,-0.16927814483642578,0.012417793273925781,0.05044538527727127
1774658026616859400,6.516859375,0.014822006225585938,-0.061692237854003906,-0.08745761960744858
1774658026626859300,6.526859375,0.18300771713256836,-0.11128616333007812,-0.10926871746778488
1774658026636859400,6.536859375,-0.03668785095214844,0.026488304138183594,0.04392475634813309
1774658026646859300,6.546859375,0.08784246444702148,-0.0410919189453125,0.09156236797571182
1774658026656859400,6.556859375,0.08272337913513184,-0.01206207275390625,-0.0036402568221092224
1774658026666859300,6.566859375,0.055676937103271484,-0.015830039978027344,-0.021205104887485504
1774658026676859400,6.576859375,0.00569915771484375,0.01726055145263672,0.028524249792099
1774658026686859300,6.586859375,-0.06908440589904785,0.031334877014160156,0.0435350239276886
1774658026696859400,6.596859375,-0.026378154754638672,0.0187530517578125,0.03830801695585251
1774658026706859300,6.606859375,-0.012394428253173828,0.023285865783691406,0.06397395581007004
1774658026716859400,6.616859375,-0.034958600997924805,0.070281982421875,0.09411489963531494
1774658026726859300,6.626859375,0.11512875556945801,-0.008103370666503906,0.08313989639282227
1774658026736859400,6.636859375,0.012513399124145508,0.04149627685546875,0.031034789979457855
1774658026746859300,6.646859375,0.03199195861816406,-0.01726818084716797,-0.08786121010780334
1774658026756859400,6.656859375,0.007915258407592773,0.010409355163574219,-0.0631665289402008
1774658026766859300,6.666859375,-0.28673672676086426,0.08675098419189453,0.04321121424436569
1774658026776859400,6.676859375,0.21306324005126953,-0.1472759246826172,0.01676439493894577
1774658026786859300,6.686859375,-0.20289301872253418,0.017879486083984375,-0.016072630882263184
1774658026796859400,6.696859375,-0.026010751724243164,-0.09503650665283203,-0.049467019736766815
1774658026806859300,6.706859375,0.15612411499023438,-0.15236186981201172,-0.09811843186616898
1774658026816859400,6.716859375,-0.22347760200500488,0.049564361572265625,-0.0974922850728035
1774658026826859300,6.726859375,0.12325596809387207,-0.062102317810058594,-0.07009900361299515
1774658026836859400,6.736859375,0.07856607437133789,-0.04159259796142578,0.005619898438453674
1774658026846859300,6.746859375,0.04323005676269531,0.0202178955078125,0.0029068738222122192
1774658026856859400,6.756859375,0.01116180419921875,0.047049522399902344,-0.07163410633802414
1774658026866859300,6.766859375,-0.05790257453918457,0.019910812377929688,0.007383167743682861
1774658026876859400,6.776859375,0.14599943161010742,0.09716415405273438,0.07894472777843475
1774658026886859300,6.786859375,-0.15860676765441895,0.022177696228027344,0.0031554177403450012
1774658026896859400,6.796859375,-0.04795527458190918,0.06798553466796875,-0.03511706739664078
1774658026906859300,6.806859375,0.03565835952758789,0.05962371826171875,0.13557648658752441
1774658026916859400,6.816859375,0.05048084259033203,0.023444175720214844,0.137201189994812
1774658026926859300,6.826859375,0.020466089248657227,0.06728172302246094,-0.042768172919750214
1774658026936859400,6.836859375,0.1764812469482422,-0.043704986572265625,-0.03457202762365341
1774658026946859300,6.846859375,-0.1716632843017578,0.08667755126953125,0.03915141522884369
1774658026956859400,6.856859375,0.2005774974822998,-0.04759693145751953,-0.06862377375364304
1774658026966859300,6.866859375,-0.10640239715576172,0.04404735565185547,-0.09335062652826309
1774658026976859400,6.876859375,-0.037108659744262695,0.0030164718627929688,0.02699717879295349
1774658026986859300,6.886859375,0.11941194534301758,-0.02763080596923828,0.051351118832826614
1774658026996859400,6.896859375,-0.444812536239624,0.12249946594238281,-0.04872853308916092
1774658027006859300,6.906859375,0.4320225715637207,-0.14837265014648438,-0.1076480969786644
1774658027016859400,6.916859375,-0.21162891387939453,0.10554218292236328,0.02409171313047409
1774658027026859300,6.926859375,0.23804402351379395,-0.10448265075683594,-0.01417461782693863
1774658027036859400,6.936859375,0.28185486793518066,-0.04092693328857422,-0.10838796198368073
1774658027046859300,6.946859375,-0.28554654121398926,0.13566303253173828,0.01832849532365799
1774658027056859400,6.956859375,0.6580071449279785,-0.39393138885498047,0.10187197476625443
1774658027066859300,6.966859375,-0.08410263061523438,-0.06965065002441406,0.04925280064344406
1774658027076859400,6.976859375,-0.25985264778137207,0.007818222045898438,-0.142825186252594
1774658027086859300,6.986859375,0.1372675895690918,-0.12555313110351562,-0.039272382855415344
1774658027096859400,6.996859375,-0.3271219730377197,0.012795448303222656,0.2919507324695587
1774658027106859300,7.006859375,-0.45238399505615234,-0.15004348754882812,0.04722174257040024
1774658027116859400,7.016859375,0.2474675178527832,0.06739997863769531,-0.10359801352024078
1774658027126859300,7.026859375,-0.326030969619751,0.3898763656616211,0.05485878512263298
1774658027136859400,7.036859375,0.1913440227508545,-0.12453269958496094,0.014795102179050446
1774658027146859300,7.046859375,0.129713773727417,0.005766868591308594,-0.2768363952636719
1774658027156859400,7.056859375,-0.041017770767211914,0.08401870727539062,-0.1255064159631729
1774658027166859300,7.066859375,0.19516396522521973,-0.023940086364746094,0.1304657906293869
1774658027176859400,7.076859375,0.025990962982177734,-0.02825641632080078,0.00106734037399292
1774658027186859300,7.086859375,-0.2445361614227295,0.08654499053955078,-0.12527599930763245
1774658027196859400,7.096859375,0.0002124309539794922,-0.06614971160888672,0.004118561744689941
1774658027206859300,7.106859375,0.0920100212097168,-0.05290794372558594,0.11302374303340912
1774658027216859400,7.116859375,-0.19735932350158691,0.06061840057373047,-0.05144215375185013
1774658027226859300,7.126859375,0.19236183166503906,-0.05231952667236328,-0.08948557078838348
1774658027236859400,7.136859375,0.07679128646850586,-0.03331756591796875,0.18334177136421204
1774658027246859300,7.146859375,0.11221766471862793,0.016180992126464844,0.13957062363624573
1774658027256859400,7.156859375,0.13944530487060547,0.009595870971679688,-0.09467532485723495
1774658027266859300,7.166859375,-0.07574677467346191,0.0543670654296875,0.026322320103645325
1774658027276859400,7.176859375,-0.00993657112121582,0.05428791046142578,0.12828297913074493
1774658027286859300,7.186859375,-0.25536298751831055,0.1464223861694336,0.03199509531259537
1774658027296859400,7.196859375,-0.40138816833496094,0.19504642486572266,-0.17974157631397247
1774658027306859300,7.206859375,0.041263580322265625,-0.05123329162597656,0.02056475728750229
1774658027316859400,7.216859375,-0.29883456230163574,0.07800960540771484,0.14564600586891174
1774658027326859300,7.226859375,0.17325758934020996,-0.1263589859008789,-0.1762671172618866
1774658027336859400,7.236859375,0.14656448364257812,-0.10643863677978516,-0.10767681896686554
1774658027346859300,7.246859375,-0.034641265869140625,-0.0028409957885742188,0.1877935379743576
1774658027356859400,7.256859375,0.4136321544647217,-0.10029792785644531,0.028743863105773926
1774658027366859300,7.266859375,0.14563775062561035,-0.0007839202880859375,-0.08449140936136246
1774658027376859400,7.276859375,0.12983012199401855,0.011545181274414062,0.03565683960914612
1774658027386859300,7.286859375,0.16020441055297852,0.000331878662109375,0.12675721943378448
1774658027396859400,7.296859375,-0.17220687866210938,0.15469646453857422,0.04865705221891403
1774658027406859300,7.306859375,-0.21760034561157227,0.12205219268798828,-0.01236707717180252
1774658027416859400,7.316859375,-0.33693981170654297,0.2125101089477539,0.012380599975585938
1774658027426859300,7.326859375,-0.5769283771514893,0.25725841522216797,0.025998972356319427
1774658027436859400,7.336859375,0.19758939743041992,-0.058452606201171875,-0.06176932156085968
1774658027446859300,7.346859375,-0.721790075302124,0.3995180130004883,0.029143817722797394
1774658027456859400,7.356859375,0.18710613250732422,0.05292701721191406,-0.02349129319190979
1774658027466859300,7.366859375,0.11938691139221191,0.1857452392578125,-0.11219996213912964
1774658027476859400,7.376859375,-0.8898577690124512,0.5655841827392578,-0.2900012135505676
1774658027486859300,7.386859375,0.5761902332305908,0.21232128143310547,-0.10488775372505188
1774658027496859400,7.396859375,-0.5700769424438477,0.4013795852661133,0.11660575866699219
1774658027506859300,7.406859375,0.5837268829345703,0.28368186950683594,-0.17969593405723572
1774658027516859400,7.416859375,-0.5179767608642578,1.0540761947631836,-0.11612308025360107
1774658027526859300,7.426859375,0.20014500617980957,0.35048866271972656,0.10989128053188324
1774658027536859400,7.436859375,-0.8667092323303223,1.257035255432129,-0.015894562005996704
1774658027546859300,7.446859375,-0.8094115257263184,1.1123523712158203,-0.2476772964000702
1774658027556859400,7.456859375,0.6271474361419678,0.6697731018066406,-0.16994906961917877
1774658027566859300,7.466859375,-0.09452676773071289,0.8404865264892578,0.13085877895355225
1774658027576859400,7.476859375,1.1028897762298584,0.7748889923095703,0.3180280327796936
1774658027586859300,7.486859375,-2.781432628631592,1.7064027786254883,0.5739151835441589
1774658027596859400,7.496859375,0.960996150970459,0.675694465637207,-0.2789819836616516
1774658027606859300,7.506859375,-0.8819699287414551,1.2146625518798828,-0.12120185792446136
1774658027616859400,7.516859375,-0.8663899898529053,1.1134347915649414,0.29108673334121704
1774658027626859300,7.526859375,-2.430398464202881,1.9181089401245117,0.2105170339345932
1774658027636859400,7.536859375,-0.6133303642272949,0.8724880218505859,-0.1862775981426239
1774658027646859300,7.546859375,-1.7741608619689941,2.0542659759521484,0.21210968494415283
1774658027656859400,7.556859375,-13.392763137817383,6.759544372558594,1.0848662853240967
1774658027666859300,7.566859375,-12.107294082641602,6.209440231323242,0.07765402644872665
1774658027676859400,7.576859375,-13.205682754516602,5.664140701293945,-0.2962544858455658
1774658027686859300,7.586859375,-5.579384803771973,1.206273078918457,0.3198751211166382
1774658027696859400,7.596859375,-4.5471673011779785,0.38555240631103516,0.9912370443344116
1774658027706859300,7.606859375,-2.2773044109344482,-0.8882770538330078,0.22377458214759827
1774658027716859400,7.616859375,1.735539436340332,-2.260089874267578,-0.37909120321273804
1774658027726859300,7.626859375,1.2463951110839844,-2.678926467895508,0.28660500049591064
1774658027736859400,7.636859375,4.626386642456055,-3.8036019802093506,0.373050332069397
1774658027746859300,7.646859375,5.5789313316345215,-3.7745561599731445,0.07026475667953491
1774658027756859400,7.656859375,6.2639899253845215,-3.8355941772460938,-0.4711921215057373
1774658027766859300,7.666859375,8.056015014648438,-4.231866836547852,-0.5436794757843018
1774658027776859400,7.676859375,7.22988224029541,-3.918947219848633,-0.19056016206741333
1774658027786859300,7.686859375,6.869021892547607,-3.3857598304748535,-0.31256210803985596
1774658027796859400,7.696859375,5.419955253601074,-2.892782211303711,-0.46619951725006104
1774658027806859300,7.706859375,4.372953414916992,-2.144865036010742,-0.2249152958393097
1774658027816859400,7.716859375,3.969369411468506,-1.7695531845092773,0.1399989128112793
1774658027826859300,7.726859375,3.6893157958984375,-1.7180261611938477,-0.36132320761680603
1774658027836859400,7.736859375,1.9354767799377441,-0.894566535949707,-0.3627929389476776
1774658027846859300,7.746859375,-0.0030303001403808594,-0.45241403579711914,0.04798176884651184
1774658027856859400,7.756859375,-1.1266274452209473,0.27356481552124023,-0.055892616510391235
1774658027866859300,7.766859375,-1.477041244506836,0.4561924934387207,-0.33654069900512695
1774658027876859400,7.776859375,-1.039616584777832,0.1922459602355957,0.021805524826049805
1774658027886859300,7.786859375,-2.7094054222106934,0.2504854202270508,0.5407170057296753
1774658027896859400,7.796859375,-3.217358112335205,0.9260721206665039,0.1436089277267456
1774658027906859300,7.806859375,-3.5084800720214844,0.9094476699829102,-0.1318773627281189
1774658027916859400,7.816859375,-4.28652286529541,0.5726761817932129,0.023377329111099243
1774658027926859300,7.826859375,-0.8434047698974609,-1.387880802154541,-0.06781283020973206
1774658027936859400,7.836859375,15.216357231140137,-8.306668281555176,-0.773776113986969
1774658027946859300,7.846859375,5.4678053855896,-3.4117894172668457,0.395516037940979
1774658027956859400,7.856859375,-13.23603343963623,3.4735288619995117,1.3225066661834717
1774658027966859300,7.866859375,-2.8290200233459473,-0.2714371681213379,-1.0738381147384644
1774658027976859400,7.876859375,-1.5285758972167969,-0.7968287467956543,-0.7566363215446472
1774658027986859300,7.886859375,3.884634017944336,-4.126123905181885,0.7598901987075806
1774658027996859400,7.896859375,-0.7817239761352539,-1.7991089820861816,1.1309878826141357
1774658028006859300,7.906859375,-6.835075378417969,0.5981764793395996,-0.523762047290802
1774658028016859400,7.916859375,1.4703764915466309,-2.4049630165100098,-1.2650055885314941
1774658028026859300,7.926859375,-0.8094086647033691,-1.8663034439086914,0.9021157026290894
1774658028036859400,7.936859375,-2.134350299835205,-1.196155071258545,1.0540046691894531
1774658028046859300,7.946859375,-0.9629502296447754,-1.3002595901489258,-0.7829791903495789
1774658028056859400,7.956859375,-1.7420272827148438,-0.928290843963623,-0.7660180330276489
1774658028066859300,7.966859375,-0.8102016448974609,-1.363997459411621,0.7374167442321777
1774658028076859400,7.976859375,-0.9243478775024414,-1.020627498626709,0.6657984256744385
1774658028086859300,7.986859375,-1.638350486755371,-0.4031085968017578,-0.5734009742736816
1774658028096859400,7.996859375,-1.0760998725891113,-0.5392022132873535,-0.3629382848739624
1774658028106859300,8.006859375,-0.9380483627319336,-0.5595846176147461,0.6300511956214905
1774658028116859400,8.016859375,0.03545713424682617,-0.7883710861206055,0.26651278138160706
1774658028126859300,8.026859375,0.04860067367553711,-0.49968671798706055,-0.5807594060897827
1774658028136859400,8.036859375,-0.7199487686157227,0.06774234771728516,-0.2737630009651184
1774658028146859300,8.046859375,0.37672901153564453,-0.2651686668395996,0.17130304872989655
1774658028156859400,8.056859375,0.4881930351257324,-0.11700820922851562,0.03252911567687988
1774658028166859300,8.066859375,0.024457931518554688,0.1441197395324707,-0.29518699645996094
1774658028176859400,8.076859375,0.2342534065246582,0.1316981315612793,-0.06601297855377197
1774658028186859300,8.086859375,0.38530445098876953,0.18460988998413086,0.339622437953949
1774658028196859400,8.096859375,0.657707691192627,0.17546987533569336,0.08465191721916199
1774658028206859300,8.106859375,1.5515241622924805,-0.047748565673828125,-0.19659146666526794
1774658028216859400,8.116859375,-0.5209999084472656,0.7887921333312988,0.10405243933200836
1774658028226859300,8.126859375,-0.3703346252441406,0.6672735214233398,0.07727780938148499
1774658028236859400,8.136859375,2.0990772247314453,-0.33406877517700195,-0.07715073227882385
1774658028246859300,8.146859375,0.04755687713623047,0.6615252494812012,0.18790555000305176
1774658028256859400,8.156859375,0.005251884460449219,0.5763044357299805,0.07165849208831787
1774658028266859300,8.166859375,0.5876755714416504,0.16917037963867188,-0.24070516228675842
1774658028276859400,8.176859375,0.4905862808227539,0.2311086654663086,0.09157395362854004
1774658028286859300,8.186859375,-0.18987751007080078,0.3317408561706543,0.41046369075775146
1774658028296859400,8.196859375,1.0056500434875488,-0.34513092041015625,0.05655944347381592
1774658028306859300,8.206859375,-1.764787197113037,0.6873526573181152,-0.057885944843292236
1774658028316859400,8.216859375,0.6956048011779785,-0.22876501083374023,0.006498277187347412
1774658028326859300,8.226859375,0.4762101173400879,-0.3697690963745117,0.07010588049888611
1774658028336859400,8.236859375,-1.12815523147583,0.2689023017883301,0.08332914113998413
1774658028346859300,8.246859375,-0.027894973754882812,-0.2601346969604492,-0.40175750851631165
1774658028356859400,8.256859375,0.07162046432495117,-0.4059267044067383,-0.39021047949790955
1774658028366859300,8.266859375,-0.6172313690185547,-0.21776914596557617,0.0751117467880249
1774658028376859400,8.276859375,0.33661317825317383,-0.5930032730102539,-0.11633801460266113
1774658028386859300,8.286859375,0.1002054214477539,-0.651580810546875,-0.2709057927131653
1774658028396859400,8.296859375,-0.11983966827392578,-0.5175924301147461,0.08249612152576447
1774658028406859300,8.306859375,-1.0595998764038086,-0.004186153411865234,0.1317349672317505
1774658028416859400,8.316859375,0.12831640243530273,-0.8311476707458496,0.025266140699386597
1774658028426859300,8.326859375,-1.0575332641601562,-0.08250808715820312,0.0012073516845703125
1774658028436859400,8.336859375,0.13984441757202148,-0.5217623710632324,0.07423146069049835
1774658028446859300,8.346859375,-0.5218019485473633,-0.38846254348754883,0.22687312960624695
1774658028456859400,8.356859375,-0.6907987594604492,-0.18751287460327148,0.060841381549835205
1774658028466859300,8.366859375,0.24124622344970703,-0.5169053077697754,-0.01567748188972473
1774658028476859400,8.376859375,0.32842397689819336,-0.5844759941101074,0.26334959268569946
1774658028486859300,8.386859375,-1.245527744293213,0.2509140968322754,0.28413820266723633
1774658028496859400,8.396859375,0.06474971771240234,-0.21508455276489258,-0.044661253690719604
1774658028506859300,8.406859375,0.27120399475097656,-0.31708431243896484,0.12347662448883057
1774658028516859400,8.416859375,-0.2558259963989258,0.024967193603515625,0.13147644698619843
1774658028526859300,8.426859375,-0.10014772415161133,0.015058517456054688,-0.31711187958717346
1774658028536859400,8.436859375,0.06664562225341797,0.16230440139770508,-0.2683054208755493
1774658028546859300,8.446859375,0.38327884674072266,-0.09131431579589844,0.06384357810020447
1774658028556859400,8.456859375,0.39047765731811523,0.08119058609008789,0.03817585110664368
1774658028566859300,8.466859375,0.8527235984802246,-0.06723499298095703,-0.2387685775756836
1774658028576859400,8.476859375,-0.9157953262329102,0.5691986083984375,-0.12341347336769104
1774658028586859300,8.486859375,0.5969734191894531,-0.054074764251708984,0.11729902029037476
1774658028596859400,8.496859375,0.8998746871948242,-0.07062435150146484,-0.03883543610572815
1774658028606859300,8.506859375,-1.105325698852539,0.7287106513977051,-0.18111872673034668
1774658028616859400,8.516859375,0.6006631851196289,-0.04041481018066406,-0.2442985475063324
1774658028626859300,8.526859375,0.8962740898132324,-0.11961936950683594,0.0313258171081543
1774658028636859400,8.536859375,-0.8015551567077637,0.4770822525024414,0.10699352622032166
1774658028646859300,8.546859375,0.26010656356811523,-0.03874969482421875,-0.15042909979820251
1774658028656859400,8.556859375,0.3627290725708008,-0.1722712516784668,0.0618920773267746
1774658028666859300,8.566859375,-0.46501827239990234,0.22435855865478516,0.2836541533470154
1774658028676859400,8.576859375,-0.11282062530517578,-0.008615493774414062,0.037610411643981934
1774658028686859300,8.586859375,0.22496795654296875,-0.2165975570678711,0.08091405034065247
1774658028696859400,8.596859375,-0.12273693084716797,-0.0488429069519043,0.19400151073932648
1774658028706859300,8.606859375,-0.09890413284301758,-0.07979488372802734,0.1577584445476532
1774658028716859400,8.616859375,0.020041465759277344,-0.1447925567626953,-0.003515094518661499
1774658028726859300,8.626859375,0.14021539688110352,-0.22122764587402344,-0.033416807651519775
1774658028736859400,8.636859375,-0.1249089241027832,-0.1738572120666504,0.08364802598953247
1774658028746859300,8.646859375,-0.08031225204467773,-0.17258071899414062,0.011546194553375244
1774658028756859400,8.656859375,0.11605072021484375,-0.3169379234313965,-0.10870486497879028
1774658028766859300,8.666859375,-0.2525806427001953,-0.13280296325683594,-0.05510824918746948
1774658028776859400,8.676859375,-0.16908025741577148,-0.16480636596679688,-0.03633856773376465
1774658028786859300,8.686859375,-0.12014961242675781,-0.1695847511291504,-0.12975066900253296
1774658028796859400,8.696859375,-0.24692535400390625,-0.10770416259765625,-0.16934272646903992
1774658028806859300,8.706859375,-0.21483850479125977,-0.14911937713623047,-0.09311571717262268
1774658028816859400,8.716859375,-0.19319915771484375,-0.16738176345825195,-0.05883994698524475
1774658028826859300,8.726859375,-0.17557525634765625,-0.22631597518920898,-0.033646970987319946
1774658028836859400,8.736859375,-0.21710443496704102,-0.23505210876464844,-0.0016937255859375
1774658028846859300,8.746859375,-0.13941287994384766,-0.2711019515991211,0.04708513617515564
1774658028856859400,8.756859375,-0.17304277420043945,-0.27333927154541016,0.07273408770561218
1774658028866859300,8.766859375,-0.11653900146484375,-0.30956363677978516,0.043771371245384216
1774658028876859400,8.776859375,-0.18065357208251953,-0.3717961311340332,0.08101603388786316
1774658028886859300,8.786859375,-0.26263999938964844,-0.3123445510864258,0.0941234678030014
1774658028896859400,8.796859375,-0.26913976669311523,-0.30252790451049805,0.09566418826580048
1774658028906859300,8.806859375,-0.09367132186889648,-0.2699623107910156,0.023751765489578247
1774658028916859400,8.816859375,-0.31561994552612305,-0.1895909309387207,-0.039620012044906616
1774658028926859300,8.826859375,-0.2939004898071289,-0.26733922958374023,-0.06352987885475159
1774658028936859400,8.836859375,-0.4909348487854004,-0.34940385818481445,0.01162216067314148
1774658028946859300,8.846859375,-0.6033849716186523,-0.5628933906555176,-0.013090640306472778
1774658028956859400,8.856859375,-0.5455403327941895,-0.6213417053222656,-0.10148829221725464
1774658028966859300,8.866859375,-0.4796934127807617,-0.7727794647216797,0.04338550567626953
1774658028976859400,8.876859375,-0.8549165725708008,-0.699460506439209,0.19774386286735535
1774658028986859300,8.886859375,-0.7242684364318848,-0.8672523498535156,0.0713316798210144
1774658028996859400,8.896859375,-0.8386812210083008,-0.7700281143188477,-0.02918204665184021
1774658029006859300,8.906859375,-1.0046610832214355,-0.7383623123168945,0.053132712841033936
1774658029016859400,8.916859375,-0.9752135276794434,-0.8117561340332031,-0.07140293717384338
1774658029026859300,8.926859375,-0.5474209785461426,-0.7197551727294922,-0.27381041646003723
1774658029036859400,8.936859375,-0.8023357391357422,-0.7874565124511719,-0.23277094960212708
1774658029046859300,8.946859375,-0.424497127532959,-0.8758459091186523,0.13857156038284302
1774658029056859400,8.956859375,-0.6442456245422363,-0.7284979820251465,0.10575225949287415
1774658029066859300,8.966859375,-0.3070821762084961,-0.5466547012329102,0.0004200935363769531
1774658029076859400,8.976859375,-0.3819265365600586,-0.8002920150756836,0.25830456614494324
1774658029086859300,8.986859375,-0.23361921310424805,-0.5307512283325195,0.1738133281469345
1774658029096859400,8.996859375,-0.08413505554199219,-0.4960670471191406,-0.05707955360412598
1774658029106859300,9.006859375,-0.5119895935058594,-0.3762030601501465,-0.13052484393119812
1774658029116859400,9.016859375,-0.8111543655395508,-0.6134495735168457,-0.12815165519714355
1774658029126859300,9.026859375,-1.1793737411499023,-0.38477134704589844,-0.1287168264389038
1774658029136859400,9.036859375,-0.2692551612854004,-0.6075186729431152,-0.2678898870944977
1774658029146859300,9.046859375,-0.49662208557128906,-0.38837718963623047,-0.10610371828079224
1774658029156859400,9.056859375,-0.8129730224609375,-0.3020319938659668,0.15359139442443848
1774658029166859300,9.066859375,-0.41801929473876953,-0.2788529396057129,-0.33103862404823303
1774658029176859400,9.076859375,-0.17154455184936523,0.28392553329467773,-0.2018539309501648
1774658029186859300,9.086859375,-0.5228385925292969,-0.10286903381347656,0.24488107860088348
1774658029196859400,9.096859375,0.08419990539550781,-0.027075767517089844,0.008540511131286621
1774658029206859300,9.106859375,0.005807399749755859,-0.047049522399902344,-0.34949249029159546
1774658029216859400,9.116859375,0.14562511444091797,-0.26123714447021484,-0.11566731333732605
1774658029226859300,9.126859375,1.0445775985717773,-0.1980447769165039,-0.06266507506370544
1774658029236859400,9.136859375,-0.10410404205322266,-0.10540056228637695,-0.099397212266922
1774658029246859300,9.146859375,0.25844383239746094,-0.5412425994873047,-0.02015244960784912
1774658029256859400,9.156859375,0.23093318939208984,-0.10740947723388672,0.03171628713607788
1774658029266859300,9.166859375,-0.1423792839050293,0.2863121032714844,0.19487398862838745
1774658029276859400,9.176859375,0.11843538284301758,-0.12923097610473633,-0.12613967061042786
1774658029286859300,9.186859375,0.1818556785583496,0.1318683624267578,-0.3229552209377289
1774658029296859400,9.196859375,-0.12483978271484375,0.20273256301879883,0.07465812563896179
1774658029306859300,9.206859375,0.45711469650268555,0.23674726486206055,0.14772000908851624
1774658029316859400,9.216859375,0.41127967834472656,0.6317353248596191,0.07913216948509216
1774658029326859300,9.226859375,0.28460121154785156,0.4167141914367676,0.1875479817390442
1774658029336859400,9.236859375,0.1726236343383789,0.35603809356689453,0.31385061144828796
1774658029346859300,9.246859375,0.3101940155029297,0.05321550369262695,0.1590370088815689
1774658029356859400,9.256859375,0.43669939041137695,0.5498385429382324,-0.243155837059021
1774658029366859300,9.266859375,0.4318418502807617,0.5460872650146484,0.18293997645378113
1774658029376859400,9.276859375,0.17073917388916016,0.38628673553466797,0.41310104727745056
1774658029386859300,9.286859375,0.37219715118408203,0.37263059616088867,0.1295587569475174
1774658029396859400,9.296859375,0.5842595100402832,0.5841412544250488,-0.31131595373153687
1774658029406859300,9.306859375,0.700157642364502,0.6550893783569336,-0.09448578953742981
1774658029416859400,9.316859375,0.37329673767089844,-0.05559349060058594,0.12868890166282654
1774658029426859300,9.326859375,0.6647238731384277,0.5463757514953613,-0.12776517868041992
1774658029436859400,9.336859375,0.005900859832763672,0.23107147216796875,0.16377981007099152
1774658029446859300,9.346859375,0.5503325462341309,0.2508091926574707,-0.19266298413276672
1774658029456859400,9.356859375,0.31250572204589844,0.3115687370300293,-0.1744406819343567
1774658029466859300,9.366859375,0.12366247177124023,0.4998183250427246,-0.1422087848186493
1774658029476859400,9.376859375,0.5458426475524902,0.5827765464782715,-0.13718143105506897
1774658029486859300,9.386859375,0.2487626075744629,0.2393479347229004,0.16246554255485535
1774658029496859400,9.396859375,-0.3046417236328125,0.29454612731933594,0.14117684960365295
1774658029506859300,9.406859375,0.27976465225219727,0.07264089584350586,-0.1086253821849823
1774658029516859400,9.416859375,0.1887073516845703,-0.06432485580444336,-0.17649686336517334
1774658029526859300,9.426859375,0.03934955596923828,0.19371986389160156,0.030248373746871948
1774658029536859400,9.436859375,0.20633697509765625,-0.23880863189697266,0.09926614165306091
1774658029546859300,9.446859375,0.415802001953125,0.2678351402282715,0.06589299440383911
1774658029556859400,9.456859375,0.23958539962768555,-0.16438055038452148,0.14133122563362122
1774658029566859300,9.466859375,-1.6540226936340332,0.5973310470581055,-0.014317572116851807
1774658029576859400,9.476859375,-0.08513021469116211,-0.3369140625,-0.07911619544029236
1774658029586859300,9.486859375,1.037215232849121,-0.12788724899291992,0.11199043691158295
1774658029596859400,9.496859375,-0.7160673141479492,0.24255847930908203,0.450582355260849
1774658029606859300,9.506859375,0.8046536445617676,-0.11655378341674805,-0.18035346269607544
1774658029616859400,9.516859375,0.4393887519836426,0.15600156784057617,-0.014152079820632935
1774658029626859300,9.526859375,-0.5816102027893066,-0.11309194564819336,0.4113123416900635
1774658029636859400,9.536859375,0.7580180168151855,-0.2492656707763672,-0.10059511661529541
1774658029646859300,9.546859375,-0.6130375862121582,-0.11495637893676758,-0.22574454545974731
1774658029656859400,9.556859375,0.20595455169677734,0.08761930465698242,-0.24426060914993286
1774658029666859300,9.566859375,0.45244598388671875,0.2702517509460449,-0.052169352769851685
1774658029676859400,9.576859375,-0.1347804069519043,0.36800098419189453,-0.051829785108566284
1774658029686859300,9.586859375,0.5821409225463867,0.3397068977355957,-0.15627503395080566
1774658029696859400,9.596859375,-0.0856318473815918,0.22867679595947266,0.0929354727268219
1774658029706859300,9.606859375,0.6601581573486328,0.3492145538330078,-0.03257754445075989
1774658029716859400,9.616859375,-0.1933269500732422,0.5132980346679688,-0.1307172179222107
1774658029726859300,9.626859375,0.15938901901245117,0.4158287048339844,-0.14487555623054504
1774658029736859400,9.636859375,0.2583470344543457,0.33704185485839844,-0.12188917398452759
1774658029746859300,9.646859375,0.4026298522949219,0.35056543350219727,-0.0009080767631530762
1774658029756859400,9.656859375,0.4983687400817871,0.4644966125488281,0.011330336332321167
1774658029766859300,9.666859375,0.4255976676940918,0.21075010299682617,-0.06547832489013672
1774658029776859400,9.676859375,0.011673927307128906,0.4158506393432617,0.2321503758430481
1774658029786859300,9.686859375,0.29479122161865234,-0.04425239562988281,0.2672024369239807
1774658029796859400,9.696859375,0.2391948699951172,0.13426780700683594,-0.12292993068695068
1774658029806859300,9.706859375,0.3219599723815918,0.29103899002075195,0.04316455125808716
1774658029816859400,9.716859375,0.606712818145752,0.22114992141723633,0.14660070836544037
1774658029826859300,9.726859375,0.4859943389892578,0.3198823928833008,-0.01843324303627014
1774658029836859400,9.736859375,-0.016550064086914062,0.5321664810180664,0.03576546907424927
1774658029846859300,9.746859375,0.52874755859375,-0.14844083786010742,-0.009539574384689331
1774658029856859400,9.756859375,0.5178847312927246,0.15215206146240234,0.09287655353546143
1774658029866859300,9.766859375,-0.46265172958374023,0.356050968170166,0.19669727981090546
1774658029876859400,9.776859375,0.5639281272888184,-0.0775899887084961,-0.2015286386013031
1774658029886859300,9.786859375,0.40439414978027344,0.4313035011291504,-0.1547355353832245
1774658029896859400,9.796859375,0.15384149551391602,0.42199182510375977,0.0057267844676971436
1774658029906859300,9.806859375,0.030760765075683594,-0.14049530029296875,-0.04690834879875183
1774658029916859400,9.816859375,-0.36693716049194336,0.07029581069946289,-0.11948993802070618
1774658029926859300,9.826859375,0.061461448669433594,0.2549595832824707,-0.055946409702301025
1774658029936859400,9.836859375,0.055646419525146484,-0.09941959381103516,0.09852278232574463
1774658029946859300,9.846859375,0.015619754791259766,0.23792409896850586,0.03635649383068085
1774658029956859400,9.856859375,0.2831268310546875,0.0031838417053222656,0.06229659914970398
1774658029966859300,9.866859375,-0.09476041793823242,0.20976972579956055,-0.00826108455657959
1774658029976859400,9.876859375,-0.19763565063476562,0.10562658309936523,0.32054728269577026
1774658029986859300,9.886859375,0.714205265045166,0.2413954734802246,0.13992588222026825
1774658029996859400,9.896859375,-0.22974061965942383,-0.06401586532592773,-0.08906638622283936
1774658030006859300,9.906859375,-0.040264129638671875,-0.12477302551269531,-0.10119357705116272
1774658030016859400,9.916859375,0.5212163925170898,-0.05884599685668945,0.22116415202617645
1774658030026859300,9.926859375,-0.20161962509155273,0.3407454490661621,0.3907241225242615
1774658030036859400,9.936859375,0.43897533416748047,-0.14330625534057617,-0.2579357624053955
1774658030046859300,9.946859375,-0.30660390853881836,-0.14317560195922852,-0.15365594625473022
1774658030056859400,9.956859375,-0.15985393524169922,-0.037261009216308594,0.03892117738723755
1774658030066859300,9.966859375,0.30289459228515625,0.11035728454589844,0.07076466083526611
1774658030076859400,9.976859375,-0.28444862365722656,0.02750110626220703,0.04590129852294922
1774658030086859300,9.986859375,0.06049823760986328,-0.045108795166015625,0.0085640549659729
1774658030096859400,9.996859375,0.04336404800415039,-0.019249439239501953,0.0027146637439727783
1774658030106859300,10.006859375,-0.025938034057617188,0.13951396942138672,-0.03035151958465576
1774658030116859400,10.016859375,0.254732608795166,0.20042657852172852,0.03981888294219971
1774658030126859300,10.026859375,-0.05263471603393555,0.1301250457763672,0.14423245191574097
1774658030136859400,10.036859375,-0.011387825012207031,-0.09104776382446289,-0.09307044744491577
1774658030146859300,10.046859375,0.35387754440307617,0.13811111450195312,-0.13816708326339722
1774658030156859400,10.056859375,0.016672611236572266,0.2161111831665039,-0.10428410768508911
1774658030166859300,10.066859375,0.5698590278625488,0.20786619186401367,-0.0963190495967865
1774658030176859400,10.076859375,-0.09539556503295898,0.04929828643798828,-0.07908523082733154
1774658030186859300,10.086859375,0.44164276123046875,0.322847843170166,-0.07242968678474426
1774658030196859400,10.096859375,0.19689655303955078,0.25069379806518555,0.014612823724746704
1774658030206859300,10.106859375,0.2947673797607422,0.18657541275024414,0.20068298280239105
1774658030216859400,10.116859375,0.3997039794921875,0.25633955001831055,0.05643707513809204
1774658030226859300,10.126859375,0.15976428985595703,0.24257659912109375,-0.00913587212562561
1774658030236859400,10.136859375,0.17303848266601562,-0.031369686126708984,-0.027749240398406982
1774658030246859300,10.146859375,0.2831454277038574,0.10357522964477539,0.16064703464508057
1774658030256859400,10.156859375,0.09365272521972656,0.3863239288330078,0.08442838490009308
1774658030266859300,10.166859375,0.020584583282470703,0.0993947982788086,-0.08955472707748413
1774658030276859400,10.176859375,0.11895370483398438,0.3133969306945801,-0.06387922167778015
1774658030286859300,10.186859375,0.17534732818603516,0.15005111694335938,-0.034096747636795044
1774658030296859400,10.196859375,0.11166858673095703,0.18458938598632812,-0.24891170859336853
1774658030306859300,10.206859375,0.19985723495483398,0.20864582061767578,-0.20455992221832275
1774658030316859400,10.216859375,0.26936769485473633,0.09769678115844727,-0.004669100046157837
1774658030326859300,10.226859375,-0.058798789978027344,0.20812320709228516,-0.0720590353012085
1774658030336859400,10.236859375,0.15500545501708984,0.06114816665649414,-0.11295515298843384
1774658030346859300,10.246859375,0.2406167984008789,0.1820511817932129,-0.0032585859298706055
1774658030356859400,10.256859375,0.23838043212890625,0.1489877700805664,0.28779137134552
1774658030366859300,10.266859375,0.06048011779785156,0.09473419189453125,-0.2278503179550171
1774658030376859400,10.276859375,0.1900010108947754,-0.12543916702270508,0.05827571451663971
1774658030386859300,10.286859375,-0.01790332794189453,0.016095638275146484,0.17557719349861145
1774658030396859400,10.296859375,0.1505131721496582,0.020141124725341797,0.021443724632263184
1774658030406859300,10.306859375,0.10529422760009766,-0.012054443359375,-0.04838666319847107
1774658030416859400,10.316859375,-0.24729061126708984,-0.05486011505126953,0.1722000539302826
1774658030426859300,10.326859375,-0.04830789566040039,-0.0936574935913086,0.0475078821182251
1774658030436859400,10.336859375,-0.04518842697143555,0.14549493789672852,-0.0588688850402832
1774658030446859300,10.346859375,-0.04006814956665039,0.09885406494140625,0.03808489441871643
1774658030456859400,10.356859375,-0.09408140182495117,0.07907438278198242,0.17687055468559265
1774658030466859300,10.366859375,0.14416122436523438,0.07484722137451172,-0.1495862901210785
1774658030476859400,10.376859375,-0.18341445922851562,0.0821075439453125,-0.058381587266922
1774658030486859300,10.386859375,-0.08084249496459961,0.14279747009277344,0.11472028493881226
1774658030496859400,10.396859375,0.28930234909057617,0.09082937240600586,0.0996246337890625
1774658030506859300,10.406859375,-0.08772420883178711,0.310244083404541,0.09937913715839386
1774658030516859400,10.416859375,0.40560054779052734,0.08934688568115234,0.01961091160774231
1774658030526859300,10.426859375,-0.020221233367919922,-0.21127700805664062,-0.026123106479644775
1774658030536859400,10.436859375,0.16656732559204102,0.11276721954345703,-0.058395057916641235
1774658030546859300,10.446859375,0.4400367736816406,0.24569177627563477,-0.10878121852874756
1774658030556859400,10.456859375,0.03269147872924805,0.025371551513671875,-0.09491264820098877
1774658030566859300,10.466859375,0.2768721580505371,-0.09747457504272461,-0.16008740663528442
1774658030576859400,10.476859375,0.18980026245117188,0.1385173797607422,-0.19452279806137085
1774658030586859300,10.486859375,0.051351070404052734,0.16802549362182617,0.053176477551460266
1774658030596859400,10.496859375,-0.13822221755981445,-0.031308650970458984,0.1042000949382782
1774658030606859300,10.506859375,-0.15044593811035156,0.12835121154785156,0.04503931105136871
1774658030616859400,10.516859375,0.14818716049194336,0.11219644546508789,-0.009087234735488892
1774658030626859300,10.526859375,0.0029621124267578125,0.2485032081604004,0.0578223317861557
1774658030636859400,10.536859375,-0.02202606201171875,0.26744937896728516,0.06814306974411011
1774658030646859300,10.546859375,0.2721247673034668,0.1106863021850586,-0.033627867698669434
1774658030656859400,10.556859375,-0.19421863555908203,0.2026820182800293,0.0000973045825958252
1774658030666859300,10.566859375,0.3505434989929199,0.11822938919067383,-0.027722984552383423
1774658030676859400,10.576859375,0.23819971084594727,0.046067237854003906,-0.046024441719055176
1774658030686859300,10.586859375,0.0284881591796875,-0.09947681427001953,-0.042339593172073364
1774658030696859400,10.596859375,0.214080810546875,0.023052215576171875,-0.040172427892684937
1774658030706859300,10.606859375,0.12940073013305664,0.04976081848144531,0.06917545199394226
1774658030716859400,10.616859375,0.10053062438964844,0.11959600448608398,0.09537652134895325
1774658030726859300,10.626859375,0.3233513832092285,-0.0034265518188476562,0.045594051480293274
1774658030736859400,10.636859375,0.0951070785522461,0.1350398063659668,-0.00959312915802002
1774658030746859300,10.646859375,0.3054389953613281,0.08424949645996094,-0.047286152839660645
1774658030756859400,10.656859375,0.2424020767211914,0.16145038604736328,-0.10603639483451843
1774658030766859300,10.666859375,0.08241081237792969,0.1506180763244629,-0.1794338822364807
1774658030776859400,10.676859375,0.3736543655395508,0.2329416275024414,-0.15213671326637268
1774658030786859300,10.686859375,0.18160390853881836,0.3340926170349121,0.029534220695495605
1774658030796859400,10.696859375,0.11082792282104492,0.2355055809020996,0.08167585730552673
1774658030806859300,10.706859375,0.21208953857421875,0.24351739883422852,0.024320751428604126
1774658030816859400,10.716859375,0.09064149856567383,0.23564577102661133,-0.0034853219985961914
1774658030826859300,10.726859375,0.21212530136108398,0.3368396759033203,0.02885642647743225
1774658030836859400,10.736859375,0.11380720138549805,0.3132777214050293,0.02339288592338562
1774658030846859300,10.746859375,0.31043100357055664,0.27237367630004883,-0.07691580057144165
1774658030856859400,10.756859375,0.030753612518310547,0.3494687080383301,-0.005095422267913818
1774658030866859300,10.766859375,0.31394100189208984,0.2841362953186035,0.08651743829250336
1774658030876859400,10.776859375,0.18990039825439453,0.23106813430786133,0.10942456126213074
1774658030886859300,10.786859375,0.3893446922302246,0.25882673263549805,0.06153516471385956
1774658030896859400,10.796859375,0.30894899368286133,0.31447362899780273,0.06078827381134033
1774658030906859300,10.806859375,0.4438323974609375,0.32411670684814453,0.05576184391975403
1774658030916859400,10.816859375,0.48808860778808594,0.3487105369567871,0.03699946403503418
1774658030926859300,10.826859375,0.30632591247558594,0.39129161834716797,-0.06871780753135681
1774658030936859400,10.836859375,0.5437831878662109,0.3325977325439453,-0.11767008900642395
1774658030946859300,10.846859375,0.46700048446655273,0.4266653060913086,-0.08884087204933167
1774658030956859400,10.856859375,0.4438347816467285,0.5211730003356934,-0.03440135717391968
1774658030966859300,10.866859375,0.45982837677001953,0.5882458686828613,-0.16032946109771729
1774658030976859400,10.876859375,0.6466164588928223,0.509279727935791,-0.15508481860160828
1774658030986859300,10.886859375,0.4611549377441406,0.5680131912231445,-0.02306428551673889
1774658030996859400,10.896859375,0.02198314666748047,0.9472389221191406,-0.0020355284214019775
1774658031006859300,10.906859375,0.9010319709777832,0.5354709625244141,-0.0852496325969696
1774658031016859400,10.916859375,0.6877942085266113,0.6425423622131348,-0.022966116666793823
1774658031026859300,10.926859375,0.37712860107421875,0.6989855766296387,0.07118967175483704
1774658031036859400,10.936859375,0.9829015731811523,0.2886691093444824,-0.07140427827835083
1774658031046859300,10.946859375,0.5566587448120117,0.5650863647460938,-0.021104484796524048
1774658031056859400,10.956859375,0.5128974914550781,0.5802698135375977,0.047899454832077026
1774658031066859300,10.966859375,0.7251777648925781,0.5452895164489746,0.06411264836788177
1774658031076859400,10.976859375,0.4055318832397461,0.43410158157348633,0.07565310597419739
1774658031086859300,10.986859375,0.5767393112182617,0.31292724609375,-0.17152109742164612
1774658031096859400,10.996859375,0.5283603668212891,0.530484676361084,-0.08075633645057678
1774658031106859300,11.006859375,0.42793846130371094,0.4977898597717285,0.11946308612823486
1774658031116859400,11.016859375,0.4286937713623047,0.47052860260009766,0.04482923448085785
1774658031126859300,11.026859375,0.5940532684326172,0.39794301986694336,-0.048211246728897095
1774658031136859400,11.036859375,0.9120731353759766,0.48753786087036133,-0.05887496471405029
1774658031146859300,11.046859375,0.6881923675537109,0.50115966796875,0.25264498591423035
1774658031156859400,11.056859375,0.5115261077880859,0.47792720794677734,0.09327597916126251
1774658031166859300,11.066859375,0.5408382415771484,0.5070066452026367,0.1608077734708786
1774658031176859400,11.076859375,0.47849369049072266,0.6083683967590332,0.38135433197021484
1774658031186859300,11.086859375,0.3903160095214844,0.5111684799194336,0.1818935126066208
1774658031196859400,11.096859375,0.28232765197753906,0.36634111404418945,-0.10797911882400513
1774658031206859300,11.106859375,0.43523597717285156,0.5279974937438965,-0.27780699729919434
1774658031216859400,11.116859375,0.08313560485839844,0.6002845764160156,-0.15525856614112854
1774658031226859300,11.126859375,0.6018123626708984,0.6460881233215332,-0.009660661220550537
1774658031236859400,11.136859375,0.30504894256591797,0.37900495529174805,-0.16534796357154846
1774658031246859300,11.146859375,0.3663911819458008,0.5002479553222656,-0.0593283474445343
1774658031256859400,11.156859375,0.5991630554199219,0.28232240676879883,-0.011458247900009155
1774658031266859300,11.166859375,0.3933115005493164,0.2129688262939453,-0.13985341787338257
1774658031276859400,11.176859375,0.3504972457885742,0.13577842712402344,-0.07077184319496155
1774658031286859300,11.186859375,0.4473085403442383,0.25757360458374023,0.08253675699234009
1774658031296859400,11.196859375,0.45913124084472656,0.5939831733703613,0.11760060489177704
1774658031306859300,11.206859375,0.2603645324707031,0.12194156646728516,-0.14451748132705688
1774658031316859400,11.216859375,0.3934354782104492,0.33300113677978516,-0.062338948249816895
1774658031326859300,11.226859375,-0.3112645149230957,-0.1757822036743164,-0.08950987458229065
1774658031336859400,11.236859375,0.25976085662841797,0.2758755683898926,0.03381270170211792
1774658031346859300,11.246859375,-0.04651451110839844,-0.15160131454467773,0.15188054740428925
1774658031356859400,11.256859375,-0.25211381912231445,-0.12566184997558594,0.1406882256269455
1774658031366859300,11.266859375,0.04686450958251953,0.17696046829223633,0.1497923880815506
1774658031376859400,11.276859375,-0.15116405487060547,-0.20213985443115234,0.13154198229312897
1774658031386859300,11.286859375,-0.3132314682006836,-0.2722358703613281,-0.03342312574386597
1774658031396859400,11.296859375,-0.31719207763671875,0.045889854431152344,0.36563411355018616
1774658031406859300,11.306859375,-0.4547872543334961,-0.09232378005981445,0.32563260197639465
1774658031416859400,11.316859375,-0.44753551483154297,-0.5451936721801758,-0.006388843059539795
1774658031426859300,11.326859375,-0.1394338607788086,-0.4023098945617676,-0.08663526177406311
1774658031436859400,11.336859375,0.036932945251464844,-0.02400493621826172,-0.15689411759376526
1774658031446859300,11.346859375,-0.2375960350036621,-0.49066686630249023,-0.14526620507240295
1774658031456859400,11.356859375,-0.2478313446044922,-0.5378084182739258,-0.22444164752960205
1774658031466859300,11.366859375,-0.3855457305908203,-0.43036937713623047,-0.09134268760681152
1774658031476859400,11.376859375,-0.31791114807128906,-0.3907022476196289,-0.10883510112762451
1774658031486859300,11.386859375,-0.5582990646362305,-0.6154961585998535,-0.10420137643814087
1774658031496859400,11.396859375,-0.7661294937133789,-0.3275718688964844,0.08150547742843628
1774658031506859300,11.406859375,-0.5429401397705078,-0.5654687881469727,0.005781888961791992
1774658031516859400,11.416859375,-0.4913005828857422,-0.5386810302734375,-0.16216257214546204
1774658031526859300,11.426859375,-0.6811017990112305,-0.48119640350341797,-0.2277267575263977
1774658031536859400,11.436859375,-0.37531375885009766,-0.6479291915893555,-0.03937697410583496
1774658031546859300,11.446859375,-0.6473784446716309,-0.6948113441467285,0.023385852575302124
1774658031556859400,11.456859375,-0.9339442253112793,-0.6197433471679688,-0.11367645859718323
1774658031566859300,11.466859375,-0.5474891662597656,-0.44173288345336914,0.2490191012620926
1774658031576859400,11.476859375,-0.7311601638793945,-0.6316432952880859,0.5373411178588867
1774658031586859300,11.486859375,-1.050623893737793,-0.7310662269592285,0.1075897067785263
1774658031596859400,11.496859375,-0.5796480178833008,-0.6218166351318359,-0.0731634795665741
1774658031606859300,11.506859375,-0.7200403213500977,-0.7423901557922363,0.07885736227035522
1774658031616859400,11.516859375,-1.2411088943481445,-1.049072265625,0.2347191870212555
1774658031626859300,11.526859375,-0.4995279312133789,-0.47370481491088867,-0.07966777682304382
1774658031636859400,11.536859375,-0.4895763397216797,-0.560356616973877,-0.12519794702529907
1774658031646859300,11.546859375,-0.46015071868896484,-0.7719597816467285,0.06303365528583527
1774658031656859400,11.556859375,-0.7964482307434082,-0.5211553573608398,-0.2486918866634369
1774658031666859300,11.566859375,-0.7081313133239746,-0.8244962692260742,-0.032216161489486694
1774658031676859400,11.576859375,-0.6960573196411133,-0.6641941070556641,-0.3286578059196472
1774658031686859300,11.586859375,-0.8370480537414551,-0.620610237121582,-0.07623291015625
1774658031696859400,11.596859375,-0.4447822570800781,-0.637237548828125,0.07349270582199097
1774658031706859300,11.606859375,-0.7605867385864258,-0.7733902931213379,0.2553977966308594
1774658031716859400,11.616859375,-0.6426191329956055,-0.41605710983276367,0.17948348820209503
1774658031726859300,11.626859375,-0.7172079086303711,-0.6505718231201172,-0.14935463666915894
1774658031736859400,11.636859375,-0.8107767105102539,-0.22419023513793945,-0.1630341112613678
1774658031746859300,11.646859375,0.20949459075927734,-0.32951831817626953,0.2502753436565399
1774658031756859400,11.656859375,0.008652687072753906,-0.5163626670837402,-0.03525868058204651
1774658031766859300,11.666859375,-1.016000747680664,-0.3383808135986328,-0.1259480118751526
1774658031776859400,11.676859375,0.1826496124267578,-0.7662372589111328,-0.04997962713241577
1774658031786859300,11.686859375,-0.47560787200927734,-0.5154218673706055,0.14411823451519012
1774658031796859400,11.696859375,-0.4895305633544922,-0.19368600845336914,0.21385228633880615
1774658031806859300,11.706859375,-0.03800773620605469,-0.3054046630859375,0.21835792064666748
1774658031816859400,11.716859375,-1.0128264427185059,-0.8996415138244629,-0.023954778909683228
1774658031826859300,11.726859375,-0.5173025131225586,-0.6381893157958984,-0.13023912906646729
1774658031836859400,11.736859375,-1.0585193634033203,-0.3270096778869629,-0.0941496193408966
1774658031846859300,11.746859375,-0.5846261978149414,-0.3229985237121582,-0.030614793300628662
1774658031856859400,11.756859375,-1.5458087921142578,-1.3686866760253906,0.07916291058063507
1774658031866859300,11.766859375,-0.7878079414367676,-1.3681879043579102,-0.3307883143424988
1774658031876859400,11.776859375,-2.5228819847106934,-0.8615622520446777,0.12192220985889435
1774658031886859300,11.786859375,-1.2892942428588867,-1.2195549011230469,0.019586235284805298
1774658031896859400,11.796859375,0.1571645736694336,-1.8568401336669922,0.02105867862701416
1774658031906859300,11.806859375,-2.0392274856567383,-1.1758723258972168,-0.058840155601501465
1774658031916859400,11.816859375,-1.9181723594665527,-1.617671012878418,-0.1856476068496704
1774658031926859300,11.826859375,-1.3750476837158203,-1.5180745124816895,-0.0011106431484222412
1774658031936859400,11.836859375,-1.649789810180664,-1.85133695602417,0.26220619678497314
1774658031946859300,11.846859375,-1.4941320419311523,-1.7485084533691406,-0.12941592931747437
1774658031956859400,11.856859375,-1.699465274810791,-1.4930596351623535,0.02205592393875122
1774658031966859300,11.866859375,-1.4633021354675293,-1.532543659210205,0.2535589635372162
1774658031976859400,11.876859375,-1.2782230377197266,-1.7692956924438477,0.023005127906799316
1774658031986859300,11.886859375,-1.7169203758239746,-1.5512642860412598,0.06300631165504456
1774658031996859400,11.896859375,-1.6218595504760742,-1.6511664390563965,-0.025703608989715576
1774658032006859300,11.906859375,-1.6637415885925293,-1.2278070449829102,0.08734013140201569
1774658032016859400,11.916859375,-1.3715944290161133,-1.336493968963623,0.1607084572315216
1774658032026859300,11.926859375,-1.379941463470459,-1.102952480316162,-0.004029691219329834
1774658032036859400,11.936859375,-1.3407230377197266,-0.9607634544372559,-0.016299039125442505
1774658032046859300,11.946859375,-1.2131938934326172,-1.2294278144836426,-0.00647503137588501
1774658032056859400,11.956859375,-1.5227103233337402,-0.5448336601257324,-0.19975325465202332
1774658032066859300,11.966859375,-0.7433710098266602,-0.8825092315673828,-0.27602115273475647
1774658032076859400,11.976859375,-0.14448833465576172,-0.8400530815124512,-0.2090231478214264
1774658032086859300,11.986859375,-0.905754566192627,-0.449188232421875,-0.027001023292541504
1774658032096859400,11.996859375,-0.2288827896118164,-0.7188944816589355,0.0768933892250061
1774658032106859300,12.006859375,-0.19791078567504883,-0.549156665802002,0.1815885454416275
1774658032116859400,12.016859375,-0.2828865051269531,-0.3535885810852051,0.17249619960784912
1774658032126859300,12.026859375,0.18816232681274414,-0.3464035987854004,0.021093696355819702
1774658032136859400,12.036859375,-0.46668243408203125,-0.0649714469909668,-0.023299843072891235
1774658032146859300,12.046859375,-0.13702917098999023,-0.22908926010131836,-0.1250748634338379
1774658032156859400,12.056859375,0.28272151947021484,-0.37641334533691406,-0.14191794395446777
1774658032166859300,12.066859375,-0.6290678977966309,0.21182489395141602,-0.04858025908470154
1774658032176859400,12.076859375,0.03755807876586914,-0.1172332763671875,-0.017013370990753174
1774658032186859300,12.086859375,0.16966485977172852,-0.1801285743713379,0.12539860606193542
1774658032196859400,12.096859375,-0.5937480926513672,0.1267247200012207,0.17796245217323303
1774658032206859300,12.106859375,-0.0594940185546875,-0.02945423126220703,-0.05595880746841431
1774658032216859400,12.116859375,-0.06849241256713867,-0.030812740325927734,-0.11963680386543274
1774658032226859300,12.126859375,-0.11000347137451172,-0.008894920349121094,-0.038690775632858276
1774658032236859400,12.136859375,-0.07418394088745117,-0.0641489028930664,-0.12028646469116211
1774658032246859300,12.146859375,-0.3278956413269043,-0.15813159942626953,-0.12373527884483337
1774658032256859400,12.156859375,0.00043392181396484375,-0.24936628341674805,-0.016435086727142334
1774658032266859300,12.166859375,-0.058032989501953125,-0.2536005973815918,0.05782747268676758
1774658032276859400,12.176859375,-0.16219472885131836,-0.44426918029785156,0.028346985578536987
1774658032286859300,12.186859375,-0.5784831047058105,-0.5034756660461426,0.04669305682182312
1774658032296859400,12.196859375,-0.5205168724060059,-0.7377605438232422,-0.0050671398639678955
1774658032306859300,12.206859375,-0.7591705322265625,-0.7917256355285645,-0.0727979838848114
1774658032316859400,12.216859375,-0.994286060333252,-0.8889808654785156,0.04543536901473999
1774658032326859300,12.226859375,-1.105189323425293,-0.8590631484985352,0.10185050964355469
1774658032336859400,12.236859375,-1.2490158081054688,-0.9486303329467773,0.17646077275276184
1774658032346859300,12.246859375,-1.2169537544250488,-1.0138130187988281,0.17468824982643127
1774658032356859400,12.256859375,-0.4832186698913574,-1.5899395942687988,0.06483489274978638
1774658032366859300,12.266859375,-1.3711514472961426,-1.2233223915100098,0.025581568479537964
1774658032376859400,12.276859375,-1.6346731185913086,-0.8930635452270508,-0.009351223707199097
1774658032386859300,12.286859375,-0.9688453674316406,-1.45611572265625,-0.10286512970924377
1774658032396859400,12.296859375,-1.2978224754333496,-1.279292106628418,-0.1705194115638733
1774658032406859300,12.306859375,-1.6615004539489746,-1.0629186630249023,-0.0400414764881134
1774658032416859400,12.316859375,-2.71610164642334,-1.039240837097168,0.007151305675506592
1774658032426859300,12.326859375,-0.46996402740478516,-1.4718055725097656,-0.34312596917152405
1774658032436859400,12.336859375,-0.741340160369873,-1.510162353515625,0.047722309827804565
1774658032446859300,12.346859375,-1.948664665222168,-1.19667387008667,0.2503702938556671
1774658032456859400,12.356859375,-1.5070829391479492,-1.6463618278503418,-0.318307489156723
1774658032466859300,12.366859375,-0.6827101707458496,-1.2834644317626953,-0.3695440888404846
1774658032476859400,12.376859375,-1.3737783432006836,-1.4529404640197754,0.033026278018951416
1774658032486859300,12.386859375,-1.1381354331970215,-1.1997418403625488,-0.22271615266799927
1774658032496859400,12.396859375,-0.7717223167419434,-1.2859177589416504,-0.44345036149024963
1774658032506859300,12.406859375,-1.2020163536071777,-1.169668197631836,-0.18727585673332214
1774658032516859400,12.416859375,-0.14464378356933594,-0.9137916564941406,0.023317277431488037
1774658032526859300,12.426859375,-1.1915030479431152,-0.7057785987854004,0.11321225762367249
1774658032536859400,12.436859375,-0.9981703758239746,-0.7515668869018555,-0.0818837583065033
1774658032546859300,12.446859375,-0.6533799171447754,-0.6834859848022461,0.28065624833106995
1774658032556859400,12.456859375,-0.8692517280578613,-0.3595294952392578,0.28877246379852295
1774658032566859300,12.466859375,-0.007826805114746094,-0.34471988677978516,-0.17099228501319885
1774658032576859400,12.476859375,-0.6894221305847168,-0.2580733299255371,-0.2050391435623169
1774658032586859300,12.486859375,-0.7231402397155762,-0.20802068710327148,0.04271245002746582
1774658032596859400,12.496859375,-0.053087711334228516,-0.27667236328125,-0.06959369778633118
1774658032606859300,12.506859375,-0.3118886947631836,0.0024280548095703125,-0.3197467029094696
1774658032616859400,12.516859375,-0.23898744583129883,-0.1353168487548828,-0.3701438307762146
1774658032626859300,12.526859375,0.0034003257751464844,-0.11768484115600586,-0.209800124168396
1774658032636859400,12.536859375,0.33963441848754883,0.02367687225341797,-0.11802715063095093
1774658032646859300,12.546859375,0.023642539978027344,-0.04258251190185547,-0.012320220470428467
1774658032656859400,12.556859375,-1.1725544929504395,0.12565088272094727,-0.21471837162971497
1774658032666859300,12.566859375,-0.03553628921508789,-0.36650800704956055,-0.025374263525009155
1774658032676859400,12.576859375,0.565399169921875,-0.4829998016357422,0.07774676382541656
1774658032686859300,12.586859375,-0.4827876091003418,0.23839712142944336,-0.03853809833526611
1774658032696859400,12.596859375,0.0025930404663085938,-0.2817702293395996,-0.18965265154838562
1774658032706859300,12.606859375,0.25728511810302734,-0.16269207000732422,0.023327305912971497
1774658032716859400,12.616859375,-0.7007031440734863,0.525026798248291,0.38236042857170105
1774658032726859300,12.626859375,0.9012947082519531,-1.1053013801574707,-0.08928576111793518
1774658032736859400,12.636859375,0.8692541122436523,0.30263280868530273,-0.5414100885391235
1774658032746859300,12.646859375,-0.20495939254760742,0.4357109069824219,0.14800837635993958
1774658032756859400,12.656859375,0.5000314712524414,-0.10608959197998047,0.5169014930725098
1774658032766859300,12.666859375,0.03464317321777344,0.4614219665527344,0.34043726325035095
1774658032776859400,12.676859375,0.0844583511352539,0.46324920654296875,0.26291945576667786
1774658032786859300,12.686859375,0.3458371162414551,-0.3908815383911133,-0.17334681749343872
1774658032796859400,12.696859375,-0.6098756790161133,0.2595949172973633,-0.30462801456451416
1774658032806859300,12.706859375,0.9898338317871094,0.9225306510925293,-0.1239633560180664
1774658032816859400,12.716859375,-0.010938644409179688,0.28756093978881836,0.5452612638473511
1774658032826859300,12.726859375,-0.5914773941040039,0.5403203964233398,-0.2299451231956482
1774658032836859400,12.736859375,0.844672679901123,0.6768956184387207,-0.7369999289512634
1774658032846859300,12.746859375,0.15828371047973633,0.041838645935058594,0.2879175543785095
1774658032856859400,12.756859375,0.18319177627563477,0.6531052589416504,0.05981266498565674
1774658032866859300,12.766859375,0.7927508354187012,0.04139137268066406,-0.06669995188713074
1774658032876859400,12.776859375,0.31918859481811523,0.15880346298217773,0.21718525886535645
1774658032886859300,12.786859375,0.6511902809143066,-0.03958892822265625,0.29973310232162476
1774658032896859400,12.796859375,1.0806684494018555,0.0541996955871582,0.050995782017707825
