time,seconds_elapsed,z,y,x
1774658020138722000,0.03872216796875,0.0032070400193333626,-0.002901607658714056,0.007177661173045635
1774658020155511000,0.055510986328125,-0.004123337101191282,0.0013744457392022014,-0.005039634648710489
1774658020172299800,0.0722998046875,0.004428769461810589,-0.002290742937475443,-0.0001527161948615685
1774658020189088500,0.089088623046875,-0.003512472379952669,0.0013744457392022014,0.004123337101191282
1774658020205877500,0.10587744140625,0.0038179049734026194,0.0001527161948615685,-0.004428769461810589
1774658020222666200,0.122666259765625,-0.003512472379952669,0.0019853105768561363,0.002290742937475443
1774658020239455000,0.139455078125,0.0032070400193333626,-0.001679878099821508,0.0010690133785828948
1774658020256244000,0.156243896484375,-0.002901607658714056,0.0007635809597559273,-0.0007635809597559273
1774658020273032700,0.17303271484375,0.0019853105768561363,-0.0010690133785828948,0.0010690133785828948
1774658020289821400,0.189821533203125,-0.002290742937475443,0.0001527161948615685,0.00045814859913662076
1774658020306610400,0.2066103515625,0.0013744457392022014,0.0007635809597559273,-0.0001527161948615685
1774658020323399200,0.223399169921875,-0.00045814859913662076,0.0007635809597559273,0.0010690133785828948
1774658020340188000,0.24018798828125,0.0001527161948615685,0.0013744457392022014,-0.0007635809597559273
1774658020356976600,0.2569765625,-0.00045814859913662076,0.0001527161948615685,-0.0007635809597559273
1774658020373765600,0.273765625,0.0001527161948615685,-0.00045814859913662076,-0.0001527161948615685
1774658020390554400,0.290554443359375,0.0001527161948615685,0.0007635809597559273,-0.0007635809597559273
1774658020407343000,0.307343017578125,-0.00045814859913662076,0.0001527161948615685,-0.0001527161948615685
1774658020424132000,0.324132080078125,0.0001527161948615685,0.0001527161948615685,0.00045814859913662076
1774658020440920800,0.3409208984375,0.0001527161948615685,0.0001527161948615685,-0.0001527161948615685
1774658020457709600,0.35770947265625,0.0013744457392022014,0.0001527161948615685,-0.0001527161948615685
1774658020474498600,0.37449853515625,-0.00045814859913662076,-0.00045814859913662076,0.0010690133785828948
1774658020491287300,0.391287353515625,0.0001527161948615685,-0.00045814859913662076,-0.0001527161948615685
1774658020508076000,0.408075927734375,-0.00045814859913662076,0.0007635809597559273,-0.0001527161948615685
1774658020524865000,0.424864990234375,0.0001527161948615685,-0.001679878099821508,0.00045814859913662076
1774658020541653800,0.44165380859375,-0.0010690133785828948,0.0001527161948615685,-0.0007635809597559273
1774658020558442800,0.45844287109375,0.0001527161948615685,0.0001527161948615685,-0.0001527161948615685
1774658020575231500,0.4752314453125,0.0001527161948615685,0.0001527161948615685,-0.0007635809597559273
1774658020592020200,0.492020263671875,-0.00045814859913662076,0.0001527161948615685,-0.0001527161948615685
1774658020608809200,0.508809326171875,-0.00045814859913662076,-0.00045814859913662076,0.00045814859913662076
1774658020625598000,0.525597900390625,-0.0010690133785828948,0.0001527161948615685,-0.0001527161948615685
1774658020642386700,0.54238671875,0.0001527161948615685,0.0001527161948615685,-0.0001527161948615685
1774658020659175700,0.55917578125,-0.001679878099821508,0.0001527161948615685,0.00045814859913662076
1774658020675964400,0.57596435546875,0.0001527161948615685,0.0001527161948615685,-0.0007635809597559273
1774658020692753200,0.592753173828125,0.0001527161948615685,0.0007635809597559273,-0.0001527161948615685
1774658020709542100,0.609542236328125,0.0001527161948615685,-0.0010690133785828948,0.00045814859913662076
1774658020726331000,0.626330810546875,-0.0010690133785828948,0.0013744457392022014,0.00045814859913662076
1774658020743119600,0.64311962890625,0.0001527161948615685,-0.00045814859913662076,0.00045814859913662076
1774658020759908600,0.65990869140625,-0.0010690133785828948,0.0001527161948615685,-0.0001527161948615685
1774658020776697300,0.676697265625,0.0007635809597559273,-0.0010690133785828948,0.00045814859913662076
1774658020793486000,0.693486083984375,-0.0010690133785828948,-0.00045814859913662076,-0.0001527161948615685
1774658020810275000,0.710275146484375,0.0007635809597559273,0.0001527161948615685,-0.0007635809597559273
1774658020827063800,0.727063720703125,-0.00045814859913662076,0.0007635809597559273,0.001679878099821508
1774658020843852500,0.7438525390625,0.0013744457392022014,0.0001527161948615685,0.00045814859913662076
1774658020860641500,0.7606416015625,-0.0010690133785828948,0.0013744457392022014,-0.0001527161948615685
1774658020877430300,0.77743017578125,0.0001527161948615685,-0.00045814859913662076,-0.0001527161948615685
1774658020894219000,0.794218994140625,-0.00045814859913662076,-0.0010690133785828948,-0.0001527161948615685
1774658020911007700,0.8110078125,0.0001527161948615685,-0.00045814859913662076,-0.0007635809597559273
1774658020927796700,0.827796630859375,-0.00045814859913662076,0.0001527161948615685,-0.0001527161948615685
1774658020944585500,0.84458544921875,-0.00045814859913662076,-0.00045814859913662076,-0.0001527161948615685
1774658020961374500,0.86137451171875,0.0001527161948615685,-0.00045814859913662076,-0.0007635809597559273
1774658020978163200,0.8781630859375,0.0001527161948615685,0.0007635809597559273,0.00045814859913662076
1774658020994952000,0.894951904296875,-0.00045814859913662076,0.0001527161948615685,-0.0001527161948615685
1774658021011741000,0.911740966796875,-0.00045814859913662076,0.0001527161948615685,-0.0001527161948615685
1774658021028529700,0.92852978515625,0.0001527161948615685,0.0001527161948615685,-0.0007635809597559273
1774658021045318400,0.945318359375,0.0001527161948615685,0.0007635809597559273,0.00045814859913662076
1774658021062107400,0.962107421875,0.0001527161948615685,0.0007635809597559273,-0.0001527161948615685
1774658021078896000,0.978896240234375,0.0001527161948615685,0.0001527161948615685,-0.0001527161948615685
1774658021095684900,0.995684814453125,0.0001527161948615685,0.0013744457392022014,-0.0001527161948615685
1774658021112473900,1.012473876953125,0.0001527161948615685,-0.001679878099821508,-0.0001527161948615685
1774658021129262600,1.0292626953125,0.0001527161948615685,-0.0010690133785828948,-0.0001527161948615685
1774658021146051300,1.04605126953125,-0.00045814859913662076,0.0007635809597559273,0.00045814859913662076
1774658021162840300,1.06284033203125,0.0013744457392022014,-0.00045814859913662076,-0.0001527161948615685
1774658021179629000,1.079629150390625,-0.001679878099821508,0.0001527161948615685,-0.0007635809597559273
1774658021196417800,1.096417724609375,0.0007635809597559273,0.0007635809597559273,-0.0007635809597559273
1774658021213206800,1.113206787109375,-0.00045814859913662076,0.0007635809597559273,-0.0001527161948615685
1774658021229995500,1.12999560546875,0.0013744457392022014,-0.0010690133785828948,-0.0001527161948615685
1774658021246784300,1.1467841796875,-0.00045814859913662076,0.0001527161948615685,-0.0013744457392022014
1774658021263573000,1.163572998046875,0.0013744457392022014,-0.0010690133785828948,-0.0001527161948615685
1774658021280362000,1.180362060546875,0.0001527161948615685,0.0007635809597559273,-0.0001527161948615685
1774658021297150700,1.197150634765625,0.0001527161948615685,0.0001527161948615685,0.00045814859913662076
1774658021313939500,1.213939453125,0.0001527161948615685,0.0001527161948615685,0.00045814859913662076
1774658021330728400,1.230728515625,0.0001527161948615685,-0.00045814859913662076,0.00045814859913662076
1774658021347517200,1.24751708984375,0.0001527161948615685,-0.00045814859913662076,0.0010690133785828948
1774658021364306000,1.264305908203125,0.0007635809597559273,-0.0010690133785828948,0.00045814859913662076
1774658021381095000,1.281094970703125,-0.00045814859913662076,0.0001527161948615685,0.00045814859913662076
1774658021397883600,1.297883544921875,0.0001527161948615685,0.0001527161948615685,0.00045814859913662076
1774658021414672400,1.31467236328125,0.0001527161948615685,-0.0010690133785828948,0.00045814859913662076
1774658021431461400,1.33146142578125,0.0001527161948615685,0.0007635809597559273,0.00045814859913662076
1774658021448250000,1.34825,0.0007635809597559273,0.0001527161948615685,-0.0001527161948615685
1774658021465038800,1.365038818359375,-0.00045814859913662076,0.0001527161948615685,-0.0001527161948615685
1774658021481827800,1.381827880859375,0.0007635809597559273,-0.00045814859913662076,-0.0007635809597559273
1774658021498616600,1.398616455078125,0.0007635809597559273,0.0007635809597559273,-0.0001527161948615685
1774658021515405300,1.4154052734375,-0.00045814859913662076,0.0007635809597559273,-0.0001527161948615685
1774658021532194300,1.4321943359375,0.0007635809597559273,-0.00045814859913662076,-0.0001527161948615685
1774658021548983000,1.448983154296875,0.0001527161948615685,0.0001527161948615685,0.001679878099821508
1774658021565771800,1.465771728515625,0.0001527161948615685,0.0001527161948615685,-0.0007635809597559273
1774658021582560800,1.482560791015625,0.0001527161948615685,0.0007635809597559273,0.00045814859913662076
1774658021599349500,1.499349609375,0.0001527161948615685,0.0001527161948615685,0.00045814859913662076
1774658021616138200,1.51613818359375,-0.00045814859913662076,0.0001527161948615685,0.00045814859913662076
1774658021632927200,1.53292724609375,0.0001527161948615685,0.0001527161948615685,-0.0001527161948615685
1774658021649716000,1.549716064453125,-0.00045814859913662076,-0.00045814859913662076,0.00045814859913662076
1774658021666504700,1.566504638671875,0.0001527161948615685,-0.00045814859913662076,0.0010690133785828948
1774658021683293700,1.583293701171875,0.0001527161948615685,0.0013744457392022014,0.0010690133785828948
1774658021700082400,1.60008251953125,0.0001527161948615685,0.0007635809597559273,-0.0001527161948615685
1774658021716871400,1.616871337890625,0.0001527161948615685,0.0007635809597559273,-0.0007635809597559273
1774658021733660200,1.63366015625,-0.00045814859913662076,0.0001527161948615685,-0.0001527161948615685
1774658021750449000,1.650448974609375,0.0001527161948615685,0.0001527161948615685,-0.0001527161948615685
1774658021767237600,1.667237548828125,0.0001527161948615685,-0.0010690133785828948,-0.0001527161948615685
1774658021784026600,1.684026611328125,0.0001527161948615685,0.0007635809597559273,-0.0007635809597559273
1774658021800815400,1.7008154296875,0.0001527161948615685,-0.00045814859913662076,0.00045814859913662076
1774658021817604000,1.71760400390625,-0.00045814859913662076,0.0001527161948615685,-0.0001527161948615685
1774658021834393000,1.73439306640625,0.0001527161948615685,-0.0010690133785828948,0.00045814859913662076
1774658021851181800,1.751181884765625,0.0001527161948615685,0.0007635809597559273,0.00045814859913662076
1774658021867970600,1.767970458984375,0.0007635809597559273,-0.0010690133785828948,-0.0007635809597559273
1774658021884759600,1.784759521484375,0.0001527161948615685,0.0013744457392022014,-0.0025961752980947495
1774658021901548300,1.80154833984375,0.0025961752980947495,0.0032070400193333626,-0.005039634648710489
1774658021918337000,1.8183369140625,-0.0010690133785828948,-0.00045814859913662076,-0.026419902220368385
1774658021935126000,1.8351259765625,0.005039634648710489,0.0007635809597559273,0.008399390615522861
1774658021951914800,1.851914794921875,-0.005955931730568409,-0.001679878099821508,-0.010537417605519295
1774658021968703500,1.868703369140625,0.007483093533664942,0.0007635809597559273,0.0010690133785828948
1774658021985492500,1.885492431640625,-0.006566796451807022,0.0001527161948615685,0.004123337101191282
1774658022002281200,1.90228125,0.008704823441803455,0.0001527161948615685,-0.005039634648710489
1774658022019070000,1.919070068359375,-0.008399390615522861,0.0019853105768561363,-0.0038179049734026194
1774658022035859000,1.93585888671875,0.0062613640911877155,0.0001527161948615685,-0.0001527161948615685
1774658022052647700,1.952647705078125,-0.002290742937475443,0.0019853105768561363,-0.01847865991294384
1774658022069436400,1.9694365234375,0.0019853105768561363,0.0019853105768561363,-0.016035201027989388
1774658022086225400,1.986225341796875,0.0025961752980947495,0.0007635809597559273,-0.01908952370285988
1774658022103014100,2.00301416015625,-0.005345067009329796,0.0038179049734026194,-0.020922118797898293
1774658022119803100,2.01980322265625,0.0062613640911877155,-0.002290742937475443,-0.01847865991294384
1774658022136592000,2.036591796875,-0.005345067009329796,0.0038179049734026194,-0.005650499369949102
1774658022153380600,2.053380615234375,0.008704823441803455,-0.004123337101191282,-0.010537417605519295
1774658022170169600,2.070169677734375,-0.007788525894284248,0.0038179049734026194,0.00045814859913662076
1774658022186958300,2.086958251953125,0.008704823441803455,-0.002290742937475443,-0.011148282326757908
1774658022203747000,2.1037470703125,-0.005955931730568409,0.0019853105768561363,0.002290742937475443
1774658022220535800,2.120535888671875,0.004428769461810589,-0.003512472379952669,0.0010690133785828948
1774658022237324800,2.13732470703125,-0.001679878099821508,0.0007635809597559273,0.002290742937475443
1774658022254113500,2.154113525390625,0.0001527161948615685,0.0001527161948615685,0.00045814859913662076
1774658022270902300,2.17090234375,0.0007635809597559273,-0.0010690133785828948,-0.005650499369949102
1774658022287691300,2.187691162109375,-0.001679878099821508,0.0013744457392022014,0.0010690133785828948
1774658022304480000,2.20447998046875,0.0019853105768561363,-0.0010690133785828948,-0.0019853105768561363
1774658022321268700,2.221268798828125,-0.002290742937475443,-0.00045814859913662076,0.002901607658714056
1774658022338057700,2.2380576171875,0.0032070400193333626,-0.004123337101191282,-0.0007635809597559273
1774658022354846500,2.254846435546875,-0.004123337101191282,0.0007635809597559273,0.008399390615522861
1774658022371635200,2.27163525390625,0.0032070400193333626,-0.001679878099821508,0.005955931730568409
1774658022388424200,2.288424072265625,-0.003512472379952669,0.0007635809597559273,0.012675444595515728
1774658022405213000,2.305212890625,0.0038179049734026194,-0.002290742937475443,0.013897174037992954
1774658022422001700,2.322001708984375,-0.002901607658714056,0.0001527161948615685,0.0102319847792387
1774658022438790700,2.338790771484375,0.0007635809597559273,0.0001527161948615685,0.003512472379952669
1774658022455579400,2.355579345703125,-0.00045814859913662076,0.0001527161948615685,-0.0019853105768561363
1774658022472368000,2.3723681640625,0.0007635809597559273,-0.00045814859913662076,-0.004428769461810589
1774658022489157000,2.3891572265625,-0.001679878099821508,-0.00045814859913662076,-0.004428769461810589
1774658022505945900,2.40594580078125,-0.0010690133785828948,-0.00045814859913662076,0.00045814859913662076
1774658022522734800,2.42273486328125,0.0007635809597559273,-0.0010690133785828948,-0.0013744457392022014
1774658022539523600,2.439523681640625,0.0001527161948615685,0.0007635809597559273,0.0010690133785828948
1774658022556312300,2.456312255859375,0.0007635809597559273,-0.00045814859913662076,0.002901607658714056
1774658022573101300,2.473101318359375,-0.0010690133785828948,0.0019853105768561363,0.002901607658714056
1774658022589890000,2.48989013671875,0.0013744457392022014,-0.0010690133785828948,0.003512472379952669
1774658022606678800,2.5066787109375,-0.001679878099821508,0.0001527161948615685,0.00045814859913662076
1774658022623467800,2.5234677734375,0.0013744457392022014,-0.001679878099821508,-0.0007635809597559273
1774658022640256500,2.540256591796875,-0.001679878099821508,-0.00045814859913662076,-0.0013744457392022014
1774658022657045200,2.557045166015625,0.0013744457392022014,-0.00045814859913662076,-0.005039634648710489
1774658022673834000,2.573833984375,-0.002290742937475443,0.0001527161948615685,0.001679878099821508
1774658022690623000,2.590623046875,0.0019853105768561363,0.0001527161948615685,0.003512472379952669
1774658022707411700,2.60741162109375,0.0001527161948615685,0.0019853105768561363,0.001679878099821508
1774658022724200400,2.624200439453125,0.0007635809597559273,0.0001527161948615685,0.004123337101191282
1774658022740989400,2.640989501953125,-0.0010690133785828948,-0.001679878099821508,0.009621120058000088
1774658022757778200,2.657778076171875,-0.00045814859913662076,0.0001527161948615685,-0.0038179049734026194
1774658022774567000,2.67456689453125,-0.00045814859913662076,-0.001679878099821508,0.002901607658714056
1774658022791356000,2.69135595703125,0.0001527161948615685,-0.0010690133785828948,0.01206457894295454
1774658022808144600,2.70814453125,-0.00045814859913662076,-0.0010690133785828948,0.00045814859913662076
1774658022824933400,2.724933349609375,-0.001679878099821508,-0.001679878099821508,0.016340631991624832
1774658022841722400,2.741722412109375,0.0007635809597559273,-0.001679878099821508,0.019394956529140472
1774658022858511000,2.758510986328125,-0.001679878099821508,-0.0010690133785828948,0.016340631991624832
1774658022875299800,2.7752998046875,0.0019853105768561363,-0.0010690133785828948,0.019394956529140472
1774658022892088800,2.7920888671875,-0.002290742937475443,0.0001527161948615685,0.015729768201708794
1774658022908877600,2.808877685546875,0.0019853105768561363,0.0013744457392022014,0.002901607658714056
1774658022925666600,2.82566650390625,-0.0010690133785828948,0.0019853105768561363,0.00045814859913662076
1774658022942455300,2.842455322265625,0.0007635809597559273,0.0013744457392022014,-0.008704823441803455
1774658022959244000,2.859244140625,-0.001679878099821508,0.0013744457392022014,-0.01359174121171236
1774658022976032800,2.87603271484375,-0.00045814859913662076,-0.00045814859913662076,-0.009315688163042068
1774658022992821800,2.89282177734375,0.0001527161948615685,0.0007635809597559273,-0.0032070400193333626
1774658023009610500,2.909610595703125,0.0001527161948615685,-0.00045814859913662076,0.00045814859913662076
1774658023026399500,2.9263994140625,0.0007635809597559273,0.0001527161948615685,0.007788525894284248
1774658023043188200,2.943188232421875,-0.001679878099821508,-0.00045814859913662076,0.01206457894295454
1774658023059977000,2.95997705078125,0.0019853105768561363,-0.001679878099821508,0.013897174037992954
1774658023076766000,2.976765869140625,-0.002901607658714056,0.0007635809597559273,0.013286309316754341
1774658023093554700,2.9935546875,0.0025961752980947495,0.0007635809597559273,0.004734201822429895
1774658023110343400,3.010343505859375,-0.0010690133785828948,0.0001527161948615685,-0.0062613640911877155
1774658023127132200,3.027132080078125,0.0007635809597559273,0.0001527161948615685,-0.01359174121171236
1774658023143921200,3.043921142578125,-0.001679878099821508,0.0007635809597559273,-0.012980876490473747
1774658023160710000,3.0607099609375,-0.00045814859913662076,-0.00045814859913662076,-0.009926552884280682
1774658023177498600,3.07749853515625,0.0001527161948615685,0.0001527161948615685,0.0010690133785828948
1774658023194287600,3.09428759765625,-0.00045814859913662076,-0.0010690133785828948,0.009621120058000088
1774658023211076400,3.111076416015625,0.0025961752980947495,-0.00045814859913662076,0.012675444595515728
1774658023227865000,3.127864990234375,-0.002290742937475443,0.0013744457392022014,0.007788525894284248
1774658023244654000,3.144654052734375,0.0019853105768561363,-0.001679878099821508,0.002901607658714056
1774658023261442800,3.16144287109375,-0.00045814859913662076,0.0007635809597559273,-0.0013744457392022014
1774658023278231600,3.1782314453125,0.0013744457392022014,-0.00045814859913662076,-0.0019853105768561363
1774658023295020500,3.1950205078125,-0.002290742937475443,0.0007635809597559273,-0.008093958720564842
1774658023311809300,3.211809326171875,0.0001527161948615685,-0.0010690133785828948,-0.005650499369949102
1774658023328598000,3.228597900390625,0.0001527161948615685,-0.00045814859913662076,-0.007483093533664942
1774658023345387000,3.245386962890625,-0.00045814859913662076,-0.00045814859913662076,-0.0001527161948615685
1774658023362175700,3.26217578125,0.0013744457392022014,-0.0010690133785828948,0.001679878099821508
1774658023378964500,3.278964599609375,-0.0010690133785828948,0.0007635809597559273,0.009621120058000088
1774658023395753500,3.29575341796875,0.0013744457392022014,-0.0010690133785828948,0.0102319847792387
1774658023412542200,3.312542236328125,0.0013744457392022014,0.0013744457392022014,0.004123337101191282
1774658023429331000,3.3293310546875,-0.0010690133785828948,0.0007635809597559273,-0.006872228812426329
1774658023446120000,3.346119873046875,0.0001527161948615685,0.0001527161948615685,-0.012370011769235134
1774658023462908700,3.36290869140625,-0.0010690133785828948,-0.00045814859913662076,-0.012370011769235134
1774658023479697700,3.37969775390625,0.0007635809597559273,0.0013744457392022014,-0.012980876490473747
1774658023496486400,3.396486328125,-0.00045814859913662076,-0.00045814859913662076,-0.005039634648710489
1774658023513275100,3.413275146484375,0.0007635809597559273,0.0007635809597559273,-0.0001527161948615685
1774658023530064100,3.430064208984375,-0.001679878099821508,0.0007635809597559273,0.004734201822429895
1774658023546852900,3.446852783203125,0.0001527161948615685,-0.001679878099821508,0.010842849500477314
1774658023563641600,3.4636416015625,0.0007635809597559273,0.0007635809597559273,0.007788525894284248
1774658023580430300,3.480430419921875,-0.00045814859913662076,-0.0010690133785828948,0.007788525894284248
1774658023597219300,3.49721923828125,0.0013744457392022014,-0.001679878099821508,0.007177661173045635
1774658023614008000,3.514008056640625,0.0001527161948615685,-0.00045814859913662076,-0.0032070400193333626
1774658023630796800,3.530796875,-0.0010690133785828948,0.0001527161948615685,-0.008093958720564842
1774658023647585800,3.547585693359375,0.0001527161948615685,-0.0010690133785828948,-0.009315688163042068
1774658023664374500,3.56437451171875,0.0001527161948615685,0.0007635809597559273,-0.008704823441803455
1774658023681163300,3.581163330078125,0.0001527161948615685,0.0007635809597559273,-0.0019853105768561363
1774658023697952300,3.5979521484375,0.0007635809597559273,-0.00045814859913662076,0.00045814859913662076
1774658023714741000,3.614740966796875,-0.00045814859913662076,0.0007635809597559273,0.007788525894284248
1774658023731529700,3.63152978515625,-0.00045814859913662076,-0.001679878099821508,0.01206457894295454
1774658023748318700,3.648318603515625,0.0019853105768561363,-0.003512472379952669,0.017562363296747208
1774658023765107500,3.665107421875,-0.00045814859913662076,0.0007635809597559273,0.01511890348047018
1774658023781896200,3.681896240234375,0.0013744457392022014,-0.00045814859913662076,0.009621120058000088
1774658023798685200,3.698685302734375,-0.001679878099821508,-0.0010690133785828948,0.015729768201708794
1774658023815474000,3.715473876953125,0.0019853105768561363,-0.00045814859913662076,0.004734201822429895
1774658023832263000,3.732262939453125,-0.002290742937475443,0.0001527161948615685,0.005955931730568409
1774658023849051600,3.7490517578125,0.0013744457392022014,-0.002901607658714056,0.006566796451807022
1774658023865840400,3.76584033203125,-0.0010690133785828948,0.0001527161948615685,0.002290742937475443
1774658023882629000,3.782629150390625,0.0007635809597559273,-0.0010690133785828948,0.004734201822429895
1774658023899418000,3.799418212890625,0.0007635809597559273,-0.001679878099821508,0.007177661173045635
1774658023916206800,3.816206787109375,-0.0010690133785828948,-0.0010690133785828948,0.004123337101191282
1774658023932995800,3.832995849609375,0.0001527161948615685,-0.002290742937475443,0.01206457894295454
1774658023949784600,3.84978466796875,-0.00045814859913662076,-0.0010690133785828948,0.013897174037992954
1774658023966573300,3.8665732421875,0.0013744457392022014,-0.002290742937475443,0.009010255336761475
1774658023983362300,3.8833623046875,-0.00045814859913662076,-0.001679878099821508,0.012675444595515728
1774658024000151000,3.900151123046875,0.0013744457392022014,-0.00045814859913662076,0.008399390615522861
1774658024016939800,3.916939697265625,0.0001527161948615685,0.0001527161948615685,0.004123337101191282
1774658024033728800,3.933728759765625,0.0025961752980947495,-0.0010690133785828948,0.003512472379952669
1774658024050517500,3.950517578125,0.0007635809597559273,0.0013744457392022014,-0.005039634648710489
1774658024067306200,3.96730615234375,0.0007635809597559273,-0.002290742937475443,-0.009926552884280682
1774658024084095000,3.984094970703125,-0.00045814859913662076,-0.001679878099821508,-0.012980876490473747
1774658024100884000,4.000884033203125,-0.001679878099821508,0.0001527161948615685,-0.023976443335413933
1774658024117672700,4.017672607421875,-0.00045814859913662076,-0.00045814859913662076,-0.028863361105322838
1774658024134461400,4.03446142578125,0.0007635809597559273,-0.0010690133785828948,-0.025809036567807198
1774658024151250400,4.05125048828125,0.0007635809597559273,0.005650499369949102,-0.03191768378019333
1774658024168039200,4.0680390625,0.0019853105768561363,0.0032070400193333626,-0.03436114266514778
1774658024184828000,4.084827880859375,0.0013744457392022014,0.004428769461810589,-0.025809036567807198
1774658024201617000,4.101616943359375,0.0019853105768561363,0.0001527161948615685,-0.02214384824037552
1774658024218405600,4.118405517578125,0.0001527161948615685,0.0013744457392022014,-0.022754713892936707
1774658024235194600,4.135194580078125,-0.006566796451807022,0.0019853105768561363,-0.008704823441803455
1774658024251983400,4.1519833984375,0.0025961752980947495,-0.003512472379952669,-0.0062613640911877155
1774658024268772000,4.168772216796875,0.0013744457392022014,-0.00045814859913662076,-0.0038179049734026194
1774658024285560800,4.185560791015625,0.0013744457392022014,0.0007635809597559273,-0.0062613640911877155
1774658024302349800,4.202349853515625,-0.00045814859913662076,0.0038179049734026194,-0.020311253145337105
1774658024319138600,4.219138671875,-0.001679878099821508,0.0019853105768561363,-0.0154243353754282
1774658024335927600,4.235927490234375,0.0013744457392022014,0.0013744457392022014,-0.017256930470466614
1774658024352716300,4.25271630859375,-0.00045814859913662076,0.0013744457392022014,-0.02153298258781433
1774658024369505000,4.269505126953125,-0.001679878099821508,-0.00045814859913662076,0.001679878099821508
1774658024386294000,4.2862939453125,-0.00045814859913662076,-0.002290742937475443,-0.0019853105768561363
1774658024403082800,4.303082763671875,0.0025961752980947495,-0.001679878099821508,-0.006872228812426329
1774658024419871500,4.31987158203125,-0.005345067009329796,0.0032070400193333626,0.002290742937475443
1774658024436660500,4.336660400390625,0.005039634648710489,-0.0010690133785828948,-0.023976443335413933
1774658024453449200,4.35344921875,0.0001527161948615685,0.0013744457392022014,-0.0001527161948615685
1774658024470238000,4.370238037109375,-0.001679878099821508,-0.00045814859913662076,-0.008704823441803455
1774658024487027000,4.38702685546875,0.004428769461810589,-0.001679878099821508,-0.03497200831770897
1774658024503815700,4.403815673828125,-0.003512472379952669,0.005650499369949102,-0.011148282326757908
1774658024520604400,4.4206044921875,0.0062613640911877155,-0.001679878099821508,-0.02825249545276165
1774658024537393200,4.43739306640625,-0.003512472379952669,0.007483093533664942,-0.023976443335413933
1774658024554182100,4.45418212890625,0.0025961752980947495,0.0007635809597559273,0.010842849500477314
1774658024570971000,4.470970947265625,-0.004123337101191282,0.0007635809597559273,-0.007483093533664942
1774658024587759600,4.487759521484375,0.008704823441803455,0.0013744457392022014,-0.02519817277789116
1774658024604548600,4.504548583984375,-0.007788525894284248,0.0032070400193333626,-0.0025961752980947495
1774658024621337300,4.52133740234375,0.007483093533664942,-0.007788525894284248,-0.0062613640911877155
1774658024638126300,4.538126220703125,-0.007788525894284248,0.008093958720564842,-0.020311253145337105
1774658024654915000,4.5549150390625,0.012370011769235134,-0.001679878099821508,-0.020922118797898293
1774658024671703800,4.571703857421875,-0.008399390615522861,0.004428769461810589,-0.020311253145337105
1774658024688492800,4.588492919921875,0.009926552884280682,-0.004123337101191282,-0.02153298258781433
1774658024705281500,4.605281494140625,-0.0102319847792387,0.008093958720564842,-0.020922118797898293
1774658024722070300,4.6220703125,0.009926552884280682,-0.002290742937475443,-0.01908952370285988
1774658024738859300,4.638859375,-0.007177661173045635,0.0038179049734026194,-0.0038179049734026194
1774658024755648000,4.65564794921875,0.0062613640911877155,-0.001679878099821508,-0.012370011769235134
1774658024772436700,4.672436767578125,-0.005955931730568409,0.0025961752980947495,-0.0032070400193333626
1774658024789225700,4.689225830078125,0.004428769461810589,-0.004123337101191282,-0.0038179049734026194
1774658024806014500,4.706014404296875,-0.001679878099821508,0.0001527161948615685,0.002901607658714056
1774658024822803200,4.72280322265625,0.0007635809597559273,0.0007635809597559273,0.002290742937475443
1774658024839592200,4.73959228515625,0.0013744457392022014,0.0019853105768561363,-0.0007635809597559273
1774658024856381000,4.756380859375,0.0001527161948615685,0.0007635809597559273,-0.006872228812426329
1774658024873169700,4.773169677734375,0.0007635809597559273,0.0019853105768561363,-0.010537417605519295
1774658024889958700,4.789958740234375,-0.001679878099821508,-0.00045814859913662076,-0.017256930470466614
1774658024906747400,4.806747314453125,0.0025961752980947495,0.0001527161948615685,-0.020311253145337105
1774658024923536100,4.8235361328125,-0.001679878099821508,0.0013744457392022014,-0.019700389355421066
1774658024940325000,4.8403251953125,0.0019853105768561363,0.0001527161948615685,-0.01847865991294384
1774658024957113900,4.85711376953125,-0.0010690133785828948,0.0025961752980947495,-0.011148282326757908
1774658024973902600,4.873902587890625,0.0019853105768561363,-0.00045814859913662076,-0.004428769461810589
1774658024990691600,4.890691650390625,0.0001527161948615685,0.0001527161948615685,0.002290742937475443
1774658025007480300,4.907480224609375,-0.00045814859913662076,0.0001527161948615685,0.005345067009329796
1774658025024269000,4.92426904296875,-0.00045814859913662076,-0.00045814859913662076,0.004734201822429895
1774658025041058000,4.94105810546875,0.0013744457392022014,0.0001527161948615685,0.002290742937475443
1774658025057846800,4.9578466796875,0.0007635809597559273,-0.002290742937475443,0.003512472379952669
1774658025074635500,4.974635498046875,-0.00045814859913662076,-0.0010690133785828948,0.005955931730568409
1774658025091424500,4.991424560546875,-0.00045814859913662076,-0.002290742937475443,0.011453714221715927
1774658025108213200,5.008213134765625,-0.0010690133785828948,-0.001679878099821508,0.013897174037992954
1774658025125002000,5.025001953125,-0.0010690133785828948,-0.001679878099821508,0.014508038759231567
1774658025141791000,5.041791015625,-0.002290742937475443,-0.0010690133785828948,0.016340631991624832
1774658025158579700,5.058579833984375,-0.001679878099821508,-0.002290742937475443,0.025503603741526604
1774658025175368400,5.075368408203125,-0.001679878099821508,-0.004123337101191282,0.03283398225903511
1774658025192157400,5.092157470703125,-0.00045814859913662076,-0.003512472379952669,0.03711003437638283
1774658025208946200,5.1089462890625,0.0013744457392022014,-0.003512472379952669,0.03649916872382164
1774658025225735000,5.12573486328125,0.0013744457392022014,-0.002901607658714056,0.02916879393160343
1774658025242524000,5.14252392578125,0.0001527161948615685,-0.003512472379952669,0.024281874299049377
1774658025259312600,5.159312744140625,0.0007635809597559273,-0.001679878099821508,0.021227551624178886
1774658025276101400,5.176101318359375,0.0001527161948615685,0.0013744457392022014,0.012675444595515728
1774658025292890400,5.192890380859375,0.0013744457392022014,0.0007635809597559273,0.0102319847792387
1774658025309679000,5.20967919921875,0.0001527161948615685,-0.0010690133785828948,-0.0025961752980947495
1774658025326467800,5.2264677734375,0.0013744457392022014,-0.001679878099821508,-0.008704823441803455
1774658025343256800,5.2432568359375,-0.0010690133785828948,-0.001679878099821508,-0.005039634648710489
1774658025360045600,5.260045654296875,0.0007635809597559273,-0.001679878099821508,-0.0025961752980947495
1774658025376834300,5.276834228515625,-0.00045814859913662076,-0.001679878099821508,0.009621120058000088
1774658025393623300,5.293623291015625,0.0007635809597559273,0.0001527161948615685,0.02000582218170166
1774658025410412000,5.310412109375,0.0001527161948615685,-0.0010690133785828948,0.018784092739224434
1774658025427200800,5.32720068359375,-0.001679878099821508,0.0025961752980947495,0.013286309316754341
1774658025443989800,5.34398974609375,0.0025961752980947495,0.0001527161948615685,0.001679878099821508
1774658025460778500,5.360778564453125,-0.003512472379952669,0.0007635809597559273,0.005955931730568409
1774658025477567200,5.377567138671875,-0.00045814859913662076,-0.002290742937475443,-0.0019853105768561363
1774658025494356200,5.394356201171875,-0.002290742937475443,-0.0010690133785828948,-0.0038179049734026194
1774658025511145000,5.41114501953125,0.0001527161948615685,-0.002901607658714056,0.002901607658714056
1774658025527933700,5.42793359375,-0.0010690133785828948,-0.00045814859913662076,0.0010690133785828948
1774658025544722700,5.44472265625,-0.00045814859913662076,-0.002290742937475443,0.014508038759231567
1774658025561511400,5.461511474609375,-0.0010690133785828948,-0.001679878099821508,0.03222311660647392
1774658025578300200,5.478300048828125,-0.002290742937475443,-0.001679878099821508,0.0487164668738842
1774658025595089200,5.495089111328125,-0.0010690133785828948,-0.0010690133785828948,0.056657709181308746
1774658025611878000,5.5118779296875,-0.003512472379952669,-0.00045814859913662076,0.05787943676114082
1774658025628666600,5.52866650390625,0.0007635809597559273,0.0001527161948615685,0.040775224566459656
1774658025645455600,5.54545556640625,0.0007635809597559273,-0.00045814859913662076,0.01695149764418602
1774658025662244400,5.562244384765625,0.004428769461810589,-0.003512472379952669,-0.005650499369949102
1774658025679033300,5.579033447265625,0.0001527161948615685,-0.004123337101191282,-0.025809036567807198
1774658025695822000,5.595822021484375,0.0007635809597559273,-0.003512472379952669,-0.02519817277789116
1774658025712610800,5.61261083984375,-0.0010690133785828948,-0.002290742937475443,-0.016035201027989388
1774658025729399600,5.629399658203125,0.0013744457392022014,0.0007635809597559273,-0.014202605932950974
1774658025746188500,5.6461884765625,-0.001679878099821508,0.0019853105768561363,-0.008093958720564842
1774658025762977300,5.662977294921875,0.0013744457392022014,0.0019853105768561363,-0.009926552884280682
1774658025779766000,5.67976611328125,-0.002290742937475443,0.004428769461810589,-0.0062613640911877155
1774658025796555000,5.696554931640625,-0.0010690133785828948,0.0025961752980947495,-0.0025961752980947495
1774658025813343700,5.71334375,-0.004734201822429895,0.005039634648710489,-0.005650499369949102
1774658025830132500,5.730132568359375,-0.005345067009329796,0.0062613640911877155,-0.0007635809597559273
1774658025846921500,5.74692138671875,-0.002290742937475443,0.006872228812426329,-0.01847865991294384
1774658025863710200,5.763710205078125,-0.001679878099821508,0.0062613640911877155,-0.036193739622831345
1774658025880499000,5.7804990234375,0.0025961752980947495,0.005039634648710489,-0.052687086164951324
1774658025897288000,5.797287841796875,-0.00045814859913662076,0.0025961752980947495,-0.06123919412493706
1774658025914076700,5.81407666015625,0.0007635809597559273,-0.001679878099821508,-0.04046979174017906
1774658025930865400,5.830865478515625,0.0013744457392022014,-0.0010690133785828948,-0.0154243353754282
1774658025947654400,5.847654296875,0.0019853105768561363,-0.002901607658714056,0.01206457894295454
1774658025964443100,5.864443115234375,-0.0010690133785828948,-0.005345067009329796,0.041386090219020844
1774658025981231900,5.88123193359375,-0.00045814859913662076,-0.003512472379952669,0.037720900028944016
1774658025998020900,5.898020751953125,0.0013744457392022014,-0.007177661173045635,0.053603384643793106
1774658026014809600,5.9148095703125,-0.002290742937475443,-0.003512472379952669,0.064598947763443
1774658026031598300,5.931598388671875,0.0025961752980947495,0.0001527161948615685,0.05482511222362518
1774658026048387300,5.94838720703125,0.0019853105768561363,-0.002901607658714056,0.043829549103975296
1774658026065176000,5.965176025390625,-0.004123337101191282,-0.00045814859913662076,0.019394956529140472
1774658026081964800,5.98196484375,-0.002901607658714056,0.0019853105768561363,-0.006872228812426329
1774658026098753800,5.99875390625,-0.004123337101191282,0.0032070400193333626,-0.012370011769235134
1774658026115542500,6.01554248046875,0.0007635809597559273,0.0038179049734026194,-0.014202605932950974
1774658026132331300,6.032331298828125,0.0007635809597559273,0.0025961752980947495,-0.014202605932950974
1774658026149120300,6.049120361328125,0.0013744457392022014,0.0013744457392022014,-0.011148282326757908
1774658026165909000,6.065908935546875,0.0001527161948615685,0.0013744457392022014,-0.017867794260382652
1774658026182697700,6.08269775390625,-0.00045814859913662076,0.0001527161948615685,-0.022754713892936707
1774658026199486700,6.09948681640625,0.0001527161948615685,0.0001527161948615685,-0.011148282326757908
1774658026216275500,6.116275390625,0.0001527161948615685,-0.00045814859913662076,0.001679878099821508
1774658026233064200,6.133064208984375,-0.0010690133785828948,0.0007635809597559273,0.012675444595515728
1774658026249853200,6.149853271484375,-0.0010690133785828948,-0.002901607658714056,0.027336198836565018
1774658026266642000,6.166641845703125,0.0001527161948615685,-0.001679878099821508,0.02367101050913334
1774658026283430700,6.1834306640625,0.0025961752980947495,-0.001679878099821508,0.013286309316754341
1774658026300219600,6.2002197265625,0.0013744457392022014,-0.002290742937475443,0.005955931730568409
1774658026317008400,6.21700830078125,-0.004734201822429895,0.0001527161948615685,0.002290742937475443
1774658026333797000,6.233797119140625,0.0007635809597559273,-0.00045814859913662076,0.004734201822429895
1774658026350586000,6.250586181640625,-0.001679878099821508,0.0001527161948615685,0.011453714221715927
1774658026367374800,6.267374755859375,0.0007635809597559273,0.0001527161948615685,-0.0013744457392022014
1774658026384163600,6.28416357421875,-0.00045814859913662076,0.0025961752980947495,-0.01359174121171236
1774658026400952600,6.30095263671875,-0.001679878099821508,0.0038179049734026194,-0.01847865991294384
1774658026417741300,6.3177412109375,0.0013744457392022014,0.0032070400193333626,-0.01847865991294384
1774658026434530000,6.334530029296875,0.0013744457392022014,0.0019853105768561363,-0.02458730712532997
1774658026451318800,6.35131884765625,0.0013744457392022014,0.0019853105768561363,-0.022754713892936707
1774658026468107800,6.368107666015625,0.006872228812426329,-0.001679878099821508,-0.03252854943275452
1774658026484896500,6.384896484375,0.0032070400193333626,-0.003512472379952669,-0.033139415085315704
1774658026501685500,6.401685546875,-0.002290742937475443,0.0007635809597559273,-0.027030766010284424
1774658026518474200,6.41847412109375,-0.001679878099821508,0.0019853105768561363,-0.009926552884280682
1774658026535263000,6.435262939453125,-0.004123337101191282,0.0019853105768561363,0.021838415414094925
1774658026552052000,6.452052001953125,0.0001527161948615685,-0.002901607658714056,0.05238165333867073
1774658026568840700,6.4688408203125,-0.002290742937475443,-0.00045814859913662076,0.054214250296354294
1774658026585629400,6.48562939453125,0.0025961752980947495,0.0007635809597559273,0.030390523374080658
1774658026602418400,6.50241845703125,0.0001527161948615685,-0.0010690133785828948,0.021838415414094925
1774658026619207200,6.519207275390625,0.0032070400193333626,0.0019853105768561363,-0.0038179049734026194
1774658026635996000,6.535995849609375,0.0038179049734026194,-0.002901607658714056,-0.011759147047996521
1774658026652785000,6.552784912109375,-0.002290742937475443,-0.0010690133785828948,-0.016646064817905426
1774658026669573600,6.56957373046875,0.0001527161948615685,-0.001679878099821508,-0.01847865991294384
1774658026686362400,6.5863623046875,-0.002901607658714056,-0.0010690133785828948,-0.01359174121171236
1774658026703151400,6.6031513671875,-0.002290742937475443,-0.002901607658714056,0.004734201822429895
1774658026719940000,6.619940185546875,-0.003512472379952669,-0.002901607658714056,0.02916879393160343
1774658026736728800,6.636728759765625,-0.004734201822429895,0.0032070400193333626,0.05787943676114082
1774658026753517800,6.653517822265625,0.0001527161948615685,0.0013744457392022014,0.07192932814359665
1774658026770306600,6.670306640625,-0.00045814859913662076,0.0001527161948615685,0.043829549103975296
1774658026787095300,6.68709521484375,0.0013744457392022014,0.0013744457392022014,0.021838415414094925
1774658026803884300,6.70388427734375,0.0013744457392022014,0.0001527161948615685,-0.005039634648710489
1774658026820673000,6.720673095703125,0.0019853105768561363,0.0013744457392022014,-0.049632761627435684
1774658026837461800,6.737461669921875,-0.0010690133785828948,0.0007635809597559273,-0.049021899700164795
1774658026854250500,6.75425048828125,0.0007635809597559273,0.0007635809597559273,-0.04780016839504242
1774658026871039500,6.77103955078125,0.0019853105768561363,0.0019853105768561363,-0.04474584385752678
1774658026887828200,6.787828125,0.0019853105768561363,0.0013744457392022014,-0.036804601550102234
1774658026904617000,6.804616943359375,0.0001527161948615685,0.0007635809597559273,-0.01847865991294384
1774658026921406000,6.821406005859375,-0.007788525894284248,0.0038179049734026194,0.01206457894295454
1774658026938194700,6.838194580078125,-0.0010690133785828948,-0.0010690133785828948,0.0487164668738842
1774658026954983400,6.8549833984375,-0.002290742937475443,-0.002290742937475443,0.06154462695121765
1774658026971772400,6.8717724609375,0.0007635809597559273,-0.002901607658714056,0.06215549260377884
1774658026988561200,6.88856103515625,-0.005955931730568409,-0.001679878099821508,0.07009673118591309
1774658027005350000,6.905349853515625,-0.003512472379952669,-0.003512472379952669,0.057268574833869934
1774658027022139000,6.922138916015625,-0.008399390615522861,0.0032070400193333626,0.03405570983886719
1774658027038927600,6.938927734375,-0.002901607658714056,0.0001527161948615685,0.06704241037368774
1774658027055716400,6.95571630859375,-0.004734201822429895,0.0001527161948615685,0.06826414167881012
1774658027072505300,6.97250537109375,-0.002290742937475443,-0.002901607658714056,0.04505127668380737
1774658027089294000,6.989294189453125,0.006872228812426329,-0.010842849500477314,0.04321868345141411
1774658027106083000,7.0060830078125,-0.003512472379952669,-0.00045814859913662076,0.002290742937475443
1774658027122871800,7.022871826171875,0.0001527161948615685,-0.008399390615522861,0.0010690133785828948
1774658027139660500,7.03966064453125,-0.007788525894284248,0.0001527161948615685,0.021227551624178886
1774658027156449300,7.05644921875,0.009315688163042068,0.0013744457392022014,0.02916879393160343
1774658027173238300,7.07323828125,0.0013744457392022014,0.0038179049734026194,0.05238165333867073
1774658027190027000,7.090027099609375,0.0062613640911877155,-0.00045814859913662076,0.0334448479115963
1774658027206815700,7.106815673828125,-0.004734201822429895,0.0007635809597559273,0.03711003437638283
1774658027223604700,7.123604736328125,-0.002901607658714056,-0.002901607658714056,0.02000582218170166
1774658027240393500,7.1403935546875,-0.0102319847792387,0.0025961752980947495,0.0334448479115963
1774658027257182200,7.15718212890625,-0.003512472379952669,0.0007635809597559273,0.04566214233636856
1774658027273971200,7.17397119140625,-0.0010690133785828948,0.005650499369949102,0.02916879393160343
1774658027290760000,7.190760009765625,-0.002290742937475443,0.008093958720564842,-0.0007635809597559273
1774658027307548700,7.207548583984375,0.0032070400193333626,0.004428769461810589,-0.020922118797898293
1774658027324337700,7.224337646484375,-0.004734201822429895,0.009315688163042068,-0.04108065739274025
1774658027341126400,7.24112646484375,0.0007635809597559273,0.0025961752980947495,-0.02214384824037552
1774658027357915100,7.2579150390625,-0.007177661173045635,0.0025961752980947495,0.004123337101191282
1774658027374704000,7.2747041015625,-0.002290742937475443,0.0001527161948615685,0.019394956529140472
1774658027391492900,7.291492919921875,-0.009621120058000088,0.004428769461810589,0.03894263133406639
1774658027408281600,7.308281494140625,-0.008399390615522861,0.0025961752980947495,0.031001387163996696
1774658027425070600,7.325070556640625,-0.007177661173045635,0.0025961752980947495,-0.0154243353754282
1774658027441859300,7.341859375,-0.005955931730568409,-0.00045814859913662076,-0.0062613640911877155
1774658027458648000,7.35864794921875,-0.007177661173045635,0.006872228812426329,0.0010690133785828948
1774658027475436800,7.375436767578125,0.004428769461810589,0.01359174121171236,-0.022754713892936707
1774658027492225800,7.392225830078125,0.007483093533664942,0.009926552884280682,-0.023976443335413933
1774658027509014500,7.4090146484375,0.008093958720564842,0.004428769461810589,-0.022754713892936707
1774658027525803500,7.425803466796875,0.004428769461810589,0.004428769461810589,-0.11377356201410294
1774658027542592300,7.44259228515625,0.004428769461810589,0.005039634648710489,-0.27809619903564453
1774658027559381000,7.459381103515625,0.017867794260382652,-0.006566796451807022,-0.3324631452560425
1774658027576170000,7.476169921875,0.012980876490473747,-0.001679878099821508,-0.2909243404865265
1774658027592958700,7.492958740234375,-0.01206457894295454,0.02214384824037552,-0.512668251991272
1774658027609747500,7.50974755859375,0.0038179049734026194,0.017867794260382652,-0.5652026534080505
1774658027626536400,7.526536376953125,-0.02916879393160343,0.030085090547800064,-0.6782126426696777
1774658027643325200,7.5433251953125,-0.017562363296747208,0.017256930470466614,-0.7319687008857727
1774658027660114000,7.560114013671875,-0.0792597085237503,0.07651081681251526,-1.8877248764038086
1774658027676903000,7.57690283203125,-0.05482511222362518,0.08139773458242416,-3.271333694458008
1774658027693691600,7.593691650390625,-0.0951421856880188,0.08567378669977188,-3.8070619106292725
1774658027710480400,7.61048046875,-0.10797034949064255,0.09666935354471207,-3.9878780841827393
1774658027727269400,7.627269287109375,-0.08048143237829208,0.0850629210472107,-3.76674485206604
1774658027744058000,7.64405810546875,-0.1104138121008873,0.07528908550739288,-3.1729843616485596
1774658027760846800,7.660846923828125,-0.0639880821108818,0.05024362727999687,-2.4741551876068115
1774658027777635800,7.6776357421875,-0.05604684352874756,0.03558287397027016,-1.65987229347229
1774658027794424600,7.694424560546875,-0.02916879393160343,0.02519817277789116,-0.975703775882721
1774658027811213300,7.71121337890625,-0.01511890348047018,0.020922118797898293,-0.48884454369544983
1774658027828002300,7.728002197265625,-0.001679878099821508,0.012980876490473747,-0.08078686892986298
1774658027844791000,7.744791015625,0.017867794260382652,0.0062613640911877155,0.0743727833032608
1774658027861579800,7.761579833984375,0.008704823441803455,0.005650499369949102,-0.014202605932950974
1774658027878368800,7.77836865234375,0.01359174121171236,-0.001679878099821508,-0.10338886082172394
1774658027895157500,7.795157470703125,-0.006566796451807022,0.009926552884280682,-0.3263545036315918
1774658027911946200,7.8119462890625,-0.004734201822429895,0.0025961752980947495,-0.6378955245018005
1774658027928735200,7.8287353515625,0.009315688163042068,0.020922118797898293,-0.7423534393310547
1774658027945524000,7.84552392578125,0.012980876490473747,-0.06887500733137131,0.8031344413757324
1774658027962313000,7.86231298828125,-0.03405570983886719,0.0154243353754282,-0.19074252247810364
1774658027979101700,7.879101806640625,0.05940660089254379,-0.024281874299049377,-0.20662501454353333
1774658027995890400,7.895890380859375,-0.03405570983886719,-0.007788525894284248,0.25091269612312317
1774658028012679400,7.912679443359375,0.029474224895238876,-0.002901607658714056,-0.12904518842697144
1774658028029468200,7.92946826171875,0.008093958720564842,0.007483093533664942,0.0206166859716177
1774658028046257200,7.946257080078125,-0.013897174037992954,0.006872228812426329,-0.0013744457392022014
1774658028063046000,7.9630458984375,0.03558287397027016,-0.002290742937475443,-0.04230238497257233
1774658028079834600,7.979834716796875,-0.030390523374080658,0.014813470654189587,-0.006872228812426329
1774658028096623400,7.996623291015625,0.020311253145337105,-0.005955931730568409,-0.06123919412493706
1774658028113412400,8.013412353515625,-0.031612250953912735,0.012980876490473747,-0.0642935186624527
1774658028130201000,8.030201171875,-0.007788525894284248,-0.002290742937475443,-0.020311253145337105
1774658028146990000,8.046989990234374,-0.013897174037992954,-0.002290742937475443,-0.022754713892936707
1774658028163778800,8.06377880859375,-0.008399390615522861,-0.004123337101191282,-0.0007635809597559273
1774658028180567600,8.080567626953124,0.0032070400193333626,-0.004734201822429895,-0.011759147047996521
1774658028197356500,8.0973564453125,-0.007177661173045635,0.007483093533664942,-0.008093958720564842
1774658028214145300,8.114145263671874,0.0013744457392022014,-0.006566796451807022,0.0591011680662632
1774658028230934300,8.130934326171875,0.009926552884280682,0.006872228812426329,-0.052076224237680435
1774658028247723000,8.147722900390624,0.005039634648710489,0.0032070400193333626,-0.005039634648710489
1774658028264511700,8.16451171875,0.014202605932950974,0.0013744457392022014,-0.036804601550102234
1774658028281300700,8.18130078125,0.014202605932950974,-0.006566796451807022,-0.010537417605519295
1774658028298089500,8.19808935546875,-0.002290742937475443,-0.013286309316754341,0.0639880821108818
1774658028314878200,8.214878173828126,0.0038179049734026194,-0.008399390615522861,-0.02825249545276165
1774658028331667200,8.231667236328125,-0.011453714221715927,-0.009010255336761475,0.050549060106277466
1774658028348456000,8.2484560546875,-0.00045814859913662076,-0.007177661173045635,0.009010255336761475
1774658028365245000,8.265244873046875,0.004428769461810589,-0.007788525894284248,0.0102319847792387
1774658028382033700,8.28203369140625,0.004428769461810589,-0.005345067009329796,0.024892739951610565
1774658028398822400,8.298822509765625,0.005650499369949102,-0.004123337101191282,0.043829549103975296
1774658028415611400,8.315611328125,-0.002290742937475443,0.0025961752980947495,0.015729768201708794
1774658028432400100,8.332400146484375,0.005650499369949102,0.005039634648710489,-0.030085090547800064
1774658028449189000,8.349189208984376,-0.004734201822429895,0.008093958720564842,-0.023365577682852745
1774658028465977900,8.365977783203125,0.005650499369949102,0.005039634648710489,-0.03130681812763214
1774658028482766600,8.3827666015625,-0.0102319847792387,0.008093958720564842,-0.0019853105768561363
1774658028499555600,8.3995556640625,-0.008399390615522861,0.007483093533664942,-0.01908952370285988
1774658028516344300,8.41634423828125,-0.018173227086663246,0.012980876490473747,-0.0038179049734026194
1774658028533133000,8.433133056640624,-0.001679878099821508,0.0032070400193333626,-0.01847865991294384
1774658028549922000,8.449922119140625,-0.007177661173045635,0.0062613640911877155,-0.009926552884280682
1774658028566710800,8.466710693359374,-0.0010690133785828948,-0.0010690133785828948,0.027947064489126205
1774658028583499800,8.483499755859375,0.0025961752980947495,0.012980876490473747,-0.07528908550739288
1774658028600288500,8.50028857421875,-0.006566796451807022,0.0025961752980947495,0.010842849500477314
1774658028617077200,8.5170771484375,0.010537417605519295,-0.002290742937475443,-0.030085090547800064
1774658028633866200,8.5338662109375,0.0038179049734026194,-0.0010690133785828948,-0.0062613640911877155
1774658028650655000,8.550655029296875,0.012980876490473747,-0.005955931730568409,0.002901607658714056
1774658028667444000,8.56744384765625,-0.00045814859913662076,-0.0010690133785828948,-0.006872228812426329
1774658028684232700,8.584232666015625,0.0025961752980947495,-0.004734201822429895,0.006566796451807022
1774658028701021400,8.601021484375,-0.003512472379952669,-0.0010690133785828948,0.004734201822429895
1774658028717810400,8.617810546875,-0.001679878099821508,-0.004123337101191282,0.003512472379952669
1774658028734599200,8.63459912109375,0.0013744457392022014,-0.004734201822429895,0.010842849500477314
1774658028751388000,8.651387939453125,-0.001679878099821508,-0.002290742937475443,0.003512472379952669
1774658028768177000,8.668177001953126,0.0001527161948615685,-0.00045814859913662076,-0.0001527161948615685
1774658028784965600,8.684965576171875,-0.002901607658714056,0.0032070400193333626,0.003512472379952669
1774658028801754600,8.701754638671876,0.0032070400193333626,0.0038179049734026194,-0.0019853105768561363
1774658028818543400,8.71854345703125,0.004428769461810589,0.0038179049734026194,0.001679878099821508
1774658028835332000,8.73533203125,0.0032070400193333626,0.004428769461810589,0.003512472379952669
1774658028852121000,8.75212109375,0.0001527161948615685,0.0019853105768561363,0.005345067009329796
1774658028868909800,8.768909912109375,-0.002901607658714056,0.0001527161948615685,0.007788525894284248
1774658028885698800,8.78569873046875,-0.007177661173045635,-0.002901607658714056,0.0102319847792387
1774658028902487600,8.802487548828125,-0.010842849500477314,-0.00045814859913662076,0.013897174037992954
1774658028919276300,8.8192763671875,-0.004123337101191282,-0.002290742937475443,0.011453714221715927
1774658028936065000,8.83606494140625,0.004428769461810589,-0.002901607658714056,0.006566796451807022
1774658028952854000,8.85285400390625,0.008093958720564842,-0.005345067009329796,-0.0019853105768561363
1774658028969642800,8.869642822265625,0.011148282326757908,-0.005955931730568409,0.015729768201708794
1774658028986431700,8.886431640625,-0.00045814859913662076,0.0001527161948615685,0.010842849500477314
1774658029003220500,8.903220458984375,-0.00045814859913662076,0.005650499369949102,0.006566796451807022
1774658029020009200,8.92000927734375,-0.010842849500477314,0.012370011769235134,-0.005650499369949102
1774658029036798200,8.936798095703125,0.010537417605519295,0.008093958720564842,-0.016035201027989388
1774658029053587000,8.9535869140625,0.0038179049734026194,0.004428769461810589,-0.008704823441803455
1774658029070376000,8.9703759765625,-0.002290742937475443,-0.00045814859913662076,-0.017867794260382652
1774658029087164700,8.98716455078125,-0.0102319847792387,-0.001679878099821508,-0.007483093533664942
1774658029103953400,9.003953369140625,-0.004123337101191282,-0.006566796451807022,0.0102319847792387
1774658029120742400,9.020742431640626,0.0013744457392022014,-0.008399390615522861,0.004123337101191282
1774658029137531100,9.03753125,0.005039634648710489,-0.006566796451807022,0.007788525894284248
1774658029154320000,9.05431982421875,-0.005955931730568409,0.0038179049734026194,0.007788525894284248
1774658029171108900,9.07110888671875,-0.002901607658714056,0.0032070400193333626,0.005345067009329796
1774658029187897600,9.087897705078126,0.0001527161948615685,0.0062613640911877155,-0.008093958720564842
1774658029204686300,9.104686279296875,0.006872228812426329,-0.00045814859913662076,-0.005650499369949102
1774658029221475300,9.121475341796875,0.014813470654189587,-0.007177661173045635,0.011453714221715927
1774658029238264000,9.13826416015625,0.008093958720564842,-0.013286309316754341,0.004123337101191282
1774658029255053000,9.155052978515625,0.005650499369949102,-0.013286309316754341,0.027336198836565018
1774658029271841800,9.171841796875,-0.01206457894295454,-0.004734201822429895,-0.0032070400193333626
1774658029288630500,9.188630615234375,0.005039634648710489,-0.0102319847792387,0.0102319847792387
1774658029305419500,9.20541943359375,0.0062613640911877155,-0.009010255336761475,0.007177661173045635
1774658029322208300,9.222208251953125,0.0025961752980947495,-0.005955931730568409,0.004734201822429895
1774658029338997200,9.238997314453124,0.0032070400193333626,-0.002901607658714056,0.005345067009329796
1774658029355786000,9.255785888671875,-0.00045814859913662076,-0.002290742937475443,0.003512472379952669
1774658029372574700,9.27257470703125,0.0032070400193333626,0.0032070400193333626,-0.005650499369949102
1774658029389363700,9.28936376953125,-0.0010690133785828948,0.006872228812426329,-0.005650499369949102
1774658029406152400,9.30615234375,0.009315688163042068,0.0007635809597559273,-0.016646064817905426
1774658029422941200,9.322941162109375,0.0062613640911877155,0.0001527161948615685,-0.0019853105768561363
1774658029439730200,9.339730224609376,-0.002290742937475443,0.004428769461810589,-0.014813470654189587
1774658029456519000,9.356518798828125,-0.003512472379952669,-0.002901607658714056,0.004123337101191282
1774658029473308000,9.373307861328126,0.004428769461810589,-0.007788525894284248,-0.0032070400193333626
1774658029490096600,9.3900966796875,0.0038179049734026194,-0.005955931730568409,0.01511890348047018
1774658029506885400,9.406885498046876,-0.0010690133785828948,-0.003512472379952669,0.010842849500477314
1774658029523674400,9.42367431640625,-0.005955931730568409,-0.004734201822429895,0.025503603741526604
1774658029540463000,9.440463134765626,-0.002901607658714056,-0.004123337101191282,0.05849030241370201
1774658029557251800,9.457251953125,-0.0102319847792387,-0.0010690133785828948,0.07620538026094437
1774658029574040800,9.474040771484376,-0.005345067009329796,0.012370011769235134,-0.055741410702466965
1774658029590829600,9.49082958984375,-0.006566796451807022,0.011148282326757908,0.0102319847792387
1774658029607618300,9.507618408203125,-0.002290742937475443,0.009926552884280682,-0.0001527161948615685
1774658029624407300,9.5244072265625,-0.004734201822429895,0.012980876490473747,-0.02153298258781433
1774658029641196000,9.541196044921875,-0.01206457894295454,0.010537417605519295,0.010842849500477314
1774658029657984800,9.55798486328125,-0.007177661173045635,0.009315688163042068,-0.019700389355421066
1774658029674773800,9.574773681640625,-0.011453714221715927,0.012980876490473747,-0.023365577682852745
1774658029691562500,9.5915625,-0.01206457894295454,0.0062613640911877155,-0.0038179049734026194
1774658029708351500,9.6083515625,-0.01695149764418602,0.005039634648710489,0.01511890348047018
1774658029725140200,9.62514013671875,-0.008399390615522861,0.0001527161948615685,-0.008704823441803455
1774658029741929000,9.641928955078125,-0.004734201822429895,-0.006566796451807022,-0.0007635809597559273
1774658029758718000,9.658718017578124,0.0007635809597559273,-0.009621120058000088,0.013897174037992954
1774658029775506700,9.675506591796875,0.0025961752980947495,-0.007788525894284248,0.007177661173045635
1774658029792295700,9.692295654296874,0.0001527161948615685,-0.003512472379952669,0.0206166859716177
1774658029809084400,9.70908447265625,0.008093958720564842,-0.003512472379952669,0.006566796451807022
1774658029825873200,9.725873046875,0.011148282326757908,-0.007788525894284248,0.0206166859716177
1774658029842662100,9.742662109375,0.017867794260382652,-0.004734201822429895,-0.030085090547800064
1774658029859451000,9.759450927734376,0.012370011769235134,-0.005955931730568409,0.009010255336761475
1774658029876239600,9.776239501953125,0.011148282326757908,-0.005955931730568409,-0.0013744457392022014
1774658029893028600,9.793028564453126,0.016035201027989388,-0.012675444595515728,0.0010690133785828948
1774658029909817300,9.8098173828125,0.012980876490473747,-0.01511890348047018,0.019394956529140472
1774658029926606300,9.8266064453125,0.012370011769235134,-0.010842849500477314,-0.005039634648710489
1774658029943395000,9.84339501953125,0.0013744457392022014,-0.007788525894284248,0.002290742937475443
1774658029960183800,9.860183837890625,0.0001527161948615685,-0.008399390615522861,0.0102319847792387
1774658029976972800,9.876972900390625,-0.001679878099821508,-0.006566796451807022,-0.010537417605519295
1774658029993761500,9.893761474609375,-0.001679878099821508,-0.006566796451807022,0.007177661173045635
1774658030010550500,9.910550537109375,0.0025961752980947495,-0.007788525894284248,0.007177661173045635
1774658030027339300,9.92733935546875,-0.00045814859913662076,0.0007635809597559273,-0.0013744457392022014
1774658030044128000,9.9441279296875,0.0013744457392022014,0.0013744457392022014,0.018173227086663246
1774658030060917000,9.9609169921875,-0.004123337101191282,0.008093958720564842,-0.0001527161948615685
1774658030077705700,9.977705810546874,-0.001679878099821508,0.009315688163042068,-0.0025961752980947495
1774658030094494500,9.994494384765625,-0.008399390615522861,0.009315688163042068,0.001679878099821508
1774658030111283500,10.011283447265624,-0.003512472379952669,0.011148282326757908,-0.005039634648710489
1774658030128072200,10.028072265625,-0.014508038759231567,0.011759147047996521,-0.0062613640911877155
1774658030144861200,10.044861083984374,-0.013897174037992954,0.006872228812426329,0.004123337101191282
1774658030161650000,10.06164990234375,-0.018173227086663246,0.010537417605519295,-0.006872228812426329
1774658030178439000,10.07843896484375,-0.01511890348047018,0.008093958720564842,-0.0038179049734026194
1774658030195227600,10.0952275390625,-0.007177661173045635,0.0019853105768561363,-0.0038179049734026194
1774658030212016400,10.112016357421876,-0.013286309316754341,0.005039634648710489,0.003512472379952669
1774658030228805400,10.128805419921875,-0.005345067009329796,0.0025961752980947495,-0.0032070400193333626
1774658030245594000,10.145593994140626,-0.005955931730568409,0.0032070400193333626,0.011453714221715927
1774658030262382800,10.1623828125,-0.002901607658714056,0.0032070400193333626,0.002901607658714056
1774658030279171800,10.179171875,0.0019853105768561363,0.0025961752980947495,-0.004428769461810589
1774658030295960600,10.195960693359375,0.008093958720564842,-0.002290742937475443,-0.0013744457392022014
1774658030312749600,10.21274951171875,0.011759147047996521,-0.004734201822429895,0.005955931730568409
1774658030329538300,10.229538330078125,0.0062613640911877155,-0.004734201822429895,-0.0032070400193333626
1774658030346327300,10.246327392578126,0.011759147047996521,-0.009010255336761475,0.003512472379952669
1774658030363116000,10.263115966796875,0.005650499369949102,-0.006566796451807022,0.0010690133785828948
1774658030379904800,10.27990478515625,0.011148282326757908,-0.01206457894295454,0.006566796451807022
1774658030396693800,10.29669384765625,0.004428769461810589,-0.012675444595515728,0.0010690133785828948
1774658030413482500,10.313482421875,0.007483093533664942,-0.012675444595515728,0.005955931730568409
1774658030430271500,10.330271484375,0.0019853105768561363,-0.006566796451807022,0.005345067009329796
1774658030447060200,10.347060302734375,0.0032070400193333626,-0.006566796451807022,0.004123337101191282
1774658030463849200,10.36384912109375,0.004428769461810589,-0.002901607658714056,0.002901607658714056
1774658030480638000,10.380637939453125,0.009315688163042068,-0.003512472379952669,-0.0032070400193333626
1774658030497426700,10.3974267578125,0.005039634648710489,0.0001527161948615685,0.005955931730568409
1774658030514215700,10.414215576171875,0.0025961752980947495,0.0025961752980947495,-0.0013744457392022014
1774658030531004400,10.43100439453125,-0.002901607658714056,0.005039634648710489,0.0010690133785828948
1774658030547793400,10.44779345703125,-0.00045814859913662076,-0.0010690133785828948,0.001679878099821508
1774658030564582100,10.46458203125,0.0019853105768561363,-0.00045814859913662076,-0.0007635809597559273
1774658030581371000,10.481370849609375,0.0013744457392022014,-0.005345067009329796,0.0010690133785828948
1774658030598160000,10.498159912109376,-0.005955931730568409,-0.004734201822429895,0.003512472379952669
1774658030614948600,10.514948486328125,-0.009010255336761475,0.0025961752980947495,-0.0019853105768561363
1774658030631737600,10.531737548828126,-0.005955931730568409,0.007483093533664942,-0.009315688163042068
1774658030648526300,10.5485263671875,-0.004123337101191282,0.006872228812426329,0.003512472379952669
1774658030665315300,10.5653154296875,-0.005955931730568409,0.0019853105768561363,-0.0038179049734026194
1774658030682104000,10.58210400390625,-0.001679878099821508,0.0032070400193333626,-0.0019853105768561363
1774658030698892800,10.598892822265626,-0.00045814859913662076,0.005039634648710489,0.002290742937475443
1774658030715681800,10.615681884765625,-0.006566796451807022,0.008704823441803455,-0.005039634648710489
1774658030732470500,10.632470458984375,-0.010842849500477314,0.009315688163042068,0.0010690133785828948
1774658030749259500,10.649259521484375,-0.0102319847792387,0.009926552884280682,-0.0019853105768561363
1774658030766048300,10.66604833984375,-0.005345067009329796,0.005039634648710489,-0.004428769461810589
1774658030782837000,10.6828369140625,0.0038179049734026194,-0.0010690133785828948,-0.0013744457392022014
1774658030799626000,10.6996259765625,-0.004734201822429895,-0.00045814859913662076,-0.0032070400193333626
1774658030816414700,10.716414794921874,-0.002290742937475443,0.0001527161948615685,-0.0019853105768561363
1774658030833203700,10.73320361328125,-0.004734201822429895,0.0032070400193333626,-0.0038179049734026194
1774658030849992400,10.749992431640624,0.0013744457392022014,0.0019853105768561363,0.002290742937475443
1774658030866781200,10.76678125,0.0032070400193333626,-0.0010690133785828948,-0.0007635809597559273
1774658030883570200,10.783570068359374,-0.0010690133785828948,0.0001527161948615685,0.002901607658714056
1774658030900359000,10.80035888671875,-0.0010690133785828948,-0.001679878099821508,-0.0019853105768561363
1774658030917148000,10.81714794921875,-0.004123337101191282,-0.0010690133785828948,0.005345067009329796
1774658030933936600,10.8339365234375,0.0007635809597559273,-0.00045814859913662076,-0.0001527161948615685
1774658030950725400,10.850725341796876,0.0001527161948615685,-0.001679878099821508,-0.0001527161948615685
1774658030967514400,10.867514404296875,0.0007635809597559273,-0.005345067009329796,-0.005650499369949102
1774658030984303000,10.88430322265625,0.0038179049734026194,-0.006566796451807022,0.005955931730568409
1774658031001092000,10.901092041015625,-0.00045814859913662076,-0.00045814859913662076,-0.03497200831770897
1774658031017880800,10.917880859375,0.005650499369949102,-0.005345067009329796,-0.005039634648710489
1774658031034669600,10.934669677734375,0.005650499369949102,-0.004734201822429895,-0.004428769461810589
1774658031051458600,10.95145849609375,0.0038179049734026194,-0.007177661173045635,0.001679878099821508
1774658031068247300,10.968247314453125,0.0013744457392022014,-0.007177661173045635,0.006566796451807022
1774658031085036300,10.985036376953126,0.0013744457392022014,-0.002290742937475443,0.005345067009329796
1774658031101825000,11.001824951171875,-0.001679878099821508,0.0013744457392022014,-0.0019853105768561363
1774658031118614000,11.018614013671876,-0.008399390615522861,0.008093958720564842,-0.01359174121171236
1774658031135402800,11.03540283203125,-0.00045814859913662076,0.0025961752980947495,-0.005650499369949102
1774658031152191500,11.05219140625,0.0007635809597559273,0.0038179049734026194,-0.0007635809597559273
1774658031168980500,11.06898046875,-0.00045814859913662076,-0.00045814859913662076,0.008399390615522861
1774658031185769200,11.085769287109375,-0.007788525894284248,0.0038179049734026194,0.002901607658714056
1774658031202558000,11.102557861328124,-0.002290742937475443,0.006872228812426329,0.005955931730568409
1774658031219347000,11.119346923828125,-0.00045814859913662076,0.006872228812426329,-0.0062613640911877155
1774658031236135700,11.1361357421875,0.0007635809597559273,0.005650499369949102,-0.0038179049734026194
1774658031252924700,11.152924560546875,0.0019853105768561363,0.0032070400193333626,-0.0032070400193333626
1774658031269713400,11.16971337890625,0.0038179049734026194,0.0007635809597559273,-0.0001527161948615685
1774658031286502400,11.18650244140625,0.0025961752980947495,-0.004734201822429895,0.0102319847792387
1774658031303291100,11.203291015625,0.0001527161948615685,-0.006566796451807022,0.001679878099821508
1774658031320080000,11.220079833984375,0.008093958720564842,-0.007177661173045635,0.004123337101191282
1774658031336868900,11.236868896484374,0.0062613640911877155,-0.003512472379952669,-0.0038179049734026194
1774658031353657600,11.25365771484375,0.007483093533664942,-0.002901607658714056,0.009010255336761475
1774658031370446300,11.2704462890625,0.004428769461810589,-0.006566796451807022,0.004734201822429895
1774658031387235300,11.2872353515625,0.009315688163042068,-0.009010255336761475,0.016340631991624832
1774658031404024000,11.304024169921876,0.004428769461810589,0.0032070400193333626,0.002901607658714056
1774658031420813000,11.32081298828125,0.0019853105768561363,0.009315688163042068,-0.006872228812426329
1774658031437601800,11.337601806640626,0.0019853105768561363,0.0025961752980947495,-0.0025961752980947495
1774658031454390500,11.354390625,0.0007635809597559273,-0.0010690133785828948,0.005345067009329796
1774658031471179500,11.371179443359376,0.007483093533664942,-0.002290742937475443,0.006566796451807022
1774658031487968300,11.38796826171875,0.008093958720564842,-0.001679878099821508,0.013897174037992954
1774658031504757200,11.40475732421875,-0.002290742937475443,0.006872228812426329,-0.008704823441803455
1774658031521546000,11.4215458984375,-0.00045814859913662076,-0.00045814859913662076,-0.0007635809597559273
1774658031538334700,11.438334716796875,-0.0010690133785828948,-0.006566796451807022,0.002901607658714056
1774658031555123700,11.455123779296875,0.009315688163042068,-0.007788525894284248,-0.0007635809597559273
1774658031571912400,11.471912353515625,-0.0010690133785828948,-0.0010690133785828948,0.002290742937475443
1774658031588701400,11.488701416015624,0.0013744457392022014,0.0032070400193333626,-0.0019853105768561363
1774658031605490200,11.505490234375,-0.008399390615522861,0.007483093533664942,-0.0038179049734026194
1774658031622279000,11.52227880859375,-0.006566796451807022,0.007483093533664942,-0.004428769461810589
1774658031639068000,11.53906787109375,-0.005345067009329796,0.005650499369949102,-0.011759147047996521
1774658031655856600,11.555856689453124,-0.00045814859913662076,0.007483093533664942,-0.012980876490473747
1774658031672645600,11.572645751953125,0.0038179049734026194,0.005650499369949102,-0.012980876490473747
1774658031689434400,11.589434326171874,0.0007635809597559273,0.006872228812426329,-0.023976443335413933
1774658031706223000,11.60622314453125,-0.009010255336761475,0.010537417605519295,-0.012370011769235134
1774658031723012000,11.62301220703125,-0.011453714221715927,0.011759147047996521,-0.03375028073787689
1774658031739800800,11.63980078125,-0.007177661173045635,0.011759147047996521,-0.0691804364323616
1774658031756589600,11.656589599609376,-0.007788525894284248,0.007483093533664942,-0.009315688163042068
1774658031773378600,11.673378662109375,0.007483093533664942,0.0007635809597559273,-0.03252854943275452
1774658031790167300,11.690167236328126,0.0007635809597559273,-0.0010690133785828948,-0.014202605932950974
1774658031806956300,11.706956298828125,0.0019853105768561363,-0.003512472379952669,-0.0019853105768561363
1774658031823745000,11.7237451171875,-0.002901607658714056,-0.002901607658714056,0.004734201822429895
1774658031840534000,11.740533935546875,0.016035201027989388,-0.007177661173045635,-0.014202605932950974
1774658031857322800,11.75732275390625,0.014202605932950974,-0.005955931730568409,-0.006872228812426329
1774658031874111500,11.774111572265625,0.016646064817905426,-0.013286309316754341,0.0010690133785828948
1774658031890900500,11.790900390625,0.009315688163042068,-0.004123337101191282,-0.0062613640911877155
1774658031907689200,11.807689208984375,-0.002290742937475443,0.0007635809597559273,0.0102319847792387
1774658031924478000,11.82447802734375,0.011759147047996521,-0.005955931730568409,-0.0025961752980947495
1774658031941267000,11.841266845703124,-0.004123337101191282,-0.001679878099821508,0.013286309316754341
1774658031958055700,11.8580556640625,0.0007635809597559273,-0.004734201822429895,0.002290742937475443
1774658031974844400,11.874844482421874,-0.004734201822429895,-0.003512472379952669,0.01695149764418602
1774658031991633400,11.89163330078125,-0.002290742937475443,-0.0010690133785828948,0.010842849500477314
1774658032008422100,11.908422119140624,-0.003512472379952669,0.0007635809597559273,0.001679878099821508
1774658032025211100,11.925211181640625,-0.008399390615522861,0.0062613640911877155,0.015729768201708794
1774658032042000000,11.941999755859374,-0.010842849500477314,0.01359174121171236,0.008399390615522861
1774658032058788600,11.95878857421875,-0.005955931730568409,0.017256930470466614,-0.03436114266514778
1774658032075577600,11.97557763671875,0.009926552884280682,0.004428769461810589,0.006566796451807022
1774658032092366300,11.992366455078125,0.005039634648710489,0.0013744457392022014,-0.022754713892936707
1774658032109155300,12.0091552734375,-0.005955931730568409,0.0001527161948615685,-0.0038179049734026194
1774658032125944000,12.025944091796875,-0.0102319847792387,-0.00045814859913662076,0.002290742937475443
1774658032142732800,12.04273291015625,-0.001679878099821508,-0.0010690133785828948,-0.030085090547800064
1774658032159521800,12.059521728515625,0.0038179049734026194,-0.009010255336761475,0.013286309316754341
1774658032176310500,12.076310546875,0.0062613640911877155,-0.007177661173045635,-0.010537417605519295
1774658032193099300,12.093099365234375,-0.003512472379952669,-0.003512472379952669,0.008399390615522861
1774658032209888300,12.10988818359375,-0.0010690133785828948,0.0007635809597559273,-0.004428769461810589
1774658032226677000,12.126677001953125,0.0032070400193333626,0.0025961752980947495,-0.0001527161948615685
1774658032243466000,12.143466064453126,0.011759147047996521,-0.002901607658714056,-0.005650499369949102
1774658032260254700,12.160254638671875,0.011759147047996521,-0.005955931730568409,-0.0001527161948615685
1774658032277043500,12.17704345703125,0.009315688163042068,-0.007177661173045635,0.008399390615522861
1774658032293832400,12.19383251953125,0.008093958720564842,-0.005955931730568409,0.0010690133785828948
1774658032310621200,12.21062109375,0.014202605932950974,-0.009010255336761475,0.002901607658714056
1774658032327410000,12.227409912109374,0.008704823441803455,-0.007788525894284248,-0.012980876490473747
1774658032344199000,12.244198974609375,-0.0010690133785828948,-0.002290742937475443,-0.030695954337716103
1774658032360987600,12.260987548828124,-0.007788525894284248,-0.002901607658714056,0.04505127668380737
1774658032377776400,12.2777763671875,-0.010842849500477314,0.0032070400193333626,0.010842849500477314
1774658032394565400,12.2945654296875,-0.007177661173045635,0.0032070400193333626,0.05604684352874756
1774658032411354000,12.31135400390625,-0.006566796451807022,0.006872228812426329,0.0206166859716177
1774658032428143000,12.32814306640625,-0.00045814859913662076,0.005650499369949102,0.01511890348047018
1774658032444931800,12.344931884765625,-0.01206457894295454,0.016035201027989388,0.02367101050913334
1774658032461720600,12.361720458984376,-0.002901607658714056,0.008704823441803455,0.009621120058000088
1774658032478509600,12.378509521484375,-0.013286309316754341,0.009315688163042068,0.007177661173045635
1774658032495298300,12.39529833984375,-0.005345067009329796,0.0019853105768561363,0.010842849500477314
1774658032512087000,12.412087158203125,-0.004123337101191282,0.0025961752980947495,0.004734201822429895
1774658032528876000,12.4288759765625,-0.008399390615522861,0.004428769461810589,0.007177661173045635
1774658032545664800,12.445664794921875,-0.00045814859913662076,-0.00045814859913662076,0.009621120058000088
1774658032562453800,12.462453857421876,-0.0102319847792387,0.0025961752980947495,-0.0038179049734026194
1774658032579242500,12.479242431640625,0.005039634648710489,-0.009010255336761475,-0.0001527161948615685
1774658032596031200,12.49603125,-0.007788525894284248,-0.004734201822429895,0.004123337101191282
1774658032612820200,12.5128203125,0.009926552884280682,-0.0102319847792387,-0.0013744457392022014
1774658032629609000,12.52960888671875,0.017256930470466614,-0.015729768201708794,0.02672533318400383
1774658032646397700,12.546397705078125,0.016035201027989388,-0.016340631991624832,0.05604684352874756
1774658032663186700,12.563186767578125,0.02153298258781433,-0.012675444595515728,-0.022754713892936707
1774658032679975400,12.579975341796874,0.008093958720564842,-0.011453714221715927,0.030390523374080658
1774658032696764200,12.59676416015625,0.014202605932950974,-0.014508038759231567,-0.011759147047996521
1774658032713553200,12.61355322265625,0.005650499369949102,-0.01695149764418602,-0.04230238497257233
1774658032730342000,12.630341796875,0.01359174121171236,-0.021838415414094925,0.014508038759231567
1774658032747131000,12.647130859375,0.011759147047996521,-0.018784092739224434,-0.025809036567807198
1774658032763919600,12.663919677734375,0.012370011769235134,-0.01695149764418602,0.022449281066656113
1774658032780708400,12.680708251953124,0.0038179049734026194,-0.007177661173045635,0.001679878099821508
1774658032797497300,12.697497314453125,0.0007635809597559273,0.0001527161948615685,-0.010537417605519295
1774658032814286000,12.7142861328125,-0.008399390615522861,0.005650499369949102,0.024892739951610565
1774658032831074800,12.73107470703125,0.0025961752980947495,0.009315688163042068,-0.028863361105322838
1774658032847863800,12.74786376953125,-0.001679878099821508,0.012980876490473747,0.005955931730568409
1774658032864652500,12.764652587890625,-0.009621120058000088,0.012370011769235134,0.002901607658714056
1774658032881441300,12.781441162109376,-0.014508038759231567,0.0154243353754282,0.004123337101191282
1774658032898230300,12.798230224609375,-0.021227551624178886,0.008704823441803455,0.050549060106277466
1774658032915019000,12.81501904296875,-0.021838415414094925,0.007483093533664942,0.006566796451807022
1774658032931807700,12.831807861328125,-0.025503603741526604,0.012370011769235134,-0.0154243353754282
1774658032948596700,12.8485966796875,-0.0206166859716177,0.010537417605519295,0.00045814859913662076
1774658032965385500,12.865385498046875,-0.01695149764418602,0.017256930470466614,-0.016646064817905426
1774658032982174500,12.882174560546876,-0.012675444595515728,0.016035201027989388,-0.0062613640911877155
1774658032998963200,12.898963134765625,-0.00045814859913662076,0.009926552884280682,-0.0001527161948615685
1774658033015752000,12.915751953125,-0.003512472379952669,0.009315688163042068,-0.01359174121171236
1774658033032541000,12.932541015625,0.005650499369949102,0.0025961752980947495,0.004734201822429895
1774658033049329700,12.94932958984375,0.0032070400193333626,-0.0010690133785828948,-0.0013744457392022014
1774658033066118400,12.966118408203124,0.004428769461810589,-0.006566796451807022,0.003512472379952669
1774658033082907400,12.982907470703125,-0.001679878099821508,-0.009621120058000088,0.005345067009329796
1774658033099696000,12.999696044921874,-0.005345067009329796,-0.009010255336761475,0.005345067009329796
1774658033116484900,13.01648486328125,-0.002901607658714056,-0.009621120058000088,0.016340631991624832
1774658033133273900,13.03327392578125,-0.007788525894284248,-0.002901607658714056,-0.0062613640911877155
1774658033150062600,13.0500625,0.005650499369949102,-0.005345067009329796,-0.0019853105768561363
1774658033166851300,13.066851318359374,0.011148282326757908,-0.008399390615522861,0.003512472379952669
1774658033183640300,13.083640380859375,0.023365577682852745,-0.014508038759231567,0.001679878099821508
1774658033200429000,13.100428955078126,0.016646064817905426,-0.01206457894295454,0.017562363296747208
1774658033217217800,13.1172177734375,0.0154243353754282,-0.005955931730568409,-0.0032070400193333626
1774658033234006800,13.1340068359375,0.011148282326757908,0.0007635809597559273,-0.0001527161948615685
1774658033250795500,13.15079541015625,0.007483093533664942,0.0007635809597559273,-0.0038179049734026194
1774658033267584500,13.16758447265625,0.0062613640911877155,-0.003512472379952669,-0.0032070400193333626
1774658033284373200,13.184373291015625,0.0007635809597559273,-0.003512472379952669,-0.016646064817905426
1774658033301162000,13.201161865234376,0.0019853105768561363,-0.013286309316754341,0.014508038759231567
1774658033317951000,13.217950927734375,-0.007177661173045635,-0.007177661173045635,0.0102319847792387
1774658033334739700,13.23473974609375,-0.008399390615522861,-0.003512472379952669,0.01206457894295454
1774658033351528700,13.25152880859375,-0.010842849500477314,0.005039634648710489,0.001679878099821508
1774658033368317400,13.2683173828125,-0.001679878099821508,0.009926552884280682,-0.0013744457392022014
1774658033385106200,13.285106201171875,0.0019853105768561363,0.010537417605519295,0.002290742937475443
1774658033401895200,13.301895263671875,0.0019853105768561363,0.008093958720564842,-0.0013744457392022014
1774658033418684000,13.318683837890624,-0.005345067009329796,0.008704823441803455,-0.0062613640911877155
1774658033435472600,13.33547265625,-0.006566796451807022,0.009315688163042068,0.00045814859913662076
1774658033452261600,13.35226171875,-0.007788525894284248,0.008093958720564842,-0.005650499369949102
1774658033469050400,13.36905029296875,-0.010842849500477314,0.004428769461810589,-0.004428769461810589
1774658033485839000,13.385839111328124,-0.008399390615522861,-0.004734201822429895,-0.0038179049734026194
1774658033502628000,13.402628173828125,-0.003512472379952669,-0.008399390615522861,0.003512472379952669
1774658033519416800,13.419416748046874,-0.002290742937475443,-0.006566796451807022,-0.0019853105768561363
1774658033536205800,13.436205810546875,-0.003512472379952669,0.0025961752980947495,0.003512472379952669
1774658033552994600,13.45299462890625,-0.0010690133785828948,0.006872228812426329,-0.005039634648710489
1774658033569783300,13.469783203125,0.0019853105768561363,0.008704823441803455,-0.008093958720564842
1774658033586572300,13.486572265625,0.0032070400193333626,0.004428769461810589,0.002901607658714056
1774658033603361000,13.503361083984375,0.004428769461810589,0.0019853105768561363,-0.0025961752980947495
1774658033620150000,13.52014990234375,0.0007635809597559273,-0.003512472379952669,0.0010690133785828948
1774658033636938800,13.536938720703125,-0.004734201822429895,-0.003512472379952669,-0.0025961752980947495
1774658033653727500,13.5537275390625,-0.004123337101191282,-0.003512472379952669,-0.005650499369949102
1774658033670516500,13.5705166015625,-0.003512472379952669,-0.00045814859913662076,-0.0032070400193333626
1774658033687305200,13.58730517578125,-0.0010690133785828948,-0.003512472379952669,-0.005650499369949102
1774658033704094000,13.604093994140625,-0.003512472379952669,-0.002290742937475443,-0.005650499369949102
1774658033720883000,13.620883056640626,0.0038179049734026194,-0.00045814859913662076,-0.004428769461810589
1774658033737671700,13.637671630859375,0.005650499369949102,0.0032070400193333626,-0.0001527161948615685
1774658033754460700,13.654460693359376,0.008704823441803455,0.0025961752980947495,-0.0001527161948615685
1774658033771249400,13.67124951171875,0.0038179049734026194,0.0001527161948615685,-0.004428769461810589
1774658033788038400,13.688038330078125,0.0007635809597559273,-0.002901607658714056,0.0102319847792387
1774658033804827100,13.7048271484375,0.0007635809597559273,-0.004123337101191282,0.002290742937475443
1774658033821615900,13.721615966796875,-0.002290742937475443,0.0025961752980947495,-0.0019853105768561363
1774658033838404900,13.73840478515625,0.0013744457392022014,0.0013744457392022014,-0.004428769461810589
1774658033855193600,13.755193603515625,-0.002901607658714056,0.0038179049734026194,-0.0154243353754282
1774658033871982300,13.771982421875,0.0019853105768561363,-0.001679878099821508,-0.007483093533664942
1774658033888771300,13.788771240234375,0.004428769461810589,-0.004734201822429895,0.001679878099821508
1774658033905560000,13.80556005859375,0.0032070400193333626,-0.003512472379952669,-0.0007635809597559273
1774658033922349000,13.82234912109375,0.0038179049734026194,-0.001679878099821508,-0.0025961752980947495
1774658033939137800,13.8391376953125,0.007483093533664942,-0.002901607658714056,0.0010690133785828948
1774658033955926800,13.8559267578125,0.010537417605519295,-0.006566796451807022,-0.0019853105768561363
1774658033972715500,13.872715576171874,0.007483093533664942,-0.006566796451807022,0.003512472379952669
1774658033989504300,13.889504150390625,-0.002290742937475443,0.0013744457392022014,0.002290742937475443
1774658034006293200,13.906293212890626,-0.0010690133785828948,0.0025961752980947495,-0.0038179049734026194
1774658034023082000,13.92308203125,-0.003512472379952669,0.0025961752980947495,-0.0007635809597559273
1774658034039870700,13.93987060546875,-0.005345067009329796,0.0038179049734026194,0.002290742937475443
1774658034056659700,13.95665966796875,-0.004734201822429895,0.0038179049734026194,-0.004428769461810589
1774658034073448400,13.973448486328126,-0.005955931730568409,0.007483093533664942,-0.0019853105768561363
1774658034090237400,13.990237548828125,-0.007177661173045635,0.009926552884280682,-0.0032070400193333626
1774658034107026200,14.007026123046876,-0.011453714221715927,0.010537417605519295,-0.008704823441803455
1774658034123815200,14.023815185546875,-0.006566796451807022,0.011148282326757908,-0.0032070400193333626
1774658034140604000,14.04060400390625,-0.004123337101191282,0.009926552884280682,-0.0038179049734026194
1774658034157392600,14.057392578125,-0.001679878099821508,0.006872228812426329,0.009010255336761475
1774658034174181600,14.074181640625,0.0007635809597559273,0.0025961752980947495,0.004123337101191282
1774658034190970400,14.090970458984375,-0.0010690133785828948,-0.003512472379952669,-0.0001527161948615685
1774658034207759000,14.107759033203125,0.0032070400193333626,-0.002290742937475443,0.00045814859913662076
1774658034224548000,14.124548095703124,0.005039634648710489,-0.001679878099821508,0.006566796451807022
1774658034241336800,14.1413369140625,0.005039634648710489,0.0019853105768561363,-0.0062613640911877155
1774658034258125800,14.158125732421874,0.0013744457392022014,0.0038179049734026194,-0.0013744457392022014
1774658034274914600,14.17491455078125,0.008093958720564842,0.0001527161948615685,-0.0062613640911877155
1774658034291703300,14.191703369140624,0.007483093533664942,-0.0010690133785828948,-0.005650499369949102
1774658034308492300,14.2084921875,0.004428769461810589,0.0013744457392022014,-0.0038179049734026194
1774658034325281000,14.225281005859374,0.006872228812426329,-0.00045814859913662076,-0.007483093533664942
1774658034342070000,14.242070068359375,0.0032070400193333626,0.0007635809597559273,-0.004428769461810589
1774658034358858800,14.258858642578126,-0.002901607658714056,0.0019853105768561363,-0.0013744457392022014
1774658034375647500,14.2756474609375,-0.009010255336761475,0.0025961752980947495,0.002290742937475443
1774658034392436500,14.2924365234375,-0.004123337101191282,0.0032070400193333626,0.002290742937475443
1774658034409225200,14.30922509765625,0.0032070400193333626,0.005039634648710489,-0.008093958720564842
1774658034426014200,14.32601416015625,0.0013744457392022014,0.0019853105768561363,-0.0001527161948615685
1774658034442803000,14.342802978515625,-0.002290742937475443,0.0032070400193333626,-0.009926552884280682
1774658034459591700,14.359591796875,-0.008399390615522861,0.0007635809597559273,-0.0038179049734026194
1774658034476380700,14.376380615234375,-0.001679878099821508,0.0019853105768561363,0.00045814859913662076
1774658034493169400,14.39316943359375,0.008093958720564842,-0.002290742937475443,0.013897174037992954
1774658034509958400,14.40995849609375,0.0062613640911877155,0.0001527161948615685,-0.009926552884280682
1774658034526747100,14.4267470703125,-0.00045814859913662076,0.008093958720564842,-0.0062613640911877155
1774658034543535900,14.443535888671875,-0.003512472379952669,0.004428769461810589,0.004123337101191282
1774658034560324900,14.460324951171875,0.011148282326757908,0.0007635809597559273,-0.009315688163042068
1774658034577113600,14.477113525390624,0.0038179049734026194,-0.002290742937475443,-0.009926552884280682
1774658034593902300,14.49390234375,-0.0010690133785828948,-0.002901607658714056,0.001679878099821508
1774658034610691300,14.51069140625,-0.002901607658714056,0.0025961752980947495,-0.014813470654189587
1774658034627480000,14.52747998046875,0.005650499369949102,-0.004123337101191282,-0.007483093533664942
1774658034644269000,14.54426904296875,0.014202605932950974,-0.010842849500477314,-0.03252854943275452
1774658034661057800,14.561057861328125,0.016035201027989388,-0.013286309316754341,-0.009926552884280682
1774658034677846500,14.577846435546874,0.008704823441803455,-0.013286309316754341,0.004123337101191282
1774658034694635500,14.594635498046875,0.0025961752980947495,-0.0102319847792387,0.009010255336761475
1774658034711424300,14.61142431640625,-0.0010690133785828948,-0.004123337101191282,0.004123337101191282
1774658034728213000,14.628212890625,0.005039634648710489,-0.003512472379952669,0.015729768201708794
1774658034745002000,14.645001953125,0.016035201027989388,-0.007788525894284248,0.031612250953912735
1774658034761790700,14.661790771484375,0.0001527161948615685,-0.00045814859913662076,0.024281874299049377
1774658034778579700,14.678579833984376,-0.011453714221715927,0.011148282326757908,0.024281874299049377
1774658034795368400,14.695368408203125,-0.009010255336761475,0.008704823441803455,0.004734201822429895
1774658034812157200,14.7121572265625,0.009926552884280682,-0.004123337101191282,-0.030085090547800064
1774658034828946200,14.7289462890625,0.0025961752980947495,-0.005955931730568409,0.006566796451807022
1774658034845735000,14.74573486328125,-0.003512472379952669,-0.002290742937475443,-0.026419902220368385
1774658034862523600,14.762523681640625,-0.009010255336761475,0.005650499369949102,-0.05024362727999687
1774658034879312600,14.779312744140626,-0.005345067009329796,0.0062613640911877155,-0.02458730712532997
1774658034896101400,14.796101318359375,0.0038179049734026194,0.0019853105768561363,-0.016035201027989388
1774658034912890400,14.812890380859375,0.005650499369949102,-0.00045814859913662076,-0.005039634648710489
1774658034929679000,14.82967919921875,-0.003512472379952669,0.005039634648710489,-0.006872228812426329
1774658034946467800,14.8464677734375,-0.0010690133785828948,0.005039634648710489,-0.0001527161948615685
1774658034963256800,14.8632568359375,0.0001527161948615685,0.0032070400193333626,0.004123337101191282
1774658034980045600,14.880045654296875,0.0001527161948615685,-0.00045814859913662076,-0.0001527161948615685
1774658034996834300,14.896834228515624,0.0025961752980947495,-0.003512472379952669,-0.004428769461810589
1774658035013623300,14.913623291015625,-0.005345067009329796,-0.00045814859913662076,0.007177661173045635
1774658035030412000,14.930412109375,-0.004734201822429895,0.0013744457392022014,0.004123337101191282
1774658035047201000,14.947200927734375,-0.005955931730568409,0.0019853105768561363,-0.004428769461810589
1774658035063989800,14.96398974609375,-0.00045814859913662076,0.0007635809597559273,-0.011148282326757908
1774658035080778500,14.980778564453125,0.005039634648710489,-0.00045814859913662076,-0.0062613640911877155
1774658035097567500,14.9975673828125,0.004428769461810589,-0.001679878099821508,0.019394956529140472
1774658035114356200,15.014356201171875,0.0062613640911877155,-0.0010690133785828948,0.009010255336761475
1774658035131145200,15.031145263671876,-0.006566796451807022,0.005650499369949102,0.01695149764418602
1774658035147934000,15.047933837890625,-0.006566796451807022,0.008704823441803455,-0.0025961752980947495
1774658035164722700,15.06472265625,-0.009010255336761475,0.011759147047996521,0.007177661173045635
1774658035181511700,15.08151171875,-0.009010255336761475,0.009315688163042068,-0.005039634648710489
1774658035198300400,15.098300537109376,-0.001679878099821508,0.0013744457392022014,0.015729768201708794
1774658035215089200,15.115089111328125,-0.002901607658714056,-0.003512472379952669,0.012675444595515728
1774658035231878100,15.131878173828126,-0.010842849500477314,0.0019853105768561363,0.021227551624178886
1774658035248667000,15.1486669921875,-0.011453714221715927,0.0062613640911877155,0.02367101050913334
1774658035265455900,15.165455810546876,-0.003512472379952669,0.0062613640911877155,-0.012980876490473747
1774658035282244600,15.18224462890625,-0.005955931730568409,0.006872228812426329,0.001679878099821508
1774658035299033600,15.19903369140625,0.0038179049734026194,0.0007635809597559273,-0.005039634648710489
1774658035315822300,15.215822265625,0.0038179049734026194,-0.001679878099821508,-0.0032070400193333626
1774658035332611000,15.232611083984375,0.005650499369949102,-0.004123337101191282,0.004734201822429895
1774658035349400000,15.249400146484374,0.0025961752980947495,-0.003512472379952669,0.002290742937475443
1774658035366188800,15.266188720703125,-0.004123337101191282,0.0001527161948615685,-0.014202605932950974
1774658035382977800,15.282977783203124,-0.001679878099821508,-0.002290742937475443,-0.005039634648710489
1774658035399766500,15.2997666015625,0.008704823441803455,-0.015729768201708794,0.0102319847792387
1774658035416555300,15.31655517578125,0.012370011769235134,-0.0206166859716177,0.008399390615522861
1774658035433344300,15.33334423828125,0.0062613640911877155,-0.01206457894295454,0.03222311660647392
1774658035450133000,15.350133056640624,0.008704823441803455,-0.01206457894295454,0.06337722390890121
1774658035466922000,15.366921875,0.0019853105768561363,0.0025961752980947495,-0.029474224895238876
1774658035483710700,15.383710693359374,-0.002901607658714056,0.0013744457392022014,0.03527744114398956
1774658035500499500,15.40049951171875,-0.0010690133785828948,0.0032070400193333626,-0.019700389355421066
1774658035517288400,15.417288330078126,0.008093958720564842,-0.005345067009329796,0.002290742937475443
1774658035534077200,15.4340771484375,0.008093958720564842,-0.014508038759231567,0.016340631991624832
1774658035550866200,15.4508662109375,0.016035201027989388,-0.012675444595515728,-0.0019853105768561363
1774658035567655000,15.467655029296875,-0.004734201822429895,-0.002290742937475443,0.0010690133785828948
1774658035584444000,15.48444384765625,0.008704823441803455,-0.007788525894284248,0.007177661173045635
1774658035601232600,15.501232666015625,0.0019853105768561363,-0.00045814859913662076,-0.020922118797898293
1774658035618021400,15.518021484375,0.009926552884280682,-0.007788525894284248,-0.005650499369949102
1774658035634810400,15.534810302734375,0.0001527161948615685,-0.002901607658714056,-0.0013744457392022014
1774658035651599000,15.55159912109375,0.0062613640911877155,-0.005345067009329796,-0.0032070400193333626
1774658035668387800,15.568387939453125,-0.010842849500477314,-0.0010690133785828948,0.014508038759231567
1774658035685176800,15.5851767578125,-0.011453714221715927,0.004428769461810589,-0.0001527161948615685
1774658035701965600,15.601965576171875,-0.010842849500477314,0.008093958720564842,-0.004428769461810589
1774658035718754600,15.618754638671875,-0.006566796451807022,0.004428769461810589,0.009621120058000088
1774658035735543300,15.635543212890624,0.0025961752980947495,0.0007635809597559273,0.01695149764418602
1774658035752332300,15.652332275390625,-0.005955931730568409,0.0007635809597559273,0.011453714221715927
1774658035769121000,15.66912109375,-0.002901607658714056,0.0001527161948615685,0.0010690133785828948
1774658035785910000,15.685909912109375,-0.016340631991624832,0.011148282326757908,0.003512472379952669
1774658035802698800,15.70269873046875,-0.018173227086663246,0.012370011769235134,0.03649916872382164
1774658035819487500,15.719487548828125,-0.005345067009329796,0.012980876490473747,0.011453714221715927
1774658035836276500,15.7362763671875,-0.02611446939408779,0.011759147047996521,-0.01908952370285988
1774658035853065200,15.753065185546875,0.02519817277789116,-0.01206457894295454,0.03955349326133728
1774658035869854200,15.769854248046874,-0.02916879393160343,0.009315688163042068,-0.039248060435056686
1774658035886643000,15.786642822265625,0.011148282326757908,-0.005955931730568409,0.03222311660647392
1774658035903431700,15.803431640625,-0.01206457894295454,0.0038179049734026194,-0.010537417605519295
1774658035920220700,15.820220703125,0.0062613640911877155,0.0007635809597559273,0.002901607658714056
1774658035937009400,15.837009521484376,-0.002290742937475443,0.0019853105768561363,0.004123337101191282
1774658035953798400,15.85379833984375,0.0013744457392022014,0.0013744457392022014,-0.005039634648710489
1774658035970587100,15.870587158203126,0.004428769461810589,0.0001527161948615685,-0.0019853105768561363
1774658035987375900,15.8873759765625,0.0007635809597559273,-0.004123337101191282,0.001679878099821508
1774658036004164900,15.904164794921876,0.005650499369949102,-0.006566796451807022,-0.006872228812426329
1774658036020953600,15.92095361328125,0.0032070400193333626,-0.008399390615522861,0.002901607658714056
1774658036037742600,15.93774267578125,0.017256930470466614,-0.01695149764418602,0.004123337101191282
1774658036054531300,15.95453125,0.006872228812426329,-0.01206457894295454,0.004123337101191282
1774658036071320000,15.971320068359375,0.008093958720564842,-0.011453714221715927,0.005345067009329796
1774658036088109000,15.988109130859375,0.0013744457392022014,-0.004734201822429895,0.004734201822429895
1774658036104897800,16.004897705078125,0.011759147047996521,-0.007177661173045635,0.002290742937475443
1774658036121686800,16.021686767578124,0.006872228812426329,0.0001527161948615685,0.00045814859913662076
1774658036138475500,16.0384755859375,0.0007635809597559273,0.0013744457392022014,-0.014813470654189587
1774658036155264300,16.05526416015625,0.0013744457392022014,-0.003512472379952669,0.007177661173045635
1774658036172053200,16.07205322265625,-0.00045814859913662076,-0.003512472379952669,-0.0007635809597559273
1774658036188842000,16.088842041015624,0.0007635809597559273,-0.001679878099821508,0.007788525894284248
1774658036205631000,16.105630859375,-0.007788525894284248,0.005650499369949102,0.003512472379952669
1774658036222419700,16.122419677734374,-0.009621120058000088,0.0062613640911877155,0.007177661173045635
1774658036239208400,16.13920849609375,-0.007177661173045635,0.006872228812426329,-0.005039634648710489
1774658036255997400,16.15599755859375,-0.001679878099821508,0.007483093533664942,-0.0007635809597559273
1774658036272786200,16.1727861328125,-0.001679878099821508,0.008704823441803455,-0.0007635809597559273
1774658036289575200,16.1895751953125,-0.001679878099821508,0.0019853105768561363,-0.0025961752980947495
1774658036306364000,16.206364013671877,-0.005345067009329796,-0.00045814859913662076,-0.0032070400193333626
1774658036323152600,16.223152587890624,-0.001679878099821508,0.0013744457392022014,0.003512472379952669
1774658036339941600,16.239941650390627,-0.003512472379952669,0.004428769461810589,-0.0062613640911877155
1774658036356730400,16.25673046875,0.0001527161948615685,-0.00045814859913662076,-0.0025961752980947495
1774658036373519400,16.273519287109377,0.0019853105768561363,-0.007177661173045635,0.004123337101191282
1774658036390308000,16.29030810546875,-0.002290742937475443,-0.005345067009329796,0.00045814859913662076
1774658036407096800,16.307096923828126,0.0007635809597559273,-0.00045814859913662076,0.001679878099821508
1774658036423885800,16.3238857421875,-0.002290742937475443,0.004428769461810589,-0.005039634648710489
1774658036440674600,16.340674560546876,0.0032070400193333626,0.004428769461810589,-0.009926552884280682
1774658036457463600,16.357463623046876,-0.003512472379952669,0.004428769461810589,-0.009315688163042068
1774658036474252300,16.374252197265626,-0.001679878099821508,-0.00045814859913662076,0.002290742937475443
1774658036491041000,16.391041015625,-0.004123337101191282,0.0025961752980947495,-0.007483093533664942
1774658036507830000,16.407830078125,-0.007177661173045635,0.0032070400193333626,-0.0032070400193333626
1774658036524618800,16.42461865234375,-0.008399390615522861,0.005039634648710489,-0.007483093533664942
1774658036541407500,16.441407470703126,-0.004123337101191282,0.0038179049734026194,-0.008704823441803455
1774658036558196500,16.458196533203125,-0.0010690133785828948,0.0007635809597559273,0.005345067009329796
1774658036574985200,16.474985107421876,-0.001679878099821508,0.0019853105768561363,-0.0019853105768561363
1774658036591774200,16.491774169921875,-0.002290742937475443,0.0032070400193333626,-0.004428769461810589
1774658036608563000,16.50856298828125,-0.003512472379952669,0.0032070400193333626,0.0102319847792387
1774658036625352000,16.52535205078125,-0.002901607658714056,0.0032070400193333626,-0.0025961752980947495
1774658036642140700,16.542140625,-0.0010690133785828948,0.0013744457392022014,0.004123337101191282
1774658036658929400,16.558929443359375,0.0007635809597559273,-0.001679878099821508,0.00045814859913662076
1774658036675718400,16.575718505859374,0.0013744457392022014,-0.0010690133785828948,-0.006872228812426329
1774658036692507100,16.592507080078125,0.0032070400193333626,-0.00045814859913662076,0.002290742937475443
1774658036709295900,16.6092958984375,0.0007635809597559273,-0.0010690133785828948,-0.0032070400193333626
1774658036726084900,16.6260849609375,0.004428769461810589,-0.002290742937475443,0.002901607658714056
1774658036742873600,16.64287353515625,0.0013744457392022014,-0.00045814859913662076,-0.0038179049734026194
1774658036759662300,16.659662353515625,0.005650499369949102,0.0001527161948615685,0.00045814859913662076
1774658036776451300,16.676451416015624,-0.002290742937475443,-0.00045814859913662076,0.001679878099821508
1774658036793240000,16.693239990234375,0.0001527161948615685,0.0013744457392022014,0.00045814859913662076
1774658036810029000,16.710029052734374,0.0025961752980947495,-0.0010690133785828948,0.005345067009329796
1774658036826817800,16.72681787109375,-0.0010690133785828948,0.0007635809597559273,0.002901607658714056
1774658036843606500,16.7436064453125,-0.002901607658714056,-0.0010690133785828948,-0.0032070400193333626
1774658036860395500,16.7603955078125,-0.002290742937475443,0.0062613640911877155,-0.0154243353754282
1774658036877184300,16.777184326171874,0.004428769461810589,0.005650499369949102,0.002901607658714056
1774658036893973000,16.793972900390624,0.0062613640911877155,-0.003512472379952669,0.002901607658714056
1774658036910762000,16.810761962890624,0.0025961752980947495,-0.002290742937475443,-0.0019853105768561363
1774658036927550700,16.82755078125,0.0032070400193333626,-0.002290742937475443,0.002901607658714056
1774658036944339700,16.844339599609373,0.0025961752980947495,0.0013744457392022014,0.001679878099821508
1774658036961128400,16.86112841796875,0.005650499369949102,0.0038179049734026194,-0.004428769461810589
1774658036977917200,16.877917236328123,0.009315688163042068,-0.004123337101191282,0.007788525894284248
1774658036994706200,16.8947060546875,0.007483093533664942,-0.007788525894284248,0.013286309316754341
1774658037011495000,16.911494873046873,0.008704823441803455,-0.007788525894284248,0.013897174037992954
1774658037028284000,16.928283935546876,0.0001527161948615685,0.0019853105768561363,-0.0001527161948615685
1774658037045072600,16.94507275390625,-0.00045814859913662076,0.008093958720564842,0.002901607658714056
1774658037061861400,16.961861328125,-0.001679878099821508,0.0062613640911877155,-0.009926552884280682
1774658037078650400,16.978650390625,0.0001527161948615685,0.008093958720564842,-0.016035201027989388
1774658037095439000,16.995439208984376,0.0038179049734026194,-0.00045814859913662076,-0.0038179049734026194
1774658037112227800,17.012227783203127,0.005039634648710489,0.0007635809597559273,0.002901607658714056
1774658037129016800,17.029016845703126,0.0013744457392022014,-0.00045814859913662076,0.010842849500477314
1774658037145805600,17.0458056640625,-0.002290742937475443,0.0025961752980947495,0.002901607658714056
1774658037162594300,17.06259423828125,-0.005345067009329796,0.006872228812426329,-0.005039634648710489
1774658037179383300,17.07938330078125,-0.0102319847792387,0.004428769461810589,0.00045814859913662076
1774658037196172000,17.096172119140626,-0.010842849500477314,0.005039634648710489,0.00045814859913662076
1774658037212961000,17.1129609375,0.0025961752980947495,0.0001527161948615685,-0.011148282326757908
1774658037229749800,17.129749755859375,-0.001679878099821508,0.0019853105768561363,-0.0038179049734026194
1774658037246538500,17.14653857421875,0.004428769461810589,-0.004123337101191282,-0.009315688163042068
1774658037263327500,17.163327392578125,0.0019853105768561363,0.0001527161948615685,-0.04474584385752678
1774658037280116200,17.1801162109375,-0.001679878099821508,0.0025961752980947495,0.024892739951610565
1774658037296905200,17.1969052734375,0.0007635809597559273,0.0062613640911877155,-0.01847865991294384
1774658037313694000,17.21369384765625,0.0025961752980947495,0.010537417605519295,-0.017256930470466614
1774658037330482700,17.230482666015625,0.005650499369949102,0.0013744457392022014,0.009010255336761475
1774658037347271700,17.247271728515624,0.007483093533664942,0.0038179049734026194,-0.016646064817905426
1774658037364060400,17.264060302734375,0.005650499369949102,0.0001527161948615685,-0.01359174121171236
1774658037380849200,17.28084912109375,0.010537417605519295,-0.005345067009329796,0.01511890348047018
1774658037397638100,17.29763818359375,-0.0102319847792387,0.004428769461810589,-0.022754713892936707
1774658037414427000,17.314427001953124,-0.005345067009329796,-0.002290742937475443,-0.0007635809597559273
1774658037431215900,17.3312158203125,0.0007635809597559273,0.0019853105768561363,-0.036193739622831345
1774658037448004600,17.348004638671874,0.0062613640911877155,0.0013744457392022014,-0.049021899700164795
1774658037464793600,17.364793701171877,-0.006566796451807022,-0.00045814859913662076,0.01695149764418602
1774658037481582300,17.381582275390624,0.0013744457392022014,0.0019853105768561363,-0.04046979174017906
1774658037498371000,17.39837109375,0.005650499369949102,-0.0010690133785828948,-0.008704823441803455
1774658037515160000,17.41516015625,0.0062613640911877155,-0.004123337101191282,-0.005039634648710489
1774658037531948800,17.43194873046875,0.0013744457392022014,0.0013744457392022014,-0.017256930470466614
1774658037548737500,17.448737548828124,0.0013744457392022014,0.0032070400193333626,-0.008704823441803455
1774658037565526500,17.465526611328126,0.005650499369949102,-0.005345067009329796,0.00045814859913662076
1774658037582315300,17.482315185546874,0.011148282326757908,-0.008399390615522861,-0.0038179049734026194
1774658037599104300,17.499104248046876,0.007483093533664942,-0.010842849500477314,0.018784092739224434
1774658037615893000,17.51589306640625,-0.012675444595515728,0.0013744457392022014,0.024892739951610565
1774658037632682000,17.532681884765626,-0.015729768201708794,0.005039634648710489,0.02000582218170166
1774658037649470700,17.549470703125,-0.007788525894284248,0.0025961752980947495,-0.004428769461810589
1774658037666259500,17.566259521484376,0.012370011769235134,-0.009621120058000088,0.027947064489126205
1774658037683048400,17.58304833984375,-0.001679878099821508,-0.004123337101191282,0.004123337101191282
1774658037699837200,17.599837158203126,-0.006566796451807022,0.0032070400193333626,0.01511890348047018
1774658037716626200,17.616626220703125,-0.012675444595515728,0.008093958720564842,0.007788525894284248
1774658037733415000,17.633414794921876,-0.00045814859913662076,0.008093958720564842,-0.01847865991294384
1774658037750203600,17.65020361328125,0.0013744457392022014,0.005650499369949102,-0.016035201027989388
1774658037766992600,17.66699267578125,0.0062613640911877155,0.0001527161948615685,-0.012370011769235134
1774658037783781400,17.683781494140625,-0.001679878099821508,0.005039634648710489,-0.009315688163042068
1774658037800570400,17.7005703125,0.0013744457392022014,0.0032070400193333626,-0.019700389355421066
1774658037817359000,17.717359130859375,0.0025961752980947495,-0.001679878099821508,-0.008093958720564842
1774658037834147800,17.73414794921875,0.005039634648710489,-0.005955931730568409,-0.005650499369949102
1774658037850936800,17.750936767578125,-0.001679878099821508,-0.005345067009329796,-0.005039634648710489
1774658037867725600,17.7677255859375,-0.005955931730568409,-0.0010690133785828948,0.002901607658714056
1774658037884514300,17.784514404296875,-0.005345067009329796,0.0001527161948615685,0.005955931730568409
1774658037909697800,17.80969775390625,0.0062613640911877155,-0.004734201822429895,0.004123337101191282
1774658037926486500,17.826486572265626,0.0019853105768561363,0.0007635809597559273,-0.0038179049734026194
1774658037943275500,17.843275634765625,0.0025961752980947495,0.0032070400193333626,0.0010690133785828948
1774658037960064300,17.860064208984376,0.0007635809597559273,0.0038179049734026194,-0.0038179049734026194
1774658037976853000,17.87685302734375,0.008093958720564842,0.0001527161948615685,-0.009926552884280682
1774658037993642000,17.89364208984375,0.0062613640911877155,-0.001679878099821508,-0.009315688163042068
1774658038010430700,17.9104306640625,0.009926552884280682,-0.006566796451807022,0.00045814859913662076
1774658038027219500,17.927219482421876,0.005650499369949102,-0.006566796451807022,0.009010255336761475
1774658038044008400,17.944008544921875,-0.00045814859913662076,-0.004734201822429895,0.005955931730568409
1774658038060797200,17.960797119140626,-0.00045814859913662076,-0.004734201822429895,0.007788525894284248
1774658038077586200,17.977586181640625,0.0001527161948615685,-0.005955931730568409,0.014508038759231567
1774658038094375000,17.994375,0.0032070400193333626,-0.007788525894284248,0.021227551624178886
1774658038111163600,18.01116357421875,0.007483093533664942,-0.008399390615522861,0.013286309316754341
1774658038127952600,18.02795263671875,0.008093958720564842,-0.009621120058000088,0.046883873641490936
1774658038144741400,18.044741455078125,-0.010842849500477314,0.0032070400193333626,0.05177079141139984
1774658038161530400,18.0615302734375,-0.012675444595515728,0.014813470654189587,0.011453714221715927
1774658038178319000,18.078319091796875,-0.004734201822429895,0.012370011769235134,0.04321868345141411
1774658038195107800,18.09510791015625,0.0025961752980947495,0.004428769461810589,0.021227551624178886
1774658038211896800,18.111896728515624,0.005650499369949102,0.0025961752980947495,0.003512472379952669
1774658038228685600,18.128685546875,-0.005955931730568409,0.0038179049734026194,-0.0062613640911877155
1774658038245474600,18.145474609375,-0.009621120058000088,0.0007635809597559273,0.02367101050913334
1774658038262263300,18.16226318359375,-0.010842849500477314,0.0007635809597559273,0.005345067009329796
1774658038279052300,18.17905224609375,0.0007635809597559273,0.0001527161948615685,-0.010537417605519295
1774658038295841000,18.195841064453123,0.004428769461810589,-0.005345067009329796,-0.009315688163042068
1774658038312629800,18.212629638671874,0.009926552884280682,-0.012675444595515728,0.005345067009329796
1774658038329418800,18.229418701171873,0.012980876490473747,-0.013897174037992954,-0.0019853105768561363
1774658038346207500,18.24620751953125,0.008704823441803455,-0.011453714221715927,0.01511890348047018
1774658038362996500,18.26299658203125,0.0007635809597559273,-0.002290742937475443,0.002901607658714056
1774658038379785200,18.27978515625,-0.009621120058000088,0.004428769461810589,-0.004428769461810589
1774658038396574000,18.296573974609377,0.005039634648710489,-0.005955931730568409,0.010842849500477314
1774658038413363000,18.313363037109376,0.016646064817905426,-0.011453714221715927,0.008399390615522861
1774658038430151700,18.330151611328127,0.020311253145337105,-0.018173227086663246,0.003512472379952669
1774658038446940700,18.346940673828126,0.016035201027989388,-0.022449281066656113,0.004123337101191282
1774658038463729400,18.3637294921875,0.0013744457392022014,-0.012675444595515728,-0.011148282326757908
1774658038480518400,18.380518310546876,-0.005955931730568409,-0.005955931730568409,-0.019700389355421066
1774658038497307100,18.39730712890625,-0.004734201822429895,-0.002290742937475443,-0.02458730712532997
1774658038514095900,18.414095947265626,0.004428769461810589,-0.005955931730568409,-0.0007635809597559273
1774658038530884600,18.430884521484376,0.014813470654189587,-0.008399390615522861,-0.0001527161948615685
1774658038547673600,18.447673583984376,0.014202605932950974,-0.003512472379952669,-0.008093958720564842
1774658038564462300,18.46446240234375,0.0038179049734026194,-0.00045814859913662076,-0.004428769461810589
1774658038581251300,18.481251220703125,-0.005955931730568409,0.0038179049734026194,0.025503603741526604
1774658038598040000,18.4980400390625,-0.009621120058000088,0.007483093533664942,-0.005650499369949102
1774658038614829000,18.5148291015625,-0.016340631991624832,0.012370011769235134,0.0102319847792387
1774658038631617800,18.53161767578125,-0.007788525894284248,0.007483093533664942,0.004123337101191282
1774658038648406800,18.54840673828125,-0.011453714221715927,0.0062613640911877155,0.016340631991624832
1774658038665195500,18.565195556640624,-0.014508038759231567,-0.00045814859913662076,0.037720900028944016
1774658038681984300,18.581984375,-0.01695149764418602,0.0019853105768561363,0.013286309316754341
1774658038698773200,18.598773193359374,-0.021227551624178886,0.012980876490473747,0.001679878099821508
1774658038715562000,18.61556201171875,-0.0010690133785828948,0.007483093533664942,-0.0013744457392022014
1774658038732350700,18.632350830078124,-0.008399390615522861,0.01359174121171236,-0.0007635809597559273
1774658038749139700,18.6491396484375,0.009926552884280682,0.0032070400193333626,-0.0032070400193333626
1774658038765928400,18.665928466796874,0.0019853105768561363,0.0038179049734026194,0.00045814859913662076
1774658038782717400,18.682717529296873,-0.002290742937475443,0.0038179049734026194,-0.005650499369949102
1774658038799506200,18.699506103515624,-0.004734201822429895,0.0001527161948615685,-0.0025961752980947495
1774658038816295000,18.716294921875,-0.00045814859913662076,-0.005345067009329796,0.002290742937475443
1774658038833084000,18.733083984375,-0.0010690133785828948,-0.007788525894284248,0.0010690133785828948
1774658038849872600,18.74987255859375,0.0038179049734026194,-0.012675444595515728,-0.0025961752980947495
1774658038866661600,18.76666162109375,0.005039634648710489,-0.0102319847792387,0.001679878099821508
1774658038883450400,18.783450439453127,0.006872228812426329,-0.008399390615522861,0.001679878099821508
1774658038900239000,18.800239013671874,0.004428769461810589,-0.005345067009329796,-0.0025961752980947495
1774658038917028000,18.817028076171876,0.0007635809597559273,0.0025961752980947495,-0.0025961752980947495
1774658038933816800,18.83381689453125,0.005039634648710489,0.0038179049734026194,-0.004428769461810589
1774658038950605600,18.85060546875,0.0025961752980947495,0.007483093533664942,-0.012370011769235134
1774658038967394600,18.86739453125,0.0062613640911877155,-0.002901607658714056,0.009621120058000088
1774658038984183300,18.884183349609376,0.0032070400193333626,-0.004123337101191282,0.011453714221715927
1774658039000972300,18.90097216796875,-0.003512472379952669,0.0013744457392022014,0.00045814859913662076
1774658039017761000,18.917760986328126,-0.013897174037992954,0.004428769461810589,0.009010255336761475
1774658039034550000,18.934550048828125,-0.009010255336761475,0.0038179049734026194,0.006566796451807022
1774658039051338800,18.9513388671875,-0.004123337101191282,0.0038179049734026194,-0.007483093533664942
1774658039068127500,18.96812744140625,0.0019853105768561363,-0.0010690133785828948,-0.0001527161948615685
1774658039084916500,18.98491650390625,0.0032070400193333626,-0.002901607658714056,0.006566796451807022
1774658039101705200,19.001705322265625,0.0019853105768561363,-0.001679878099821508,-0.0062613640911877155
1774658039118494000,19.018493896484376,0.0025961752980947495,-0.0010690133785828948,0.009010255336761475
1774658039135283000,19.035282958984375,-0.001679878099821508,0.004428769461810589,-0.004428769461810589
1774658039152071700,19.05207177734375,-0.00045814859913662076,0.0019853105768561363,-0.0025961752980947495
1774658039168860700,19.068860595703125,0.0001527161948615685,-0.002901607658714056,-0.0025961752980947495
1774658039185649400,19.0856494140625,-0.001679878099821508,-0.004734201822429895,-0.0001527161948615685
1774658039202438100,19.102438232421875,-0.0010690133785828948,-0.002901607658714056,0.004734201822429895
1774658039219227100,19.11922705078125,-0.002901607658714056,0.0007635809597559273,-0.0013744457392022014
1774658039236015900,19.136015869140625,-0.003512472379952669,0.0019853105768561363,0.002901607658714056
1774658039252804600,19.1528046875,0.0013744457392022014,0.0038179049734026194,-0.0013744457392022014
1774658039269593600,19.169593505859375,0.0025961752980947495,0.0019853105768561363,-0.004428769461810589
1774658039286382300,19.18638232421875,0.0038179049734026194,-0.0010690133785828948,0.004123337101191282
1774658039303171000,19.203171142578125,0.0038179049734026194,-0.003512472379952669,-0.0025961752980947495
1774658039319960000,19.2199599609375,0.0019853105768561363,-0.002290742937475443,-0.0019853105768561363
1774658039336748800,19.236748779296875,-0.003512472379952669,-0.001679878099821508,0.005345067009329796
1774658039353537800,19.253537841796874,-0.0102319847792387,0.0019853105768561363,0.00045814859913662076
1774658039370326500,19.270326416015624,-0.004734201822429895,0.0025961752980947495,-0.0007635809597559273
1774658039387115300,19.287115234375,0.0019853105768561363,0.0032070400193333626,-0.0025961752980947495
1774658039403904300,19.303904296875,0.0032070400193333626,0.0013744457392022014,0.0010690133785828948
1774658039420693000,19.32069287109375,0.0013744457392022014,-0.004123337101191282,0.003512472379952669
1774658039437481700,19.337481689453124,-0.005955931730568409,-0.00045814859913662076,-0.0001527161948615685
1774658039454270700,19.354270751953123,0.0025961752980947495,0.0019853105768561363,-0.0001527161948615685
1774658039471059500,19.3710595703125,0.0032070400193333626,0.005039634648710489,-0.0025961752980947495
1774658039487848400,19.387848388671873,0.004428769461810589,-0.001679878099821508,0.001679878099821508
1774658039504637200,19.40463720703125,-0.005345067009329796,-0.004734201822429895,-0.0032070400193333626
1774658039521426000,19.421426025390623,-0.004734201822429895,-0.001679878099821508,0.00045814859913662076
1774658039538215000,19.43821484375,-0.00045814859913662076,0.0032070400193333626,-0.0019853105768561363
1774658039555003600,19.455003662109377,0.0001527161948615685,0.005039634648710489,-0.0032070400193333626
1774658039571792400,19.47179248046875,-0.004734201822429895,0.0013744457392022014,-0.0038179049734026194
1774658039588581400,19.488581298828127,0.0007635809597559273,-0.001679878099821508,0.008399390615522861
1774658039605370000,19.5053701171875,0.0025961752980947495,0.0013744457392022014,-0.006872228812426329
1774658039622158800,19.522158935546877,0.0019853105768561363,0.005650499369949102,0.008399390615522861
1774658039638947800,19.53894775390625,-0.002901607658714056,0.0038179049734026194,-0.008704823441803455
1774658039655736600,19.555736572265626,-0.003512472379952669,0.005039634648710489,-0.0001527161948615685
