time,seconds_elapsed,z,y,x
1775722059321500200,0.045500244140625,-0.9915618896484375,0.016082763671875,0.018798828125
1775722059331512800,0.055512939453125,-0.98779296875,0.0108642578125,0.0164947509765625
1775722059341526000,0.065526123046875,-0.9804840087890625,0.0277862548828125,0.0182647705078125
1775722059351539000,0.0755390625,-0.98291015625,0.0345916748046875,0.0193328857421875
1775722059361552100,0.08555224609375,-0.9937591552734375,0.027557373046875,0.0182952880859375
1775722059371564800,0.095564697265625,-0.99346923828125,0.0220489501953125,0.0165252685546875
1775722059381578000,0.105577880859375,-0.9989776611328125,0.0213165283203125,0.019134521484375
1775722059391591200,0.115591064453125,-1.0048980712890625,0.017822265625,0.0167694091796875
1775722059401603800,0.125603759765625,-1.0138092041015625,0.0155487060546875,0.009735107421875
1775722059411617000,0.135616943359375,-1.0216064453125,0.0152740478515625,0.007415771484375
1775722059421630000,0.1456298828125,-1.026611328125,0.0186614990234375,0.0083770751953125
1775722059431643100,0.15564306640625,-1.03216552734375,0.025115966796875,0.0187530517578125
1775722059441655800,0.16565576171875,-1.0263519287109375,0.0271148681640625,0.0213623046875
1775722059451670000,0.175669921875,-1.0128326416015625,0.0211944580078125,0.0112457275390625
1775722059461683000,0.185682861328125,-1.00927734375,0.012725830078125,0.0029754638671875
1775722059471696000,0.19569580078125,-1.0067901611328125,0.0095062255859375,-0.0033111572265625
1775722059481709000,0.205708984375,-0.992218017578125,0.0120697021484375,-0.001220703125
1775722059491722000,0.215721923828125,-1.007659912109375,0.019073486328125,0.0087432861328125
1775722059501735000,0.22573486328125,-1.0155792236328125,0.021728515625,0.0004730224609375
1775722059511748000,0.235748046875,-1.0112762451171875,0.0168609619140625,-0.0068359375
1775722059521761000,0.245760986328125,-1.00347900390625,0.0172271728515625,-0.0101470947265625
1775722059531774000,0.25577392578125,-0.98809814453125,0.0210723876953125,-0.01031494140625
1775722059541787000,0.265786865234375,-0.9729156494140625,0.0205841064453125,-0.007415771484375
1775722059551800000,0.275800048828125,-0.9734954833984375,0.0129241943359375,-0.0001068115234375
1775722059561813000,0.28581298828125,-0.961212158203125,0.000640869140625,0.0041656494140625
1775722059571826000,0.295825927734375,-0.9557647705078125,-0.0077362060546875,0.00506591796875
1775722059581839000,0.305839111328125,-0.9511871337890625,-0.0074920654296875,0.0097808837890625
1775722059591852000,0.31585205078125,-0.9503631591796875,0.0018310546875,0.008087158203125
1775722059601865000,0.325864990234375,-0.9565582275390625,0.010406494140625,0.004852294921875
1775722059611878000,0.3358779296875,-0.9685516357421875,0.010772705078125,0.0011749267578125
1775722059621891000,0.34589111328125,-0.99432373046875,0.00732421875,-0.001861572265625
1775722059631904000,0.355904052734375,-1.0279693603515625,0.003387451171875,-0.0066070556640625
1775722059641917000,0.3659169921875,-1.0430908203125,0.00299072265625,-0.0100555419921875
1775722059651930000,0.37593017578125,-1.0416717529296875,0.011962890625,-0.005035400390625
1775722059661943000,0.385943115234375,-1.0611114501953125,0.0166015625,0.001983642578125
1775722059671956000,0.3959560546875,-1.074432373046875,0.0097198486328125,0.001556396484375
1775722059681970000,0.405969970703125,-1.0548248291015625,0.0021209716796875,0.00341796875
1775722059691983000,0.415983154296875,-1.04327392578125,0.000274658203125,0.006988525390625
1775722059701996000,0.42599609375,-1.0316925048828125,0.0013580322265625,0.01214599609375
1775722059712009000,0.436009033203125,-1.0162506103515625,0.00048828125,0.0167236328125
1775722059722022100,0.446022216796875,-0.9961700439453125,-0.0038909912109375,0.0188446044921875
1775722059732034800,0.456034912109375,-0.9775543212890625,-0.0104522705078125,0.02056884765625
1775722059742048000,0.466048095703125,-0.9697723388671875,-0.0178070068359375,0.019378662109375
1775722059752061000,0.47606103515625,-0.959625244140625,-0.0229034423828125,0.020965576171875
1775722059762074000,0.48607421875,-0.9593505859375,-0.022491455078125,0.0196533203125
1775722059772087000,0.496087158203125,-0.9750518798828125,-0.025299072265625,0.0124053955078125
1775722059782100000,0.506099853515625,-0.9886474609375,-0.0252685546875,0.006866455078125
1775722059792113200,0.516113037109375,-1.0121917724609375,-0.01641845703125,0.0074615478515625
1775722059802125800,0.526125732421875,-1.05279541015625,-0.0089874267578125,0.0045318603515625
1775722059812139000,0.536138916015625,-1.071929931640625,-0.0058135986328125,-0.00341796875
1775722059822152000,0.54615185546875,-1.0677337646484375,0.003173828125,-0.0099639892578125
1775722059832165000,0.5561650390625,-1.0575408935546875,0.0098419189453125,-0.00439453125
1775722059842177800,0.566177734375,-1.0534515380859375,0.0069580078125,0.014892578125
1775722059852191000,0.57619091796875,-1.0435638427734375,-0.00634765625,0.038848876953125
1775722059862204200,0.5862041015625,-1.0157470703125,-0.018218994140625,0.0520477294921875
1775722059872216800,0.596216796875,-0.989715576171875,-0.0182037353515625,0.053253173828125
1775722059882230000,0.60622998046875,-0.9790191650390625,-0.0102081298828125,0.0489501953125
1775722059892243000,0.616242919921875,-0.977142333984375,-0.0082855224609375,0.040618896484375
1775722059902256000,0.626256103515625,-0.9803314208984375,-0.0073394775390625,0.033294677734375
1775722059912268800,0.636268798828125,-0.9892425537109375,-0.0102386474609375,0.026123046875
1775722059922283000,0.646282958984375,-0.9953765869140625,-0.01171875,0.022247314453125
1775722059932296000,0.6562958984375,-1.0049896240234375,-0.0106353759765625,0.0148468017578125
1775722059942308900,0.666308837890625,-1.003753662109375,-0.0098876953125,0.006683349609375
1775722059952322000,0.676322021484375,-0.996856689453125,-0.0069580078125,0.0021209716796875
1775722059962335000,0.6863349609375,-0.983795166015625,-0.0065765380859375,0.002655029296875
1775722059972348000,0.696347900390625,-0.9731903076171875,-0.012969970703125,0.006378173828125
1775722059982360800,0.70636083984375,-0.97540283203125,-0.0200042724609375,0.0107879638671875
1775722059992374000,0.7163740234375,-0.9635009765625,-0.019073486328125,0.0117340087890625
1775722060002387000,0.726386962890625,-0.95562744140625,-0.012420654296875,0.01068115234375
1775722060012399900,0.73639990234375,-0.961639404296875,-0.0053558349609375,0.01104736328125
1775722060022413000,0.7464130859375,-0.968170166015625,-0.0083160400390625,0.0152587890625
1775722060032426000,0.756426025390625,-0.9816436767578125,-0.0098114013671875,0.027252197265625
1775722060042439000,0.76643896484375,-0.9973297119140625,-0.0096435546875,0.03277587890625
1775722060052451800,0.776451904296875,-1.002410888671875,-0.0068817138671875,0.0305023193359375
1775722060062465000,0.786465087890625,-1.001678466796875,-0.0023651123046875,0.030548095703125
1775722060072478000,0.79647802734375,-0.99676513671875,-0.002685546875,0.0339508056640625
1775722060082491000,0.806490966796875,-0.990325927734375,-0.00958251953125,0.0358734130859375
1775722060092504000,0.816504150390625,-0.9790802001953125,-0.0132293701171875,0.03546142578125
1775722060102517000,0.82651708984375,-0.9832611083984375,-0.017303466796875,0.0299530029296875
1775722060112530000,0.836530029296875,-0.9885711669921875,-0.0193939208984375,0.022003173828125
1775722060122542800,0.84654296875,-0.9832916259765625,-0.015380859375,0.0155487060546875
1775722060132556000,0.85655615234375,-0.98468017578125,-0.0077972412109375,0.0132293701171875
1775722060142568700,0.866568603515625,-0.990936279296875,-0.0059814453125,0.0154571533203125
1775722060152583000,0.8765830078125,-0.9939727783203125,-0.0133819580078125,0.022796630859375
1775722060162596000,0.88659619140625,-0.9919891357421875,-0.0224609375,0.0268402099609375
1775722060172608800,0.89660888671875,-0.998809814453125,-0.0248565673828125,0.0259857177734375
1775722060182622000,0.9066220703125,-1.0039520263671875,-0.0187225341796875,0.0225372314453125
1775722060192635100,0.91663525390625,-0.9986114501953125,-0.012481689453125,0.018341064453125
1775722060202647800,0.926647705078125,-1.0015106201171875,-0.010345458984375,0.013397216796875
1775722060212661000,0.936660888671875,-1.0102081298828125,-0.0185546875,0.0081024169921875
1775722060222674000,0.946673828125,-1.0088348388671875,-0.024749755859375,0.006744384765625
1775722060232687000,0.95668701171875,-1.0067596435546875,-0.0196990966796875,0.009979248046875
1775722060242699800,0.96669970703125,-1.01104736328125,-0.01324462890625,0.011627197265625
1775722060252713000,0.976712890625,-1.01275634765625,-0.014404296875,0.010711669921875
1775722060262726000,0.986725830078125,-1.006134033203125,-0.0175933837890625,0.0143280029296875
1775722060272738800,0.99673876953125,-1.0013427734375,-0.0200347900390625,0.0159454345703125
1775722060282752000,1.006751953125,-0.99517822265625,-0.0187225341796875,0.0152130126953125
1775722060292765000,1.016764892578125,-0.992828369140625,-0.013946533203125,0.00982666015625
1775722060302778000,1.026778076171875,-0.98583984375,-0.01336669921875,0.0034332275390625
1775722060312790800,1.036790771484375,-0.980987548828125,-0.0126800537109375,0.0002593994140625
1775722060322804000,1.046803955078125,-0.988433837890625,-0.0104827880859375,-0.00048828125
1775722060332817000,1.05681689453125,-0.993194580078125,-0.010955810546875,-0.0005035400390625
1775722060342829800,1.066829833984375,-0.9970550537109375,-0.0130615234375,0.003173828125
1775722060352843000,1.076843017578125,-0.99737548828125,-0.011474609375,0.006134033203125
1775722060362856000,1.08685595703125,-0.995697021484375,-0.0123748779296875,0.0059967041015625
1775722060372869000,1.096869140625,-0.9932708740234375,-0.0163726806640625,0.0079498291015625
1775722060382881800,1.1068818359375,-0.989715576171875,-0.0199432373046875,0.011199951171875
1775722060392896000,1.11689599609375,-0.9904632568359375,-0.025177001953125,0.009063720703125
1775722060402909000,1.126908935546875,-0.98883056640625,-0.0260467529296875,0.0073699951171875
1775722060412921900,1.136921875,-1.0024871826171875,-0.021392822265625,0.0116119384765625
1775722060422935000,1.14693505859375,-1.0192108154296875,-0.022857666015625,0.0085296630859375
1775722060432948000,1.156947998046875,-1.0109710693359375,-0.0154571533203125,0.0023345947265625
1775722060442961000,1.1669609375,-1.00958251953125,-0.0036773681640625,0.0121002197265625
1775722060452973800,1.176973876953125,-1.0174102783203125,-0.005615234375,0.0241546630859375
1775722060462987000,1.186987060546875,-1.016845703125,-0.0186614990234375,0.0338592529296875
1775722060473000000,1.197,-1.0087127685546875,-0.02630615234375,0.0374908447265625
1775722060483012900,1.207012939453125,-1.0015869140625,-0.0268096923828125,0.0441741943359375
1775722060493026000,1.217026123046875,-0.990570068359375,-0.0272216796875,0.04058837890625
1775722060503039000,1.2270390625,-0.9809722900390625,-0.025787353515625,0.036285400390625
1775722060513052000,1.237052001953125,-0.973388671875,-0.0240936279296875,0.03338623046875
1775722060523064800,1.24706494140625,-0.9677734375,-0.02655029296875,0.0337677001953125
1775722060533078000,1.257078125,-0.96771240234375,-0.027679443359375,0.0319671630859375
1775722060543091000,1.267091064453125,-0.9760894775390625,-0.0296478271484375,0.0276641845703125
1775722060553104000,1.277103759765625,-0.98004150390625,-0.0277252197265625,0.022735595703125
1775722060563117000,1.287116943359375,-0.990509033203125,-0.02130126953125,0.01959228515625
1775722060573130000,1.2971298828125,-1.00714111328125,-0.01885986328125,0.0216064453125
1775722060583143000,1.307142822265625,-1.017364501953125,-0.015899658203125,0.0230255126953125
1775722060593155800,1.31715576171875,-1.014739990234375,-0.0113983154296875,0.025909423828125
1775722060603169000,1.3271689453125,-1.0151824951171875,-0.0096893310546875,0.0307464599609375
1775722060613182000,1.337181884765625,-1.0164031982421875,-0.009857177734375,0.04034423828125
1775722060623195000,1.34719482421875,-1.023284912109375,-0.0154876708984375,0.0462799072265625
1775722060633209000,1.357208984375,-1.0350341796875,-0.0225677490234375,0.039886474609375
1775722060643221800,1.3672216796875,-1.02362060546875,-0.021331787109375,0.0305023193359375
1775722060653235000,1.37723486328125,-1.0167999267578125,-0.0128173828125,0.02392578125
1775722060663248000,1.387247802734375,-1.01513671875,-0.005950927734375,0.02496337890625
1775722060673260800,1.3972607421875,-1.005767822265625,-0.0106201171875,0.0257110595703125
1775722060683274000,1.40727392578125,-1.00048828125,-0.02081298828125,0.024749755859375
1775722060693287000,1.417286865234375,-0.99822998046875,-0.0216217041015625,0.0232391357421875
1775722060703300000,1.427300048828125,-0.9852142333984375,-0.020599365234375,0.023651123046875
1775722060713312800,1.437312744140625,-0.9746551513671875,-0.0197601318359375,0.02703857421875
1775722060723326000,1.447325927734375,-0.9701385498046875,-0.0203857421875,0.02801513671875
1775722060733339000,1.4573388671875,-0.9738006591796875,-0.0248260498046875,0.0258026123046875
1775722060743352000,1.46735205078125,-0.98486328125,-0.0258941650390625,0.02117919921875
1775722060753365000,1.477364990234375,-0.986358642578125,-0.0198211669921875,0.016082763671875
1775722060763378000,1.4873779296875,-0.9886016845703125,-0.0120849609375,0.0146942138671875
1775722060773391000,1.49739111328125,-0.997283935546875,-0.010284423828125,0.0193939208984375
1775722060783403800,1.50740380859375,-1.008392333984375,-0.01727294921875,0.02496337890625
1775722060793417000,1.5174169921875,-1.0155029296875,-0.024139404296875,0.029388427734375
1775722060803430000,1.527429931640625,-1.014434814453125,-0.024658203125,0.0293426513671875
1775722060813443000,1.537443115234375,-1.01300048828125,-0.0187835693359375,0.0272979736328125
1775722060823456000,1.5474560546875,-1.021942138671875,-0.0153656005859375,0.0265655517578125
1775722060833469000,1.557468994140625,-1.021148681640625,-0.016082763671875,0.022857666015625
1775722060843482000,1.567482177734375,-1.0095977783203125,-0.013946533203125,0.0221405029296875
1775722060853494800,1.577494873046875,-1.0013885498046875,-0.0101318359375,0.0252532958984375
1775722060863509000,1.587509033203125,-0.9980621337890625,-0.014404296875,0.024169921875
1775722060873522000,1.59752197265625,-0.993072509765625,-0.018646240234375,0.0235595703125
1775722060883534800,1.607534912109375,-0.9918365478515625,-0.019317626953125,0.022491455078125
1775722060893547800,1.6175478515625,-0.98968505859375,-0.0205230712890625,0.0195159912109375
1775722060903561000,1.62756103515625,-0.99212646484375,-0.021636962890625,0.0192108154296875
1775722060913573600,1.63757373046875,-0.997406005859375,-0.0242919921875,0.0183258056640625
1775722060923586800,1.6475869140625,-0.9910888671875,-0.0233001708984375,0.01629638671875
1775722060933600000,1.65760009765625,-0.98236083984375,-0.0194549560546875,0.0178070068359375
1775722060943613000,1.667613037109375,-0.980682373046875,-0.0190277099609375,0.0221710205078125
1775722060953625900,1.6776259765625,-0.98358154296875,-0.020050048828125,0.0262298583984375
1775722060963638800,1.687638671875,-0.9951629638671875,-0.022064208984375,0.0286102294921875
1775722060973652000,1.69765185546875,-0.9964599609375,-0.0189971923828125,0.0264892578125
1775722060983664600,1.70766455078125,-0.9975738525390625,-0.0152587890625,0.022796630859375
1775722060993677800,1.717677734375,-1.00701904296875,-0.0118560791015625,0.0223236083984375
1775722061003691000,1.72769091796875,-1.01043701171875,-0.012908935546875,0.0263671875
1775722061013704000,1.737703857421875,-1.008026123046875,-0.0167083740234375,0.031402587890625
1775722061023716900,1.747716796875,-1.0100555419921875,-0.0194854736328125,0.0345916748046875
1775722061033729800,1.757729736328125,-1.017547607421875,-0.019989013671875,0.035797119140625
1775722061043743000,1.767742919921875,-1.013671875,-0.0193634033203125,0.0362701416015625
1775722061053755600,1.777755615234375,-1.009033203125,-0.016357421875,0.037841796875
1775722061063768800,1.787768798828125,-1.009857177734375,-0.016448974609375,0.037322998046875
1775722061073782000,1.797781982421875,-1.006622314453125,-0.0175323486328125,0.03631591796875
1775722061083795700,1.807795654296875,-0.99920654296875,-0.0226287841796875,0.0387115478515625
1775722061093809000,1.817808837890625,-0.9932861328125,-0.0231475830078125,0.040985107421875
1775722061103821800,1.82782177734375,-0.9923858642578125,-0.022491455078125,0.03814697265625
1775722061113834800,1.837834716796875,-0.991546630859375,-0.021820068359375,0.0293426513671875
1775722061123848000,1.847847900390625,-0.9910888671875,-0.0206146240234375,0.0183868408203125
1775722061133860900,1.85786083984375,-0.9907073974609375,-0.0211334228515625,0.011322021484375
1775722061143874000,1.8678740234375,-0.995697021484375,-0.0228118896484375,0.0098419189453125
1775722061153886700,1.87788671875,-1.0109710693359375,-0.0239410400390625,0.0105133056640625
1775722061163900000,1.88789990234375,-1.021087646484375,-0.0296783447265625,0.0086517333984375
1775722061173912800,1.897912841796875,-1.01806640625,-0.030029296875,0.0128173828125
1775722061183925800,1.90792578125,-1.0182342529296875,-0.0269927978515625,0.0225982666015625
1775722061193939000,1.91793896484375,-1.0234832763671875,-0.02459716796875,0.0323333740234375
1775722061203951900,1.927951904296875,-1.0149993896484375,-0.025726318359375,0.0356292724609375
1775722061213965000,1.937965087890625,-1.0110321044921875,-0.0254974365234375,0.0349273681640625
1775722061223977700,1.947977783203125,-1.0010223388671875,-0.0232086181640625,0.0258026123046875
1775722061233991000,1.957990966796875,-0.993072509765625,-0.017822265625,0.019805908203125
1775722061244003800,1.96800390625,-0.9918212890625,-0.016021728515625,0.0229034423828125
1775722061254016800,1.978016845703125,-0.9868316650390625,-0.0186614990234375,0.0280303955078125
1775722061264029700,1.98802978515625,-0.9827880859375,-0.0218658447265625,0.03350830078125
1775722061274043000,1.99804296875,-0.985504150390625,-0.02490234375,0.035614013671875
1775722061284056000,2.00805615234375,-0.988800048828125,-0.028289794921875,0.033905029296875
1775722061294068700,2.01806884765625,-1.0034027099609375,-0.025146484375,0.0280609130859375
1775722061304082000,2.02808203125,-1.01171875,-0.0232696533203125,0.0221099853515625
1775722061314095900,2.038095947265625,-1.012939453125,-0.0192108154296875,0.0175018310546875
1775722061324108800,2.04810888671875,-1.0150299072265625,-0.017486572265625,0.0194549560546875
1775722061334122000,2.0581220703125,-1.0139617919921875,-0.023101806640625,0.023956298828125
1775722061344135000,2.068135009765625,-1.00616455078125,-0.0290679931640625,0.0269012451171875
1775722061354147800,2.07814794921875,-0.998626708984375,-0.025146484375,0.028045654296875
1775722061364160800,2.088160888671875,-0.9870452880859375,-0.02154541015625,0.0257568359375
1775722061374174000,2.098174072265625,-0.984130859375,-0.0159912109375,0.0229644775390625
1775722061384186600,2.1081865234375,-0.987213134765625,-0.0177001953125,0.0193328857421875
1775722061394199800,2.11819970703125,-0.9850921630859375,-0.0166015625,0.020172119140625
1775722061404213000,2.128212890625,-0.9813690185546875,-0.014404296875,0.023284912109375
1775722061414226000,2.138225830078125,-0.9876708984375,-0.0134124755859375,0.025115966796875
1775722061424238800,2.14823876953125,-1.0000762939453125,-0.0182037353515625,0.0249481201171875
1775722061434251800,2.158251708984375,-1.0027008056640625,-0.0191192626953125,0.017822265625
1775722061444265000,2.168264892578125,-1.005096435546875,-0.0124053955078125,0.0088043212890625
1775722061454277600,2.178277587890625,-1.009368896484375,-0.00457763671875,0.001922607421875
1775722061464290800,2.188290771484375,-1.007720947265625,-0.00439453125,0.0077362060546875
1775722061474304000,2.198303955078125,-1.0061187744140625,-0.006866455078125,0.017425537109375
1775722061484317000,2.20831689453125,-1.00640869140625,-0.0128021240234375,0.0249481201171875
1775722061494329900,2.218329833984375,-0.998382568359375,-0.0161590576171875,0.0279693603515625
1775722061504342800,2.2283427734375,-0.9902496337890625,-0.0140228271484375,0.0316314697265625
1775722061514356000,2.23835595703125,-0.9987030029296875,-0.0085906982421875,0.03070068359375
1775722061524368600,2.24836865234375,-0.9990081787109375,-0.0073394775390625,0.027496337890625
1775722061534381800,2.2583818359375,-0.9955291748046875,-0.01116943359375,0.0270538330078125
1775722061544396000,2.26839599609375,-0.9909820556640625,-0.0121612548828125,0.029388427734375
1775722061554408700,2.27840869140625,-0.9901885986328125,-0.01422119140625,0.0322113037109375
1775722061564422000,2.288421875,-0.991424560546875,-0.0186614990234375,0.033355712890625
1775722061574434800,2.298434814453125,-0.9944915771484375,-0.02276611328125,0.0328521728515625
1775722061584447700,2.30844775390625,-1.0053253173828125,-0.0243682861328125,0.0236358642578125
1775722061594461000,2.3184609375,-1.0074005126953125,-0.0239410400390625,0.0197296142578125
1775722061604473900,2.328473876953125,-1.0118255615234375,-0.0199737548828125,0.0194549560546875
1775722061614487000,2.338487060546875,-1.0174102783203125,-0.0195770263671875,0.02215576171875
1775722061624499700,2.348499755859375,-1.0191192626953125,-0.0238494873046875,0.0274200439453125
1775722061634513000,2.358512939453125,-1.0153350830078125,-0.0280609130859375,0.032501220703125
1775722061644525800,2.36852587890625,-1.0072174072265625,-0.0273284912109375,0.0337982177734375
1775722061654538800,2.378538818359375,-1.0000762939453125,-0.0250244140625,0.0318145751953125
1775722061664552000,2.388552001953125,-0.9928131103515625,-0.025848388671875,0.0298919677734375
1775722061674564900,2.39856494140625,-0.9807586669921875,-0.0275421142578125,0.0243377685546875
1775722061684578000,2.408578125,-0.9798126220703125,-0.025634765625,0.0198822021484375
1775722061694590700,2.4185908203125,-0.9823150634765625,-0.027435302734375,0.015655517578125
1775722061704604000,2.42860400390625,-0.9844207763671875,-0.0235137939453125,0.014495849609375
1775722061714616800,2.438616943359375,-0.9961395263671875,-0.0186767578125,0.0186004638671875
1775722061724629800,2.448629638671875,-1.001861572265625,-0.019805908203125,0.0211944580078125
1775722061734642700,2.458642578125,-1.002777099609375,-0.018402099609375,0.0230865478515625
1775722061744656000,2.46865576171875,-1.0080108642578125,-0.0181427001953125,0.025665283203125
1775722061754669000,2.4786689453125,-1.0067138671875,-0.0195770263671875,0.02606201171875
1775722061764681700,2.488681640625,-1.0012969970703125,-0.0223388671875,0.025177001953125
1775722061774695000,2.49869482421875,-0.9931793212890625,-0.0222015380859375,0.0214996337890625
1775722061784708900,2.508708984375,-0.9860992431640625,-0.024200439453125,0.0167388916015625
1775722061794721800,2.5187216796875,-0.9900360107421875,-0.0252532958984375,0.0178375244140625
1775722061804735000,2.52873486328125,-0.996795654296875,-0.0236053466796875,0.0199737548828125
1775722061814748000,2.538747802734375,-0.9934234619140625,-0.0239410400390625,0.018341064453125
1775722061824760800,2.5487607421875,-1.000732421875,-0.0189666748046875,0.0166168212890625
1775722061834773800,2.558773681640625,-1.011444091796875,-0.016998291015625,0.021026611328125
1775722061844787000,2.568786865234375,-1.012908935546875,-0.015350341796875,0.0289764404296875
1775722061854800000,2.5787998046875,-1.0133056640625,-0.0154876708984375,0.030731201171875
1775722061864812800,2.588812744140625,-1.01300048828125,-0.0192108154296875,0.0245819091796875
1775722061874825500,2.598825439453125,-1.005340576171875,-0.0177154541015625,0.0179443359375
1775722061884838700,2.608838623046875,-0.9962615966796875,-0.0149993896484375,0.0178375244140625
1775722061894851600,2.6188515625,-0.9913482666015625,-0.0165252685546875,0.0195465087890625
1775722061904864500,2.628864501953125,-0.9848480224609375,-0.0223236083984375,0.0174102783203125
1775722061914877700,2.638877685546875,-0.9831390380859375,-0.0219268798828125,0.015106201171875
1775722061924890600,2.648890625,-0.990997314453125,-0.020843505859375,0.01593017578125
1775722061934903600,2.658903564453125,-1.0004119873046875,-0.0207061767578125,0.017486572265625
1775722061944916500,2.66891650390625,-1.0047149658203125,-0.015625,0.0212860107421875
1775722061954929700,2.6789296875,-1.0092926025390625,-0.0138702392578125,0.02642822265625
1775722061964942300,2.6889423828125,-1.0141143798828125,-0.0156402587890625,0.02752685546875
1775722061974955500,2.69895556640625,-1.0140380859375,-0.0190582275390625,0.025299072265625
1775722061984968700,2.70896875,-1.0110931396484375,-0.018829345703125,0.0192108154296875
1775722061994982400,2.718982421875,-1.0154266357421875,-0.0178680419921875,0.0069732666015625
1775722062004995600,2.72899560546875,-1.010406494140625,-0.0128936767578125,-0.0078582763671875
1775722062015008500,2.739008544921875,-0.996490478515625,-0.011627197265625,-0.0090179443359375
1775722062025021400,2.749021484375,-0.9888763427734375,-0.01116943359375,0.0013275146484375
1775722062035034600,2.75903466796875,-0.98114013671875,-0.014862060546875,0.011016845703125
1775722062045047600,2.769047607421875,-0.979217529296875,-0.022857666015625,0.0216064453125
1775722062055060700,2.779060791015625,-0.991668701171875,-0.02288818359375,0.0281982421875
1775722062065073400,2.789073486328125,-0.99615478515625,-0.0172119140625,0.0295257568359375
1775722062075086600,2.799086669921875,-0.9984893798828125,-0.00628662109375,0.031219482421875
1775722062085099500,2.809099609375,-1.0069122314453125,0.002899169921875,0.035003662109375
1775722062095112400,2.819112548828125,-1.0105743408203125,-0.000274658203125,0.03680419921875
1775722062105125600,2.829125732421875,-1.0050048828125,-0.006683349609375,0.0396575927734375
1775722062115138600,2.839138671875,-0.993865966796875,-0.009765625,0.04229736328125
1775722062125151700,2.84915185546875,-0.986053466796875,-0.0077362060546875,0.037994384765625
1775722062135164400,2.859164306640625,-0.983001708984375,-0.009765625,0.030609130859375
1775722062145177600,2.869177490234375,-0.98016357421875,-0.0077972412109375,0.0229949951171875
1775722062155190500,2.8791904296875,-0.984344482421875,-0.01123046875,0.0174407958984375
1775722062165203500,2.889203369140625,-0.98876953125,-0.0140838623046875,0.014007568359375
1775722062175216600,2.899216552734375,-1.001129150390625,-0.0132293701171875,0.0141143798828125
1775722062185229600,2.9092294921875,-1.011810302734375,-0.014984130859375,0.0208587646484375
1775722062195242800,2.91924267578125,-1.014068603515625,-0.0176239013671875,0.0306854248046875
1775722062205255400,2.92925537109375,-1.02117919921875,-0.0198974609375,0.0366058349609375
1775722062215268600,2.9392685546875,-1.01593017578125,-0.0150299072265625,0.0333251953125
1775722062225281500,2.949281494140625,-1.0241546630859375,-0.00384521484375,0.02667236328125
1775722062235295500,2.95929541015625,-1.0359649658203125,0.00640869140625,0.0164337158203125
1775722062245308700,2.96930859375,-1.0313873291015625,0.00946044921875,0.0120086669921875
1775722062255321600,2.979321533203125,-1.0389251708984375,0.0121002197265625,0.01776123046875
1775722062265334500,2.98933447265625,-1.06866455078125,0.0088043212890625,0.0272064208984375
1775722062275347500,2.999347412109375,-1.0860595703125,0.0005645751953125,0.0393829345703125
1775722062285360600,3.009360595703125,-1.1104888916015625,-0.007659912109375,0.0507049560546875
1775722062295373600,3.01937353515625,-1.1259765625,-0.0084075927734375,0.0401153564453125
1775722062305386500,3.029386474609375,-1.1208648681640625,0.0170440673828125,0.0182037353515625
1775722062315399700,3.039399658203125,-1.1417083740234375,0.0301361083984375,0.011871337890625
1775722062325412600,3.04941259765625,-1.1555023193359375,0.0131072998046875,0.0193328857421875
1775722062335425500,3.059425537109375,-1.1545257568359375,-0.0134735107421875,0.0363922119140625
1775722062345438500,3.0694384765625,-1.1622314453125,-0.033294677734375,0.04400634765625
1775722062355451600,3.07945166015625,-1.1684722900390625,-0.0439300537109375,0.042327880859375
1775722062365464600,3.089464599609375,-1.1561126708984375,-0.0547332763671875,0.0284423828125
1775722062375477500,3.0994775390625,-1.1365814208984375,-0.0594024658203125,0.0197601318359375
1775722062385490700,3.10949072265625,-1.1264190673828125,-0.0645904541015625,0.01885986328125
1775722062395503600,3.119503662109375,-1.1223602294921875,-0.0785064697265625,0.0227203369140625
1775722062405516500,3.1295166015625,-1.122314453125,-0.0953369140625,0.019989013671875
1775722062415529500,3.139529541015625,-1.1091461181640625,-0.1069183349609375,0.0021514892578125
1775722062425542700,3.149542724609375,-1.08990478515625,-0.0984344482421875,-0.025299072265625
1775722062435555600,3.1595556640625,-1.0811614990234375,-0.077423095703125,-0.0516510009765625
1775722062445569500,3.169569580078125,-1.0777587890625,-0.0633544921875,-0.076934814453125
1775722062455582700,3.179582763671875,-1.0697784423828125,-0.0543365478515625,-0.1040802001953125
1775722062465595400,3.189595458984375,-1.0467071533203125,-0.0371246337890625,-0.1285552978515625
1775722062475608600,3.199608642578125,-1.02899169921875,-0.016754150390625,-0.13873291015625
1775722062485621500,3.20962158203125,-1.01171875,-0.001708984375,-0.1333160400390625
1775722062495634400,3.219634521484375,-0.99627685546875,-0.000274658203125,-0.1121978759765625
1775722062505647600,3.229647705078125,-0.9909210205078125,-0.0086822509765625,-0.079010009765625
1775722062515660500,3.23966064453125,-0.98846435546875,-0.0207061767578125,-0.0534515380859375
1775722062525673700,3.249673828125,-0.999481201171875,-0.0342559814453125,-0.032501220703125
1775722062535686400,3.259686279296875,-1.01458740234375,-0.0458526611328125,-0.02276611328125
1775722062545699600,3.269699462890625,-1.0408782958984375,-0.0534515380859375,-0.03118896484375
1775722062555712500,3.27971240234375,-1.0582275390625,-0.0497589111328125,-0.04962158203125
1775722062565725400,3.289725341796875,-1.0598297119140625,-0.0386962890625,-0.06549072265625
1775722062575738600,3.299738525390625,-1.0755157470703125,-0.0327606201171875,-0.074310302734375
1775722062585751600,3.30975146484375,-1.0747833251953125,-0.034759521484375,-0.069610595703125
1775722062595764700,3.3197646484375,-1.0600433349609375,-0.0386199951171875,-0.0528411865234375
1775722062605777400,3.32977734375,-1.0604248046875,-0.0480194091796875,-0.035491943359375
1775722062615790600,3.33979052734375,-1.0583953857421875,-0.0579681396484375,-0.0247650146484375
1775722062625803500,3.349803466796875,-1.0501708984375,-0.0628204345703125,-0.0245208740234375
1775722062635816400,3.35981640625,-1.0488433837890625,-0.06585693359375,-0.032501220703125
1775722062645829600,3.36982958984375,-1.047760009765625,-0.0618438720703125,-0.0481109619140625
1775722062655842600,3.379842529296875,-1.0382843017578125,-0.05487060546875,-0.059814453125
1775722062665855700,3.389855712890625,-1.043609619140625,-0.0523529052734375,-0.0665740966796875
1775722062675869400,3.399869384765625,-1.049774169921875,-0.0572662353515625,-0.0632476806640625
1775722062685882600,3.409882568359375,-1.04388427734375,-0.0612335205078125,-0.0532684326171875
1775722062695895600,3.4198955078125,-1.0401611328125,-0.0648345947265625,-0.042327880859375
1775722062705908500,3.429908447265625,-1.02886962890625,-0.06500244140625,-0.0368499755859375
1775722062715921700,3.439921630859375,-1.014556884765625,-0.0679779052734375,-0.02789306640625
1775722062725934600,3.4499345703125,-1.0112152099609375,-0.0681610107421875,-0.0185699462890625
1775722062735947500,3.459947509765625,-1.0069732666015625,-0.07275390625,-0.01312255859375
1775722062745960400,3.46996044921875,-1.0128631591796875,-0.070220947265625,-0.00372314453125
1775722062755973600,3.4799736328125,-1.0258636474609375,-0.067230224609375,0.000579833984375
1775722062765986600,3.489986572265625,-1.039520263671875,-0.066650390625,-0.003143310546875
1775722062775999500,3.49999951171875,-1.04254150390625,-0.0717926025390625,-0.0168914794921875
1775722062786012700,3.5100126953125,-1.046966552734375,-0.0700531005859375,-0.032928466796875
1775722062796025600,3.520025634765625,-1.0550537109375,-0.0639801025390625,-0.04364013671875
1775722062806038500,3.53003857421875,-1.0557708740234375,-0.06292724609375,-0.0415802001953125
1775722062816051500,3.540051513671875,-1.045501708984375,-0.06640625,-0.0273895263671875
1775722062826064600,3.550064697265625,-1.0191192626953125,-0.0766754150390625,-0.0067291259765625
1775722062836077600,3.56007763671875,-0.9917755126953125,-0.09002685546875,0.013763427734375
1775722062846090500,3.570090576171875,-0.983245849609375,-0.1072845458984375,0.01788330078125
1775722062856103700,3.580103759765625,-0.978179931640625,-0.1234893798828125,0.000396728515625
1775722062866116600,3.59011669921875,-0.9604339599609375,-0.1196136474609375,-0.0337066650390625
1775722062876130300,3.60013037109375,-0.9504547119140625,-0.1056671142578125,-0.0649566650390625
1775722062886143200,3.610143310546875,-0.9515533447265625,-0.0975494384765625,-0.0821990966796875
1775722062896157200,3.6201572265625,-0.9460296630859375,-0.1034698486328125,-0.0832366943359375
1775722062906170400,3.63017041015625,-0.934844970703125,-0.1123809814453125,-0.0726318359375
1775722062916183300,3.640183349609375,-0.924407958984375,-0.1188201904296875,-0.0652008056640625
1775722062926196200,3.6501962890625,-0.920654296875,-0.1282958984375,-0.0562896728515625
1775722062936209200,3.660209228515625,-0.9313812255859375,-0.1414794921875,-0.058929443359375
1775722062946222300,3.670222412109375,-0.9400634765625,-0.148529052734375,-0.0736846923828125
1775722062956235500,3.680235595703125,-0.9460601806640625,-0.1437835693359375,-0.0893096923828125
1775722062966248200,3.690248291015625,-0.958251953125,-0.1472930908203125,-0.1013031005859375
1775722062976261400,3.700261474609375,-0.9642486572265625,-0.151458740234375,-0.106689453125
1775722062986274300,3.7102744140625,-0.95233154296875,-0.1531829833984375,-0.1044769287109375
1775722062996287200,3.720287353515625,-0.9430084228515625,-0.1560211181640625,-0.10101318359375
1775722063006300200,3.730300048828125,-0.9425506591796875,-0.1609954833984375,-0.09234619140625
1775722063016313300,3.740313232421875,-0.9368438720703125,-0.1683349609375,-0.0793609619140625
1775722063026326500,3.750326416015625,-0.918060302734375,-0.1777496337890625,-0.066864013671875
1775722063036339200,3.760339111328125,-0.913055419921875,-0.1862640380859375,-0.0544586181640625
1775722063046352400,3.770352294921875,-0.9259796142578125,-0.1918792724609375,-0.0465545654296875
1775722063056365300,3.780365234375,-0.9398651123046875,-0.1921844482421875,-0.0432281494140625
1775722063066378200,3.790378173828125,-0.953125,-0.1876220703125,-0.044342041015625
1775722063076391200,3.80039111328125,-0.965789794921875,-0.1772613525390625,-0.0450592041015625
1775722063086404400,3.810404296875,-0.9748382568359375,-0.164154052734375,-0.04248046875
1775722063096417500,3.82041748046875,-0.9919891357421875,-0.167999267578125,-0.04547119140625
1775722063106430200,3.83043017578125,-1.007171630859375,-0.1845703125,-0.0592041015625
1775722063116444400,3.8404443359375,-1.0066070556640625,-0.1893157958984375,-0.0733184814453125
1775722063126457000,3.85045703125,-1.0040130615234375,-0.1857147216796875,-0.0905303955078125
1775722063136470300,3.86047021484375,-0.9897613525390625,-0.1804656982421875,-0.09136962890625
1775722063146483500,3.8704833984375,-0.9761962890625,-0.170623779296875,-0.0726318359375
1775722063156496400,3.880496337890625,-0.9679718017578125,-0.1659088134765625,-0.0482635498046875
1775722063166509300,3.89050927734375,-0.966583251953125,-0.1722869873046875,-0.0270233154296875
1775722063176522200,3.900522216796875,-0.9581756591796875,-0.17694091796875,-0.01251220703125
1775722063186535400,3.910535400390625,-0.9556121826171875,-0.1825408935546875,-0.0043487548828125
1775722063196548000,3.920548095703125,-0.9710540771484375,-0.1854248046875,-0.0097198486328125
1775722063206561300,3.930561279296875,-0.985198974609375,-0.1837005615234375,-0.0209197998046875
1775722063216574500,3.940574462890625,-0.990875244140625,-0.1819915771484375,-0.0405426025390625
1775722063226587400,3.95058740234375,-0.988800048828125,-0.1793670654296875,-0.06414794921875
1775722063236600300,3.960600341796875,-0.979278564453125,-0.17864990234375,-0.0836639404296875
1775722063246613200,3.97061328125,-0.976898193359375,-0.18505859375,-0.0922698974609375
1775722063256626400,3.98062646484375,-0.9705352783203125,-0.1989898681640625,-0.0995941162109375
1775722063266639400,3.990639404296875,-0.96197509765625,-0.2122344970703125,-0.1092376708984375
1775722063276652300,4.00065234375,-0.961517333984375,-0.2241973876953125,-0.130706787109375
1775722063286665200,4.010665283203125,-0.956207275390625,-0.2316436767578125,-0.159576416015625
1775722063296678400,4.020678466796875,-0.955810546875,-0.23553466796875,-0.1936798095703125
1775722063306691300,4.03069140625,-0.9431610107421875,-0.2310333251953125,-0.21728515625
1775722063316704300,4.040704345703125,-0.921722412109375,-0.21978759765625,-0.219970703125
1775722063326717400,4.050717529296875,-0.9109649658203125,-0.21331787109375,-0.213592529296875
1775722063336730400,4.06073046875,-0.902435302734375,-0.2144317626953125,-0.200347900390625
1775722063346744300,4.070744384765625,-0.888671875,-0.2280120849609375,-0.1719970703125
1775722063356757500,4.080757568359375,-0.88323974609375,-0.23779296875,-0.1472930908203125
1775722063366770200,4.090770263671875,-0.8862762451171875,-0.233734130859375,-0.1245269775390625
1775722063376783400,4.100783447265625,-0.8930816650390625,-0.2230987548828125,-0.1077728271484375
1775722063386796300,4.11079638671875,-0.8824615478515625,-0.21051025390625,-0.0959625244140625
1775722063396809200,4.120809326171875,-0.866424560546875,-0.201263427734375,-0.0838470458984375
1775722063406822100,4.130822265625,-0.8638763427734375,-0.1952667236328125,-0.064727783203125
1775722063416835300,4.14083544921875,-0.8576202392578125,-0.1978607177734375,-0.0415496826171875
1775722063426848500,4.1508486328125,-0.8476104736328125,-0.2059783935546875,-0.019989013671875
1775722063436861200,4.160861083984375,-0.8397064208984375,-0.21234130859375,-0.0091705322265625
1775722063446874400,4.170874267578125,-0.8325347900390625,-0.220123291015625,-0.00982666015625
1775722063456887300,4.18088720703125,-0.8259124755859375,-0.2179107666015625,-0.0062408447265625
1775722063466900200,4.190900146484375,-0.8188323974609375,-0.2162322998046875,0.005615234375
1775722063476913200,4.2009130859375,-0.8203887939453125,-0.23370361328125,0.0325164794921875
1775722063486926300,4.21092626953125,-0.8368682861328125,-0.2660675048828125,0.061065673828125
1775722063496939500,4.220939453125,-0.837554931640625,-0.2911529541015625,0.076202392578125
1775722063506952200,4.2309521484375,-0.82208251953125,-0.29833984375,0.079345703125
1775722063516965400,4.24096533203125,-0.8134307861328125,-0.29901123046875,0.07855224609375
1775722063526978300,4.250978271484375,-0.8206024169921875,-0.308380126953125,0.078826904296875
1775722063536991200,4.2609912109375,-0.83038330078125,-0.32098388671875,0.0771942138671875
1775722063547004200,4.271004150390625,-0.833831787109375,-0.3316192626953125,0.0750579833984375
1775722063557017300,4.281017333984375,-0.8526153564453125,-0.3422088623046875,0.0685882568359375
1775722063567031300,4.29103125,-0.8832550048828125,-0.3529815673828125,0.0440216064453125
1775722063577044200,4.301044189453125,-0.8996429443359375,-0.348541259765625,0.015625
1775722063587057400,4.311057373046875,-0.917633056640625,-0.3331146240234375,-0.00360107421875
1775722063597070300,4.3210703125,-0.9413299560546875,-0.323699951171875,-0.0178070068359375
1775722063607083300,4.331083251953125,-0.95367431640625,-0.3255157470703125,-0.0262603759765625
1775722063617096400,4.341096435546875,-0.949798583984375,-0.326934814453125,-0.0270843505859375
1775722063627109400,4.351109375,-0.9585723876953125,-0.32183837890625,-0.02392578125
1775722063637122300,4.361122314453125,-0.9794921875,-0.310760498046875,-0.0277099609375
1775722063647135200,4.37113525390625,-0.9890594482421875,-0.30120849609375,-0.035491943359375
1775722063657148400,4.3811484375,-0.97906494140625,-0.2825164794921875,-0.0446319580078125
1775722063667161300,4.391161376953125,-0.9671478271484375,-0.260040283203125,-0.0390777587890625
1775722063677174300,4.40117431640625,-0.9653778076171875,-0.2478485107421875,-0.01910400390625
1775722063687187500,4.4111875,-0.954833984375,-0.2465057373046875,0.008392333984375
1775722063697200400,4.421200439453125,-0.9396514892578125,-0.2475128173828125,0.029541015625
1775722063707213300,4.43121337890625,-0.9445953369140625,-0.2456817626953125,0.03533935546875
1775722063717226200,4.441226318359375,-0.9568634033203125,-0.238311767578125,0.025787353515625
1775722063727239400,4.451239501953125,-0.947479248046875,-0.2229461669921875,0.0063629150390625
1775722063737252400,4.46125244140625,-0.9460906982421875,-0.2075347900390625,-0.0063018798828125
1775722063747265300,4.471265380859375,-0.96044921875,-0.201995849609375,-0.0070343017578125
1775722063757278200,4.4812783203125,-0.9626922607421875,-0.2015228271484375,-0.0008392333984375
1775722063767291400,4.49129150390625,-0.9596099853515625,-0.2032470703125,0.0032806396484375
1775722063777304300,4.50130419921875,-0.9574127197265625,-0.2054443359375,0.0068511962890625
1775722063787317200,4.511317138671875,-0.9593963623046875,-0.2141265869140625,0.0058441162109375
1775722063797331500,4.52133154296875,-0.9593048095703125,-0.223785400390625,0.0013580322265625
1775722063807344000,4.53134423828125,-0.950958251953125,-0.233245849609375,-0.00750732421875
1775722063817357300,4.541357421875,-0.94384765625,-0.24432373046875,-0.0243682861328125
1775722063827370500,4.55137060546875,-0.9381256103515625,-0.25360107421875,-0.0448150634765625
1775722063837383200,4.561383056640625,-0.9272003173828125,-0.2523345947265625,-0.0577545166015625
1775722063847396400,4.571396240234375,-0.91510009765625,-0.2494659423828125,-0.062469482421875
1775722063857409300,4.5814091796875,-0.9105072021484375,-0.25341796875,-0.056304931640625
1775722063867422500,4.59142236328125,-0.911468505859375,-0.2581634521484375,-0.040496826171875
1775722063877435100,4.60143505859375,-0.913299560546875,-0.261322021484375,-0.02813720703125
1775722063887448000,4.611447998046875,-0.90966796875,-0.2626190185546875,-0.01910400390625
1775722063897461200,4.621461181640625,-0.8957977294921875,-0.2582244873046875,-0.0123138427734375
1775722063907474200,4.63147412109375,-0.8928680419921875,-0.255950927734375,-0.0028076171875
1775722063917487000,4.641487060546875,-0.89605712890625,-0.261322021484375,0.00506591796875
1775722063927500300,4.651500244140625,-0.882080078125,-0.2655792236328125,0.00738525390625
1775722063937513200,4.66151318359375,-0.8662567138671875,-0.2666015625,0.00592041015625
1775722063947526100,4.671526123046875,-0.8549652099609375,-0.266265869140625,0.003265380859375
1775722063957539000,4.6815390625,-0.8401947021484375,-0.2654266357421875,0.0037689208984375
1775722063967552300,4.69155224609375,-0.83087158203125,-0.261260986328125,0.0072174072265625
1775722063977565200,4.701565185546875,-0.82904052734375,-0.2585296630859375,0.012725830078125
1775722063987578000,4.711578125,-0.844146728515625,-0.2670440673828125,0.0158538818359375
1775722063997591300,4.72159130859375,-0.8621826171875,-0.27880859375,0.0062103271484375
1775722064007604200,4.731604248046875,-0.876434326171875,-0.282379150390625,-0.0227508544921875
1775722064017617200,4.7416171875,-0.881072998046875,-0.2666778564453125,-0.0646209716796875
1775722064027631400,4.75163134765625,-0.8656158447265625,-0.244384765625,-0.09954833984375
1775722064037644000,4.76164404296875,-0.84326171875,-0.2185211181640625,-0.112945556640625
1775722064047657200,4.7716572265625,-0.8366546630859375,-0.1991424560546875,-0.0982818603515625
1775722064057670100,4.781670166015625,-0.835357666015625,-0.210113525390625,-0.070648193359375
1775722064067683300,4.791683349609375,-0.820098876953125,-0.2284393310546875,-0.0450897216796875
1775722064077696000,4.801696044921875,-0.8006591796875,-0.2358245849609375,-0.0260009765625
1775722064087709200,4.811709228515625,-0.7924652099609375,-0.22943115234375,-0.0223846435546875
1775722064097722400,4.821722412109375,-0.7916107177734375,-0.2097625732421875,-0.0263824462890625
1775722064107735000,4.831735107421875,-0.7916717529296875,-0.1920166015625,-0.0265960693359375
1775722064117748200,4.841748291015625,-0.803955078125,-0.1862030029296875,-0.0322418212890625
1775722064127761200,4.85176123046875,-0.8260650634765625,-0.178619384765625,-0.036407470703125
1775722064137774300,4.8617744140625,-0.83685302734375,-0.1705474853515625,-0.0395050048828125
1775722064147787000,4.871787109375,-0.8353424072265625,-0.166778564453125,-0.044525146484375
1775722064157800200,4.88180029296875,-0.8415985107421875,-0.1682281494140625,-0.04571533203125
1775722064167813400,4.8918134765625,-0.8525543212890625,-0.174285888671875,-0.04364013671875
1775722064177826000,4.901825927734375,-0.866729736328125,-0.1728668212890625,-0.0461883544921875
1775722064187839200,4.911839111328125,-0.880096435546875,-0.168182373046875,-0.0534515380859375
1775722064197852200,4.92185205078125,-0.8902740478515625,-0.1601715087890625,-0.0615692138671875
1775722064207865300,4.931865234375,-0.90423583984375,-0.158905029296875,-0.0616912841796875
1775722064217878000,4.9418779296875,-0.89996337890625,-0.1613006591796875,-0.0594024658203125
1775722064227891200,4.95189111328125,-0.8947906494140625,-0.1571502685546875,-0.0526123046875
1775722064237904100,4.961904052734375,-0.8998565673828125,-0.1562957763671875,-0.0390472412109375
1775722064247917000,4.9719169921875,-0.9124755859375,-0.1606292724609375,-0.028076171875
1775722064257931300,4.98193115234375,-0.933624267578125,-0.1641082763671875,-0.03607177734375
1775722064267944200,4.991944091796875,-0.9589691162109375,-0.155364990234375,-0.05877685546875
1775722064277957000,5.00195703125,-0.9521942138671875,-0.126739501953125,-0.0882568359375
1775722064287970300,5.01197021484375,-0.9358673095703125,-0.09375,-0.1052398681640625
1775722064297983200,5.021983154296875,-0.9305572509765625,-0.0757598876953125,-0.1042327880859375
1775722064307996200,5.03199609375,-0.9183349609375,-0.072662353515625,-0.087860107421875
1775722064318009000,5.042009033203125,-0.893829345703125,-0.079864501953125,-0.056060791015625
1775722064328022300,5.052022216796875,-0.879974365234375,-0.086395263671875,-0.0227813720703125
1775722064338035200,5.06203515625,-0.8826751708984375,-0.0886077880859375,0.0001068115234375
1775722064348048100,5.072048095703125,-0.88385009765625,-0.0772705078125,0.01177978515625
1775722064358061000,5.08206103515625,-0.8852691650390625,-0.0649871826171875,0.0159454345703125
1775722064368074200,5.09207421875,-0.891357421875,-0.055633544921875,0.008087158203125
1775722064378087200,5.102087158203125,-0.902130126953125,-0.04119873046875,0.0042266845703125
1775722064388100000,5.11210009765625,-0.9133148193359375,-0.0415191650390625,0.0128631591796875
1775722064398113300,5.12211328125,-0.941131591796875,-0.0585784912109375,0.0226898193359375
1775722064408126200,5.132126220703125,-0.974365234375,-0.0702972412109375,0.02618408203125
1775722064418139100,5.14213916015625,-0.999969482421875,-0.0705413818359375,0.0216217041015625
1775722064428152000,5.152152099609375,-1.038330078125,-0.063018798828125,0.0077362060546875
1775722064438165200,5.162165283203125,-1.0716094970703125,-0.056793212890625,-0.01025390625
1775722064448178200,5.17217822265625,-1.0948638916015625,-0.0649566650390625,-0.0281829833984375
1775722064458191000,5.182191162109375,-1.1104888916015625,-0.07952880859375,-0.04766845703125
1775722064468204300,5.192204345703125,-1.127410888671875,-0.0857391357421875,-0.066864013671875
1775722064478217200,5.20221728515625,-1.13763427734375,-0.079071044921875,-0.0614013671875
1775722064488231200,5.212231201171875,-1.16412353515625,-0.07855224609375,-0.053955078125
1775722064498244400,5.222244384765625,-1.2145538330078125,-0.080718994140625,-0.0580291748046875
1775722064508257000,5.232257080078125,-1.25445556640625,-0.058135986328125,-0.0657958984375
1775722064518270200,5.242270263671875,-1.30780029296875,-0.02789306640625,-0.0673675537109375
1775722064528283100,5.252283203125,-1.356964111328125,-0.0164794921875,-0.0646820068359375
1775722064538296300,5.26229638671875,-1.360107421875,-0.0171661376953125,-0.0616607666015625
1775722064548309000,5.27230908203125,-1.350799560546875,-0.019561767578125,-0.055389404296875
1775722064558322200,5.282322265625,-1.3443603515625,-0.0263671875,-0.0550384521484375
1775722064568335400,5.29233544921875,-1.3180694580078125,-0.0327911376953125,-0.0588226318359375
1775722064578348000,5.30234814453125,-1.29034423828125,-0.032989501953125,-0.0620574951171875
1775722064588361200,5.312361328125,-1.2760467529296875,-0.0352783203125,-0.0640106201171875
1775722064598374100,5.3223740234375,-1.2371826171875,-0.0426025390625,-0.0688018798828125
1775722064608387300,5.33238720703125,-1.188507080078125,-0.0435791015625,-0.0775909423828125
1775722064618400000,5.34239990234375,-1.14990234375,-0.043853759765625,-0.084930419921875
1775722064628413200,5.3524130859375,-1.1173248291015625,-0.0480499267578125,-0.0919189453125
1775722064638426400,5.36242626953125,-1.102142333984375,-0.05035400390625,-0.09417724609375
1775722064648439300,5.372439208984375,-1.0980224609375,-0.0580902099609375,-0.087677001953125
1775722064658452200,5.3824521484375,-1.1082763671875,-0.07025146484375,-0.0723419189453125
1775722064668465200,5.392465087890625,-1.1113128662109375,-0.0722198486328125,-0.0625762939453125
1775722064678478300,5.402478271484375,-1.10809326171875,-0.0590667724609375,-0.057464599609375
1775722064688491000,5.412490966796875,-1.1065673828125,-0.0367584228515625,-0.0514678955078125
1775722064698504200,5.422504150390625,-1.1180877685546875,-0.0290069580078125,-0.03253173828125
1775722064708517000,5.43251708984375,-1.14599609375,-0.0413665771484375,-0.009857177734375
1775722064718530300,5.4425302734375,-1.1622161865234375,-0.056182861328125,0.00970458984375
1775722064728543200,5.452543212890625,-1.1684417724609375,-0.0564117431640625,0.0256500244140625
1775722064738557200,5.46255712890625,-1.174468994140625,-0.0553436279296875,0.0269317626953125
1775722064748570000,5.472570068359375,-1.1686859130859375,-0.0597381591796875,0.01885986328125
1775722064758583300,5.482583251953125,-1.14837646484375,-0.0625152587890625,0.0065460205078125
1775722064768596200,5.49259619140625,-1.1243896484375,-0.06304931640625,-0.0013580322265625
1775722064778609200,5.502609130859375,-1.1083526611328125,-0.0706329345703125,-0.0121002197265625
1775722064788622000,5.5126220703125,-1.077362060546875,-0.0738525390625,-0.0273284912109375
1775722064798635300,5.52263525390625,-1.0416717529296875,-0.064971923828125,-0.037567138671875
1775722064808648200,5.532648193359375,-1.0271453857421875,-0.0616455078125,-0.0416412353515625
1775722064818661000,5.5426611328125,-1.0255279541015625,-0.065185546875,-0.0424957275390625
1775722064828674000,5.552674072265625,-1.0198211669921875,-0.066680908203125,-0.04339599609375
1775722064838687200,5.562687255859375,-1.0145416259765625,-0.063232421875,-0.050628662109375
1775722064848700200,5.5727001953125,-1.0140533447265625,-0.0518646240234375,-0.0587158203125
1775722064858713000,5.582713134765625,-1.0074310302734375,-0.038330078125,-0.0616912841796875
1775722064868726300,5.592726318359375,-0.9931640625,-0.0305938720703125,-0.05169677734375
1775722064878739200,5.6027392578125,-0.990081787109375,-0.0295257568359375,-0.038848876953125
1775722064888751900,5.612751953125,-0.9895782470703125,-0.02886962890625,-0.0277099609375
1775722064898765000,5.62276513671875,-0.9938812255859375,-0.0240478515625,-0.02197265625
1775722064908778000,5.632778076171875,-1.013336181640625,-0.021484375,-0.0181884765625
1775722064918791200,5.642791259765625,-1.027252197265625,-0.0077972412109375,-0.01470947265625
1775722064928804000,5.65280419921875,-1.0291900634765625,0.003936767578125,-0.0137939453125
1775722064938817000,5.662817138671875,-1.0280609130859375,0.0057220458984375,-0.0097503662109375
1775722064948830200,5.672830322265625,-1.0313262939453125,-0.0046539306640625,-0.00006103515625
1775722064958843000,5.6828427734375,-1.02288818359375,-0.0226287841796875,0.0145111083984375
1775722064968856000,5.69285595703125,-1.004180908203125,-0.0374908447265625,0.0279541015625
1775722064978870300,5.702870361328125,-0.98291015625,-0.045684814453125,0.0319976806640625
1775722064988883000,5.712883056640625,-0.967620849609375,-0.049896240234375,0.028106689453125
1775722064998896000,5.722896240234375,-0.9648590087890625,-0.056060791015625,0.019378662109375
1775722065008909000,5.732908935546875,-0.96209716796875,-0.0689697265625,0.0098876953125
1775722065018922000,5.742921875,-0.9641265869140625,-0.0718536376953125,-0.0043792724609375
1775722065028935000,5.752934814453125,-0.97076416015625,-0.07220458984375,-0.013671875
1775722065038948000,5.762947998046875,-0.9717559814453125,-0.0737762451171875,-0.0186767578125
1775722065048961300,5.772961181640625,-0.9788970947265625,-0.0673980712890625,-0.016754150390625
1775722065058974000,5.782973876953125,-0.9863433837890625,-0.063812255859375,-0.0092926025390625
1775722065068987100,5.792987060546875,-0.9904327392578125,-0.0711822509765625,-0.000640869140625
1775722065079000000,5.803,-0.993133544921875,-0.0788116455078125,0.000091552734375
1775722065089013000,5.813012939453125,-0.991455078125,-0.0714263916015625,-0.006683349609375
1775722065099026000,5.82302587890625,-0.996246337890625,-0.055511474609375,-0.01763916015625
1775722065109039000,5.8330390625,-0.99200439453125,-0.0410308837890625,-0.0207977294921875
1775722065119052300,5.84305224609375,-0.984161376953125,-0.035888671875,-0.0163421630859375
1775722065129065000,5.85306494140625,-0.977935791015625,-0.03460693359375,-0.00616455078125
1775722065139078100,5.863078125,-0.971893310546875,-0.03387451171875,0.005340576171875
1775722065149091000,5.873091064453125,-0.969635009765625,-0.028411865234375,0.012451171875
1775722065159104000,5.88310400390625,-0.9665374755859375,-0.0220794677734375,0.0091705322265625
1775722065169117000,5.893116943359375,-0.969329833984375,-0.0176544189453125,0.0058135986328125
1775722065179130000,5.903130126953125,-0.9748992919921875,-0.013946533203125,0.0008392333984375
1775722065189143300,5.913143310546875,-0.9779052734375,-0.0135498046875,0.0050048828125
1775722065199156000,5.923156005859375,-0.9865570068359375,-0.018707275390625,0.0143585205078125
1775722065209169200,5.933169189453125,-0.994110107421875,-0.0281219482421875,0.01983642578125
1775722065219182000,5.94318212890625,-0.99481201171875,-0.0336761474609375,0.0139312744140625
1775722065229196000,5.953196044921875,-0.995086669921875,-0.0304718017578125,-0.0032958984375
1775722065239209200,5.963209228515625,-0.9892425537109375,-0.02178955078125,-0.01434326171875
1775722065249222100,5.97322216796875,-0.98626708984375,-0.0180206298828125,-0.0178680419921875
1775722065259235000,5.983235107421875,-0.9810791015625,-0.022796630859375,-0.0123748779296875
1775722065269248000,5.993248046875,-0.9802398681640625,-0.0306243896484375,-0.0013427734375
1775722065279261200,6.00326123046875,-0.9829864501953125,-0.0390625,0.00762939453125
1775722065289273900,6.01327392578125,-0.985107421875,-0.047027587890625,0.014892578125
1775722065299287000,6.023287109375,-0.9864501953125,-0.0467681884765625,0.01654052734375
1775722065309300200,6.03330029296875,-0.9974212646484375,-0.044677734375,0.0123748779296875
1775722065319313200,6.043313232421875,-1.0035858154296875,-0.0412139892578125,0.0079193115234375
1775722065329326000,6.053326171875,-1.0012664794921875,-0.0378265380859375,0.0019073486328125
1775722065339339000,6.063339111328125,-1.001007080078125,-0.036956787109375,-0.00225830078125
1775722065349352200,6.073352294921875,-1.0054473876953125,-0.038818359375,-0.0006103515625
1775722065359364900,6.08336474609375,-1.0043487548828125,-0.040496826171875,-0.0007171630859375
1775722065369378000,6.0933779296875,-1.0072479248046875,-0.0393218994140625,0.0007781982421875
1775722065379391000,6.103390869140625,-1.01953125,-0.0402069091796875,0.000823974609375
1775722065389404200,6.113404052734375,-1.0199127197265625,-0.0364837646484375,-0.00531005859375
1775722065399417000,6.1234169921875,-1.010986328125,-0.0275421142578125,-0.0121612548828125
1775722065409430000,6.133429931640625,-1.00909423828125,-0.0208282470703125,-0.0160064697265625
1775722065419443200,6.143443115234375,-1.01104736328125,-0.023956298828125,-0.01275634765625
1775722065429456000,6.153455810546875,-1.0101318359375,-0.036651611328125,-0.010406494140625
1775722065439469000,6.163468994140625,-1.012237548828125,-0.0487823486328125,-0.01214599609375
1775722065449482000,6.17348193359375,-1.0204620361328125,-0.0505218505859375,-0.0160980224609375
1775722065459495200,6.1834951171875,-1.033905029296875,-0.0452423095703125,-0.0238037109375
1775722065469508000,6.193508056640625,-1.0365753173828125,-0.0382080078125,-0.0329132080078125
1775722065479521000,6.20352099609375,-1.04296875,-0.03662109375,-0.0280303955078125
1775722065489534200,6.2135341796875,-1.0567474365234375,-0.0406494140625,-0.0150604248046875
1775722065499548000,6.2235478515625,-1.0790252685546875,-0.0463714599609375,-0.0040283203125
1775722065509561000,6.23356103515625,-1.0812530517578125,-0.04534912109375,0.0023651123046875
1775722065519574300,6.24357421875,-1.0879364013671875,-0.033843994140625,0.0032196044921875
1775722065529587000,6.2535869140625,-1.10003662109375,-0.02496337890625,0.0009918212890625
1775722065539600100,6.26360009765625,-1.105255126953125,-0.0227813720703125,-0.0019378662109375
1775722065549613000,6.273613037109375,-1.107330322265625,-0.025421142578125,0.002960205078125
1775722065559626000,6.2836259765625,-1.0999908447265625,-0.032684326171875,0.0075531005859375
1775722065569639000,6.293638916015625,-1.10040283203125,-0.039459228515625,0.013671875
1775722065579652000,6.303652099609375,-1.107330322265625,-0.0443115234375,0.01312255859375
1775722065589665300,6.313665283203125,-1.100006103515625,-0.0458221435546875,0.0062255859375
1775722065599678000,6.323677978515625,-1.08978271484375,-0.045318603515625,-0.0012664794921875
1775722065609691100,6.333691162109375,-1.0906219482421875,-0.045196533203125,-0.0031280517578125
1775722065619704000,6.3437041015625,-1.087646484375,-0.051727294921875,0.00433349609375
1775722065629717000,6.353717041015625,-1.080108642578125,-0.065185546875,0.011077880859375
1775722065639730000,6.36372998046875,-1.07293701171875,-0.070892333984375,0.0129241943359375
1775722065649743000,6.3737431640625,-1.0636444091796875,-0.0659637451171875,0.0089111328125
1775722065659756300,6.38375634765625,-1.0606231689453125,-0.054290771484375,0.001129150390625
1775722065669769000,6.39376904296875,-1.06256103515625,-0.041839599609375,0.0028076171875
1775722065679782100,6.4037822265625,-1.0615692138671875,-0.0403900146484375,0.0153045654296875
1775722065689795000,6.413795166015625,-1.074615478515625,-0.042572021484375,0.0286102294921875
1775722065699808000,6.42380810546875,-1.086151123046875,-0.044342041015625,0.036468505859375
1775722065709821000,6.433821044921875,-1.079742431640625,-0.0445098876953125,0.0391845703125
1775722065719834000,6.443834228515625,-1.0743408203125,-0.0500946044921875,0.040496826171875
1775722065729847000,6.453846923828125,-1.0736541748046875,-0.0564727783203125,0.0312957763671875
1775722065739860000,6.46385986328125,-1.065032958984375,-0.058197021484375,0.020538330078125
1775722065749874200,6.473874267578125,-1.0690765380859375,-0.0575714111328125,0.0102996826171875
1775722065759887000,6.48388720703125,-1.0626678466796875,-0.0548095703125,-0.0016021728515625
1775722065769900000,6.493900146484375,-1.0536956787109375,-0.050323486328125,0.0003662109375
1775722065779913000,6.503912841796875,-1.0547637939453125,-0.0501861572265625,0.0119476318359375
1775722065789926100,6.513926025390625,-1.0522918701171875,-0.0562591552734375,0.0257720947265625
1775722065799939000,6.52393896484375,-1.050933837890625,-0.064849853515625,0.0317230224609375
1775722065809952000,6.533951904296875,-1.0451202392578125,-0.0650177001953125,0.0250244140625
1775722065819965200,6.543965087890625,-1.0411224365234375,-0.05548095703125,0.0108795166015625
1775722065829978000,6.55397802734375,-1.05023193359375,-0.0491943359375,-0.001190185546875
1775722065839991000,6.563990966796875,-1.05389404296875,-0.0400848388671875,-0.006561279296875
1775722065850004000,6.57400390625,-1.0501861572265625,-0.02838134765625,-0.00439453125
1775722065860017200,6.58401708984375,-1.05908203125,-0.02862548828125,0.004364013671875
1775722065870030000,6.594030029296875,-1.06640625,-0.0377197265625,0.008758544921875
1775722065880043300,6.604043212890625,-1.072906494140625,-0.0422515869140625,0.0084991455078125
1775722065890056200,6.61405615234375,-1.0682373046875,-0.0451202392578125,0.0010833740234375
1775722065900069000,6.624069091796875,-1.0564117431640625,-0.05133056640625,-0.006072998046875
1775722065910082000,6.63408203125,-1.0451812744140625,-0.06329345703125,-0.0083160400390625
1775722065920095200,6.64409521484375,-1.034454345703125,-0.07000732421875,-0.0107879638671875
1775722065930108400,6.6541083984375,-1.03082275390625,-0.0717620849609375,-0.0140228271484375
1775722065940121000,6.66412109375,-1.0308837890625,-0.0770721435546875,-0.0194244384765625
1775722065950134300,6.67413427734375,-1.0268096923828125,-0.07733154296875,-0.0219573974609375
1775722065960147200,6.684147216796875,-1.0174407958984375,-0.0690155029296875,-0.0196990966796875
1775722065970160000,6.69416015625,-1.02178955078125,-0.063629150390625,-0.0132293701171875
1775722065980173000,6.704173095703125,-1.0328521728515625,-0.0715789794921875,-0.0050048828125
1775722065990186200,6.714186279296875,-1.0265960693359375,-0.081268310546875,0.0015716552734375
1775722066000199200,6.72419921875,-1.0226898193359375,-0.0916290283203125,-0.003997802734375
1775722066010213000,6.734213134765625,-1.015869140625,-0.09429931640625,-0.015045166015625
1775722066020226300,6.744226318359375,-0.999542236328125,-0.096405029296875,-0.0224151611328125
1775722066030239200,6.7542392578125,-0.9874114990234375,-0.1017608642578125,-0.0290069580078125
1775722066040252200,6.764252197265625,-0.966644287109375,-0.1054229736328125,-0.0309600830078125
1775722066050265000,6.77426513671875,-0.9509735107421875,-0.1001129150390625,-0.024261474609375
1775722066060278300,6.7842783203125,-0.939666748046875,-0.095123291015625,-0.0198822021484375
1775722066070291200,6.794291259765625,-0.93487548828125,-0.089752197265625,-0.0090179443359375
1775722066080304000,6.80430419921875,-0.935302734375,-0.0910491943359375,-0.001861572265625
1775722066090317300,6.8143173828125,-0.94366455078125,-0.092803955078125,-0.0044097900390625
1775722066100330200,6.824330322265625,-0.940216064453125,-0.0897674560546875,-0.0122528076171875
1775722066110343200,6.83434326171875,-0.9330596923828125,-0.0875091552734375,-0.0270233154296875
1775722066120356000,6.844356201171875,-0.9351654052734375,-0.0818939208984375,-0.032501220703125
1775722066130369300,6.854369384765625,-0.936065673828125,-0.0818634033203125,-0.02520751953125
1775722066140382200,6.86438232421875,-0.9352569580078125,-0.0974273681640625,-0.008575439453125
1775722066150395100,6.87439501953125,-0.940765380859375,-0.1141204833984375,0.006622314453125
1775722066160408300,6.884408203125,-0.9536590576171875,-0.1272430419921875,0.0150146484375
1775722066170421200,6.894421142578125,-0.9613494873046875,-0.136962890625,0.0108642578125
1775722066180434200,6.90443408203125,-0.9634857177734375,-0.1346588134765625,0.0057830810546875
1775722066190447000,6.914447021484375,-0.964996337890625,-0.1345672607421875,-0.0010223388671875
1775722066200460300,6.924460205078125,-0.960693359375,-0.13458251953125,-0.0042724609375
1775722066210473200,6.93447314453125,-0.9648284912109375,-0.1371612548828125,-0.0000457763671875
1775722066220486100,6.944486083984375,-0.979400634765625,-0.147918701171875,0.0110321044921875
1775722066230499300,6.954499267578125,-0.9885711669921875,-0.155364990234375,0.0160369873046875
1775722066240512300,6.96451220703125,-0.99090576171875,-0.1503448486328125,0.0137939453125
1775722066250525200,6.974525146484375,-0.9931488037109375,-0.1405181884765625,0.0111541748046875
1775722066260538000,6.9845380859375,-1.00115966796875,-0.1402130126953125,0.0076446533203125
1775722066270552000,6.994552001953125,-0.9893341064453125,-0.1448516845703125,0.0020599365234375
1775722066280565200,7.004565185546875,-0.9613800048828125,-0.1464385986328125,0.0052337646484375
1775722066290578200,7.014578125,-0.9405517578125,-0.1464385986328125,0.0153656005859375
1775722066300591000,7.024591064453125,-0.93731689453125,-0.1487884521484375,0.0285797119140625
1775722066310604000,7.03460400390625,-0.9429931640625,-0.1547088623046875,0.039215087890625
1775722066320617200,7.0446171875,-0.9489898681640625,-0.1562042236328125,0.0433197021484375
1775722066330630400,7.05463037109375,-0.9654998779296875,-0.1541290283203125,0.034637451171875
1775722066340643000,7.06464306640625,-0.968902587890625,-0.1397552490234375,0.0177764892578125
1775722066350656300,7.07465625,-0.962860107421875,-0.1257171630859375,-0.005615234375
1775722066360669200,7.084669189453125,-0.962615966796875,-0.1233062744140625,-0.021209716796875
1775722066370682000,7.09468212890625,-0.955352783203125,-0.1276397705078125,-0.0186004638671875
1775722066380695000,7.104695068359375,-0.955108642578125,-0.1434783935546875,-0.01153564453125
1775722066390708200,7.114708251953125,-0.961700439453125,-0.1751861572265625,-0.0201416015625
1775722066400721200,7.12472119140625,-0.94781494140625,-0.1875762939453125,-0.034515380859375
1775722066410734000,7.134734130859375,-0.9297637939453125,-0.1776580810546875,-0.057769775390625
1775722066420747300,7.144747314453125,-0.918365478515625,-0.17041015625,-0.075042724609375
1775722066430760200,7.15476025390625,-0.912017822265625,-0.1723785400390625,-0.075531005859375
1775722066440773400,7.1647734375,-0.90911865234375,-0.1787567138671875,-0.06182861328125
1775722066450786000,7.1747861328125,-0.9091033935546875,-0.1821746826171875,-0.045745849609375
1775722066460799200,7.18479931640625,-0.9022064208984375,-0.186492919921875,-0.0316314697265625
1775722066470812200,7.194812255859375,-0.905914306640625,-0.20050048828125,-0.02471923828125
1775722066480825000,7.2048251953125,-0.90380859375,-0.21453857421875,-0.0379791259765625
1775722066490838300,7.21483837890625,-0.9059600830078125,-0.2134552001953125,-0.0586395263671875
1775722066500851200,7.224851318359375,-0.9117889404296875,-0.2044525146484375,-0.0842437744140625
1775722066510864400,7.234864501953125,-0.9158935546875,-0.212188720703125,-0.105926513671875
1775722066520877000,7.244876953125,-0.9098663330078125,-0.2339324951171875,-0.1158294677734375
1775722066530890200,7.25489013671875,-0.9105682373046875,-0.25360107421875,-0.1093902587890625
1775722066540903200,7.264903076171875,-0.917694091796875,-0.26556396484375,-0.09002685546875
1775722066550916000,7.274916015625,-0.92529296875,-0.2700958251953125,-0.06512451171875
1775722066560930300,7.284930419921875,-0.936676025390625,-0.2657012939453125,-0.05023193359375
1775722066570943200,7.294943115234375,-0.95635986328125,-0.26287841796875,-0.048614501953125
1775722066580956200,7.3049560546875,-0.97613525390625,-0.2591400146484375,-0.057861328125
1775722066590969000,7.314968994140625,-0.98956298828125,-0.2572021484375,-0.0685577392578125
1775722066600982300,7.324982177734375,-1.01019287109375,-0.2555084228515625,-0.063079833984375
1775722066610995200,7.3349951171875,-1.0329742431640625,-0.25994873046875,-0.0472869873046875
1775722066621008100,7.345008056640625,-1.0484161376953125,-0.27001953125,-0.0237274169921875
1775722066631021300,7.355021240234375,-1.0627288818359375,-0.2820892333984375,-0.001312255859375
1775722066641034200,7.3650341796875,-1.0748748779296875,-0.2980804443359375,0.017364501953125
1775722066651047200,7.375047119140625,-1.0750274658203125,-0.3118438720703125,0.0291595458984375
1775722066661060000,7.38506005859375,-1.0678253173828125,-0.3180084228515625,0.036773681640625
1775722066671073300,7.3950732421875,-1.074432373046875,-0.31365966796875,0.0392913818359375
1775722066681086200,7.405086181640625,-1.0624237060546875,-0.3043212890625,0.0439910888671875
1775722066691099100,7.41509912109375,-1.0410308837890625,-0.2911224365234375,0.0582427978515625
1775722066701112300,7.4251123046875,-1.0216217041015625,-0.2868804931640625,0.07086181640625
1775722066711125200,7.435125244140625,-1.0080718994140625,-0.298095703125,0.0746002197265625
1775722066721138200,7.44513818359375,-1.0057220458984375,-0.3189697265625,0.0598297119140625
1775722066731151000,7.455151123046875,-0.9916534423828125,-0.3271331787109375,0.0269317626953125
1775722066741164300,7.465164306640625,-0.955413818359375,-0.3124237060546875,-0.009735107421875
1775722066751177000,7.475177001953125,-0.92486572265625,-0.2886505126953125,-0.0383453369140625
1775722066761190100,7.485190185546875,-0.9059906005859375,-0.2715301513671875,-0.05023193359375
1775722066771203300,7.495203369140625,-0.8970794677734375,-0.26202392578125,-0.0441741943359375
1775722066781216300,7.50521630859375,-0.8935394287109375,-0.2590484619140625,-0.0294189453125
1775722066791229200,7.515229248046875,-0.8759918212890625,-0.2601165771484375,-0.01312255859375
1775722066801242000,7.5252421875,-0.8624420166015625,-0.2689361572265625,-0.0087738037109375
1775722066811255300,7.53525537109375,-0.8671417236328125,-0.27099609375,-0.03173828125
1775722066821269200,7.545269287109375,-0.8658599853515625,-0.2523193359375,-0.0646514892578125
1775722066831282200,7.5552822265625,-0.86474609375,-0.2274169921875,-0.089813232421875
1775722066841295400,7.56529541015625,-0.875244140625,-0.2202301025390625,-0.0914306640625
1775722066851308000,7.57530810546875,-0.84576416015625,-0.2206878662109375,-0.0688934326171875
1775722066861321200,7.5853212890625,-0.810211181640625,-0.21990966796875,-0.033416748046875
1775722066871334100,7.595334228515625,-0.79296875,-0.22662353515625,-0.0069427490234375
1775722066881346800,7.605346923828125,-0.784088134765625,-0.238555908203125,0.011383056640625
1775722066891359700,7.61535986328125,-0.7816619873046875,-0.2496185302734375,0.0200653076171875
1775722066901373000,7.625373046875,-0.7856903076171875,-0.250823974609375,0.024505615234375
1775722066911385900,7.6353857421875,-0.7970123291015625,-0.2288360595703125,0.0252838134765625
1775722066921398800,7.645398681640625,-0.819580078125,-0.2044219970703125,0.020660400390625
1775722066931411700,7.65541162109375,-0.8374481201171875,-0.1951751708984375,0.0231170654296875
1775722066941425000,7.6654248046875,-0.8572235107421875,-0.1968994140625,0.0310516357421875
1775722066951437800,7.675437744140625,-0.8802947998046875,-0.2121734619140625,0.0424957275390625
1775722066961450800,7.68545068359375,-0.901123046875,-0.2244873046875,0.0511932373046875
1775722066971464000,7.6954638671875,-0.9117889404296875,-0.231292724609375,0.0516510009765625
1775722066981476900,7.705476806640625,-0.9297943115234375,-0.236297607421875,0.048370361328125
1775722066991489800,7.71548974609375,-0.9501953125,-0.248046875,0.038543701171875
1775722067001502700,7.725502685546875,-0.957366943359375,-0.2592315673828125,0.0250701904296875
1775722067011516000,7.735515869140625,-0.9505615234375,-0.26397705078125,0.017547607421875
1775722067021528800,7.74552880859375,-0.9573516845703125,-0.27606201171875,0.01739501953125
1775722067031541800,7.755541748046875,-0.961029052734375,-0.2880706787109375,0.0227813720703125
1775722067041555000,7.765554931640625,-0.9538726806640625,-0.2945556640625,0.0270233154296875
1775722067051567900,7.77556787109375,-0.9515533447265625,-0.30035400390625,0.0253143310546875
1775722067061580800,7.785580810546875,-0.9631195068359375,-0.3067626953125,0.0203857421875
1775722067071593700,7.79559375,-0.9631500244140625,-0.3088226318359375,0.01739501953125
1775722067081607000,7.80560693359375,-0.9517059326171875,-0.3062591552734375,0.014434814453125
1775722067091619800,7.815619873046875,-0.950653076171875,-0.308502197265625,0.011688232421875
1775722067101632800,7.8256328125,-0.947601318359375,-0.3098297119140625,0.002685546875
1775722067111647000,7.83564697265625,-0.9376068115234375,-0.3062591552734375,-0.016357421875
1775722067121659600,7.84565966796875,-0.9296417236328125,-0.2996673583984375,-0.036346435546875
1775722067131672800,7.8556728515625,-0.9219818115234375,-0.2940673828125,-0.0534210205078125
1775722067141685800,7.865685791015625,-0.92193603515625,-0.290496826171875,-0.062286376953125
1775722067151699000,7.875698974609375,-0.920928955078125,-0.2938995361328125,-0.0583648681640625
1775722067161711900,7.8857119140625,-0.9137725830078125,-0.3011016845703125,-0.053558349609375
1775722067171724800,7.895724853515625,-0.9180450439453125,-0.3069000244140625,-0.0509185791015625
1775722067181738000,7.905738037109375,-0.925628662109375,-0.3119354248046875,-0.0537261962890625
1775722067191750700,7.915750732421875,-0.930450439453125,-0.3106231689453125,-0.0558319091796875
1775722067201763800,7.925763916015625,-0.9356231689453125,-0.30609130859375,-0.052032470703125
1775722067211776800,7.93577685546875,-0.940155029296875,-0.3037109375,-0.042236328125
1775722067221790000,7.9457900390625,-0.9404144287109375,-0.3064727783203125,-0.0281982421875
1775722067231802600,7.955802734375,-0.9617919921875,-0.30755615234375,-0.01214599609375
1775722067241815800,7.96581591796875,-0.979339599609375,-0.3036956787109375,-0.0040283203125
1775722067251829000,7.9758291015625,-0.98095703125,-0.2925262451171875,0.0012054443359375
1775722067261841700,7.985841552734375,-0.997467041015625,-0.2829132080078125,0.014312744140625
1775722067271854800,7.995854736328125,-1.0098114013671875,-0.2834930419921875,0.0267486572265625
1775722067281867800,8.00586767578125,-1.00244140625,-0.286529541015625,0.0337677001953125
1775722067291881000,8.015880859375,-0.9889373779296875,-0.2883453369140625,0.0378875732421875
1775722067301893600,8.0258935546875,-0.9775238037109375,-0.2956695556640625,0.0364227294921875
1775722067311906800,8.03590673828125,-0.9754791259765625,-0.2947998046875,0.0334320068359375
1775722067321920000,8.045919921875,-0.9690399169921875,-0.29248046875,0.0326690673828125
1775722067331932700,8.0559326171875,-0.96026611328125,-0.294219970703125,0.0288543701171875
1775722067341945900,8.06594580078125,-0.94561767578125,-0.291595458984375,0.027191162109375
1775722067351958800,8.075958740234375,-0.9355926513671875,-0.2886810302734375,0.0329742431640625
1775722067361972000,8.085971923828126,-0.9356689453125,-0.2968292236328125,0.039031982421875
1775722067371984600,8.095984619140625,-0.927215576171875,-0.3004913330078125,0.0450439453125
1775722067381997800,8.105997802734375,-0.92315673828125,-0.30224609375,0.04705810546875
1775722067392011800,8.11601171875,-0.93023681640625,-0.30615234375,0.0412139892578125
1775722067402024700,8.126024658203125,-0.9185638427734375,-0.306976318359375,0.0340576171875
1775722067412038000,8.136037841796876,-0.898712158203125,-0.3042755126953125,0.0296630859375
1775722067422050800,8.14605078125,-0.8849029541015625,-0.3031768798828125,0.027130126953125
1775722067432063700,8.156063720703125,-0.868896484375,-0.3112945556640625,0.0238189697265625
1775722067442077000,8.166076904296874,-0.8448333740234375,-0.319580078125,0.0186004638671875
1775722067452089900,8.17608984375,-0.821868896484375,-0.3246002197265625,0.0153350830078125
1775722067462102800,8.186102783203125,-0.8166656494140625,-0.3270263671875,0.005828857421875
1775722067472115700,8.19611572265625,-0.8011016845703125,-0.3206329345703125,-0.0082855224609375
1775722067482129000,8.20612890625,-0.7830352783203125,-0.3072967529296875,-0.014892578125
1775722067492141800,8.216141845703126,-0.773590087890625,-0.3046722412109375,-0.007476806640625
1775722067502154800,8.22615478515625,-0.7685089111328125,-0.3166961669921875,0.0035400390625
1775722067512168000,8.23616796875,-0.7592620849609375,-0.3304595947265625,0.008056640625
1775722067522180900,8.246180908203126,-0.7609100341796875,-0.334136962890625,0.0066680908203125
1775722067532193800,8.25619384765625,-0.7774200439453125,-0.33709716796875,-0.0078582763671875
1775722067542206700,8.266206787109375,-0.7720489501953125,-0.327178955078125,-0.0306396484375
1775722067552220000,8.276219970703124,-0.7636566162109375,-0.30853271484375,-0.0493621826171875
1775722067562232800,8.28623291015625,-0.768768310546875,-0.293731689453125,-0.054931640625
1775722067572245800,8.296245849609376,-0.7749481201171875,-0.28643798828125,-0.0533905029296875
1775722067582258700,8.3062587890625,-0.78387451171875,-0.276031494140625,-0.0402984619140625
1775722067592272000,8.31627197265625,-0.7932281494140625,-0.2619781494140625,-0.0228271484375
1775722067602284800,8.326284912109376,-0.8145599365234375,-0.256500244140625,-0.00811767578125
1775722067612297700,8.336297607421875,-0.8369140625,-0.2554779052734375,0.000213623046875
1775722067622311000,8.346310791015625,-0.8390350341796875,-0.243927001953125,0.0060882568359375
1775722067632323800,8.35632373046875,-0.8328857421875,-0.23187255859375,0.0149993896484375
1775722067642336800,8.366336669921875,-0.8283538818359375,-0.2336578369140625,0.028564453125
1775722067652349700,8.376349609375,-0.8263397216796875,-0.2457122802734375,0.0373077392578125
1775722067662363000,8.38636279296875,-0.8258209228515625,-0.257110595703125,0.0376434326171875
1775722067672375800,8.396375732421875,-0.8299407958984375,-0.2606353759765625,0.0221405029296875
1775722067682388700,8.406388671875,-0.8353271484375,-0.2571258544921875,-0.0066680908203125
1775722067692402000,8.41640185546875,-0.8312530517578125,-0.2477264404296875,-0.0350494384765625
1775722067702415600,8.42641552734375,-0.8394622802734375,-0.245208740234375,-0.05621337890625
1775722067712428800,8.4364287109375,-0.861175537109375,-0.2531890869140625,-0.0689849853515625
1775722067722442000,8.44644189453125,-0.87994384765625,-0.26495361328125,-0.0776519775390625
1775722067732454700,8.45645458984375,-0.8924407958984375,-0.265960693359375,-0.0911407470703125
1775722067742467800,8.4664677734375,-0.8811798095703125,-0.2503662109375,-0.1087799072265625
1775722067752480800,8.476480712890625,-0.8798370361328125,-0.2271575927734375,-0.1201019287109375
1775722067762494000,8.486493896484374,-0.8898468017578125,-0.2092437744140625,-0.1188812255859375
1775722067772506600,8.496506591796875,-0.8971710205078125,-0.198577880859375,-0.1002349853515625
1775722067782519800,8.506519775390625,-0.9355621337890625,-0.18853759765625,-0.082489013671875
1775722067792533000,8.516532958984374,-0.973480224609375,-0.1768646240234375,-0.0824737548828125
1775722067802545700,8.526545654296875,-0.967437744140625,-0.156005859375,-0.0865325927734375
1775722067812558800,8.536558837890626,-0.957855224609375,-0.1295166015625,-0.0791168212890625
1775722067822571800,8.54657177734375,-0.955291748046875,-0.1136016845703125,-0.06451416015625
1775722067832585000,8.5565849609375,-0.9417572021484375,-0.109588623046875,-0.0471649169921875
1775722067842597600,8.56659765625,-0.9127960205078125,-0.1087493896484375,-0.033966064453125
1775722067852610800,8.57661083984375,-0.8822021484375,-0.107635498046875,-0.0300750732421875
1775722067862624000,8.5866240234375,-0.8773040771484375,-0.1045989990234375,-0.0340576171875
1775722067872636700,8.59663671875,-0.87200927734375,-0.093780517578125,-0.0499725341796875
1775722067882649900,8.60664990234375,-0.85546875,-0.070556640625,-0.0658416748046875
1775722067892663000,8.6166630859375,-0.8607330322265625,-0.0500335693359375,-0.0756683349609375
1775722067902676000,8.626676025390625,-0.8724517822265625,-0.041168212890625,-0.0814971923828125
1775722067912689000,8.63668896484375,-0.8965301513671875,-0.0382843017578125,-0.08514404296875
1775722067922701800,8.646701904296876,-0.9333038330078125,-0.031463623046875,-0.086090087890625
1775722067932715000,8.656715087890625,-0.971527099609375,-0.0207366943359375,-0.0857086181640625
1775722067942728000,8.66672802734375,-1.008880615234375,-0.0137481689453125,-0.077972412109375
1775722067952740900,8.676740966796874,-1.0640869140625,-0.0170135498046875,-0.06329345703125
1775722067962754000,8.686754150390625,-1.1259765625,-0.03289794921875,-0.0595703125
1775722067972767000,8.69676708984375,-1.1623992919921875,-0.0565032958984375,-0.0654144287109375
1775722067982780000,8.70677978515625,-1.162628173828125,-0.065338134765625,-0.0783233642578125
1775722067992792800,8.716792724609375,-1.1431121826171875,-0.0634918212890625,-0.0855560302734375
1775722068002806800,8.726806884765624,-1.1317901611328125,-0.0623016357421875,-0.07867431640625
1775722068012820000,8.736820068359375,-1.1200408935546875,-0.0733489990234375,-0.06683349609375
1775722068022833000,8.7468330078125,-1.1060791015625,-0.089385986328125,-0.06610107421875
1775722068032846000,8.75684619140625,-1.10064697265625,-0.0904998779296875,-0.0676116943359375
1775722068042858800,8.766858642578125,-1.1102294921875,-0.0882720947265625,-0.0782318115234375
1775722068052872000,8.776871826171876,-1.1247406005859375,-0.0823516845703125,-0.097808837890625
1775722068062885000,8.786885009765625,-1.1458282470703125,-0.0633392333984375,-0.1118621826171875
1775722068072897800,8.796897705078125,-1.18780517578125,-0.0504608154296875,-0.119232177734375
1775722068082911000,8.806910888671876,-1.2339935302734375,-0.0372314453125,-0.12786865234375
1775722068092924000,8.816923828125,-1.2639923095703125,-0.0159454345703125,-0.133636474609375
1775722068102937000,8.82693701171875,-1.3039703369140625,-0.00146484375,-0.13165283203125
1775722068112949800,8.83694970703125,-1.34039306640625,0.0047454833984375,-0.14117431640625
1775722068122963000,8.846962890625,-1.338653564453125,0.0168914794921875,-0.1499481201171875
1775722068132976000,8.85697607421875,-1.33221435546875,0.0348968505859375,-0.1510467529296875
1775722068142988800,8.86698876953125,-1.3332061767578125,0.044158935546875,-0.143463134765625
1775722068153002000,8.877001953125,-1.332611083984375,0.0377044677734375,-0.127685546875
1775722068163015000,8.887014892578126,-1.31390380859375,0.0188140869140625,-0.1085968017578125
1775722068173028000,8.897028076171875,-1.2801971435546875,-0.002655029296875,-0.0924835205078125
1775722068183040800,8.907040771484375,-1.2451019287109375,-0.017242431640625,-0.08172607421875
1775722068193054000,8.917053955078124,-1.19732666015625,-0.028289794921875,-0.08197021484375
1775722068203067000,8.92706689453125,-1.135955810546875,-0.0355224609375,-0.0862579345703125
1775722068213079800,8.937079833984376,-1.099090576171875,-0.04254150390625,-0.0787353515625
1775722068223093000,8.947093017578124,-1.0811767578125,-0.0506744384765625,-0.0726470947265625
1775722068233106000,8.95710595703125,-1.0437164306640625,-0.05267333984375,-0.0701141357421875
1775722068243119000,8.967119140625,-1.0145416259765625,-0.0503387451171875,-0.061920166015625
1775722068253131800,8.9771318359375,-1.0215606689453125,-0.048858642578125,-0.056549072265625
1775722068263145000,8.98714501953125,-1.0359039306640625,-0.0488433837890625,-0.0535736083984375
1775722068273158000,8.997157958984374,-1.0341339111328125,-0.0445556640625,-0.0535736083984375
1775722068283170800,9.0071708984375,-1.0433807373046875,-0.0357818603515625,-0.0541229248046875
1775722068293184000,9.01718408203125,-1.06011962890625,-0.03192138671875,-0.05743408203125
1775722068303197000,9.027197021484374,-1.072357177734375,-0.0344390869140625,-0.056640625
1775722068313210000,9.037210205078125,-1.0891571044921875,-0.0391387939453125,-0.05230712890625
1775722068323223800,9.047223876953124,-1.08758544921875,-0.0452117919921875,-0.0482330322265625
1775722068333237000,9.057237060546875,-1.07843017578125,-0.0485992431640625,-0.0401153564453125
1775722068343250000,9.06725,-1.0742340087890625,-0.0487060546875,-0.029266357421875
1775722068353262800,9.077262939453124,-1.0671844482421875,-0.055206298828125,-0.0182952880859375
1775722068363276000,9.087276123046875,-1.0597381591796875,-0.06011962890625,-0.0113372802734375
1775722068373289000,9.0972890625,-1.0667724609375,-0.0690765380859375,-0.0107574462890625
1775722068383302000,9.107302001953125,-1.074127197265625,-0.072967529296875,-0.010467529296875
1775722068393314800,9.117314697265625,-1.0695037841796875,-0.0672149658203125,-0.0199432373046875
1775722068403328000,9.127327880859376,-1.0652313232421875,-0.05609130859375,-0.0316619873046875
1775722068413341000,9.1373408203125,-1.0621490478515625,-0.05224609375,-0.03948974609375
1775722068423353900,9.147353759765625,-1.05450439453125,-0.0554656982421875,-0.0430755615234375
1775722068433367000,9.157366943359374,-1.0437164306640625,-0.0564117431640625,-0.039794921875
1775722068443380000,9.1673798828125,-1.04766845703125,-0.0532684326171875,-0.03668212890625
1775722068453393000,9.177392822265626,-1.0554351806640625,-0.05224609375,-0.03875732421875
1775722068463405800,9.18740576171875,-1.04534912109375,-0.0453643798828125,-0.0433197021484375
1775722068473419000,9.1974189453125,-1.033447265625,-0.0366668701171875,-0.0482940673828125
1775722068483432000,9.207431884765626,-1.034942626953125,-0.0391387939453125,-0.049468994140625
1775722068493444900,9.21744482421875,-1.0395660400390625,-0.0491790771484375,-0.0509033203125
1775722068503458000,9.2274580078125,-1.0298919677734375,-0.0555267333984375,-0.047760009765625
1775722068513471000,9.237470947265624,-1.022186279296875,-0.04925537109375,-0.0468597412109375
1775722068523484000,9.24748388671875,-1.022918701171875,-0.0358734130859375,-0.05084228515625
1775722068533496800,9.257496826171876,-1.009246826171875,-0.030029296875,-0.0435333251953125
1775722068543510000,9.267510009765624,-0.9940185546875,-0.0300445556640625,-0.0230560302734375
1775722068553523000,9.27752294921875,-0.99188232421875,-0.0454559326171875,-0.0085601806640625
1775722068563536000,9.287535888671876,-0.980621337890625,-0.060028076171875,-0.002655029296875
1775722068573549000,9.297549072265625,-0.96142578125,-0.06195068359375,-0.0069122314453125
1775722068583562000,9.30756201171875,-0.942962646484375,-0.0522613525390625,-0.0168304443359375
1775722068593575000,9.317574951171874,-0.939422607421875,-0.0452423095703125,-0.024139404296875
1775722068603587800,9.327587890625,-0.9394683837890625,-0.0479888916015625,-0.026153564453125
1775722068613601000,9.33760107421875,-0.94329833984375,-0.0519561767578125,-0.0322418212890625
1775722068623614000,9.347614013671874,-0.960357666015625,-0.0502777099609375,-0.0416412353515625
1775722068633628000,9.3576279296875,-0.9846038818359375,-0.0447845458984375,-0.0582122802734375
1775722068643641000,9.36764111328125,-0.99420166015625,-0.040313720703125,-0.076324462890625
1775722068653653800,9.37765380859375,-0.9944305419921875,-0.0299072265625,-0.0832672119140625
1775722068663667000,9.3876669921875,-1.0039825439453125,-0.02099609375,-0.07794189453125
1775722068673680000,9.397679931640624,-1.0114288330078125,-0.0258026123046875,-0.0695037841796875
1775722068683693000,9.407693115234375,-1.0039520263671875,-0.0334625244140625,-0.0654144287109375
1775722068693706000,9.4177060546875,-0.985260009765625,-0.031097412109375,-0.056365966796875
1775722068703719000,9.427718994140625,-0.9657135009765625,-0.0221710205078125,-0.049591064453125
1775722068713732000,9.437732177734375,-0.954498291015625,-0.0224456787109375,-0.0458526611328125
1775722068723744800,9.447744873046876,-0.9514923095703125,-0.0307159423828125,-0.0445098876953125
1775722068733758000,9.457758056640625,-0.9435272216796875,-0.0387420654296875,-0.043060302734375
1775722068743771000,9.46777099609375,-0.933197021484375,-0.0403594970703125,-0.03778076171875
1775722068753784000,9.4777841796875,-0.933135986328125,-0.042877197265625,-0.0262603759765625
1775722068763797000,9.487796875,-0.946136474609375,-0.0499420166015625,-0.0125579833984375
1775722068773810000,9.497809814453126,-0.9569549560546875,-0.058807373046875,-0.0026702880859375
1775722068783823000,9.507822998046874,-0.97430419921875,-0.0651397705078125,-0.0001068115234375
1775722068793835800,9.517835693359375,-1.0009918212890625,-0.0599517822265625,-0.008544921875
1775722068803849000,9.527848876953126,-1.0205535888671875,-0.0491790771484375,-0.02239990234375
1775722068813862000,9.53786181640625,-1.026458740234375,-0.0350341796875,-0.0279693603515625
1775722068823875000,9.547875,-1.029022216796875,-0.03216552734375,-0.0205078125
1775722068833888000,9.557887939453124,-1.042144775390625,-0.043121337890625,-0.0058441162109375
1775722068843901000,9.56790087890625,-1.0543975830078125,-0.054779052734375,0.0057525634765625
1775722068853914000,9.5779140625,-1.0400238037109375,-0.05621337890625,0.0063323974609375
1775722068863926800,9.5879267578125,-1.0184783935546875,-0.0501556396484375,0.005767822265625
1775722068873940000,9.59793994140625,-1.013519287109375,-0.0487060546875,-0.00091552734375
1775722068883953200,9.607953125,-1.0028533935546875,-0.052032470703125,-0.0078887939453125
1775722068893966000,9.617966064453125,-0.9744873046875,-0.0453643798828125,-0.0115814208984375
1775722068903979300,9.627979248046875,-0.9460601806640625,-0.0368194580078125,-0.010284423828125
1775722068913992200,9.6379921875,-0.9365692138671875,-0.03070068359375,-0.001708984375
1775722068924005400,9.64800537109375,-0.9481964111328125,-0.037872314453125,0.0150604248046875
1775722068934018000,9.65801806640625,-0.9605712890625,-0.045623779296875,0.026275634765625
1775722068944031200,9.66803125,-0.9644317626953125,-0.042633056640625,0.02490234375
1775722068954044200,9.678044189453125,-0.9674224853515625,-0.0308380126953125,0.0152740478515625
1775722068964057000,9.68805712890625,-0.982757568359375,-0.0229034423828125,0.007232666015625
1775722068974071300,9.6980712890625,-0.995025634765625,-0.02777099609375,0.0000152587890625
1775722068984084200,9.708084228515625,-1.0061492919921875,-0.03997802734375,-0.00250244140625
1775722068994097200,9.71809716796875,-1.02178955078125,-0.0485076904296875,-0.006439208984375
1775722069004110000,9.728110107421875,-1.01947021484375,-0.0493927001953125,-0.0169830322265625
1775722069014123300,9.738123291015626,-1.01947021484375,-0.047393798828125,-0.0183563232421875
1775722069024136200,9.74813623046875,-1.0188751220703125,-0.0478057861328125,-0.01470947265625
1775722069034149000,9.758149169921875,-1.012176513671875,-0.0534820556640625,-0.0075225830078125
1775722069044162300,9.768162353515624,-1.0047607421875,-0.0633087158203125,-0.0001220703125
1775722069054175200,9.77817529296875,-0.9934844970703125,-0.0666656494140625,-0.00201416015625
1775722069064188200,9.788188232421875,-0.990692138671875,-0.0621185302734375,-0.0095977783203125
1775722069074201000,9.798201171875,-0.9917449951171875,-0.05712890625,-0.0187225341796875
1775722069084214300,9.80821435546875,-0.990692138671875,-0.051300048828125,-0.0235443115234375
1775722069094227200,9.818227294921876,-0.9968109130859375,-0.0529327392578125,-0.0275421142578125
1775722069104240000,9.828240234375,-1.0055084228515625,-0.0570220947265625,-0.027191162109375
1775722069114253300,9.83825341796875,-1.0037078857421875,-0.0531158447265625,-0.02471923828125
1775722069124266200,9.848266357421876,-1.0058746337890625,-0.048370361328125,-0.020263671875
1775722069134279200,9.858279052734375,-1.015777587890625,-0.0455474853515625,-0.0135955810546875
1775722069144292000,9.8682919921875,-1.030303955078125,-0.044647216796875,-0.0033416748046875
1775722069154305300,9.87830517578125,-1.0506134033203125,-0.0432586669921875,-0.001434326171875
1775722069164318200,9.888318115234375,-1.0652618408203125,-0.0442352294921875,-0.0048675537109375
1775722069174331100,9.8983310546875,-1.0715789794921875,-0.041473388671875,-0.0032958984375
1775722069184344300,9.90834423828125,-1.0780181884765625,-0.043121337890625,-0.00042724609375
1775722069194357200,9.918357177734375,-1.0816192626953125,-0.0498809814453125,0.0007171630859375
1775722069204370200,9.9283701171875,-1.067840576171875,-0.054779052734375,0.00018310546875
1775722069214383000,9.938383056640625,-1.059661865234375,-0.0555877685546875,-0.0054779052734375
1775722069224396300,9.948396240234375,-1.0655975341796875,-0.0526580810546875,-0.011993408203125
1775722069234409200,9.9584091796875,-1.06390380859375,-0.0483245849609375,-0.0166473388671875
1775722069244422100,9.968422119140625,-1.0583648681640625,-0.0447235107421875,-0.0254974365234375
1775722069254435300,9.978435302734376,-1.0614776611328125,-0.0427398681640625,-0.02728271484375
1775722069264448300,9.9884482421875,-1.0753173828125,-0.039306640625,-0.0228271484375
1775722069274461200,9.998461181640625,-1.0871734619140625,-0.0418548583984375,-0.020416259765625
1775722069284474000,10.00847412109375,-1.0998687744140625,-0.044952392578125,-0.0154266357421875
1775722069294487300,10.0184873046875,-1.1208343505859375,-0.0420989990234375,-0.011199951171875
1775722069304501200,10.028501220703125,-1.1321563720703125,-0.043487548828125,-0.010101318359375
1775722069314514200,10.03851416015625,-1.129791259765625,-0.0507049560546875,-0.0050506591796875
1775722069324527400,10.04852734375,-1.1291351318359375,-0.063568115234375,0.003387451171875
1775722069334540000,10.0585400390625,-1.125274658203125,-0.07379150390625,0.00732421875
1775722069344553200,10.06855322265625,-1.1161346435546875,-0.0818634033203125,0.0106353759765625
1775722069354566100,10.078566162109375,-1.115325927734375,-0.0861358642578125,0.0144500732421875
1775722069364579300,10.088579345703126,-1.1091461181640625,-0.0879364013671875,0.0157623291015625
1775722069374592300,10.09859228515625,-1.103271484375,-0.0916748046875,0.018310546875
1775722069384605200,10.108605224609375,-1.114227294921875,-0.0930023193359375,0.025604248046875
1775722069394618400,10.118618408203124,-1.1400146484375,-0.09661865234375,0.0295867919921875
1775722069404631000,10.128631103515625,-1.144561767578125,-0.102386474609375,0.0274200439453125
1775722069414644200,10.138644287109376,-1.143646240234375,-0.1009979248046875,0.0260772705078125
1775722069424657200,10.1486572265625,-1.1476593017578125,-0.1006011962890625,0.01507568359375
1775722069434670300,10.15867041015625,-1.1363983154296875,-0.0958099365234375,-0.007049560546875
1775722069444683000,10.16868310546875,-1.1105804443359375,-0.08416748046875,-0.03558349609375
1775722069454696200,10.1786962890625,-1.0837554931640625,-0.073516845703125,-0.0569915771484375
1775722069464709400,10.18870947265625,-1.0518951416015625,-0.067352294921875,-0.05804443359375
1775722069474722000,10.19872216796875,-1.025390625,-0.0692291259765625,-0.04638671875
1775722069484735200,10.2087353515625,-1.0046539306640625,-0.0709228515625,-0.028961181640625
1775722069494748200,10.218748046875,-0.9924774169921875,-0.072601318359375,-0.0097808837890625
1775722069504761300,10.22876123046875,-0.9865875244140625,-0.0803680419921875,0.0020751953125
1775722069514774000,10.23877392578125,-0.9806365966796875,-0.0879669189453125,0.0019073486328125
1775722069524787200,10.248787109375,-0.9861602783203125,-0.0854644775390625,-0.0116119384765625
1775722069534800400,10.25880029296875,-0.99993896484375,-0.0753173828125,-0.0324554443359375
1775722069544813000,10.26881298828125,-1.0132293701171875,-0.0657501220703125,-0.0488433837890625
1775722069554826200,10.278826171875,-1.024078369140625,-0.06591796875,-0.0540313720703125
1775722069564839200,10.288839111328125,-1.026275634765625,-0.07073974609375,-0.046417236328125
1775722069574852400,10.298852294921875,-1.0420684814453125,-0.0814208984375,-0.035614013671875
1775722069584865000,10.308864990234374,-1.0496826171875,-0.0958404541015625,-0.02783203125
1775722069594878200,10.318878173828125,-1.0333404541015625,-0.0948486328125,-0.0240478515625
1775722069604891400,10.328891357421876,-1.02325439453125,-0.08551025390625,-0.029083251953125
1775722069614904000,10.338904052734375,-1.011199951171875,-0.0803985595703125,-0.0352325439453125
1775722069624917200,10.348917236328125,-0.991455078125,-0.0820770263671875,-0.0348968505859375
1775722069634931200,10.35893115234375,-0.983734130859375,-0.088287353515625,-0.0283050537109375
1775722069644944100,10.368944091796875,-0.9818572998046875,-0.0957183837890625,-0.0190277099609375
1775722069654957300,10.378957275390626,-0.985565185546875,-0.1028900146484375,-0.01300048828125
1775722069664970200,10.38897021484375,-0.989990234375,-0.107208251953125,-0.010650634765625
1775722069674983200,10.398983154296875,-0.987579345703125,-0.1104583740234375,-0.010711669921875
1775722069684996000,10.40899609375,-0.991058349609375,-0.116790771484375,-0.0136871337890625
1775722069695009300,10.41900927734375,-1.0007476806640625,-0.1224822998046875,-0.02105712890625
1775722069705022200,10.429022216796875,-0.99493408203125,-0.123291015625,-0.0326690673828125
1775722069715035100,10.43903515625,-0.9906005859375,-0.11712646484375,-0.0410614013671875
1775722069725048300,10.44904833984375,-0.9872283935546875,-0.110992431640625,-0.042022705078125
1775722069735061200,10.459061279296876,-0.986419677734375,-0.1169586181640625,-0.037353515625
1775722069745074200,10.46907421875,-0.9752655029296875,-0.1316680908203125,-0.0349578857421875
1775722069755087000,10.479087158203125,-0.953460693359375,-0.1403656005859375,-0.0333709716796875
1775722069765100300,10.489100341796876,-0.94384765625,-0.140045166015625,-0.0312347412109375
1775722069775113200,10.49911328125,-0.9542388916015625,-0.1313629150390625,-0.018524169921875
1775722069785126100,10.509126220703125,-0.96746826171875,-0.12713623046875,-0.0060882568359375
1775722069795139000,10.51913916015625,-0.9639739990234375,-0.1282196044921875,0.0003509521484375
1775722069805152300,10.52915234375,-0.9664764404296875,-0.1331939697265625,0.001678466796875
1775722069815165200,10.539165283203126,-0.9667816162109375,-0.1408233642578125,-0.0009002685546875
1775722069825178000,10.54917822265625,-0.9547271728515625,-0.1434783935546875,-0.006317138671875
1775722069835191300,10.55919140625,-0.941253662109375,-0.1440887451171875,-0.0109710693359375
1775722069845204200,10.569204345703126,-0.92724609375,-0.154022216796875,-0.021697998046875
1775722069855217200,10.579217041015625,-0.90838623046875,-0.1609954833984375,-0.0291290283203125
1775722069865230000,10.58922998046875,-0.902099609375,-0.16778564453125,-0.029693603515625
1775722069875243000,10.599242919921876,-0.912811279296875,-0.177154541015625,-0.0279541015625
1775722069885256000,10.609255859375,-0.9249420166015625,-0.18524169921875,-0.02752685546875
1775722069895268900,10.619268798828125,-0.9336700439453125,-0.1887359619140625,-0.0331573486328125
1775722069905282000,10.629281982421874,-0.96710205078125,-0.1928253173828125,-0.0419464111328125
1775722069915295000,10.639294921875,-0.9829864501953125,-0.1899261474609375,-0.0525360107421875
1775722069925308000,10.649307861328126,-0.9888763427734375,-0.1834869384765625,-0.0581817626953125
1775722069935321000,10.659321044921874,-0.986419677734375,-0.1788482666015625,-0.0571441650390625
1775722069945334000,10.669333984375,-0.980194091796875,-0.1814117431640625,-0.041717529296875
1775722069955347000,10.679346923828126,-0.9729156494140625,-0.1917266845703125,-0.0217437744140625
1775722069965359900,10.68935986328125,-0.96026611328125,-0.20404052734375,-0.00860595703125
1775722069975374000,10.6993740234375,-0.9547119140625,-0.216827392578125,-0.0074462890625
1775722069985387000,10.709386962890624,-0.9570159912109375,-0.230133056640625,-0.0286865234375
1775722069995400000,10.71939990234375,-0.959686279296875,-0.2321319580078125,-0.058135986328125
1775722070005413000,10.7294130859375,-0.962371826171875,-0.221160888671875,-0.0819854736328125
1775722070015426000,10.739426025390625,-0.968414306640625,-0.2109832763671875,-0.0889129638671875
1775722070025439000,10.74943896484375,-0.98382568359375,-0.2117462158203125,-0.08416748046875
1775722070035452000,10.759451904296874,-1.0017852783203125,-0.22308349609375,-0.0712890625
1775722070045465000,10.769465087890625,-1.01348876953125,-0.23443603515625,-0.0539398193359375
1775722070055478000,10.77947802734375,-1.012603759765625,-0.235565185546875,-0.0407562255859375
1775722070065491000,10.789490966796874,-1.019439697265625,-0.236480712890625,-0.043548583984375
1775722070075504000,10.799504150390625,-1.0290069580078125,-0.23480224609375,-0.0579681396484375
1775722070085517000,10.80951708984375,-1.023193359375,-0.2359771728515625,-0.0771942138671875
1775722070095530000,10.819530029296875,-1.01971435546875,-0.237518310546875,-0.093658447265625
1775722070105543000,10.82954296875,-1.0163116455078125,-0.2334442138671875,-0.1118927001953125
1775722070115556000,10.83955615234375,-1.0088958740234375,-0.2346038818359375,-0.126190185546875
1775722070125568800,10.84956884765625,-0.9987335205078125,-0.2438201904296875,-0.1317291259765625
1775722070135582000,10.85958203125,-0.987213134765625,-0.2542572021484375,-0.126617431640625
1775722070145595100,10.86959521484375,-0.9694671630859375,-0.2641754150390625,-0.1240692138671875
1775722070155608000,10.879608154296875,-0.9583892822265625,-0.2617645263671875,-0.12420654296875
1775722070165621000,10.88962109375,-0.9526824951171875,-0.2501373291015625,-0.12493896484375
1775722070175634000,10.899634033203125,-0.9488525390625,-0.2378692626953125,-0.1233062744140625
1775722070185647000,10.909647216796875,-0.9510650634765625,-0.22491455078125,-0.1139373779296875
1775722070195659800,10.91965966796875,-0.968170166015625,-0.2236328125,-0.106719970703125
1775722070205673000,10.9296728515625,-0.97406005859375,-0.2187957763671875,-0.105194091796875
1775722070215686100,10.93968603515625,-0.9819183349609375,-0.20556640625,-0.1063690185546875
1775722070225699000,10.949698974609374,-1.0076446533203125,-0.1960296630859375,-0.1167144775390625
1775722070235712000,10.9597119140625,-1.014373779296875,-0.1841583251953125,-0.125885009765625
1775722070245725000,10.969724853515626,-1.00701904296875,-0.1623382568359375,-0.129241943359375
1775722070255738000,10.979738037109374,-0.9966278076171875,-0.1463775634765625,-0.1236419677734375
1775722070265750800,10.989750732421875,-0.9770660400390625,-0.1392364501953125,-0.108245849609375
1775722070275764000,10.999763916015626,-0.95623779296875,-0.1417694091796875,-0.085479736328125
1775722070285777200,11.009777099609375,-0.9520111083984375,-0.146270751953125,-0.066253662109375
1775722070295790000,11.0197900390625,-0.951873779296875,-0.1503753662109375,-0.0591888427734375
1775722070305803000,11.029802978515624,-0.925506591796875,-0.14825439453125,-0.0664215087890625
1775722070315816000,11.03981591796875,-0.8937835693359375,-0.1405029296875,-0.07867431640625
1775722070325830000,11.049829833984376,-0.874359130859375,-0.141571044921875,-0.0807037353515625
1775722070335843000,11.059843017578125,-0.85394287109375,-0.150726318359375,-0.073974609375
1775722070345856000,11.06985595703125,-0.833587646484375,-0.1597442626953125,-0.0565185546875
1775722070355869000,11.079868896484374,-0.80938720703125,-0.1824951171875,-0.03839111328125
1775722070365881900,11.0898818359375,-0.7932281494140625,-0.2338409423828125,-0.0324249267578125
1775722070375895000,11.09989501953125,-0.7743072509765625,-0.2722625732421875,-0.036285400390625
1775722070385908000,11.109907958984374,-0.75177001953125,-0.2830657958984375,-0.0436248779296875
1775722070395921000,11.1199208984375,-0.7326812744140625,-0.28021240234375,-0.0515899658203125
1775722070405934000,11.12993408203125,-0.716156005859375,-0.28216552734375,-0.052978515625
1775722070415947000,11.139947021484375,-0.705841064453125,-0.297454833984375,-0.0478363037109375
1775722070425960000,11.1499599609375,-0.7239532470703125,-0.3220367431640625,-0.0441741943359375
1775722070435972900,11.159972900390626,-0.760406494140625,-0.3401947021484375,-0.054168701171875
1775722070445986000,11.169986083984375,-0.7758941650390625,-0.3395538330078125,-0.0710601806640625
1775722070455999000,11.1799990234375,-0.7872314453125,-0.3274993896484375,-0.0834808349609375
1775722070466012000,11.190011962890624,-0.800445556640625,-0.3218994140625,-0.084259033203125
1775722070476024800,11.20002490234375,-0.81573486328125,-0.325225830078125,-0.06622314453125
1775722070486038000,11.2100380859375,-0.8304443359375,-0.3369293212890625,-0.0374298095703125
1775722070496051200,11.22005126953125,-0.84381103515625,-0.35467529296875,-0.0131072998046875
1775722070506064000,11.23006396484375,-0.8697967529296875,-0.362274169921875,0.0022430419921875
1775722070516077000,11.2400771484375,-0.9156494140625,-0.35693359375,0.0006866455078125
1775722070526090000,11.250090087890625,-0.96600341796875,-0.34625244140625,-0.0255889892578125
1775722070536103000,11.26010302734375,-0.9941253662109375,-0.3244476318359375,-0.05841064453125
1775722070546115800,11.27011572265625,-1.0151519775390625,-0.2992401123046875,-0.0732421875
1775722070556129000,11.28012890625,-1.0417938232421875,-0.2817840576171875,-0.07379150390625
1775722070566142200,11.29014208984375,-1.056671142578125,-0.2733001708984375,-0.0557708740234375
1775722070576155000,11.30015478515625,-1.060333251953125,-0.2847747802734375,-0.033966064453125
1775722070586168000,11.31016796875,-1.042877197265625,-0.302520751953125,-0.02178955078125
1775722070596181000,11.320180908203126,-1.0165863037109375,-0.3084259033203125,-0.0226593017578125
1775722070606194000,11.33019384765625,-1.0000762939453125,-0.29534912109375,-0.0344390869140625
1775722070616206800,11.340206787109375,-0.9860076904296875,-0.281494140625,-0.048248291015625
1775722070626220000,11.350219970703124,-0.970245361328125,-0.2772369384765625,-0.0575408935546875
1775722070636233200,11.360233154296875,-0.9634857177734375,-0.28125,-0.0671234130859375
1775722070646246000,11.370245849609375,-0.95623779296875,-0.2887420654296875,-0.0777130126953125
1775722070656259000,11.380259033203124,-0.9535064697265625,-0.29278564453125,-0.08087158203125
1775722070666272000,11.39027197265625,-0.9716033935546875,-0.2951202392578125,-0.079833984375
1775722070676285000,11.400284912109376,-0.994903564453125,-0.3019866943359375,-0.084503173828125
1775722070686299100,11.410299072265625,-1.00372314453125,-0.303009033203125,-0.0969085693359375
1775722070696312000,11.42031201171875,-0.9914703369140625,-0.290130615234375,-0.1148834228515625
1775722070706325000,11.430324951171874,-0.9808197021484375,-0.271728515625,-0.129730224609375
1775722070716338000,11.440337890625,-0.9813690185546875,-0.2637481689453125,-0.1364288330078125
1775722070726351000,11.45035107421875,-0.9688873291015625,-0.2630767822265625,-0.1327972412109375
1775722070736363800,11.46036376953125,-0.9549407958984375,-0.2625885009765625,-0.12646484375
1775722070746377000,11.470376953125,-0.95843505859375,-0.2677764892578125,-0.123077392578125
1775722070756390100,11.48039013671875,-0.9591522216796875,-0.270111083984375,-0.126312255859375
1775722070766403000,11.490403076171875,-0.950714111328125,-0.2613372802734375,-0.1343841552734375
1775722070776416000,11.500416015625,-0.9474639892578125,-0.25177001953125,-0.1333160400390625
1775722070786429000,11.510428955078124,-0.9448089599609375,-0.249359130859375,-0.119171142578125
1775722070796442000,11.520442138671875,-0.934814453125,-0.251617431640625,-0.100128173828125
1775722070806454800,11.530454833984376,-0.9282684326171875,-0.2577972412109375,-0.080291748046875
1775722070816468000,11.540468017578124,-0.9311370849609375,-0.268951416015625,-0.072906494140625
1775722070826481000,11.55048095703125,-0.9274749755859375,-0.269622802734375,-0.087646484375
1775722070836494000,11.560494140625,-0.9243316650390625,-0.2559051513671875,-0.1112213134765625
1775722070846507000,11.570507080078125,-0.9333038330078125,-0.243865966796875,-0.130096435546875
1775722070856520000,11.58052001953125,-0.946319580078125,-0.2461395263671875,-0.1418304443359375
1775722070866533000,11.590533203125,-0.9501495361328125,-0.2539825439453125,-0.1502838134765625
1775722070876545500,11.600545654296875,-0.9431610107421875,-0.2527313232421875,-0.1524200439453125
1775722070886558500,11.610558349609375,-0.938629150390625,-0.2422943115234375,-0.1485443115234375
1775722070896571400,11.6205712890625,-0.9253082275390625,-0.2316131591796875,-0.1402587890625
1775722070906584600,11.63058447265625,-0.9118499755859375,-0.229217529296875,-0.123291015625
1775722070916597200,11.64059716796875,-0.91015625,-0.2366180419921875,-0.1138153076171875
1775722070926610400,11.6506103515625,-0.8970489501953125,-0.23822021484375,-0.111053466796875
1775722070936623600,11.66062353515625,-0.8886871337890625,-0.2320556640625,-0.111053466796875
1775722070946636500,11.670636474609376,-0.881256103515625,-0.2311248779296875,-0.11016845703125
1775722070956649500,11.6806494140625,-0.8709564208984375,-0.2326507568359375,-0.107757568359375
1775722070966662400,11.690662353515625,-0.8613433837890625,-0.2345733642578125,-0.0951080322265625
1775722070976675600,11.700675537109374,-0.8726806640625,-0.2532196044921875,-0.0774993896484375
1775722070986688300,11.710688232421875,-0.8880157470703125,-0.279510498046875,-0.0709228515625
1775722070996701400,11.720701416015626,-0.8890228271484375,-0.297943115234375,-0.08050537109375
1775722071006714600,11.730714599609374,-0.8914642333984375,-0.29583740234375,-0.110931396484375
1775722071016727600,11.7407275390625,-0.899261474609375,-0.27972412109375,-0.1341094970703125
1775722071026740500,11.750740478515626,-0.9058685302734375,-0.2608489990234375,-0.1493682861328125
1775722071036753400,11.76075341796875,-0.9107513427734375,-0.247314453125,-0.1409454345703125
1775722071046766600,11.7707666015625,-0.9301300048828125,-0.254669189453125,-0.1132659912109375
1775722071056780500,11.780780517578124,-0.9417266845703125,-0.2829437255859375,-0.088592529296875
1775722071066793500,11.79079345703125,-0.959503173828125,-0.3116912841796875,-0.0748748779296875
1775722071076806700,11.800806640625,-0.993896484375,-0.3203125,-0.092926025390625
1775722071086819300,11.8108193359375,-0.999725341796875,-0.3059539794921875,-0.1333160400390625
1775722071096832500,11.82083251953125,-0.973297119140625,-0.28765869140625,-0.164764404296875
1775722071106845400,11.830845458984374,-0.95574951171875,-0.272308349609375,-0.1893310546875
1775722071116858400,11.8408583984375,-0.938812255859375,-0.264556884765625,-0.1964111328125
1775722071126871600,11.85087158203125,-0.916534423828125,-0.2576141357421875,-0.1986083984375
1775722071136884500,11.860884521484374,-0.9021148681640625,-0.2563934326171875,-0.1859130859375
1775722071146897700,11.870897705078125,-0.89459228515625,-0.2765960693359375,-0.1759033203125
1775722071156910300,11.880910400390626,-0.8782958984375,-0.2941131591796875,-0.178863525390625
1775722071166923500,11.890923583984375,-0.8461151123046875,-0.292083740234375,-0.1822357177734375
1775722071176936400,11.9009365234375,-0.82470703125,-0.2757720947265625,-0.1889190673828125
1775722071186949400,11.910949462890626,-0.8055877685546875,-0.256683349609375,-0.1875762939453125
1775722071196962600,11.920962646484375,-0.7842864990234375,-0.2440643310546875,-0.1712493896484375
1775722071206975500,11.9309755859375,-0.7718658447265625,-0.2418060302734375,-0.144866943359375
1775722071216988700,11.94098876953125,-0.765594482421875,-0.2497711181640625,-0.11846923828125
1775722071227001300,11.95100146484375,-0.770263671875,-0.25537109375,-0.103546142578125
1775722071237014500,11.9610146484375,-0.774688720703125,-0.2490081787109375,-0.1027984619140625
1775722071247027500,11.97102734375,-0.778045654296875,-0.2277984619140625,-0.1066741943359375
1775722071257040400,11.981040283203125,-0.7896728515625,-0.2111968994140625,-0.1146392822265625
1775722071267053300,11.99105322265625,-0.7991790771484375,-0.2042236328125,-0.1225433349609375
1775722071277066500,12.00106640625,-0.7964324951171875,-0.2027587890625,-0.1192474365234375
1775722071287079700,12.01107958984375,-0.795196533203125,-0.2103271484375,-0.101593017578125
1775722071297092400,12.02109228515625,-0.8026885986328125,-0.227691650390625,-0.0746612548828125
1775722071307105500,12.03110546875,-0.80902099609375,-0.2429351806640625,-0.044189453125
1775722071317118500,12.041118408203126,-0.8121490478515625,-0.2566070556640625,-0.024383544921875
1775722071327131400,12.05113134765625,-0.7958831787109375,-0.270111083984375,-0.026885986328125
1775722071337144300,12.061144287109375,-0.780548095703125,-0.27117919921875,-0.0413055419921875
1775722071347157500,12.071157470703126,-0.7717132568359375,-0.2681121826171875,-0.0569305419921875
1775722071357170700,12.081170654296875,-0.7639312744140625,-0.2677001953125,-0.059234619140625
1775722071367183400,12.091183349609375,-0.76153564453125,-0.2693939208984375,-0.0604248046875
1775722071377196500,12.101196533203124,-0.764434814453125,-0.2769012451171875,-0.058349609375
1775722071387209500,12.11120947265625,-0.7534942626953125,-0.2738189697265625,-0.06573486328125
1775722071397222400,12.121222412109375,-0.742156982421875,-0.2530364990234375,-0.0838775634765625
1775722071407235300,12.1312353515625,-0.7535552978515625,-0.2187042236328125,-0.1072540283203125
1775722071417248500,12.14124853515625,-0.77886962890625,-0.167633056640625,-0.131103515625
1775722071427261700,12.15126171875,-0.79541015625,-0.1103057861328125,-0.128631591796875
1775722071437274400,12.1612744140625,-0.8208465576171875,-0.076202392578125,-0.095855712890625
1775722071447288600,12.17128857421875,-0.8340911865234375,-0.0826568603515625,-0.0564727783203125
1775722071457301500,12.181301513671874,-0.829376220703125,-0.1009521484375,-0.025177001953125
1775722071467314400,12.191314453125,-0.806365966796875,-0.110565185546875,-0.0193023681640625
1775722071477327600,12.20132763671875,-0.7891387939453125,-0.1056365966796875,-0.0298919677734375
1775722071487340500,12.211340576171875,-0.7925872802734375,-0.0908660888671875,-0.04241943359375
1775722071497353500,12.221353515625,-0.798583984375,-0.09393310546875,-0.0594635009765625
1775722071507366400,12.231366455078126,-0.7916717529296875,-0.1046142578125,-0.0740509033203125
1775722071517379600,12.241379638671875,-0.78741455078125,-0.1112518310546875,-0.0796661376953125
1775722071527392500,12.251392578125,-0.820831298828125,-0.119110107421875,-0.0736846923828125
1775722071537405400,12.261405517578124,-0.8629302978515625,-0.127410888671875,-0.04852294921875
1775722071547418600,12.271418701171875,-0.87799072265625,-0.1300048828125,-0.0268402099609375
1775722071557431600,12.281431640625,-0.890411376953125,-0.1387176513671875,0.00152587890625
1775722071567444500,12.291444580078124,-0.92523193359375,-0.1606903076171875,0.02984619140625
1775722071577457400,12.30145751953125,-0.97503662109375,-0.161773681640625,0.032073974609375
1775722071587470600,12.311470703125,-0.9942779541015625,-0.1435089111328125,0.01556396484375
1775722071597483500,12.3214833984375,-1.0536041259765625,-0.108612060546875,0.0022125244140625
1775722071607496400,12.331496337890625,-1.144073486328125,-0.0771636962890625,-0.0095672607421875
1775722071617509400,12.34150927734375,-1.216888427734375,-0.0704498291015625,-0.0404510498046875
1775722071627522600,12.3515224609375,-1.285919189453125,-0.0565948486328125,-0.1022186279296875
1775722071637535500,12.361535400390625,-1.35870361328125,-0.016693115234375,-0.17333984375
1775722071647548400,12.37154833984375,-1.4492034912109375,0.041259765625,-0.2362060546875
1775722071657561600,12.3815615234375,-1.5275421142578125,0.0923309326171875,-0.2859649658203125
1775722071667574500,12.391574462890626,-1.533294677734375,0.131683349609375,-0.29248046875
1775722071677587500,12.40158740234375,-1.51055908203125,0.144195556640625,-0.2529144287109375
1775722071687600400,12.411600341796875,-1.4958953857421875,0.1004638671875,-0.1545257568359375
1775722071697613600,12.421613525390624,-1.459686279296875,0.016265869140625,-0.048248291015625
1775722071707626500,12.43162646484375,-1.403778076171875,-0.0705413818359375,0.0401611328125
1775722071717639400,12.441639404296875,-1.366668701171875,-0.1216888427734375,0.0908966064453125
1775722071727652600,12.451652587890624,-1.2895660400390625,-0.137542724609375,0.1024932861328125
1775722071737665500,12.46166552734375,-1.2111663818359375,-0.1419677734375,0.0905303955078125
1775722071747678500,12.471678466796876,-1.17694091796875,-0.1508636474609375,0.0754852294921875
1775722071757691400,12.48169140625,-1.143951416015625,-0.1759796142578125,0.056427001953125
1775722071767704600,12.49170458984375,-1.119964599609375,-0.1888885498046875,0.0369110107421875
1775722071777717500,12.501717529296876,-1.12359619140625,-0.178253173828125,0.0186767578125
1775722071787730400,12.51173046875,-1.1287689208984375,-0.167572021484375,-0.0015411376953125
1775722071797743600,12.52174365234375,-1.134796142578125,-0.1544952392578125,-0.0191650390625
1775722071807756500,12.531756591796874,-1.13665771484375,-0.1347808837890625,-0.029052734375
1775722071817769500,12.54176953125,-1.150177001953125,-0.1170501708984375,-0.032073974609375
1775722071827782400,12.551782470703126,-1.169921875,-0.1081390380859375,-0.033477783203125
1775722071837795600,12.561795654296875,-1.1826324462890625,-0.09979248046875,-0.0369415283203125
1775722071847809500,12.5718095703125,-1.196441650390625,-0.092315673828125,-0.0431976318359375
1775722071857822500,12.581822509765624,-1.1940155029296875,-0.0802001953125,-0.049224853515625
1775722071867835600,12.591835693359375,-1.1857452392578125,-0.0641632080078125,-0.0487518310546875
1775722071877849000,12.60184912109375,-1.1763763427734375,-0.0609588623046875,-0.050445556640625
1775722071887862300,12.6118623046875,-1.16143798828125,-0.069793701171875,-0.0542449951171875
1775722071897875200,12.621875244140625,-1.1257171630859375,-0.0782470703125,-0.06207275390625
1775722071907888000,12.63188818359375,-1.0783843994140625,-0.0767974853515625,-0.0701446533203125
1775722071917901300,12.6419013671875,-1.0282745361328125,-0.070220947265625,-0.06304931640625
1775722071927914200,12.651914306640625,-0.989715576171875,-0.0743408203125,-0.0455780029296875
1775722071937927200,12.66192724609375,-0.959686279296875,-0.086456298828125,-0.033111572265625
1775722071947940000,12.671940185546875,-0.94561767578125,-0.1018524169921875,-0.0208587646484375
1775722071957953300,12.681953369140626,-0.9513702392578125,-0.1080474853515625,-0.0151519775390625
1775722071967966000,12.691966064453124,-0.9620513916015625,-0.1034393310546875,-0.0302276611328125
1775722071977979100,12.701979248046875,-0.9758453369140625,-0.094268798828125,-0.0521392822265625
1775722071987992300,12.711992431640626,-1.0115966796875,-0.089019775390625,-0.0686187744140625
1775722071998005200,12.722005126953125,-1.063323974609375,-0.0928192138671875,-0.0826568603515625
1775722072008018200,12.73201806640625,-1.0814056396484375,-0.0971832275390625,-0.093780517578125
1775722072018031000,12.742031005859374,-1.0774993896484375,-0.089935302734375,-0.0877227783203125
1775722072028044300,12.752044189453125,-1.068817138671875,-0.084197998046875,-0.064697265625
1775722072038057200,12.76205712890625,-1.05804443359375,-0.0947723388671875,-0.0357666015625
1775722072048070100,12.772070068359374,-1.0336151123046875,-0.1197357177734375,-0.016265869140625
1775722072058083300,12.782083251953125,-0.998260498046875,-0.135986328125,-0.0016632080078125
1775722072068096300,12.79209619140625,-0.977874755859375,-0.1370849609375,-0.0002288818359375
1775722072078109200,12.802109130859375,-0.9922637939453125,-0.135955810546875,-0.0091552734375
1775722072088122000,12.8121220703125,-1.0117950439453125,-0.1286468505859375,-0.0297698974609375
1775722072098135300,12.82213525390625,-1.017425537109375,-0.1124114990234375,-0.0445709228515625
1775722072108148200,12.832148193359375,-1.036224365234375,-0.100341796875,-0.0388641357421875
1775722072118161200,12.8421611328125,-1.0683746337890625,-0.096527099609375,-0.019683837890625
1775722072128174300,12.85217431640625,-1.09515380859375,-0.10113525390625,-0.014312744140625
