time,seconds_elapsed,z,y,x
1775722059336520000,0.06052001953125,0.14817279190421104,-0.06986753614805638,0.08875000433772802
1775722059346533000,0.070533203125,0.19036884259879588,0.08599283285038545,0.11315242325896396
1775722059356546000,0.080546142578125,0.10560498528778553,0.06279230053219943,0.1198377645080909
1775722059366559000,0.09055908203125,0.05175882880985737,-0.0034703064590692516,0.09333254635501652
1775722059376572000,0.100572021484375,0.04873568159639835,-0.021450839106645435,0.114611846553348
1775722059386585000,0.110585205078125,-0.025229718324542044,-0.045706524767260996,0.12091931266710161
1775722059396598000,0.120597900390625,-0.09362170202732085,-0.08003461856571957,0.07294206648888066
1775722059406611000,0.13061083984375,-0.18318623761832714,-0.10157083440087734,0.029808273719879798
1775722059416624000,0.1406240234375,-0.24287293681800365,-0.08065161795290186,0.023890300114057024
1775722059426637000,0.150636962890625,-0.3035124066978693,-0.02003003078959882,0.0886601340971887
1775722059436650000,0.16064990234375,-0.30974867073893547,0.057025809427350756,0.19273043889729305
1775722059446663000,0.170662841796875,-0.1933779612869024,0.05540392558025196,0.1447634583847597
1775722059456676000,0.180676025390625,-0.0966127005368471,-0.007306158294901251,0.046107241922104726
1775722059466688800,0.190688720703125,-0.09715922850370406,-0.05836765249036252,-0.025898735593329184
1775722059476702000,0.200701904296875,0.018500702330470083,-0.03477528044353239,-0.06563964822075795
1775722059486715100,0.210715087890625,0.0414788423359394,0.03020779899805784,0.03119183703276794
1775722059496728000,0.22072802734375,-0.14792437010109424,0.12329581427378579,0.03404438376954058
1775722059506741000,0.230740966796875,-0.1298217271775007,0.10157613163050264,-0.05676777041251771
1775722059516754000,0.24075390625,-0.07988543761968613,0.08948699510907754,-0.131639937314298
1775722059526767000,0.25076708984375,0.030451252365112303,0.14840201581651344,-0.1484576915265061
1775722059536779800,0.26077978515625,0.2189800200551748,0.18343095136070622,-0.16027075105290858
1775722059546793000,0.27079296875,0.2546849551647901,0.15815291864871978,-0.11759096282883547
1775722059556806100,0.28080615234375,0.3186731509506702,0.07322404350172727,-0.054650887856399634
1775722059566819800,0.29081982421875,0.4087210861444473,-0.02680267586284317,-0.047925205463729796
1775722059576833000,0.3008330078125,0.455412110170722,-0.06361827562809921,-0.007816409371979534
1775722059586846000,0.310845947265625,0.4843365913599729,-0.011945143207162619,0.025046708174142986
1775722059596859000,0.32085888671875,0.46719431790113447,0.08637330180164426,0.0010353526634164154
1775722059606872000,0.3308720703125,0.3765747202992439,0.11770761147844605,-0.03365714943406638
1775722059616885000,0.340885009765625,0.2025800893962383,0.08507476815739647,-0.06376679898700677
1775722059626898200,0.350898193359375,-0.1140542492032051,0.02756382154462626,-0.09292014789553359
1775722059636910800,0.360910888671875,-0.37925183055400846,-0.019904728476074524,-0.13621389416633173
1775722059646924000,0.370924072265625,-0.4129828352421522,0.015908283817628398,-0.1308437271689996
1775722059656937000,0.38093701171875,-0.4637637589305639,0.10150165075534023,-0.07140637222104705
1775722059666950000,0.390949951171875,-0.7154676524579524,0.09232486714981496,-0.042010958184953776
1775722059676963000,0.400963134765625,-0.6476718810826539,-0.003202805496146902,-0.04873363576978445
1775722059686976000,0.41097607421875,-0.4663292255043983,-0.027000013649405446,-0.036126886848732824
1775722059696989200,0.4209892578125,-0.3785743696838617,0.0019173197047843132,-0.00010562493209727107
1775722059707001900,0.431001953125,-0.23357494711875915,0.02976956741099711,0.04584051727731712
1775722059717015000,0.44101513671875,-0.06992869175076484,0.028161287397565318,0.04655529621685855
1775722059727028000,0.451028076171875,0.15099603263139724,-0.007011134570813737,0.06683556630732491
1775722059737041000,0.461041015625,0.2589677470505237,-0.06192838631239719,0.05739267911151982
1775722059747054000,0.47105419921875,0.35204759728610513,-0.1147921350236982,0.06374107089070603
1775722059757067000,0.48106689453125,0.418298477306962,-0.13460153619940393,0.06287423406145536
1775722059767080200,0.491080078125,0.3184171303629875,-0.14512207169723695,0.030367199944006277
1775722059777092900,0.5010927734375,0.1719511423766613,-0.1826042364792898,-0.04278359565841965
1775722059787106000,0.51110595703125,0.025826515173912046,-0.1461052101162262,-0.055689866382163014
1775722059797120000,0.5211201171875,-0.3235048088908195,-0.07833482891051098,-0.03809994048736989
1775722059807133000,0.5311328125,-0.6519324611365794,-0.0390201743045589,-0.09184478288213722
1775722059817146000,0.54114599609375,-0.7108084284752607,0.005617718867480289,-0.16816610741261392
1775722059827159000,0.551158935546875,-0.609677958253026,0.08300054656607099,-0.1911273876148276
1775722059837172000,0.561171875,-0.5437795449316501,0.11912397194923832,-0.07494878493510186
1775722059847185000,0.571184814453125,-0.4959942959278822,0.04400367550528608,0.15295656471517868
1775722059857198000,0.581197998046875,-0.3091764238089323,-0.08579550191368907,0.34980365428421645
1775722059867210800,0.591210693359375,-0.02015782188773155,-0.14207787256259471,0.41753169418554753
1775722059877224000,0.601223876953125,0.16620295411348343,-0.05546239603552967,0.39593993050456044
1775722059887236900,0.61123681640625,0.2188023254007101,0.0020172215739265083,0.32215967789217825
1775722059897250000,0.62125,0.21502631399333474,0.019351209079427643,0.2531966163031757
1775722059907263000,0.631262939453125,0.15187164642214773,0.011048011704348028,0.17168028954602776
1775722059917276000,0.64127587890625,0.07974573688805103,-0.02389340082001872,0.11940629602195695
1775722059927289000,0.6512890625,-0.011552490627765654,-0.023715770097635685,0.06371986370589584
1775722059937301800,0.6613017578125,-0.05440671297013759,-0.022209018796496092,-0.017340070186415688
1775722059947315000,0.67131494140625,-0.008880641070008277,0.010876746790669857,-0.0977060943972785
1775722059957328000,0.681327880859375,0.088225980463624,0.04083250725641847,-0.11542807657336815
1775722059967341000,0.691341064453125,0.21838789938092232,0.026470676562655716,-0.09228465387043543
1775722059977354000,0.70135400390625,0.2496709263950586,-0.048456325798900794,-0.04420437657600269
1775722059987367000,0.711366943359375,0.2765074953943491,-0.05867408809103071,-0.024772165549080818
1775722059997380000,0.721380126953125,0.4215712153673172,-0.026102126378053796,-0.02249139766814187
1775722060007392800,0.731392822265625,0.4114712616354227,0.0743532849936746,-0.01955616620015353
1775722060017406000,0.741406005859375,0.3457312537461519,0.09262617905079387,-0.02029127554167062
1775722060027419000,0.7514189453125,0.2614624864757061,0.057595818734494965,0.06904659342030063
1775722060037432800,0.761432861328125,0.09012041590809822,0.04946722900765017,0.1669839118907228
1775722060047446000,0.771446044921875,-0.0049205052673816675,0.058731544766155996,0.16745373962586746
1775722060057459000,0.781458984375,-0.023830957442522047,0.09621813912815413,0.14096147228591144
1775722060067472000,0.791471923828125,0.0028659108251333234,0.13801829497348517,0.16499946007523686
1775722060077484800,0.80148486328125,0.059034372770786284,0.10029078626139089,0.1993898602538742
1775722060087498000,0.811498046875,0.14828911176025866,0.048255295934621245,0.21282482189368454
1775722060097511200,0.82151123046875,0.20571488029062746,0.024823859203699974,0.18774229348748922
1775722060107523800,0.83152392578125,0.11790624845623969,-0.020045484087057412,0.12494702468006871
1775722060117537000,0.841537109375,0.1372597682237625,-0.0028690891629084944,0.05584979705107398
1775722060127550000,0.851550048828125,0.1690139198809862,0.05949937820034101,0.0031810229226015506
1775722060137563000,0.86156298828125,0.10723697040379047,0.11396520094657316,-0.003038015989027917
1775722060147575800,0.871575927734375,0.062087330600619314,0.07025823423238471,0.04165574240596034
1775722060157589000,0.881589111328125,0.06169102475941181,-0.022879465403966605,0.11142280472107231
1775722060167602000,0.891601806640625,0.060391048076748846,-0.08872149062929674,0.13123487277789972
1775722060177614800,0.90161474609375,-0.02695581146478653,-0.07036956738606095,0.11559709473103284
1775722060187628000,0.9116279296875,-0.019741057780385016,0.003434175699763,0.07151241727825254
1775722060197641000,0.921640869140625,0.02247720474600792,0.05291773478770628,0.02361446514762938
1775722060207654000,0.93165380859375,-0.07146890693008899,0.020857932981103656,-0.02273896095473319
1775722060217666800,0.941666748046875,-0.10256430241763591,-0.07592108229966833,-0.055602462093345816
1775722060227680000,0.951679931640625,-0.0739823510557413,-0.07194461641674861,-0.05352888895599171
1775722060237693000,0.96169287109375,-0.08958265576958656,0.00006621537031605839,-0.011875338507117703
1775722060247705900,0.971705810546875,-0.13633856172561645,0.02891134771304205,-0.029540384597890077
1775722060257719000,0.981718994140625,-0.09168868813812732,-0.00987843820201233,-0.02371363293947652
1775722060267732000,0.99173193359375,-0.04375964674949646,-0.03209522017985582,0.01810246939365752
1775722060277746000,1.001745849609375,0.02317161675095558,-0.03210124806184322,0.0072263162580318745
1775722060287758800,1.0117587890625,0.0584019200861454,0.006623601124528795,-0.011151006287941708
1775722060297772000,1.02177197265625,0.08946984304487705,0.044255814502295106,-0.083080607798649
1775722060307785000,1.031784912109375,0.17367782003879545,0.03233841781858355,-0.13343491270598024
1775722060317798000,1.0417978515625,0.15839666427671908,0.050438558257836844,-0.14868579206080176
1775722060327811000,1.05181103515625,0.08941431346535682,0.07137233295412734,-0.15760911236191166
1775722060337823700,1.06182373046875,0.04018237278461456,0.043570261657238006,-0.14115820043440908
1775722060347837000,1.0718369140625,0.02309796699285507,0.03960232614064589,-0.11440638710912317
1775722060357849900,1.081849853515625,0.03261573692262173,0.04983949638614431,-0.1061154738268815
1775722060367863000,1.091863037109375,0.04631400740742683,0.019832663320284334,-0.10849972034860401
1775722060377876000,1.1018759765625,0.08561492118239403,-0.013285835492704063,-0.06264637098917737
1775722060387889000,1.111888916015625,0.10070493828654288,-0.0475329912757501,-0.06148194858599454
1775722060397902000,1.121902099609375,0.10116144988238811,-0.09822201716331765,-0.08712516134856269
1775722060407914800,1.131914794921875,0.0631897388845682,-0.06650357614029198,-0.06542038401346653
1775722060417928000,1.141927978515625,-0.13906535634100436,-0.04348325922721997,-0.04946352094691246
1775722060427940900,1.15194091796875,-0.16479951705634593,-0.033137641904875635,-0.11617343331426382
1775722060437954000,1.1619541015625,-0.08755378029048443,0.08391381635293364,-0.10450171848731114
1775722060447967000,1.171967041015625,-0.13761924918591975,0.15082531570699065,0.004200904022250324
1775722060457980000,1.18197998046875,-0.18116437640190122,0.06851915374640374,0.10735606673881411
1775722060467993000,1.1919931640625,-0.12957622798383236,-0.04790147752827033,0.1550945722577162
1775722060478005800,1.202005859375,-0.05932604919373989,-0.06785636072242632,0.20328522372459992
1775722060488019000,1.21201904296875,0.02305529689490795,-0.04673327399911359,0.2100869944276288
1775722060498031900,1.222031982421875,0.13601181398928164,-0.05638862576866522,0.16352767048962413
1775722060508045800,1.2320458984375,0.2237771912038326,-0.009152096688840537,0.1257130497496575
1775722060518059000,1.24205908203125,0.27233400910198685,-0.014447335286438464,0.1186651405321434
1775722060528072000,1.252072021484375,0.3324076617926359,-0.02913412361824885,0.11372689867867156
1775722060538084900,1.2620849609375,0.26049627179205415,-0.05720995208891108,0.0876383350350894
1775722060548097800,1.272097900390625,0.2165063234180212,-0.0745490998267196,0.036968415706790984
1775722060558111000,1.282111083984375,0.1524801337093115,-0.037616193824727084,-0.00726010892977938
1775722060568124200,1.292124267578125,0.006290040054917335,0.004638583053462207,0.000005078033916652202
1775722060578136800,1.30213671875,-0.13557049996256829,0.011016557120159268,0.029924488544650373
1775722060588150000,1.31214990234375,-0.16599661788642406,0.045029885881021615,0.051251445543300356
1775722060598163000,1.322162841796875,-0.13455752352774142,0.05725746275875717,0.086799838384334
1775722060608175900,1.33217578125,-0.1633493182480335,0.06874026741748675,0.16073825896680355
1775722060618188800,1.342188720703125,-0.17378361850082874,0.049393433119077235,0.2468444890637882
1775722060628202000,1.352201904296875,-0.31036651037633417,-0.03658182754199952,0.2545486702329479
1775722060638215000,1.36221484375,-0.3115712099909782,-0.06763046127837151,0.1557112611176446
1775722060648227800,1.372227783203125,-0.1768698940783739,-0.017620284500438718,0.0636271439211443
1775722060658241000,1.382240966796875,-0.1673667371958494,0.08672991495328024,0.03171763730542734
1775722060668254000,1.39225390625,-0.10659633441269398,0.1148620036558248,0.05300159541256726
1775722060678267000,1.402266845703125,-0.018017302727699278,0.01270503993006423,0.032047709510009736
1775722060688279800,1.41227978515625,-0.008727496334910392,-0.020247509465180336,0.01909799237018451
1775722060698293000,1.42229296875,0.061196519240736956,-0.01611599915102124,0.0059785081540234385
1775722060708306000,1.432305908203125,0.20897125173807143,0.007667575485818087,0.027959179821051654
1775722060718318800,1.44231884765625,0.2656780583441257,0.011048121302202344,0.050379905139468606
1775722060728332000,1.45233203125,0.28087445843219755,-0.005652783330995589,0.03935690001221374
1775722060738345000,1.462344970703125,0.19294190795719623,-0.04978281602915376,0.002768058207537979
1775722060748359000,1.47235888671875,0.12903729880154133,-0.03032585415346548,-0.048398302868194874
1775722060758371800,1.482371826171875,0.12544248917996884,0.04116102682473138,-0.0860808764600195
1775722060768385000,1.492385009765625,0.07094225270748138,0.10038487601932138,-0.06752258045710623
1775722060778398000,1.50239794921875,-0.032632688057422636,0.05570334691824391,-0.003603394786827266
1775722060788411000,1.512410888671875,-0.13453414265215397,-0.031170232555735856,0.05514500064942986
1775722060798424000,1.522424072265625,-0.1584872651696205,-0.0685316479017958,0.07684513834202662
1775722060808437000,1.53243701171875,-0.13102175061702728,-0.03655106707755476,0.06532013850938528
1775722060818450000,1.542449951171875,-0.16719547228217124,0.01164690917925909,0.04741040607569739
1775722060828462800,1.552462890625,-0.2309311546117067,0.030162608149461447,0.027457203381974247
1775722060838476000,1.56247607421875,-0.1596077936321497,0.024413068179413674,-0.00014682459216564892
1775722060848489000,1.572489013671875,-0.046613282614946364,0.06677424630783498,0.020080957259237767
1775722060858502000,1.582501953125,-0.001900280663371086,0.08110697877127676,0.024956162080168723
1775722060868514800,1.592514892578125,0.03504091824293137,0.0237580566030927,0.01690437304973602
1775722060878528000,1.602528076171875,0.07367839967310429,0.010376688314042985,0.00047351752957329154
1775722060888540700,1.612540771484375,0.08945932165086269,0.000494779513310641,-0.016291136522218586
1775722060898553900,1.622553955078125,0.09612988545596599,0.00280965059325099,-0.03334790538838133
1775722060908567000,1.632567138671875,0.029947979018092152,-0.027433073587715625,-0.036396990760695185
1775722060918579700,1.642579833984375,0.03620762393474579,-0.02469365695277229,-0.059571365724317725
1775722060928593000,1.652593017578125,0.1322398942351341,0.00708614060236141,-0.06063599928114563
1775722060938605800,1.662605712890625,0.17499357881247996,0.03010826588002965,-0.02833665309762582
1775722060948619000,1.672618896484375,0.1908428898513317,0.02264397614765912,0.01318780021201819
1775722060958631700,1.682631591796875,0.09319558556973934,0.002568316118046641,0.051031902774795884
1775722060968646000,1.69264599609375,0.024335984355211258,0.0007074906822293997,0.05960271071065217
1775722060978658800,1.702658935546875,0.028036592438817023,0.042679358965810384,0.02181130644949153
1775722060988671700,1.712671630859375,-0.021565350598096847,0.0765608049753122,0.005593801419064402
1775722060998685000,1.722684814453125,-0.10110475125908851,0.08980272826105355,0.020920093230810014
1775722061008697900,1.73269775390625,-0.09415478599071501,0.05387770239366218,0.08501521998988464
1775722061018710800,1.742710693359375,-0.07240881812870502,0.01846698272395879,0.11933958746129646
1775722061028724000,1.752723876953125,-0.1464355928480625,0.01052011537272483,0.141761554888729
1775722061038737000,1.76273681640625,-0.1743862605690956,0.010697499499935656,0.1486840476282872
1775722061048749800,1.772749755859375,-0.10722235735654831,0.029428960112668573,0.16421738805314526
1775722061058762800,1.7827626953125,-0.08934300179481505,0.044375678022298956,0.1587164160166867
1775722061068776000,1.79277587890625,-0.09585983634293078,0.040097178719192744,0.15309099561665207
1775722061078788900,1.802788818359375,-0.03501987545490265,0.01405906662121415,0.15300826750295235
1775722061088801800,1.8128017578125,0.038709962144494056,-0.01470357506982982,0.18065953215230254
1775722061098815000,1.82281494140625,0.07116437102556228,-0.013393679781351238,0.18971465300638227
1775722061108828000,1.832827880859375,0.07044950075447559,-0.005033774649817496,0.12644980305898934
1775722061118840800,1.8428408203125,0.0871492911428213,0.0016179748569615183,0.025375958394818005
1775722061128853800,1.852853759765625,0.08099602921009064,-0.004993807965610176,-0.07403039144854992
1775722061138867000,1.862866943359375,0.07890519441068172,-0.019445070508494974,-0.10694834445444866
1775722061148880000,1.8728798828125,-0.03196165692806244,-0.02995870134150609,-0.10621548186894506
1775722061158892800,1.882892822265625,-0.1850263125270605,-0.06913792496556416,-0.09761628808882086
1775722061168906000,1.892906005859375,-0.204977213665843,-0.11332387083573266,-0.09906237697759643
1775722061178919000,1.9029189453125,-0.1764040301322937,-0.10175952537339181,-0.026669633200857787
1775722061188931800,1.912931884765625,-0.21883388958275315,-0.062066306078899645,0.07405494136791675
1775722061198944800,1.92294482421875,-0.2024801361531019,-0.06021110666627064,0.138607401706744
1775722061208959000,1.932958984375,-0.12314122650027275,-0.05336787144169211,0.14866516026472673
1775722061218972000,1.942971923828125,-0.075695000192523,-0.051019938342366365,0.09485285125747323
1775722061228984800,1.95298486328125,0.04265080872476101,0.0015298764484003185,0.005081888107862323
1775722061238998000,1.962998046875,0.0665671063631773,0.043142409900296476,-0.004093498125020414
1775722061249010700,1.9730107421875,0.08916413809657096,0.05457600512243807,0.03222058185888454
1775722061259024000,1.98302392578125,0.15057166973948477,0.0156316862327978,0.08880675775995478
1775722061269036800,1.993036865234375,0.1543009193956852,-0.007950100487936288,0.12470653958823531
1775722061279050000,2.003050048828125,0.12879413769543172,-0.05151121072433889,0.13169327493673189
1775722061289062700,2.013062744140625,0.041702714219689366,-0.05430880555361509,0.09795686342110857
1775722061299075800,2.023075927734375,-0.09162614429593086,-0.02898002903508022,0.04238514352589846
1775722061309089000,2.033089111328125,-0.1321136375069618,-0.00785668658344075,-0.023044391908403485
1775722061319101700,2.043101806640625,-0.13919745828807353,0.030234193814639,-0.03715884197866544
1775722061329115000,2.053114990234375,-0.15218378111124037,0.011923442832008004,-0.003654193392302841
1775722061339127800,2.0631279296875,-0.10382745422124862,-0.061687773356400424,0.03311223346898332
1775722061349141000,2.07314111328125,-0.03044482262432575,-0.06518734244257211,0.05285520921181887
1775722061359153700,2.083153564453125,0.057494742113351816,-0.014619897108059375,0.0457521357409656
1775722061369166800,2.093166748046875,0.15429332061111925,0.03489966487502679,0.025500169296376406
1775722061379180000,2.103179931640625,0.1347165134817362,0.05888164816079661,-0.015908110287692397
1775722061389192700,2.113192626953125,0.1301361999541521,0.04884491412453353,-0.02372479365430772
1775722061399206000,2.123205810546875,0.17508710231482982,0.06276994256991893,-0.006791998227685689
1775722061409218800,2.13321875,0.16034955191016195,0.08050212647961452,0.02926876458227634
1775722061419232000,2.14323193359375,0.059328387281298633,0.055835832457803186,0.04575947879720479
1775722061429244700,2.15324462890625,-0.0334141938239336,0.0077260459410957985,0.009326594739221036
1775722061439259000,2.1632587890625,-0.027269699719548224,0.044625049673486496,-0.07309621587097645
1775722061449271800,2.173271728515625,-0.08000701817274093,0.11182398766679688,-0.1647940371636301
1775722061459284700,2.18328466796875,-0.09257599236667155,0.1564323419338092,-0.16876336091971023
1775722061469298000,2.1932978515625,-0.07272445994913578,0.1479091725319624,-0.0729686622348614
1775722061479310800,2.203310791015625,-0.05945522853136062,0.11418669821014626,0.01282877590758726
1775722061489323800,2.21332373046875,-0.045569326519966126,0.048861481666844335,0.06517079316657036
1775722061499337000,2.2233369140625,0.07036474508047104,0.04843275312706828,0.09126171316402032
1775722061509350000,2.233349853515625,0.0668850862711668,0.09588168284855783,0.11135706427479163
1775722061519362800,2.24336279296875,-0.013643909949064253,0.14614824554035438,0.08300462908614427
1775722061529375700,2.253375732421875,0.017296002715826035,0.11825822196537628,0.06999127212557942
1775722061539389000,2.263388916015625,0.0595914221316576,0.09109494176236912,0.07094291029460728
1775722061549401900,2.27340185546875,0.09067980335652828,0.08279230150971562,0.10112303583445027
1775722061559414800,2.283414794921875,0.07769406505525112,0.04796296192454174,0.11998846155777573
1775722061569428000,2.293427978515625,0.07975801184773444,0.004861505089141428,0.1386758638330735
1775722061579441000,2.30344091796875,-0.011483517044782638,-0.03319039500541985,0.09456561354761943
1775722061589453800,2.313453857421875,-0.07504033567607403,-0.03259009102471173,0.020058617563266306
1775722061599466800,2.323466796875,-0.09257306975722313,-0.015404014956764876,0.009703246031887828
1775722061609480000,2.33347998046875,-0.1528320158869028,0.012344170728418976,0.012927925433125346
1775722061619492900,2.343492919921875,-0.18187515501976012,-0.018986988010071218,0.05911370335100218
1775722061629505800,2.353505859375,-0.17474632605314253,-0.06940167220197617,0.10878370665544643
1775722061639519000,2.36351904296875,-0.116633744302392,-0.07834356020623817,0.13366404528673737
1775722061649532000,2.373531982421875,-0.03625964638292789,-0.05470341262808069,0.12018602995648979
1775722061659545900,2.3835458984375,0.01928688427209854,-0.04677510384684428,0.10996825853120534
1775722061669558800,2.393558837890625,0.11946809094548225,-0.05697451763153076,0.05943161019375547
1775722061679572000,2.403572021484375,0.2134159561872482,-0.05949166981792077,0.016733710924256594
1775722061689585000,2.4135849609375,0.1744037962257862,-0.0496413251992315,-0.026720358741097152
1775722061699597800,2.423597900390625,0.16701251693069935,-0.04912113725002855,-0.05615059749539941
1775722061709611000,2.433611083984375,0.09245032016038894,0.009156261407304555,-0.023485742467734962
1775722061719623700,2.443623779296875,-0.011306406912207603,0.004714625698048621,-0.002921495203580707
1775722061729636900,2.453636962890625,-0.016800912675261497,0.0036309221145696935,0.019507943144254386
1775722061739649800,2.46364990234375,-0.061705053284764284,0.013693484711833298,0.04951649324316531
1775722061749663000,2.4736630859375,-0.08658347395360469,0.0013860292646102606,0.057736788974609224
1775722061759675600,2.483675537109375,-0.044564533391594885,-0.013210322571080178,0.05982587020834908
1775722061769688800,2.493688720703125,0.02501169165968895,-0.022462427301984278,0.043817368286103005
1775722061779702000,2.503701904296875,0.10523790554106235,-0.03344234220618382,-0.0029645306277088818
1775722061789714700,2.513714599609375,0.1292389588534832,-0.04467886221995577,-0.013698106088023632
1775722061799727900,2.523727783203125,0.043615854364633555,-0.0417053263018839,0.004776986877154559
1775722061809740800,2.53374072265625,0.03447919270694256,-0.037635574378632006,0.021662819623202084
1775722061819754000,2.54375390625,0.050611996862292286,-0.02178922248184681,-0.019882165017817168
1775722061829766700,2.5537666015625,-0.07484627440869808,0.009653561671264469,-0.003874832139350474
1775722061839779800,2.56377978515625,-0.12581541414558886,0.018148527891933917,0.060910888966079796
1775722061849793000,2.57379296875,-0.13341887488663196,0.02017840801803395,0.12001889322865754
1775722061859805700,2.5838056640625,-0.13595453084409237,-0.00038397608259692784,0.09598260420607402
1775722061869818400,2.593818359375,-0.09960954426527023,-0.01491190232457593,0.019598818031791598
1775722061879831600,2.60383154296875,-0.002835515686869621,0.01957419504718855,-0.01369498254917562
1775722061889845500,2.613845458984375,0.05517886638641357,0.03770372597770765,0.00931872196001932
1775722061899858400,2.6238583984375,0.11548048261404037,-0.002964457562472671,0.008164967081323266
1775722061909871600,2.63387158203125,0.16613164244294165,-0.04005186000643298,-0.021570885289739817
1775722061919884800,2.643884765625,0.1318535252660513,-0.028390447377786038,-0.016233013126812874
1775722061929897500,2.6538974609375,0.03744973295032978,-0.027028949766233563,-0.0022909787476994097
1775722061939910700,2.66391064453125,-0.03647533496022224,-0.014088986835442482,0.0232703278850764
1775722061949923600,2.673923583984375,-0.06540683041214942,0.023576891349907963,0.06927375323968007
1775722061959936500,2.6839365234375,-0.12445114005506037,0.0038029907458461817,0.09770856948215514
1775722061969949400,2.693949462890625,-0.14235153840482234,-0.023811275494517756,0.09567936520949005
1775722061979962600,2.703962646484375,-0.11717033539712428,-0.03873916997266933,0.06227474293150007
1775722061989975600,2.7139755859375,-0.12074760936200618,-0.03238919815775007,-0.01877714465167373
1775722061999988500,2.723988525390625,-0.15429098252356052,0.004423296334967017,-0.167343027526699
1775722062010001700,2.734001708984375,-0.028380291309952736,0.05184700028365478,-0.2545582417788915
1775722062020014600,2.7440146484375,0.08326981936097144,0.06892731442218646,-0.20318906987374646
1775722062030027500,2.754027587890625,0.14644260711073875,0.06581886354545131,-0.08546684534805826
1775722062040040400,2.76404052734375,0.20938333967030048,-0.00006296396730467677,0.009273092720005661
1775722062050053600,2.7740537109375,0.14568039056658744,-0.04705801244145259,0.10691632361467927
1775722062060066600,2.784066650390625,0.0369955594420433,-0.022714484100602565,0.13011744045475498
1775722062070079500,2.79407958984375,0.037379590323567385,0.05288951334021985,0.13353442755769937
1775722062080092700,2.8040927734375,-0.030530162820219992,0.16218641194850206,0.15337615096727386
1775722062090105600,2.814105712890625,-0.09415010981559753,0.1828090566026978,0.18972451681327074
1775722062100118500,2.824118408203125,-0.08387246142923832,0.11978126681419089,0.20034358078213407
1775722062110132500,2.834132568359375,-0.00042670097947120663,0.074192267479375,0.23278540417626498
1775722062120145700,2.844145751953125,0.10758066927492618,0.08310642722649499,0.2332364358793944
1775722062130158600,2.85415869140625,0.14292261629104613,0.08140943231657147,0.1734120817746967
1775722062140171500,2.864171630859375,0.19209142860770223,0.07976937349196522,0.10536671955250203
1775722062150184700,2.874184814453125,0.16901684249043464,0.08031252219164743,0.05226142630344256
1775722062160197400,2.884197265625,0.12363748558461665,0.03019948782743886,-0.005090181012172252
1775722062170210600,2.89421044921875,0.05951368072032928,0.025653478428255765,-0.02417277488382533
1775722062180223500,2.904223388671875,-0.09144318894445895,0.016992170064197853,0.003529324903618544
1775722062190236700,2.914236572265625,-0.12302607568800449,-0.00895050056898035,0.09387118327636271
1775722062200249600,2.92424951171875,-0.1854489218533039,-0.045307625110168004,0.17248871985208242
1775722062210262500,2.934262451171875,-0.19909224728047847,-0.03180080381054431,0.19145126754064112
1775722062220275700,2.944275634765625,-0.16648878531754016,0.04999502487457357,0.12864751403266564
1775722062230288400,2.954288330078125,-0.3203086431980133,0.1758200196992606,0.0618476035606116
1775722062240301600,2.964301513671875,-0.3370791607350111,0.241635796238482,-0.02652808757200837
1775722062250314500,2.974314453125,-0.3115560124218464,0.28239184072520584,-0.0015408271006774157
1775722062260327700,2.98432763671875,-0.53188101734519,0.2990464219986461,0.08087419292870908
1775722062270340600,2.994340576171875,-0.763641608518362,0.23601534427450968,0.20119776819236576
1775722062280353500,3.004353515625,-0.9435469247698783,0.16520265449713914,0.3406647276042029
1775722062290366700,3.01436669921875,-1.1947919686138628,0.09063291374118998,0.39942682277224956
1775722062300379400,3.02437939453125,-1.2046692195057869,0.22822017861995844,0.20550268057836218
1775722062310392600,3.034392578125,-1.2603221331447363,0.46483347052130847,0.09596751623479649
1775722062320405500,3.044405517578125,-1.4934405686676502,0.42331615933850403,0.09573807312678545
1775722062330418700,3.054418701171875,-1.5162024355739354,0.1788779276988469,0.252380550679937
1775722062340432600,3.0644326171875,-1.5512936226993799,-0.06331142903547733,0.3937481560813263
1775722062350445600,3.074445556640625,-1.6446616422265767,-0.2010272704636678,0.4315594523530453
1775722062360458500,3.08445849609375,-1.6155641425579785,-0.30558870151527223,0.3617454364905134
1775722062370471400,3.094471435546875,-1.4324369416505098,-0.3718393988730386,0.2471709628054872
1775722062380484600,3.104484619140625,-1.2848720525115727,-0.39981823324263094,0.2040401154788211
1775722062390497800,3.114497802734375,-1.217310089892149,-0.47238169394377616,0.24769299565190447
1775722062400510500,3.124510498046875,-1.199530687573552,-0.6167584910985082,0.26639634441500526
1775722062410523600,3.134523681640625,-1.1704822877436876,-0.747782141411677,0.1892020090428181
1775722062420536600,3.14453662109375,-0.9724375036895274,-0.7554042337879538,-0.04233670584086794
1775722062430549500,3.154549560546875,-0.8370359305530786,-0.553115784282051,-0.31659013413153586
1775722062440562400,3.1645625,-0.7773357873499394,-0.33733003022354097,-0.5640976354150101
1775722062450575600,3.17457568359375,-0.7474263867765665,-0.2163066726600751,-0.8249447299387306
1775722062460588500,3.184588623046875,-0.5826806457340717,-0.06468827034663409,-1.086039259884879
1775722062470601500,3.1946015625,-0.3636994566351175,0.16476174232922494,-1.2602404462106525
1775722062480614700,3.20461474609375,-0.22227146281599997,0.38023349853511895,-1.2853279795855284
1775722062490627600,3.214627685546875,-0.04286415921449661,0.49307143075112253,-1.166295138252154
1775722062500640500,3.224640625,0.05793488709628582,0.4831273251680657,-0.8667907981518655
1775722062510653400,3.2346533203125,0.09673837274312973,0.39250973686017093,-0.5649651754971593
1775722062520666600,3.24466650390625,0.062493573313951487,0.29583091228455305,-0.31948011995200065
1775722062530679600,3.254679443359375,-0.08518588211536407,0.1889627021279186,-0.14140855846628547
1775722062540692500,3.2646923828125,-0.27702245917916296,0.10780373744107782,-0.11416139023895375
1775722062550705700,3.27470556640625,-0.5350462033778429,0.09605725861117244,-0.22216009312970564
1775722062560719600,3.2847197265625,-0.5907920559972524,0.20075265477336943,-0.36752800194732843
1775722062570732500,3.294732666015625,-0.6703326257020235,0.30718802647069093,-0.4640451331552118
1775722062580745500,3.304745361328125,-0.8013631441473961,0.3372808938521892,-0.4771144580867141
1775722062590758700,3.314758544921875,-0.6833236247003078,0.33110585847906765,-0.3486457894859835
1775722062600771600,3.324771484375,-0.5972270574808121,0.28708251929208634,-0.16548738972265273
1775722062610784500,3.334784423828125,-0.6305056422263383,0.19924962979927657,0.0018478746226988732
1775722062620797700,3.344797607421875,-0.5643137989163398,0.16083127101249992,0.08636570301707834
1775722062630810600,3.354810546875,-0.5181213720619678,0.15447072300463913,0.0702632574673742
1775722062640823600,3.364823486328125,-0.5276385574698448,0.1794594721801579,-0.03005454466510564
1775722062650836500,3.37483642578125,-0.4724865790903568,0.2745661520682275,-0.13225874506607652
1775722062660849700,3.384849609375,-0.42409225827753544,0.340706338256225,-0.212317603023909
1775722062670862600,3.394862548828125,-0.5313596238195896,0.34892405843809243,-0.21590846712272613
1775722062680875500,3.40487548828125,-0.5217062448114156,0.31696079407483335,-0.1247482963707298
1775722062690888700,3.414888671875,-0.47115971440076826,0.30115809865668414,-0.01995002435594797
1775722062700901600,3.424901611328125,-0.4094973312139511,0.31620318064056335,0.06686623544022441
1775722062710914600,3.43491455078125,-0.27325930725336073,0.3215456376470625,0.14547127786055206
1775722062720927500,3.444927490234375,-0.16798691492080686,0.3481646183729172,0.2505519104806706
1775722062730940700,3.454940673828125,-0.17056348741054533,0.34389585501253606,0.3492889462277293
1775722062740953600,3.46495361328125,-0.1462047067016363,0.36285701446160673,0.43465705304220315
1775722062750966500,3.474966552734375,-0.2705979790896177,0.4133913429778069,0.5470327015087009
1775722062760979700,3.484979736328125,-0.40666356909275053,0.4601751598540693,0.5660004733616486
1775722062770992600,3.49499267578125,-0.495227987730503,0.450509871212393,0.5092428133511916
1775722062781006600,3.505006591796875,-0.5077420168668031,0.42832485434599216,0.36986192478761076
1775722062791019800,3.515019775390625,-0.582678307646513,0.49454424325004215,0.2384649841826409
1775722062801032400,3.525032470703125,-0.6435211911439895,0.5406660890862346,0.18066979781799017
1775722062811045600,3.535045654296875,-0.591876344102621,0.5520050830937921,0.2776127532225102
1775722062821058600,3.54505859375,-0.4334527918189764,0.5001295691017061,0.4471498932600021
1775722062831071500,3.555071533203125,-0.1356219378888607,0.4169149139940738,0.6750027364049106
1775722062841084400,3.56508447265625,0.033146482798457146,0.31316403214037414,0.8318101587288081
1775722062851097600,3.57509765625,0.05733341407179832,0.1609209220573306,0.7875857440117746
1775722062861110500,3.585110595703125,0.1747270368307829,0.12132950090318917,0.5426477644227444
1775722062871124200,3.595124267578125,0.3361637994557619,0.2693818812981248,0.21658289578557013
1775722062881137400,3.605137451171875,0.34579438211023805,0.41823944059610363,-0.019804259209707378
1775722062891150300,3.615150390625,0.36423370964229107,0.45420901799127456,-0.08125431482009589
1775722062901163300,3.625163330078125,0.44658173798322676,0.399958956887573,-0.008264116606861353
1775722062911176200,3.63517626953125,0.5479366646111011,0.34800343646183607,0.10400259159244596
1775722062921189400,3.645189453125,0.625586306002736,0.3023810645803809,0.18870397812649606
1775722062931202300,3.655202392578125,0.5790285529673099,0.21631021632403133,0.2644233821079135
1775722062941215200,3.66521533203125,0.45828795786798,0.10421659966930746,0.1744145368155092
1775722062951228400,3.675228515625,0.4053834661543369,0.1283911098524928,0.04596059085987508
1775722062961241300,3.685241455078125,0.31149580666720866,0.17335764817371963,-0.07227320905029773
1775722062971254300,3.695254150390625,0.18008710255920887,0.15140329825803636,-0.14321217382214962
1775722062981267200,3.70526708984375,0.21454232986867428,0.14979118688628076,-0.13477518486641346
1775722062991280400,3.7152802734375,0.34051731849014755,0.1735322740882635,-0.10191657909862696
1775722063001293300,3.725293212890625,0.38217151739299293,0.15487404310852287,-0.044894861324504015
1775722063011307300,3.735307373046875,0.3773024500519037,0.11898147647231816,0.08474405663199722
1775722063021320400,3.745320556640625,0.5092506678640842,0.0637843437768519,0.2053418822597712
1775722063031333000,3.7553330078125,0.6432914740413427,0.0005507657505571842,0.34402686098106205
1775722063041346300,3.76534619140625,0.5920990469425916,-0.05533098820820451,0.45419213992170987
1775722063051359500,3.775359375,0.43696869098544117,-0.06293006503507495,0.5266024924203753
1775722063061372200,3.7853720703125,0.30774434517920013,-0.031056670912355182,0.5509989747911691
1775722063071385300,3.79538525390625,0.16441139452159403,0.0528803801856935,0.5497212099403143
1775722063081398300,3.805398193359375,0.06818740104138851,0.1838996465846896,0.5645411048661917
1775722063091411500,3.815411376953125,-0.054264674150943756,0.2642236217521131,0.5865345446832477
1775722063101424000,3.825424072265625,-0.24478432339727876,0.1467543034084141,0.4992828891444951
1775722063111437300,3.835437255859375,-0.3176625126034021,0.04029620842263102,0.3442480294510722
1775722063121450500,3.845450439453125,-0.30074644911587234,0.0703111151970923,0.18507453558295964
1775722063131463200,3.855463134765625,-0.22424130158424377,0.13215499243065715,0.05071677241101861
1775722063141476400,3.865476318359375,-0.07019464921057224,0.2255620287939906,0.12897132089324295
1775722063151489300,3.8754892578125,0.03975099563002586,0.3362326269082725,0.3447320135757327
1775722063161502500,3.88550244140625,0.07167407411336899,0.3395287458442151,0.5778010569989681
1775722063171515100,3.89551513671875,0.10998656137287616,0.2944730679348111,0.7328864047706126
1775722063181528300,3.9055283203125,0.18982640628516673,0.2745088689230382,0.8577676068060099
1775722063191541500,3.91554150390625,0.10963877084851265,0.23909634088873863,0.8668700008679181
1775722063201554200,3.92555419921875,-0.05959259117543697,0.25079525424987076,0.7869839056611061
1775722063211567400,3.9355673828125,-0.15230127001106739,0.2736439226567745,0.6321081820521504
1775722063221580300,3.945580322265625,-0.17809096030592916,0.3200198893845081,0.4081207821637392
1775722063231594200,3.95559423828125,-0.11098609380424022,0.3432312536239624,0.18007563131712376
1775722063241607400,3.965607421875,-0.05696925693452358,0.3452446392729878,0.044741497393697496
1775722063251620400,3.975620361328125,-0.02745674672424793,0.25070611466169357,-0.0308522343814373
1775722063261633300,3.98563330078125,0.055220951962471,0.1251924599416554,-0.1200935293674469
1775722063271646200,3.995646240234375,0.1047474916756153,0.0314895093716681,-0.2718549203481525
1775722063281659400,4.005659423828125,0.11053192029595374,-0.05241086297780275,-0.5448120297845452
1775722063291672300,4.01567236328125,0.15677812316417694,-0.09446209837421775,-0.8676854089040309
1775722063301685200,4.025685302734375,0.18162497965097427,-0.08571969673112034,-1.1887190784409642
1775722063311698200,4.0356982421875,0.37073008592426776,0.020471271751075982,-1.3349363523632287
1775722063321711400,4.04571142578125,0.5444476534515619,0.11651669379398226,-1.3286525959186255
1775722063331724300,4.055724365234375,0.6137590900868177,0.16242153587862848,-1.2865037453666328
1775722063341737200,4.0657373046875,0.7428115864574909,0.09176569889709353,-1.1112677361004053
1775722063351750400,4.07575048828125,0.835953396013379,-0.06336348801627754,-0.8798458753623067
1775722063361763300,4.085763427734375,0.8647966286599635,-0.08795008613169193,-0.6942877209808677
1775722063371776300,4.0957763671875,0.78501815854609,-0.010339899967610835,-0.5354987329183146
1775722063381789200,4.1057890625,0.809032071340084,0.12203253460600971,-0.43901254483796653
1775722063391802400,4.11580224609375,0.9755021519571542,0.2251360584668815,-0.3619732173644006
1775722063401815300,4.125815185546875,1.0604442884445189,0.30976547574326396,-0.23254487341865895
1775722063411828200,4.135828125,1.0841565879434347,0.33625396195724605,-0.05981043517719954
1775722063421841400,4.14584130859375,1.1797381918668746,0.25957725725099445,0.13379391874410212
1775722063431854300,4.155854248046875,1.2755284701049328,0.20211714805960654,0.27705197753459215
1775722063441867300,4.1658671875,1.3389397427856922,0.10937398243248463,0.2698270677823573
1775722063451880200,4.175880126953125,1.4175246192008255,0.07129281971082091,0.23741547512970865
1775722063461894400,4.185894287109375,1.47162036652565,0.11347674157619475,0.26629315803516657
1775722063471907300,4.1959072265625,1.530533743265271,0.05524813223034143,0.4138531883358955
1775722063481920300,4.205920166015625,1.431222305163741,-0.21870997094213962,0.6822108411528169
1775722063491933400,4.215933349609375,1.3094862692862748,-0.5233987279430031,0.8711910058721899
1775722063501946000,4.225946044921875,1.4065963979512452,-0.6777559075705707,0.9439608393330127
1775722063511959300,4.235959228515625,1.5524556522160768,-0.6857223564051091,0.9149452457942068
1775722063521972500,4.245972412109375,1.5468728836476802,-0.7244441551178693,0.9169343737848102
1775722063531985400,4.2559853515625,1.4455284784138203,-0.8388108312711119,0.9182168148107827
1775722063541998300,4.265998291015625,1.377409466433525,-0.9598286358766257,0.8942240909352898
1775722063552011300,4.27601123046875,1.3132225332051515,-1.0661907231420278,0.883333863608539
1775722063562024400,4.2860244140625,1.031682304340601,-1.1951720539726316,0.7577876217931508
1775722063572037000,4.296037109375,0.7972609695255756,-1.2620806672498583,0.4937546272423118
1775722063582050300,4.30605029296875,0.6593471213072538,-1.1636411896772683,0.27631089511001483
1775722063592063500,4.3160634765625,0.4420815039545297,-1.036937740650773,0.14249346762616186
1775722063602076400,4.326076416015625,0.2462508888185024,-1.0136809298343956,0.053699587614089245
1775722063612089300,4.33608935546875,0.21855215003192424,-1.0477619170039891,0.027033077952079473
1775722063622102300,4.346102294921875,0.2393330722540617,-1.0304656220272184,0.07342500943392515
1775722063632115500,4.356115478515625,0.053827451777458186,-0.9368246307775377,0.09833594413287937
1775722063642128100,4.366128173828125,-0.1212351006180048,-0.8337664073631167,0.04800093758106232
1775722063652141300,4.376141357421875,-0.11743629285693168,-0.6984053123675287,-0.030765359815582632
1775722063662154200,4.386154296875,0.03137830408215522,-0.4703445986256003,-0.07069068909920752
1775722063672167400,4.39616748046875,0.07654957119524479,-0.28298092919215556,0.06107680185120552
1775722063682181400,4.406181396484375,0.11237024163901806,-0.21196108120381832,0.29654585562087593
1775722063692194300,4.4161943359375,0.2771101374626159,-0.21591683309227228,0.5392905264167115
1775722063702207200,4.426207275390625,0.34062311695218084,-0.21339988183528183,0.663791971886903
1775722063712220400,4.436220458984375,0.2033908212572336,-0.16968480487987397,0.6239515444077551
1775722063722233300,4.4462333984375,0.18677812463045118,-0.062442427648603915,0.4585189901448786
1775722063732246300,4.456246337890625,0.29856325985789295,0.10989055365249514,0.284924300078582
1775722063742259200,4.46625927734375,0.20052198782265185,0.21039514706134796,0.2193244678449817
1775722063752272400,4.4762724609375,0.11294541117846965,0.23985315060541032,0.236505849471502
1775722063762285300,4.486285400390625,0.11873510049581527,0.22104718171805143,0.2770761621277779
1775722063772298200,4.49629833984375,0.14740473014116287,0.20140023196190596,0.2979403969855048
1775722063782311200,4.506311279296875,0.16412790140509603,0.15267098010629415,0.29839665285302325
1775722063792324400,4.516324462890625,0.12885843510329723,0.04764993218630552,0.25452771877646446
1775722063802337500,4.526337646484375,0.1862678370207548,-0.03748290456756949,0.1801439473129809
1775722063812350200,4.53635009765625,0.2727566184282303,-0.1419090553343296,0.04287168493382632
1775722063822363400,4.54636328125,0.32060265770852564,-0.2536404145479202,-0.16614358860906212
1775722063832376300,4.556376220703125,0.40239831286370753,-0.28944048059508204,-0.34069771655835207
1775722063842389200,4.56638916015625,0.5261018494218588,-0.25527371483817696,-0.44136217670403416
1775722063852402200,4.576402099609375,0.6214484755456448,-0.2562522044815123,-0.44510600287485863
1775722063862415400,4.586415283203125,0.6257406197816133,-0.314888517845422,-0.33249190600998696
1775722063872428300,4.59642822265625,0.6217068342208862,-0.35925212183743715,-0.20007428058777002
1775722063882441200,4.606441162109375,0.6013894378572702,-0.4060004290089011,-0.1018696986164432
1775722063892454100,4.6164541015625,0.7102472874611616,-0.389474826143682,-0.04259641165640205
1775722063902467300,4.62646728515625,0.8201794882982969,-0.34951968624368307,0.03579849514458328
1775722063912481300,4.636481201171875,0.7816150721043348,-0.38556452083215115,0.10940412184242158
1775722063922494200,4.646494140625,0.8256558738827705,-0.4408722742952406,0.15880705344220622
1775722063932507400,4.65650732421875,1.0042249730944632,-0.4768979657918215,0.161413546146173
1775722063942520000,4.66652001953125,1.133880696055293,-0.47918841481655833,0.13799410124714487
1775722063952533200,4.676533203125,1.2571084317952395,-0.4757710075885057,0.1313721075578127
1775722063962546200,4.686546142578125,1.3874205728381872,-0.4601568204797804,0.16368843227559698
1775722063972559000,4.69655908203125,1.4473258832246065,-0.41584845380634067,0.21624960871059445
1775722063982572000,4.706572021484375,1.3855103553026913,-0.44245676700770853,0.288948349696584
1775722063992585200,4.716585205078125,1.1999123803675174,-0.5683629281766712,0.27383750900011505
1775722064002598400,4.726598388671875,1.056482983598113,-0.662228229701519,0.1187693863579072
1775722064012611000,4.736611083984375,0.9256237300664186,-0.594195580830425,-0.2370493086984381
1775722064022624300,4.746624267578125,0.9841156665235757,-0.4041583082735538,-0.6092066874794662
1775722064032637200,4.75663720703125,1.2094348264724015,-0.17441694796830415,-0.8655586260084063
1775722064042650000,4.766650146484375,1.353722301375866,0.08119578956589102,-0.8570502523168921
1775722064052663000,4.7766630859375,1.378151809233427,0.11315218579694628,-0.6487111610025167
1775722064062676200,4.78667626953125,1.4417998132795096,-0.07810951398834586,-0.39318168130498377
1775722064072689400,4.796689453125,1.6461819836616516,-0.2203004550039768,-0.18497816253639757
1775722064082702000,4.8067021484375,1.787108457699418,-0.23512290721312165,-0.0728402592153754
1775722064092715300,4.81671533203125,1.8273375922352075,-0.11882234038785099,-0.0952580893238075
1775722064102728200,4.826728271484375,1.8369792808055876,0.07886895405352115,-0.1002905122667551
1775722064112741000,4.8367412109375,1.78389709443748,0.16977496738135814,-0.1132337083342485
1775722064122754000,4.846754150390625,1.6083751078367232,0.1882613489255309,-0.1554661637827754
1775722064132767200,4.856767333984375,1.425968622419238,0.259559429333359,-0.16308443850046023
1775722064142781200,4.86678125,1.4100801484137773,0.30709406457692384,-0.19167904841452835
1775722064152794000,4.876794189453125,1.4001818547338247,0.2954216008313,-0.20488814714290202
1775722064162807300,4.886807373046875,1.305938805937767,0.228317757242918,-0.18433679589293897
1775722064172820000,4.896820068359375,1.1963701777160167,0.17276786558702587,-0.16973772237719967
1775722064182833200,4.906833251953125,1.053366312882304,0.1858824909649789,-0.20410523487059398
1775722064192846300,4.916846435546875,0.9497235675781964,0.23563041834384202,-0.28832523109586905
1775722064202859300,4.926859375,0.8302858717709779,0.28214111736714836,-0.3114082745142281
1775722064212872200,4.9368720703125,0.7634370258569717,0.23168241137042642,-0.2851182334817946
1775722064222885000,4.946885009765625,0.8548533267945051,0.22167320466190577,-0.21862305984366684
1775722064232898300,4.956898193359375,0.8499731535375118,0.23612331642732023,-0.10110573763977736
1775722064242911000,4.966910888671875,0.7641542342156171,0.2010920427955687,0.054009238085150714
1775722064252924200,4.976924072265625,0.6152069508075714,0.13037702297270298,0.10728095567598939
1775722064262937300,4.986937255859375,0.3420797455012798,0.13657353952527046,-0.032996881727315484
1775722064272950300,4.9969501953125,0.24470132128894329,0.28540289564207194,-0.29009751973170783
1775722064282963200,5.006963134765625,0.4124415679723024,0.6118192080654203,-0.5196153004141524
1775722064292976000,5.01697607421875,0.5063596225976944,0.847312263765186,-0.6054200450802222
1775722064302989300,5.0269892578125,0.5658458307892084,0.941455943839997,-0.5175760862041264
1775722064313002000,5.037001953125,0.7732616697788238,0.8764205770887434,-0.2813938426638022
1775722064323015200,5.04701513671875,0.9975070630162953,0.7928026749424636,0.045812158832512793
1775722064333028000,5.057028076171875,1.0298124188154936,0.7123937979705631,0.3261807501018047
1775722064343041300,5.067041259765625,1.0036322678983212,0.7299095809169113,0.4970333566520363
1775722064353054200,5.07705419921875,1.0083452678948641,0.8338276360310614,0.5994733385702595
1775722064363067100,5.087067138671875,0.9750532391458749,0.8916095245227217,0.5922162070488557
1775722064373081000,5.0970810546875,0.8975766162335872,0.974690397182852,0.5291130139365792
1775722064383094000,5.107093994140625,0.804541189661622,1.0250542645029723,0.5589368916509673
1775722064393107200,5.117107177734375,0.6285445712864398,0.8668557531468569,0.6861839825674891
1775722064403120400,5.127120361328125,0.3065133420795202,0.6598815204448998,0.7481110080398619
1775722064413133000,5.137133056640625,0.03129588649570942,0.5449823448501527,0.7519460561580955
1775722064423146200,5.147146240234375,-0.26263737547397614,0.5339882918227463,0.6516207648389041
1775722064433159200,5.1571591796875,-0.6321861426591873,0.5731968511391431,0.48220816449653353
1775722064443172000,5.167172119140625,-0.9012930064082145,0.5238303242933005,0.30215036109704524
1775722064453185000,5.17718505859375,-1.0748971766889095,0.35608942002281546,0.12914116103481502
1775722064463198200,5.1871982421875,-1.24218734151721,0.21525873450972138,-0.09821856483090668
1775722064473211400,5.19721142578125,-1.3627929120600222,0.19602650303430855,-0.1714267166437581
1775722064483224000,5.20722412109375,-1.4961948358118533,0.2269210421875119,-0.07834891223479062
1775722064493237200,5.2172373046875,-1.919068950471282,0.13387304839491843,-0.07214417584314942
1775722064503250200,5.227250244140625,-2.35615454583466,0.17714381564892828,-0.1576771908957511
1775722064513263000,5.23726318359375,-2.7712621181458235,0.4399414962511509,-0.21612305972147733
1775722064523276000,5.247276123046875,-3.344450128391385,0.5945399372886866,-0.18928166841659694
1775722064533289200,5.257289306640625,-3.609519699448347,0.5933703089874237,-0.16967621971461921
1775722064543302400,5.267302490234375,-3.5073569635689257,0.5421481443375349,-0.11514069273304194
1775722064553315000,5.277315185546875,-3.46380073043704,0.4696282670497894,-0.04757310409042984
1775722064563328300,5.287328369140625,-3.3075831637650728,0.37670185381025073,-0.08055679754260928
1775722064573341200,5.297341064453125,-3.000259089824557,0.32403686994090675,-0.123452192145586
1775722064583354000,5.30735400390625,-2.815195367896557,0.3004950316380709,-0.1517335896583274
1775722064593367000,5.317366943359375,-2.5873756233036516,0.23842888995595274,-0.1968159729115665
1775722064603380200,5.327380126953125,-2.105026406368613,0.17801855265684424,-0.2846124028515071
1775722064613394200,5.337394287109375,-1.6825234631091355,0.18267204101849346,-0.3854587954353541
1775722064623407000,5.347406982421875,-1.3206564825981855,0.164398900366202,-0.46550377099830653
1775722064633420300,5.357420166015625,-1.0809580841630697,0.12167151927389204,-0.5385428863871843
1775722064643433200,5.36743310546875,-0.9972738387823105,0.07489289002940058,-0.5243635543871671
1775722064653446100,5.377446044921875,-1.0256120445162058,-0.04985551593918353,-0.39731026900969446
1775722064663459300,5.387459228515625,-1.1104904681175947,-0.147010031735152,-0.23621420958116648
1775722064673472300,5.39747216796875,-1.1043436359256504,-0.11397311025839298,-0.15381514517273753
1775722064683485200,5.407485107421875,-1.067035357272625,0.051813335476070636,-0.09847429315764457
1775722064693498000,5.417498046875,-1.1080717165380716,0.18372984297573566,0.029027466639690098
1775722064703511300,5.42751123046875,-1.3128536998927594,0.11727222486902028,0.25178006403613834
1775722064713524200,5.437524169921875,-1.551383054548502,-0.08682225114554167,0.47044148312881584
1775722064723537200,5.447537109375,-1.6405138748973607,-0.19432192760612815,0.6590523761443794
1775722064733550000,5.457550048828125,-1.7034212897092103,-0.18704108641557393,0.7410965992331504
1775722064743563300,5.467563232421875,-1.7202666260480879,-0.23125454134717582,0.6995834162361919
1775722064753576200,5.477576171875,-1.5736112529695032,-0.28503632735200224,0.5892336841067299
1775722064763589000,5.487589111328125,-1.3466384805947542,-0.2751778176931664,0.48513460986986756
1775722064773602300,5.497602294921875,-1.1519926913291216,-0.29904391951430587,0.4024432845165953
1775722064783615200,5.507615234375,-0.9576140285670757,-0.3654572966204956,0.2538734926514327
1775722064793628200,5.517628173828125,-0.5765618705928325,-0.31219273942280557,0.12366039153616874
1775722064803641000,5.52764111328125,-0.3346954804688692,-0.21692440269961952,0.04071633353084326
1775722064813654300,5.537654296875,-0.27562603638470173,-0.22535251422915606,0.009364405998960136
1775722064823667200,5.547667236328125,-0.2523760937005281,-0.25659027732945977,-0.016719627599976954
1775722064833680100,5.55768017578125,-0.17616086902618408,-0.25965233178120106,-0.08616122995354235
1775722064843693300,5.567693359375,-0.15037293229699134,-0.1865006593959406,-0.17715031845495105
1775722064853707000,5.57770703125,-0.13071020044982432,-0.0626111352790147,-0.2768007427198812
1775722064863720200,5.58772021484375,-0.012339841613173485,0.05364774782899767,-0.2537209689708426
1775722064873733000,5.597733154296875,0.08128186041414737,0.09688855833616107,-0.13436868642475455
1775722064883746000,5.60774609375,0.07478314604461192,0.09545319177079946,-0.024466898992192
1775722064893759000,5.617759033203125,0.0945738881856203,0.12157226015049963,0.05144431950058788
1775722064903772200,5.627772216796875,-0.04149579347074032,0.14414057724606244,0.0897945997535251
1775722064913785000,5.63778515625,-0.22025486229658126,0.21742424198053775,0.12255829377947375
1775722064923798000,5.647798095703125,-0.3041360915541649,0.36497835399713363,0.12317244362244381
1775722064933811000,5.65781103515625,-0.2893184616506099,0.4317285983748734,0.12372070688866078
1775722064943824100,5.66782421875,-0.2986772416263819,0.404229766074568,0.16042281807577236
1775722064953837000,5.677837158203125,-0.30465923864543437,0.2541600910404697,0.24999409393481908
1775722064963850000,5.68785009765625,-0.14803426021635532,0.08742975205201656,0.3805646667182445
1775722064973863200,5.69786328125,0.05338204609751701,-0.019762429361976683,0.44549072787612676
1775722064983876000,5.7078759765625,0.24669863258600233,-0.0661465063309297,0.42797969417013226
1775722064993889000,5.717888916015625,0.3406599418312311,-0.09676069417279214,0.34237960523068905
1775722065003902000,5.72790185546875,0.3500742513865232,-0.2043859332418069,0.255545791511517
1775722065013915100,5.7379150390625,0.3576911561310291,-0.29445122142918406,0.1206538666639477
1775722065023928000,5.747927978515625,0.3057634004950523,-0.2838181837338954,-0.00614370865309611
1775722065033941000,5.75794091796875,0.2604576933473349,-0.30667828685026616,-0.06417913351440802
1775722065043954200,5.7679541015625,0.2508206809520721,-0.27819837109073997,-0.09468734936430119
1775722065053967000,5.777967041015625,0.15127952574789524,-0.22489497972000388,-0.05714317046301439
1775722065063980000,5.78797998046875,0.1072398930132389,-0.233060239062272,0.029486608584038912
1775722065073993000,5.797992919921875,0.06375087989866733,-0.33108784789834167,0.07387107726756949
1775722065084006100,5.808006103515625,0.07557225059568881,-0.35055914882663636,0.04396810186840593
1775722065094019000,5.81801904296875,0.0541319876819849,-0.21928663831893352,-0.05342527331789024
1775722065104032000,5.828031982421875,0.036112931388616556,-0.05254471849054098,-0.13931510245152748
1775722065114046200,5.838046142578125,0.11205167720913886,0.04534329921174794,-0.14131185662616044
1775722065124059000,5.848058837890625,0.17178864529132842,0.08334449203237891,-0.074424902624893
1775722065134072000,5.858072021484375,0.2386526887744665,0.09109064917974173,0.01713600354825612
1775722065144085200,5.868085205078125,0.28140988048315047,0.11765797278359531,0.119317247765325
1775722065154098000,5.878097900390625,0.30849487128555775,0.18583397564813495,0.12125878288769162
1775722065164111000,5.888111083984375,0.30844577144682406,0.23761107076704502,0.09231891233306377
1775722065174124000,5.8981240234375,0.2663075884193182,0.28054102522674945,0.032375854618987066
1775722065184137200,5.90813720703125,0.22709610649347303,0.3029999636637047,0.023437268250086345
1775722065194150000,5.91814990234375,0.16906068163216112,0.27018782738614827,0.09174303954071365
1775722065204163000,5.9281630859375,0.07046002214848995,0.19580244848746806,0.169290764060989
1775722065214176300,5.93817626953125,0.038405426239967344,0.1082215244617313,0.17866823047092184
1775722065224189000,5.94818896484375,0.03188099290728569,0.0963965735681355,0.055189556743786665
1775722065234202000,5.9582021484375,0.06150865392982959,0.16181498482022433,-0.10531495283264666
1775722065244215000,5.968215087890625,0.11714110930263995,0.23108817180432378,-0.16643212322685866
1775722065254228200,5.978228271484375,0.14884265398979185,0.23959347675591705,-0.17570468622390178
1775722065264241000,5.988240966796875,0.19271511346399783,0.15719784641359,-0.08002600600100122
1775722065274254000,5.998254150390625,0.17009411633312702,0.07427402747869491,0.013131539980135857
1775722065284267000,6.00826708984375,0.15387188032865523,-0.026253581479564306,0.08456420655306428
1775722065294280000,6.018280029296875,0.13503215530216692,-0.06237228502184152,0.12771892794566228
1775722065304293000,6.028293212890625,0.07880641021132469,-0.05766125778667629,0.11033924726806581
1775722065314306000,6.03830615234375,-0.026225743624567983,-0.040929537890106435,0.05543650354244746
1775722065324319200,6.0483193359375,-0.028673136776685714,-0.009637195058353245,-0.0005175713004311547
1775722065334332000,6.058331787109375,-0.027301848423480986,0.014823073263652621,-0.05584701143894344
1775722065344345000,6.068344970703125,-0.03198737589120865,-0.0073919003495946526,-0.07294701209205667
1775722065354359000,6.078359130859375,-0.06471475649476051,-0.02468563804309815,-0.059992422414291646
1775722065364372000,6.0883720703125,-0.05167348861396313,-0.020765907316096125,-0.0596922064918559
1775722065374385200,6.09838525390625,-0.14292144724726677,-0.020627996682748197,-0.036590841965517026
1775722065384398000,6.108398193359375,-0.2232464453279972,-0.010477774068340658,-0.07555276501050684
1775722065394411000,6.118410888671875,-0.16189502778649328,0.04650565752200782,-0.14393276144796982
1775722065404424000,6.128423828125,-0.08219429908394812,0.14248462673258036,-0.20980187560962513
1775722065414437000,6.13843701171875,-0.11177519835531712,0.16989121417216957,-0.21919961762260645
1775722065424450000,6.148449951171875,-0.11293898143768309,0.08524806063137948,-0.1883018270663917
1775722065434463000,6.158462890625,-0.12200666951239109,-0.052710832305066284,-0.18189186869254334
1775722065444476200,6.16847607421875,-0.16753800210952757,-0.11974351035337895,-0.1929965607538819
1775722065454489000,6.178489013671875,-0.2700146262437105,-0.0963696124959737,-0.23765648081135005
1775722065464502000,6.188501953125,-0.37288697169721124,-0.020551570445671675,-0.33482743628546596
1775722065474515000,6.198514892578125,-0.3829395791560411,0.014625285669229923,-0.3465860074119642
1775722065484528000,6.208528076171875,-0.4791366846293211,-0.005161036024987698,-0.2510657417543232
1775722065494541000,6.218541015625,-0.6761316673696041,-0.06684946696851402,-0.11172922205543145
1775722065504554000,6.228553955078125,-0.8204051137477159,-0.1139151695260778,-0.012282938635541358
1775722065514567200,6.238567138671875,-0.8045756764531136,-0.04787066226489842,0.032487770011264364
1775722065524580000,6.248580078125,-0.947726840803027,0.0698129564166069,0.03431756098800106
1775722065534593000,6.258593017578125,-1.0109253475159405,0.11831121252793818,0.0031118997842131645
1775722065544606000,6.26860595703125,-1.055231522232294,0.10561123236548155,0.021356806430930735
1775722065554619100,6.278619140625,-1.0266156686007977,0.06841481658909469,0.07857419062433764
1775722065564632000,6.288632080078125,-0.9787608614921569,-0.012714337481372058,0.15217870307732373
1775722065574645000,6.29864501953125,-1.0202636692255735,-0.05554788236189633,0.19139630421670153
1775722065584658200,6.308658203125,-1.0512848304331301,-0.08783387587349861,0.14128482248876242
1775722065594671000,6.318671142578125,-0.9156050248771905,-0.08360898818746208,0.06946543988687917
1775722065604684000,6.32868408203125,-0.8823048128217458,-0.0677890493735671,0.008279277643375098
1775722065614698200,6.3386982421875,-0.8946972614049911,-0.08761179408803582,0.033028226713649925
1775722065624711000,6.3487109375,-0.8267699726045131,-0.17585984025299548,0.11699756351294927
1775722065634724000,6.35872412109375,-0.7627478745490313,-0.2884112471451983,0.15117435747352428
1775722065644737000,6.368737060546875,-0.6858306390851736,-0.28364344822149723,0.14706769847283138
1775722065654750200,6.378750244140625,-0.6027315001159906,-0.18052026981208472,0.07164384337188676
1775722065664763000,6.388762939453125,-0.61369888433218,-0.052443632736243306,0.023020919701270758
1775722065674776000,6.398776123046875,-0.6193950501471758,0.02725906872767955,0.08858837490207515
1775722065684789200,6.408789306640625,-0.6553542522788047,0.0077135335193946955,0.20686467138025907
1775722065694802000,6.418802001953125,-0.8219120111793279,-0.0025397476106882094,0.31836002988088874
1775722065704815000,6.428815185546875,-0.843650380256772,0.007171864390745759,0.3322504619369283
1775722065714828000,6.438828125,-0.754905928876996,-0.007722374412976205,0.3707083855491131
1775722065724841200,6.44884130859375,-0.7434820330649614,-0.053417592334933574,0.32747437010891733
1775722065734854000,6.45885400390625,-0.6857131501853465,-0.06870813697986304,0.20972890170495956
1775722065744867000,6.4688671875,-0.6594663637727498,-0.043511115348525344,0.12118822926897554
1775722065754880000,6.4788798828125,-0.6769219409644603,-0.009760127318277955,0.003148011135566048
1775722065764893000,6.488892822265625,-0.5752601403445005,0.04714607431739568,-0.07054736250522546
1775722065774906000,6.498906005859375,-0.5427665684968233,0.10146288051437585,-0.0024286656187614422
1775722065784919000,6.5089189453125,-0.5525099638760089,0.10140300355330109,0.11930773101830855
1775722065794932200,6.51893212890625,-0.5199357280075549,0.032445129596069454,0.2217059744203463
1775722065804945000,6.52894482421875,-0.5152051923543215,-0.00354381008669734,0.21077428257204592
1775722065814958000,6.5389580078125,-0.43221652802228927,0.08372684241347014,0.10324850355582312
1775722065824971000,6.548970947265625,-0.4620376657903194,0.19335903739072383,-0.03517646795583423
1775722065834984200,6.558984130859375,-0.5594575910568237,0.2737234176337719,-0.09972611984964459
1775722065844997000,6.5689970703125,-0.5298743536978959,0.40422238648571074,-0.11607037479858845
1775722065855010000,6.579010009765625,-0.5461982965111732,0.49130599198117847,-0.04771438942437525
1775722065865023200,6.589023193359375,-0.6544067422956228,0.43155368019938467,0.023747946201032027
1775722065875037200,6.599037109375,-0.7162286999583244,0.36955344336032864,0.0412214928742731
1775722065885050400,6.60905029296875,-0.7369044082403182,0.3540214546423405,-0.005577548970584757
1775722065895063000,6.61906298828125,-0.6447036789268255,0.3229688023179769,-0.09486346398303284
1775722065905076200,6.629076171875,-0.5353121608376503,0.26295769346952436,-0.1528006526342593
1775722065915089200,6.639089111328125,-0.4214385288983583,0.17078502120673655,-0.18668551444355397
1775722065925102300,6.649102294921875,-0.34623511161506176,0.16458587430566549,-0.20700671019945294
1775722065935115000,6.659114990234375,-0.3478133207172155,0.15895071796290575,-0.24973854827117173
1775722065945128200,6.669128173828125,-0.33328502914905545,0.14675116160325705,-0.29528496883958577
1775722065955141400,6.679141357421875,-0.26451836691498753,0.20881021595746277,-0.3001739281912334
1775722065965154000,6.689154052734375,-0.2072907513052225,0.32389826518781484,-0.24435623417831956
1775722065975167200,6.699167236328125,-0.3274795577406883,0.3222008866854012,-0.17255354698291048
1775722065985180200,6.70918017578125,-0.3542307865440845,0.2505981973078102,-0.08959683955856598
1775722065995193300,6.719193359375,-0.28523908338248727,0.1782659515466541,-0.08298080068598501
1775722066005206000,6.7292060546875,-0.2655266671746969,0.13786876696757971,-0.17837978718467057
1775722066015219200,6.73921923828125,-0.13045125725269316,0.15975757736638188,-0.275477458226867
1775722066025232100,6.749232177734375,-0.00008475567400455475,0.13953392370082437,-0.3584856675095856
1775722066035245000,6.7592451171875,0.1501905614674091,0.11109386502765119,-0.4204266484420746
1775722066045258200,6.76925830078125,0.34336627818048,0.15265943579897284,-0.40179289431646464
1775722066055271200,6.779271240234375,0.46648763093650336,0.24685696495287118,-0.3584944353379309
1775722066065284400,6.789284423828125,0.5489496410459279,0.3276270033873617,-0.29742764342408623
1775722066075297000,6.799297119140625,0.5671639276504516,0.37166225220784543,-0.19781320378798992
1775722066085310200,6.809310302734375,0.5094084887742996,0.3716803723864257,-0.17081691418234257
1775722066095323100,6.8193232421875,0.4684031091690063,0.4133735881254077,-0.22461627237647772
1775722066105336000,6.829336181640625,0.5314858805477619,0.46896819570586085,-0.33486743950229136
1775722066115349200,6.839349365234375,0.5646943226665259,0.5292391245342791,-0.45686946937218303
1775722066125362200,6.849362060546875,0.5187245986521244,0.6026004210822283,-0.4314528867060318
1775722066135375400,6.859375244140625,0.5324702154099941,0.5351259906157851,-0.2967527398372069
1775722066145389000,6.86938916015625,0.5138958633214235,0.3802025554075837,-0.13387944160308687
1775722066155402200,6.87940234375,0.4088128560811281,0.2513509884364903,0.009362104444019496
1775722066165415200,6.889415283203125,0.2968459345459938,0.13683423628807068,0.032068514836020766
1775722066175428000,6.899427978515625,0.2488093411296606,0.1273595748476684,-0.003601896949484944
1775722066185441300,6.909441162109375,0.22586977956891058,0.1754981673337519,-0.031697311470028945
1775722066195454200,6.9194541015625,0.24347382532060144,0.1940238579750061,-0.06497348049618304
1775722066205467100,6.929467041015625,0.2641068635046482,0.210044433927536,-0.0388242955394322
1775722066215480000,6.93947998046875,0.15593699616491793,0.16841157007366417,0.07680493419580162
1775722066225493200,6.9494931640625,0.01433773743212223,0.07174801613241434,0.1933808656300418
1775722066235506200,6.959506103515625,-0.03582768470644951,0.07833587009012699,0.21934147377870974
1775722066245519000,6.96951904296875,-0.04175882832109928,0.17424962857738135,0.20206002931119874
1775722066255532300,6.9795322265625,-0.11714636999964713,0.25911007813066245,0.1916059283793904
1775722066265545200,6.989545166015625,-0.12678279787302016,0.2394317103229463,0.1535499731642194
1775722066275558100,6.99955810546875,0.09275017988979815,0.24683526457771657,0.15657595165558158
1775722066285571000,7.009571044921875,0.34550445925295353,0.2697928001865744,0.23684828796731305
1775722066295584300,7.019584228515625,0.46381928851008414,0.30145182090625167,0.37769780604504044
1775722066305597200,7.02959716796875,0.4224591041177511,0.27318463458195325,0.5279230004344135
1775722066315610000,7.039610107421875,0.3815601074963808,0.24631255587786435,0.6310105230085551
1775722066325623300,7.049623291015625,0.250748200237751,0.26497867790311574,0.6501037113394588
1775722066335636200,7.05963623046875,0.11797697560489177,0.36643867234066124,0.5570641200490296
1775722066345649200,7.069649169921875,0.1588572675257921,0.550917141726613,0.3844437001086771
1775722066355662000,7.079662109375,0.19430209039449692,0.6587522241540252,0.19862510469276456
1775722066365675300,7.08967529296875,0.19962416220009327,0.6579914689145981,0.17707096960842608
1775722066375688200,7.099688232421875,0.2694756970614195,0.6049731415629387,0.2710459785854444
1775722066385701000,7.109701171875,0.185256614151597,0.3601182371474802,0.3015563407266512
1775722066395714300,7.11971435546875,0.2159615490168333,0.1358703596919775,0.20891480884309857
1775722066405727200,7.129727294921875,0.3894534910947084,0.17621245308294892,0.045514381462335586
1775722066415740200,7.139740234375,0.5317091679096222,0.3152861388608813,-0.1688011539131403
1775722066425754400,7.14975439453125,0.6057587389826774,0.36125177122205493,-0.23599574452489613
1775722066435767300,7.159767333984375,0.6634276686191558,0.33956717815846205,-0.15123970519416033
1775722066445780200,7.1697802734375,0.646030543616414,0.30617680360153315,0.020629202259145676
1775722066455793200,7.179793212890625,0.6857856308996677,0.29249811460003255,0.15854297741223125
1775722066465806300,7.189806396484375,0.7085282085835933,0.2383934533163905,0.2950193767059594
1775722066475819000,7.199819091796875,0.6664414634823799,0.08086334274113177,0.274306039827317
1775722066485832200,7.209832275390625,0.686997344776988,0.016934768187999723,0.09145681561101228
1775722066495845000,7.21984521484375,0.6311649829179048,0.11914426581859588,-0.12714041567165404
1775722066505858300,7.2298583984375,0.5797065983593463,0.15267434110715986,-0.36190574161875994
1775722066515871200,7.239871337890625,0.5811714102149009,0.0017661328896880148,-0.5270727037480101
1775722066525884200,7.24988427734375,0.6281295607447623,-0.20352204642146823,-0.5395983137242496
1775722066535897300,7.2598974609375,0.5702262378305196,-0.35251360736265774,-0.418096086602658
1775722066545910000,7.269909912109375,0.5054822552412748,-0.43828649558573957,-0.19532500370144842
1775722066555923200,7.279923095703125,0.41655251042246816,-0.4428733849845826,0.0022749226620420813
1775722066565936000,7.28993603515625,0.27833938699662686,-0.4244426791504025,0.06533811255749315
1775722066575949300,7.29994921875,0.07489420520365238,-0.4292559246510267,0.007318798580765723
1775722066585962200,7.309962158203125,-0.07065057628452777,-0.4166964489378035,-0.13943028066325933
1775722066595975200,7.31997509765625,-0.22749942659735678,-0.43666283990666266,-0.19377079652938992
1775722066605988400,7.32998828125,-0.44248950023353095,-0.4504248232774436,-0.09441398491617292
1775722066616001000,7.3400009765625,-0.6314794556945562,-0.5727798678360879,0.09371898838933557
1775722066626014200,7.35001416015625,-0.7659814496427774,-0.6820975900366902,0.32371490797754376
1775722066636027100,7.360027099609375,-0.9062555972516536,-0.837968681358546,0.5190992041181772
1775722066646040300,7.370040283203125,-0.9722375972032546,-0.9908706937417388,0.6742215959645808
1775722066656053200,7.38005322265625,-0.9059569065660238,-1.095994909775257,0.7517464419327676
1775722066666066200,7.390066162109375,-0.9150134887248277,-1.0936179515108466,0.8049063697122036
1775722066676079400,7.400079345703125,-0.9194856657028198,-1.0192764117538928,0.8135486719816922
1775722066686092000,7.410092041015625,-0.7284960608571768,-0.8802541639022529,0.8922390545979142
1775722066696106200,7.420106201171875,-0.530178305080533,-0.7485388780631125,1.0168649666979908
1775722066706119400,7.430119384765625,-0.35731472403407094,-0.7597203434213996,1.0980926127068698
1775722066716132000,7.440132080078125,-0.30376258206665513,-0.8857032230883837,1.0276200964029878
1775722066726145300,7.450145263671875,-0.27225276055932046,-1.014725324320793,0.7773153290838003
1775722066736158200,7.460158203125,-0.012273206117749213,-0.9255535874396562,0.42665790751446037
1775722066746171100,7.470171142578125,0.3297095087498426,-0.6535793515607714,0.07784227788690477
1775722066756184000,7.48018408203125,0.5446925681233405,-0.38713425436690446,-0.13268230424039065
1775722066766197200,7.490197265625,0.68525897667706,-0.20738822033032775,-0.17847279923036694
1775722066776210400,7.50021044921875,0.7014461413681506,-0.08762830683141946,-0.056534208251815286
1775722066786223000,7.51022314453125,0.7887175975859164,-0.037571605764329434,0.09065024846848099
1775722066796236300,7.520236328125,0.9678454997241497,-0.04400485368221998,0.20135091292746363
1775722066806249200,7.530249267578125,0.9928542687743902,-0.0963560954272747,0.0785577144135721
1775722066816262100,7.54026220703125,0.9371621921688318,0.008116378699243068,-0.2460219389008358
1775722066826275000,7.550275146484375,0.9875339505344629,0.29284195960164067,-0.5816317942682653
1775722066836288300,7.560288330078125,0.8734715180248022,0.5042798937141895,-0.7620289856899529
1775722066846301200,7.57030126953125,0.9364829777330159,0.5453384648114442,-0.6878158946182579
1775722066856314000,7.580314208984375,1.3205945232778786,0.5982973170608282,-0.4203427330182865
1775722066866327300,7.590327392578125,1.5573346564292907,0.6074465459391475,-0.14413878714777528
1775722066876340000,7.600340087890625,1.6562456970363855,0.5585962980523705,0.025186020746710707
1775722066886353000,7.610352783203125,1.7097288654208183,0.47065147261768575,0.13747815108164213
1775722066896365800,7.62036572265625,1.6921020233154296,0.40424364846944805,0.15886577962581067
1775722066906378800,7.630378662109375,1.6204782180845736,0.5228732427641749,0.17583415782246736
1775722066916392000,7.640391845703125,1.4432745620071887,0.7883470107078552,0.12896896453937515
1775722066926404600,7.650404541015625,1.2301099502325057,0.9602806174278259,0.08862951063006184
1775722066936417800,7.660417724609375,1.0736556521952152,0.9791913618639111,0.12013853755295276
1775722066946431000,7.670430908203125,0.8528279584467411,0.8708005452498793,0.18941305797761304
1775722066956444000,7.68044384765625,0.6456050116807222,0.7056631745412946,0.28541270465003327
1775722066966457900,7.690457763671875,0.4847375733762979,0.6015934359967708,0.3215767634376883
1775722066976470800,7.700470703125,0.37410277722775936,0.5434153877943754,0.2969872427128255
1775722066986483700,7.710483642578125,0.1661947708070278,0.45328094336092467,0.24271643108204005
1775722066996497000,7.720496826171875,0.01792319470345974,0.3313409093439579,0.107836379335355
1775722067006509800,7.730509765625,0.03520166176259518,0.2614344294250011,0.01563824383774772
1775722067016523000,7.74052294921875,0.04643675700426102,0.19002631277143955,-0.008455803254060446
1775722067026535700,7.75053564453125,-0.03296469649076462,0.06945932067334651,0.028106862929742783
1775722067036548900,7.760548828125,-0.013124854511022566,-0.02171206559240818,0.08678197393408045
1775722067046561800,7.770561767578125,0.05864741927981376,-0.07774579524248838,0.10979268276859074
1775722067056574700,7.78057470703125,0.0032271453529596327,-0.15112491970807312,0.06573164191972464
1775722067066588000,7.790587890625,-0.07667758148908614,-0.2132692411929369,0.00917350480305031
1775722067076600800,7.800600830078125,0.016581716966629027,-0.2050380039423704,-0.0113121242669411
1775722067086614000,7.810614013671875,0.07762158434092999,-0.20794863069206476,-0.044635479735955594
1775722067096626700,7.820626708984375,0.07890460988879203,-0.24000264207869768,-0.08587444890141487
1775722067106640000,7.830639892578125,0.1537204891592264,-0.23190321451425552,-0.23710474694641306
1775722067116652800,7.84065283203125,0.24391864647865294,-0.17760405357182024,-0.42937567857317627
1775722067126665700,7.850665771484375,0.3263333103150129,-0.11190437769293785,-0.6057493866324425
1775722067136679000,7.860678955078125,0.369750427237153,-0.05762158336341381,-0.7272643271051347
1775722067146691800,7.87069189453125,0.34631226850450036,-0.04867430679798126,-0.7438422446794808
1775722067156705000,7.880705078125,0.39477147124707695,-0.10392360807210206,-0.6847610370922833
1775722067166717700,7.8907177734375,0.43455227749347686,-0.17452713034451006,-0.6298034853063523
1775722067176731000,7.90073095703125,0.35400691466033457,-0.23168021941334008,-0.6253075621265918
1775722067186743800,7.910743896484375,0.29251813447475433,-0.26208587907105685,-0.6567886689960957
1775722067196756700,7.9207568359375,0.24700492205619812,-0.22585545878261326,-0.6369209891613572
1775722067206769700,7.930769775390625,0.1904816553235054,-0.18410656733363867,-0.5656911882167682
1775722067216782800,7.940782958984375,0.19047230297327042,-0.20156272904723882,-0.4439263646362349
1775722067226796000,7.950796142578125,0.10272095428407192,-0.22118717471063135,-0.26058917423989625
1775722067236808700,7.96080859375,-0.15419453641176223,-0.23141630778014657,-0.12758255168227478
1775722067246822000,7.97082177734375,-0.20271102229952812,-0.15319938789457083,-0.06139459452952724
1775722067256835600,7.980835693359375,-0.27009061408936974,-0.04678688561618328,0.02764346493538469
1775722067266848800,7.990848876953125,-0.46225510793328284,-0.008185352282226084,0.1831125147949904
1775722067276862000,8.000862060546876,-0.4753969135791063,-0.03912351138144731,0.26758590125944465
1775722067286875000,8.010875,-0.3480237485975027,-0.07012801371514797,0.33550800242815165
1775722067296887800,8.0208876953125,-0.22584581417143343,-0.10318857179582118,0.3536898480677977
1775722067306900700,8.030900634765626,-0.15625088441967963,-0.15543664542734623,0.3334225013909861
1775722067316914000,8.040913818359375,-0.12675298725664616,-0.11114712958484887,0.3246196747975424
1775722067326926600,8.050926513671875,-0.04816226562261581,-0.11750643548369406,0.3200109388930723
1775722067336939800,8.060939697265624,0.050153731700778005,-0.12737725663483143,0.29309390680240466
1775722067346953000,8.070952880859375,0.21412556576132774,-0.0734057202115655,0.32154914477840063
1775722067356966000,8.0809658203125,0.23583996944129465,-0.127702543066442,0.38481720959618687
1775722067366978800,8.090978759765624,0.26735914329886434,-0.20765870783478022,0.45645475109145045
1775722067376991700,8.10099169921875,0.3661532795280218,-0.22432634951919317,0.5076114127570763
1775722067387005000,8.1110048828125,0.32796120377779003,-0.25996874078661203,0.4819551395835355
1775722067397017600,8.121017578125,0.325691505280137,-0.2969897269308567,0.40685467121805996
1775722067407030800,8.13103076171875,0.5187772056221962,-0.2769488094210625,0.3520972451141104
1775722067417044000,8.1410439453125,0.6791875478088856,-0.2500274847477674,0.3324919790752232
1775722067427057000,8.151056884765625,0.8177233273178338,-0.29312399141341444,0.30590474519450217
1775722067437069800,8.16106982421875,1.0033218867748974,-0.37117373803853987,0.2720777327859774
1775722067447082800,8.171082763671874,1.2673241208612918,-0.43794308897554873,0.25476737275123595
1775722067457096000,8.181095947265625,1.3949994836598634,-0.47343759620487685,0.21412903636004774
1775722067467108600,8.191108642578126,1.4672703546226025,-0.46356531374901533,0.09459390806034207
1775722067477121800,8.201121826171875,1.6651777760326862,-0.35128801109045743,0.001252283349726349
1775722067487135000,8.211135009765625,1.8043612057954073,-0.27369565284401176,0.001835444399388507
1775722067497148000,8.22114794921875,1.8597902475506065,-0.32812603895068165,0.13814748344426042
1775722067507160800,8.231160888671875,1.9338895029842853,-0.5032148948311805,0.2179898582403548
1775722067517173800,8.241173828125,2.014876179844141,-0.5972969078466296,0.25036827927576377
1775722067527187000,8.25118701171875,1.8891735784232615,-0.6332488034546375,0.21216907966500148
1775722067537199600,8.26119970703125,1.8207547067135572,-0.6321385041251778,0.046016942423302676
1775722067547213800,8.2712138671875,1.9296417824119327,-0.4931996967732906,-0.14385153117161242
1775722067557227000,8.28122705078125,1.9429583601027727,-0.32935002778768535,-0.22017109300326554
1775722067567239700,8.29123974609375,1.8839596431672572,-0.23488924458771943,-0.1969275435272604
1775722067577252900,8.3012529296875,1.8169664203464984,-0.1946530957892537,-0.09197492120098322
1775722067587265800,8.311265869140625,1.7348890256404876,-0.08928688769340515,0.09375661698598414
1775722067597278700,8.32127880859375,1.5995096643358468,-0.015270634368062018,0.2707608049685135
1775722067607291600,8.331291748046874,1.3621715652912854,-0.033169571413099765,0.40475667602550236
1775722067617304800,8.341304931640625,1.2517068650126457,-0.020281886658817527,0.47906632280685
1775722067627318000,8.351318115234376,1.3023007416963577,0.09135317257344722,0.5510939230656251
1775722067637330700,8.36133056640625,1.3611129961490631,0.11564984783157706,0.6765693281345069
1775722067647343900,8.37134375,1.3978542885690928,0.0006017652854323387,0.8132066536109894
1775722067657356800,8.381356689453124,1.410129248252511,-0.14696268546208738,0.8876973195150494
1775722067667369700,8.39136962890625,1.4119395125448704,-0.2513927817516029,0.8422014966227114
1775722067677382700,8.401382568359375,1.3548381536632776,-0.2842906966164708,0.6442010631669313
1775722067687395800,8.411395751953124,1.3558616514921187,-0.2314075399518013,0.38585159414522346
1775722067697409000,8.421408935546875,1.37512457036674,-0.20844006747081875,0.16782492929212747
1775722067707421700,8.431421630859376,1.2029910571604967,-0.2717851430475712,0.024439736990630626
1775722067717435000,8.441434814453125,1.0086761072844266,-0.41297786680608983,-0.0349871422290802
1775722067727447800,8.45144775390625,0.8360539337784051,-0.5256526443496347,-0.11276406326219439
1775722067737460700,8.461460693359374,0.8426514323472977,-0.48558366881161924,-0.2322615994978696
1775722067747473700,8.4714736328125,0.9642921911567449,-0.30321897670924663,-0.3426051576148718
1775722067757486800,8.48148681640625,0.8799468515187502,-0.12831672944203018,-0.36742753724753857
1775722067767500000,8.4915,0.8144803998738527,-0.023835925878584383,-0.2451774874333292
1775722067777512700,8.5015126953125,0.6278811389416455,0.03636354514881968,-0.0046110009267926215
1775722067787526000,8.51152587890625,0.16927929281890391,0.0893871331974864,0.11161482016183435
1775722067797538800,8.521538818359375,0.03908931685090065,0.19771160657703876,0.09221453864313661
1775722067807551700,8.5315517578125,0.15896481955349445,0.4022895917922258,0.12129632928594947
1775722067817564700,8.541564697265626,0.21138065096735953,0.5999484452687204,0.23718809611462055
1775722067827577900,8.551577880859375,0.2837082205533981,0.648177200256288,0.3797488933559507
1775722067837591000,8.561591064453125,0.5102496157735585,0.6477236112698912,0.5256758060295135
1775722067847604700,8.571604736328124,0.8336024489730596,0.6250013457216322,0.578641088019684
1775722067857618000,8.581617919921875,1.0330559307813645,0.6204962893873452,0.5760014602310956
1775722067867630800,8.591630859375,1.0336913060754538,0.6530185028076172,0.4444846195735037
1775722067877643800,8.601643798828125,1.1774310839682818,0.795311296762526,0.2663881793748587
1775722067887657000,8.611656982421875,1.2469997102349997,1.0034957820370793,0.14257577561475335
1775722067897670100,8.621670166015624,1.1513503017723559,1.1062712429873645,0.07147957445457577
1775722067907682800,8.631682861328125,1.006181952381134,1.116683477538824,0.024860592751204967
1775722067917696000,8.641696044921876,0.6952326736807822,1.1008223299317061,0.01642484590448439
1775722067927709000,8.651708984375,0.3188748110026121,1.137538341780007,0.013945084852725267
1775722067937721900,8.661721923828125,-0.0165828860104084,1.1848039508238435,0.0491768494926393
1775722067947734800,8.67173486328125,-0.4529980347663164,1.1379679653689265,0.19618198585696517
1775722067957748000,8.681748046875,-1.0598819783866404,0.9975425727210938,0.2964042551930994
1775722067967761200,8.69176123046875,-1.5754197636961935,0.7250440207071602,0.3007985446292907
1775722067977773800,8.70177392578125,-1.7336159369647501,0.5346971707444638,0.21002711746655403
1775722067987787000,8.711787109375,-1.613150067153573,0.4962762546744197,0.10916348148696124
1775722067997800000,8.721800048828126,-1.430636614230275,0.5391429711721837,0.09818068050593137
1775722068007812900,8.731812744140624,-1.3688742778003216,0.511846748771891,0.21350860290676354
1775722068017825800,8.74182568359375,-1.2091688690125941,0.3784522776741534,0.28371362738087774
1775722068027839000,8.7518388671875,-1.1218442213028668,0.29773820721060035,0.2761034446381032
1775722068037852200,8.76185205078125,-1.1319716475635766,0.3358636474654078,0.22905198980160058
1775722068047864800,8.77186474609375,-1.2684475719332695,0.35068748791404064,0.06180946350730955
1775722068057878000,8.7818779296875,-1.4225713811963796,0.4541694166332483,-0.12887684754282236
1775722068067891000,8.791890869140625,-1.7184376570552586,0.5805665761895478,-0.23581783067472278
1775722068077904000,8.80190380859375,-2.1908494173437356,0.6138476451531052,-0.33289997535422444
1775722068087916800,8.811916748046874,-2.5444547654658556,0.7307534843951463,-0.42128224235810335
1775722068097930000,8.821929931640625,-2.833303856039047,0.8498146019749343,-0.4548861135352403
1775722068107943200,8.831943115234376,-3.2797096529334784,0.8531371705263853,-0.4661333376061171
1775722068117955800,8.841955810546875,-3.4344261673927305,0.857476149578765,-0.5752152782894671
1775722068127969000,8.851968994140625,-3.339116366147995,0.9572203530743718,-0.6158253749668597
1775722068137982000,8.86198193359375,-3.3183646700203417,1.0385828044440597,-0.5847103979960083
1775722068147995000,8.871994873046875,-3.332538156801462,1.0093401241511106,-0.46020212092623114
1775722068158009000,8.882009033203126,-3.257411896407604,0.8365630523443222,-0.2989819967266172
1775722068168022000,8.89202197265625,-2.9689649568945167,0.5885720053276047,-0.14447561788670718
1775722068178035000,8.902034912109375,-2.6317694763034583,0.38239816575571894,-0.030340558532252905
1775722068188048000,8.9120478515625,-2.238521269100904,0.25036241579055785,-0.013701631485670804
1775722068198061000,8.92206103515625,-1.6732435935884713,0.16139526157081127,-0.09302899683117866
1775722068208073700,8.93207373046875,-1.1458943744540213,0.09675590839982032,-0.11097542627975344
1775722068218087000,8.9420869140625,-0.9326040904730558,0.011192534741573034,-0.06199760649055242
1775722068228099800,8.952099853515625,-0.6640063452899455,-0.05222524074520916,-0.06331489963419736
1775722068238113000,8.962113037109376,-0.267993934071064,-0.059060383994877334,-0.03514123681224882
1775722068248126000,8.9721259765625,-0.1628361080288887,-0.04240629591178149,0.03332377559412271
1775722068258139000,8.982138916015625,-0.32845629381835456,-0.06944193114712834,0.045568522802367804
1775722068268152000,8.992152099609376,-0.3715682903140783,-0.07963639476206154,0.048825515304319556
1775722068278164700,9.002164794921875,-0.3775280755013227,-0.042519948886707425,0.04080192945506424
1775722068288178000,9.012177978515625,-0.5376426496118307,0.008018507815338671,0.025600816659256814
1775722068298190800,9.02219091796875,-0.6605050591707229,-0.020053064605314284,-0.005730652606487274
1775722068308204000,9.0322041015625,-0.8115355785936117,-0.07648843385884538,0.025995003608614203
1775722068318217000,9.042217041015626,-0.9045300886332989,-0.14942701148269696,0.0653614934330806
1775722068328230000,9.05222998046875,-0.8247457733005285,-0.2157103142021224,0.10631693294942378
1775722068338243000,9.0622431640625,-0.7581459337115287,-0.22422453311253338,0.1954192943887785
1775722068348256000,9.072256103515626,-0.7224304772078991,-0.25876038791015743,0.3036316491633653
1775722068358269000,9.08226904296875,-0.6300479615867137,-0.31987894654385746,0.3849721078969538
1775722068368281900,9.09228173828125,-0.6159516316950321,-0.39132692028377203,0.412677787880972
1775722068378295000,9.102294921875,-0.7352227387636899,-0.46864477243777364,0.4161147035270929
1775722068388308000,9.112307861328125,-0.7215232992351055,-0.45880701330602164,0.3650774669900536
1775722068398321000,9.12232080078125,-0.6750216603010892,-0.3726639035310596,0.23011231250949202
1775722068408334000,9.132333984375,-0.6439467230796814,-0.2925583386209793,0.11917330924998969
1775722068418347000,9.142346923828125,-0.5929664774268866,-0.30112255241926755,0.03510196424778551
1775722068428360000,9.15235986328125,-0.4886503629058599,-0.327081936725229,0.016105441224388777
1775722068438372900,9.162372802734374,-0.4313216250091791,-0.30203363938219846,0.05785743794590235
1775722068448386000,9.172385986328125,-0.5383738864958286,-0.28933638089979064,0.044684506509453055
1775722068458399000,9.18239892578125,-0.5123983182400464,-0.25558405942898244,0.0070600745793432
1775722068468413000,9.192412841796875,-0.3910527429848909,-0.16023863888159393,-0.055498015338182445
1775722068478425900,9.20242578125,-0.3225438549041748,-0.12675651265429333,-0.0934734526630491
1775722068488438800,9.212438720703124,-0.3982248265713453,-0.20175651631997896,-0.12212072434611618
1775722068498452000,9.222451904296875,-0.36047698745727536,-0.2979882364489138,-0.11509919167887418
1775722068508465200,9.232465087890626,-0.25206571257710453,-0.30070987996514886,-0.10775916764698922
1775722068518477800,9.242477783203125,-0.239097509932518,-0.18045120489755645,-0.14844854010567068
1775722068528491000,9.252490966796875,-0.18501988278627396,-0.0722880960921757,-0.1794008373280987
1775722068538504000,9.26250390625,-0.0028238252490758895,-0.02551564086014405,-0.04943080598739907
1775722068548516900,9.272516845703125,0.0729021546036005,-0.08710766222449019,0.13099603165388107
1775722068558529800,9.28252978515625,0.11109539939761161,-0.24288502911459653,0.21335642628604545
1775722068568543000,9.29254296875,0.2616372585207224,-0.31923224613815543,0.2034350805240683
1775722068578556000,9.302555908203125,0.4738263032615185,-0.2519715314876288,0.12641562679475174
1775722068588568800,9.31256884765625,0.5825649103999138,-0.13991473971195517,0.022998981864098458
1775722068598582000,9.32258203125,0.577838466399908,-0.11621098884567618,-0.025965393921639768
1775722068608595000,9.332594970703125,0.5732055459022521,-0.15673022890184074,-0.06001664354009553
1775722068618607900,9.34260791015625,0.4925988082706928,-0.17668883842304348,-0.1372286424331367
1775722068628620800,9.352620849609375,0.25502923855781556,-0.1208835107013583,-0.25798916607564315
1775722068638634000,9.362634033203125,0.06745324154794216,-0.08327723548244685,-0.45759716259222477
1775722068648647000,9.37264697265625,0.055118660631775854,-0.009585172610171139,-0.5800296928338706
1775722068658659800,9.382659912109375,0.006535539248585701,0.10666512533258646,-0.6038173591239377
1775722068668673000,9.392673095703126,-0.09528291323781013,0.14295447273403405,-0.5349375553715974
1775722068678686000,9.40268603515625,-0.10267243896722793,0.07196509294919669,-0.49924949833154675
1775722068688699000,9.412698974609375,0.045398061606287954,0.05049286399465054,-0.4602878264483064
1775722068698711800,9.4227119140625,0.22248189069628715,0.14304682719260453,-0.38551132934018967
1775722068708725000,9.43272509765625,0.40031975302398204,0.22432883373722431,-0.35109917398747054
1775722068718738000,9.442738037109375,0.4479021729320287,0.19455763605814427,-0.34472624142207203
1775722068728750800,9.452750732421874,0.49552901650369163,0.11573434777725487,-0.33670013482216743
1775722068738764000,9.462763916015625,0.5946218434184789,0.08083809870202094,-0.3062520242622122
1775722068748777000,9.47277685546875,0.6600999855011701,0.08451854078043251,-0.22978424959890542
1775722068758790100,9.4827900390625,0.5806663833022118,0.032835626750998194,-0.08657482485626823
1775722068768802800,9.492802734375,0.45928222960233683,-0.05762888988703489,0.024647488856641576
1775722068778816000,9.50281591796875,0.3467956681072712,-0.14730269453879444,0.09713856017501094
1775722068788829000,9.512828857421875,0.12131108846366405,-0.17225260954126714,0.08647435102332383
1775722068798843000,9.5228427734375,-0.14079554113447665,-0.09210227390769869,-0.03044875901392661
1775722068808856000,9.53285595703125,-0.252851894518733,0.024072438048198818,-0.1413644544630777
1775722068818869000,9.542868896484375,-0.2714922975808382,0.11776632852889597,-0.12285816264203749
1775722068828882000,9.5528818359375,-0.3406067503392696,0.06507160710841417,-0.00819821176379919
1775722068838894800,9.562894775390625,-0.5129354938566685,-0.067091020639427,0.12643165548094548
1775722068848908000,9.572907958984375,-0.49788463971912855,-0.12791563782785087,0.18569411051971838
1775722068858921000,9.5829208984375,-0.2829787372350693,-0.0765685681566596,0.17630791281405836
1775722068868934100,9.59293408203125,-0.15216858354210852,-0.006843107360415161,0.13125563243813812
1775722068878947300,9.602947265625,-0.12172376091778278,-0.008882248505204915,0.061133747069677336
1775722068888960000,9.6129599609375,0.09428688793778418,0.014839622539654374,-0.010909489149646833
1775722068898973200,9.62297314453125,0.3869400469690561,0.11007095172069967,-0.027957882913108915
1775722068908986000,9.632986083984376,0.5946195053309202,0.20383787090498953,0.006619801732245832
1775722068918999300,9.642999267578125,0.5711918679922818,0.19749438362978397,0.13715575072686187
1775722068929012200,9.65301220703125,0.41985622814297674,0.09435885719545185,0.2761602711255662
1775722068939025200,9.663025146484374,0.3513257127523422,0.06276354936175048,0.33394937480930237
1775722068949038300,9.673038330078125,0.3335790436595678,0.12666859690882265,0.24960113082816823
1775722068959051000,9.683051025390625,0.2500958738088608,0.22067882332969455,0.1701308133480139
1775722068969064200,9.693064208984374,0.07806582097709179,0.23250954637695104,0.09102284464053809
1775722068979077000,9.7030771484375,-0.0031470658540725706,0.12969499552529304,0.04933177062629256
1775722068989090300,9.71309033203125,-0.15785773509442805,0.007211465748772025,0.03599606810987461
1775722068999103200,9.723103271484375,-0.22560089949965476,-0.02920684179458767,-0.03344064343944192
1775722069009116200,9.7331162109375,-0.18613865768313406,-0.017457294224761426,-0.09409527435582131
1775722069019129300,9.74312939453125,-0.205700851765275,-0.006987009343132376,-0.08661400608918629
1775722069029142000,9.75314208984375,-0.16532500223517416,-0.02191189901344478,-0.04042375292559154
1775722069039155200,9.7631552734375,-0.10328443338572979,-0.11051445770449936,0.04745704452928621
1775722069049168100,9.773168212890624,0.00561491727232933,-0.17687566623203455,0.06835118133493233
1775722069059181300,9.783181396484375,0.07763678191006183,-0.16364011788815258,0.011810114084067755
1775722069069194000,9.793194091796876,0.06339549058973788,-0.11215714687760919,-0.07367634471333585
1775722069079207200,9.803207275390625,0.07687164275646209,-0.06043200114164501,-0.1471120673375204
1775722069089220400,9.813220458984375,0.06040273851454257,-0.023624767345935105,-0.18840172551060094
1775722069099233000,9.82323291015625,-0.02674129193127155,-0.06679875969458371,-0.206891668985039
1775722069109246200,9.83324609375,-0.06229308230578899,-0.0711638595689088,-0.19418365164659918
1775722069119259100,9.843259033203125,-0.03558452360033989,-0.009828845172934234,-0.1420893803372979
1775722069129272300,9.853272216796874,-0.11639525937139987,0.010206117520108818,-0.09648213295973837
1775722069139286300,9.863286376953125,-0.22642156823277473,0.03308982070777565,0.002951360618881881
1775722069149299200,9.87329931640625,-0.41819735502004624,0.024657398329302666,0.09071585191744379
1775722069159312100,9.88331201171875,-0.5814981579512357,0.03421721730250865,0.061129783280612894
1775722069169325000,9.893324951171875,-0.6895072817713022,0.02173172014094889,0.04839503319887444
1775722069179338200,9.903338134765624,-0.7267828271985054,0.05741557592991739,0.06803104143589735
1775722069189351200,9.91335107421875,-0.8271738772302866,0.015145364020578563,0.08479733032234944
1775722069199364000,9.923364013671875,-0.7599316480845213,-0.041246202623844146,0.0879738871323876
1775722069209377300,9.933377197265624,-0.6199696351647377,-0.0450257211625576,0.06746167144956998
1775722069219390200,9.94339013671875,-0.6260954245686531,-0.029367329585924744,-0.0030773890181910245
1775722069229403100,9.953403076171876,-0.6567348929822444,0.03105064303036779,-0.04782554448153823
1775722069239416000,9.963416015625,-0.6051251172542572,0.07499342779442668,-0.10416191947315818
1775722069249429200,9.97342919921875,-0.587021889808774,0.10915924370326101,-0.16513437503390013
1775722069259442200,9.983442138671874,-0.684367580795288,0.1394954913865775,-0.1378769776734989
1775722069269455000,9.993455078125,-0.8123100700974464,0.1482218186777085,-0.08738930131061934
1775722069279468300,10.00346826171875,-0.9258943637013435,0.0982099431330338,-0.05547594963684678
1775722069289481200,10.013481201171874,-1.0933283209145068,0.09967994262035935,0.008396446882793679
1775722069299494100,10.023494140625,-1.268944415539503,0.12092961486540733,0.04107458151713945
1775722069309507000,10.033507080078126,-1.3162275602400302,0.06771759157255292,0.07159995856438763
1775722069319520300,10.043520263671875,-1.2766606890052556,-0.0283375116141513,0.1487571311308071
1775722069329533200,10.053533203125,-1.28013976329267,-0.13645963082201779,0.2167477492247708
1775722069339546000,10.063546142578126,-1.1934791324496268,-0.2075472468169406,0.2556218341561034
1775722069349559300,10.073559326171875,-1.1484271078020334,-0.2569272541988641,0.31104703998640176
1775722069359572200,10.083572265625,-1.134785535940528,-0.2711940818192437,0.34050438594333826
1775722069369585200,10.093585205078124,-1.0469166983515024,-0.286475201048702,0.36026009330358355
1775722069379598000,10.10359814453125,-1.0693167462080717,-0.30740828162524847,0.4243831309828907
1775722069389611300,10.113611328125,-1.2751596367925404,-0.3137092449329793,0.496383441375941
1775722069399624200,10.123624267578125,-1.4491776485711336,-0.35859687279909847,0.49985688964016733
1775722069409637000,10.13363720703125,-1.4235101233512162,-0.3589332651466131,0.49718774349614975
1775722069419650000,10.143650146484376,-1.4604659353047609,-0.31363829858861864,0.4508791429162025
1775722069429663200,10.153663330078125,-1.4507576112389564,-0.27887612422183156,0.28756842137919736
1775722069439676200,10.16367626953125,-1.247832653927803,-0.1477041514791548,0.02535694316709414
1775722069449689000,10.173689208984374,-0.992446272495389,0.01656089337430894,-0.2409321597474627
1775722069459702300,10.183702392578125,-0.7107493917644023,0.14305501049906014,-0.3614122955460101
1775722069469716000,10.193716064453126,-0.4079319815933704,0.21371735028661787,-0.31589656237680463
1775722069479729200,10.203729248046875,-0.1891916155129671,0.23314685789979994,-0.17751348921153692
1775722069489742300,10.213742431640625,-0.01825461861491203,0.2545684161130339,-0.004784037672448903
1775722069499755300,10.22375537109375,0.05356090979576111,0.25208390582092105,0.15499213479654864
1775722069509768200,10.233768310546875,0.10621347257494926,0.194114970324561,0.21454267692854626
1775722069519781000,10.243781005859375,0.12515958058536053,0.19364143452867866,0.15110579488249495
1775722069529794300,10.253794189453124,0.002743161228299141,0.27884624054022134,-0.023790643698442727
1775722069539807000,10.263806884765625,-0.12508885343670845,0.42053157012127335,-0.21920385540630666
1775722069549820200,10.273820068359376,-0.2570557759493589,0.4859592971909791,-0.31962453339137137
1775722069559833300,10.283833251953125,-0.32476562260687347,0.48768517113551496,-0.30734040402080864
1775722069569846300,10.29384619140625,-0.3827490250200033,0.4465460821479559,-0.1981942937937565
1775722069579859200,10.303859130859376,-0.5691740984290838,0.33680268188118934,-0.10562266707494854
1775722069589872000,10.3138720703125,-0.4872381580203771,0.29702932828888295,-0.04989122657338157
1775722069599885300,10.32388525390625,-0.35710020450055596,0.40229251440167424,-0.06336131432550028
1775722069609898000,10.33389794921875,-0.27586452131569383,0.5180938995331525,-0.1267740117783658
1775722069619911200,10.3439111328125,-0.1062684176325798,0.5903704695843159,-0.15489024532465262
1775722069629924400,10.35392431640625,0.02809387558400631,0.5725863910906016,-0.11372236863402649
1775722069639937300,10.363937255859375,0.06314122356772423,0.5456845017701387,-0.02758576166508719
1775722069649950200,10.3739501953125,0.051854690399765965,0.500865993617475,0.05379802475357428
1775722069659963100,10.383963134765626,-0.007222352468967437,0.4735352113604545,0.09339032269055023
1775722069669976300,10.393976318359375,-0.0122737906396389,0.4656903430789709,0.11631574612809345
1775722069679989000,10.403989013671875,-0.0008136544704437256,0.4348980221912265,0.10760563931940123
1775722069690002200,10.414002197265624,-0.09053425740599631,0.3920066827088594,0.06746948029669002
1775722069700015400,10.424015380859375,-0.1227554420530796,0.37537747333869337,-0.02750617535654455
1775722069710028300,10.4340283203125,-0.06026712943613529,0.42852234967947006,-0.13129848519917578
1775722069720041200,10.444041259765624,-0.048446927782893175,0.5245172105789184,-0.16968385503180325
1775722069730054100,10.45405419921875,-0.012738485541939735,0.5664993262618779,-0.14622843463709578
1775722069740067300,10.4640673828125,0.0039770869374275205,0.4754069965817034,-0.10475985796684399
1775722069750080000,10.474080078125,0.1964852796524763,0.3776967100664973,-0.07290918713258579
1775722069760093200,10.48409326171875,0.36205636560320853,0.3564762273833155,-0.04470242575863376
1775722069770106000,10.494106201171874,0.3535580018490553,0.43051030862629414,0.011516761727258563
1775722069780119300,10.504119384765625,0.19596563969254494,0.5262793979458511,0.1666068039403297
1775722069790132200,10.51413232421875,0.14784955129921434,0.5606617061495781,0.25770209276257083
1775722069800145200,10.524145263671874,0.18088380589485167,0.5299795676380396,0.2864161643378436
1775722069810159000,10.5341591796875,0.13947043001055717,0.4959887429699301,0.28329609608855094
1775722069820172300,10.54417236328125,0.19901509039103984,0.4419249982185662,0.2321756565137766
1775722069830185200,10.554185302734375,0.33809447525739666,0.47030558178946374,0.18681672134147956
1775722069840198400,10.564198486328126,0.4458265357017517,0.4393066324137151,0.1105488531644456
1775722069850211000,10.574211181640624,0.6121896488130092,0.3703586222633719,0.013254198245424776
1775722069860224300,10.584224365234375,0.7582587464362383,0.3351065454877913,-0.008357219984102994
1775722069870237000,10.59423681640625,0.7239964113503694,0.2716957111984491,0.032341961482539774
1775722069880249900,10.604249755859374,0.5771949077993631,0.17431451050713656,0.048970440200343725
1775722069890263000,10.614262939453125,0.5159253233224154,0.13103081070631742,0.049474042340926824
1775722069900276000,10.62427587890625,0.28445523952841756,0.0852941647954285,-0.00840728793721646
1775722069910289200,10.6342890625,0.018125439277291298,0.07180223053768277,-0.10357578101512044
1775722069920301800,10.6443017578125,-0.06812719528675079,0.1259992462798953,-0.17415424191150813
1775722069930315000,10.65431494140625,-0.09521218608915805,0.1812079232826829,-0.20825243594422935
1775722069940328000,10.664327880859375,-0.03798515500128269,0.21260259397774933,-0.12124971366524695
1775722069950340900,10.6743408203125,0.01288636958003044,0.15263678557574747,0.07803235709890723
1775722069960354000,10.68435400390625,0.11466332101225853,0.057021133252233264,0.25743264643773434
1775722069970367000,10.694366943359375,0.21668518711626528,-0.053219110620766875,0.3489867849433794
1775722069980380200,10.704380126953126,0.22380700182020663,-0.184669169652462,0.2797065836966038
1775722069990392800,10.714392822265625,0.1832102030158043,-0.2528328975573182,0.027254867476597427
1775722070000406000,10.724406005859375,0.1570581091493368,-0.21366408572942017,-0.2350253285901621
1775722070010419000,10.7344189453125,0.11925298689007759,-0.09144669607579707,-0.37332024854794144
1775722070020432000,10.744431884765625,0.01746609858572483,-0.029341829818487167,-0.34913130798060443
1775722070030445000,10.754445068359376,-0.15368775593340395,-0.1072669271506369,-0.2568490013308823
1775722070040458000,10.7644580078125,-0.32962826020717617,-0.225378488920629,-0.07419285200126469
1775722070050471200,10.77447119140625,-0.3665934245109558,-0.28653642971664667,0.0989484134754166
1775722070060483800,10.78448388671875,-0.3699824824273586,-0.2789297541052103,0.1805985592126846
1775722070070497000,10.7944970703125,-0.49019934591352937,-0.2636823544822633,0.11133578402474521
1775722070080510000,10.804510009765625,-0.5139858796924353,-0.2513461661309004,-0.04348689422272146
1775722070090523000,10.81452294921875,-0.44804245818555355,-0.2474295772090554,-0.20235614444725214
1775722070100535800,10.824535888671875,-0.42543724314570425,-0.21851810163184998,-0.364488415055722
1775722070110549000,10.834549072265625,-0.3848123872905969,-0.16618045002073048,-0.5116759953148663
1775722070120562200,10.844562255859374,-0.292274388846755,-0.19167101123854516,-0.612972469753772
1775722070130574800,10.854574951171875,-0.20297113454043864,-0.2597296713337302,-0.5961638121634721
1775722070140588000,10.864588134765626,-0.0688935034841299,-0.35049890653938054,-0.5526609166540205
1775722070150602000,10.87460205078125,0.08446165949404238,-0.3748527188122272,-0.5448679977554828
1775722070160615000,10.884614990234375,0.15157120217084885,-0.27434505666345355,-0.5592524969387799
1775722070170628000,10.894628173828124,0.19266309101581572,-0.14135712053999305,-0.5612080879859626
1775722070180641000,10.90464111328125,0.21838088511824608,0.009259118993580341,-0.5146936626356095
1775722070190654000,10.914654052734376,0.10505787279903889,0.08627440800443291,-0.4207395868487656
1775722070200667000,10.9246669921875,-0.027292496073246,0.10657660679891705,-0.3919428236924112
1775722070210680000,10.93468017578125,-0.05533142659962177,0.21033801004663108,-0.38521190800219773
1775722070220693000,10.94469287109375,-0.2370014144361019,0.35216771653443574,-0.44399815123081204
1775722070230706000,10.954705810546875,-0.44508302385807036,0.4451075737774372,-0.5502315706152469
1775722070240719000,10.964718994140625,-0.4126040650576353,0.6420541873313487,-0.6079287034329026
1775722070250732000,10.97473193359375,-0.33196634776592254,0.855702783230692,-0.6053525693345815
1775722070260745000,10.984744873046875,-0.19947861624956129,0.9860459039337932,-0.4866871730741113
1775722070270758000,10.9947578125,0.026328034955263136,1.0138812747120856,-0.2992370674662292
1775722070280771000,11.00477099609375,0.15392039564549923,0.9794611187160015,-0.07860116996280848
1775722070290784000,11.014783935546875,0.12636428020000456,0.949854062090069,0.06257292216047644
1775722070300797000,11.024796875,0.2508481534808874,0.9377614732362329,0.05845752273090184
1775722070310810000,11.03481005859375,0.5831932714313268,0.998041023762524,-0.05494834556616843
1775722070320823000,11.044822998046875,0.8186831122606992,1.0495828488208352,-0.12210486918985843
1775722070330836000,11.0548359375,1.0102245057702064,0.9919693026334047,-0.10768690612837671
1775722070340849000,11.064848876953125,1.196813245308399,0.9160217889845371,0.004608735904470086
1775722070350862000,11.074862060546875,1.4239800789505241,0.8181441830784082,0.2179894746478647
1775722070360875000,11.084875,1.6103443620830773,0.4560217665016651,0.3491540678016841
1775722070370888000,11.094887939453125,1.7607628870874643,-0.009373977544903754,0.37354229380078613
1775722070380901000,11.104901123046876,1.9584265628695487,-0.21335019747465847,0.34942353239282964
1775722070390914000,11.1149140625,2.1700714177310467,-0.2065548382461071,0.3049108022537082
1775722070400927000,11.124927001953125,2.3144266971737144,-0.17296704142093658,0.2963890576239675
1775722070410940000,11.13493994140625,2.475504563358426,-0.2455047466263175,0.359538683693856
1775722070420953000,11.144953125,2.447657940533757,-0.45601358319520946,0.4433462631933391
1775722070430966000,11.154966064453125,2.1289467956602572,-0.6906088132724165,0.4606124552927911
1775722070440979000,11.16497900390625,1.874066025662422,-0.8097223916918039,0.33971666963174935
1775722070450991900,11.174991943359375,1.7594851222366092,-0.7290610012635588,0.21297588426955044
1775722070461005000,11.185005126953126,1.643758555907011,-0.6520075721994042,0.15946509722582994
1775722070471018000,11.19501806640625,1.4924398671925068,-0.6489803333327174,0.2882774281650781
1775722070481031000,11.205031005859375,1.3445856397181748,-0.7337167181149125,0.5418798487901687
1775722070491044000,11.215044189453126,1.206218787035346,-0.9116936966523528,0.8741915028624236
1775722070501058000,11.22505810546875,1.0494026699483394,-1.049878763027489,1.1012919932700693
1775722070511071000,11.235071044921876,0.6791361098825931,-1.080776590116322,1.230428514662385
1775722070521084200,11.245084228515625,0.1727829170256853,-1.0327867584511636,1.141903112860769
1775722070531096800,11.255096923828125,-0.21876082434654234,-0.8979955722980201,0.8537883279114961
1775722070541110000,11.265110107421876,-0.41606735725402827,-0.6703884475424885,0.6259871418885886
1775722070551123000,11.275123046875,-0.6686193920433521,-0.48598128982707856,0.5524877520442009
1775722070561136000,11.28513623046875,-0.8589502407193184,-0.3736583944611251,0.629309856570512
1775722070571148800,11.295148681640624,-0.9629220718473196,-0.3932825478635728,0.836331143284589
1775722070581162000,11.305161865234375,-0.8926783227980136,-0.572238892827183,0.9927560690969228
1775722070591175200,11.315175048828126,-0.6490858395338058,-0.7014347431913018,1.0439728999845683
1775722070601187800,11.325187744140624,-0.4238280543833971,-0.6456535269975662,0.9583857435919344
1775722070611201000,11.335200927734375,-0.29813422079086305,-0.47541181888729334,0.8120521498136222
1775722070621214000,11.3452138671875,-0.15140578247606754,-0.35482013073936103,0.6945031172972173
1775722070631227100,11.35522705078125,-0.03598141396343708,-0.3548876430176198,0.617422800226137
1775722070641239800,11.36523974609375,0.016889760002493856,-0.4056939934082329,0.4994213477671146
1775722070651253000,11.3752529296875,0.08986673340797424,-0.4634174297109246,0.41764388585574924
1775722070661266200,11.38526611328125,0.013375029879808426,-0.4822713293932378,0.41595834392160175
1775722070671278800,11.39527880859375,-0.21950082905888557,-0.5310888440541923,0.3983679613690823
1775722070681292000,11.4052919921875,-0.3912643399089575,-0.5852060725584626,0.30247787601836024
1775722070691305000,11.415304931640625,-0.3663824121087789,-0.5364549011319876,0.15200550193488596
1775722070701318100,11.425318115234376,-0.22776538405716418,-0.340667540615797,-0.030901991807296872
1775722070711330800,11.435330810546875,-0.19221651629209519,-0.19589418189153074,-0.15054967710338532
1775722070721344000,11.445343994140625,-0.1514554668366909,-0.15179697375074028,-0.16644545763246715
1775722070731357200,11.455357177734374,0.01331599316895008,-0.13949877932220697,-0.10686850241757928
1775722070741369900,11.465369873046875,0.0499228455543518,-0.14058949716836214,-0.049125265435874456
1775722070751383000,11.475383056640625,0.006525017854571342,-0.18052081780135631,-0.04936214293166995
1775722070761396000,11.48539599609375,0.043100890579819674,-0.1292538641616702,-0.11172229912430047
1775722070771409200,11.4954091796875,0.11601356657743453,-0.016729893265664576,-0.16447649564705788
1775722070781421800,11.505421875,0.12156886261701583,0.059218497166037554,-0.08913001663126051
1775722070791435000,11.51543505859375,0.18062018652260303,0.0799582105949521,0.07535152051709591
1775722070801448000,11.525447998046875,0.28684827214479447,0.04781915127336979,0.2699281900692731
1775722070811460900,11.5354609375,0.28337036690115924,-0.03321808672994375,0.433304323258996
1775722070821474000,11.54547412109375,0.27749767547547816,-0.10895692606419324,0.40891178641095755
1775722070831487000,11.555487060546875,0.3217512432217598,-0.03229278857856989,0.20206088782772422
1775722070841500200,11.565500244140624,0.296108852443099,0.12454641712307929,-0.022927798057720064
1775722070851512800,11.575512939453125,0.17916881867051124,0.1616264399781823,-0.1471726749509573
1775722070861526000,11.585526123046876,0.08319266247153281,0.09881839388757943,-0.25422785904705525
1775722070871539700,11.595539794921875,0.10661796172261237,0.051694239141046996,-0.3158316439144313
1775722070881552400,11.605552490234375,0.16177520079910754,0.11046966871470212,-0.2952236671064049
1775722070891565600,11.615565673828126,0.23736907870471477,0.23838760809749363,-0.24638481739647686
1775722070901578500,11.62557861328125,0.40724224576354023,0.32015491394102574,-0.12575308949910102
1775722070911591400,11.63559130859375,0.4493845204442739,0.28733167174756524,0.006537438944727182
1775722070921604400,11.645604248046874,0.5264543161213397,0.22828443949520585,0.059050008731335396
1775722070931617500,11.655617431640625,0.6436071158617734,0.27084815445840354,0.04155987168289721
1775722070941630500,11.66563037109375,0.7157727728843688,0.3066726242944598,0.054247430755198
1775722070951643400,11.675643310546874,0.8003758866757154,0.28775486559569835,0.06001578502357006
1775722070961656600,11.685656494140625,0.9230056565225124,0.2762248790606856,0.12108816642798483
1775722070971669500,11.69566943359375,0.9197147982835769,0.1843573272243142,0.30905864264816046
1775722070981682400,11.705682373046875,0.7526613648205995,-0.07100947272479534,0.43734687664806843
1775722070991695400,11.7156953125,0.6778162594556808,-0.32107378235161305,0.4658822854544967
1775722071001708500,11.72570849609375,0.6807949830055237,-0.42924043482095,0.2658892899420112
1775722071011721500,11.735721435546875,0.6280851370811462,-0.33129385533183814,0.006610504180938005
1775722071021734400,11.745734375,0.5473632486373186,-0.17047259425669908,-0.169286599342525
1775722071031747600,11.75574755859375,0.520170705807209,-0.024200083015859127,-0.19586188705712557
1775722071041760500,11.765760498046875,0.39522038405835624,-0.001214782617241144,0.013867197310924529
1775722071051773400,11.7757734375,0.2032908680140972,-0.20378961131647227,0.3095316669873893
1775722071061786400,11.785786376953125,0.13670797955989836,-0.5540406805746257,0.5463346362419426
1775722071071799600,11.795799560546875,-0.16574819608330726,-0.7739651418730616,0.5704349121451378
1775722071081812500,11.8058125,-0.40655893967449663,-0.7634396562054753,0.2731381650917232
1775722071091825400,11.815825439453125,-0.25983810014426706,-0.5934842176906764,-0.06381766152456403
1775722071101838600,11.825838623046875,-0.013453940334916113,-0.444942884735018,-0.3298042012959719
1775722071111851500,11.8358515625,0.12373685430586337,-0.32948826721459623,-0.4677325164310634
1775722071121864400,11.845864501953125,0.33165538212060924,-0.2686334010183811,-0.5278153753414749
1775722071131877400,11.85587744140625,0.5197375750869512,-0.213215903570503,-0.48255599155351514
1775722071141890600,11.865890625,0.6297375804632902,-0.3047701516740024,-0.35570977305546403
1775722071151903500,11.875903564453125,0.7257160747498274,-0.5444818479821085,-0.3456611111193895
1775722071161916400,11.88591650390625,0.9809019651740789,-0.6231704770326614,-0.4159729569688439
1775722071171929600,11.8959296875,1.2736819654554128,-0.5167338632263243,-0.4737773495532572
1775722071181942500,11.905942626953125,1.4508710084855556,-0.34574031383544207,-0.5442667439267039
1775722071191955500,11.91595556640625,1.6601801138758658,-0.17719298855289817,-0.48143531696051356
1775722071201968400,11.925968505859375,1.8370143521189688,-0.11635390444770455,-0.29484336255192756
1775722071211981600,11.935981689453126,1.9431372238010167,-0.17214578816592693,-0.04260170888602734
1775722071221994500,11.945994384765624,1.9546441217213868,-0.2792936189815402,0.15322525298818945
1775722071232007400,11.95600732421875,1.8993711473107338,-0.31731735242754217,0.19753595774918795
1775722071242020400,11.966020263671876,1.893723496812582,-0.20887144462540744,0.15610263505540786
1775722071252034300,11.976034423828125,1.8300094417929649,-0.028736849662661552,0.0884960295766592
1775722071262047500,11.986047607421876,1.7059645444512366,0.04429726075753569,-0.02754099094159901
1775722071272060400,11.996060302734374,1.685803215432167,0.05626534644886851,-0.07638371310904622
1775722071282073600,12.006073486328125,1.735231555467844,0.01721300060749054,0.021311448902264236
1775722071292086500,12.01608642578125,1.7112153045862912,-0.13478504867330193,0.2245704604733735
1775722071302099500,12.026099365234375,1.632018433752656,-0.30874563117623327,0.5006565886504948
1775722071312112600,12.036112548828125,1.5767863758742808,-0.45402606263980266,0.7448886849924922
1775722071322125300,12.046125244140624,1.642816306620836,-0.6007922026164829,0.8200767585761845
1775722071332138500,12.056138427734375,1.8318588690519333,-0.6687453565105795,0.6940647989451885
1775722071342151400,12.0661513671875,1.9342454768151043,-0.6220253986507653,0.48977856321819124
1775722071352164600,12.07616455078125,2.0270997016012666,-0.5934503154210746,0.3629149551939219
1775722071362177300,12.08617724609375,2.0770032579332587,-0.5711427681535483,0.3276590059608221
1775722071372190500,12.0961904296875,2.0555600724101066,-0.605097352464497,0.311429025041312
1775722071382203600,12.10620361328125,2.080366012364626,-0.6224377788439392,0.27510047814063726
1775722071392216300,12.11621630859375,2.219507941073179,-0.48678866068720816,0.1160275220375508
1775722071402229500,12.1262294921875,2.236265014606714,-0.21189561475217342,-0.10071282933205365
1775722071412242400,12.136242431640625,2.0229729770600793,0.20415186875760555,-0.38587037191092965
1775722071422255600,12.146255615234375,1.8304636153012512,0.7522023690067231,-0.5530743928257376
1775722071432268300,12.156268310546874,1.6272463970452546,1.2273903160102664,-0.4027857047460973
1775722071442281500,12.166281494140625,1.4236942477464676,1.3348292387269436,-0.06248984698690473
1775722071452294700,12.176294677734376,1.3771493541926145,1.1590034468740225,0.253480913137272
1775722071462307300,12.186307373046875,1.5484820724099873,0.9993554673619568,0.4130138514349237
1775722071472320500,12.196320556640625,1.7763292895317078,0.963669090822339,0.31924649385921655
1775722071482333400,12.20633349609375,1.853213207247853,1.0785229659706355,0.17647592632472514
1775722071492346600,12.2163466796875,1.7537199828386305,1.1594934223480522,-0.004114705309830605
1775722071502359300,12.226359375,1.766916149020195,1.058762326706946,-0.17948701777420936
1775722071512372500,12.23637255859375,1.8800573750317096,0.963244874060899,-0.29377072835173457
1775722071522385700,12.2463857421875,1.7457348293036221,0.8915313447199761,-0.3249171599067747
1775722071532398300,12.2563984375,1.3169921148717403,0.7868116178341209,-0.18139822169039396
1775722071542411500,12.26641162109375,1.031322238856554,0.6980171898327767,0.04834799745306372
1775722071552424400,12.276424560546875,0.9520423659145831,0.6484940111204981,0.2099897811308503
1775722071562437600,12.286437744140626,0.7539736164629459,0.4269190061360597,0.4685555232517421
1775722071572450300,12.2964501953125,0.2751590033948421,0.25714140840619804,0.575916704557091
1775722071582463500,12.30646337890625,-0.03435878119766712,0.33750264684408904,0.42200865693651135
1775722071592476400,12.316476318359374,-0.32344635670185085,0.5823321245573461,0.23000004777405408
1775722071602489300,12.3264892578125,-1.1506441993296146,0.9349186510257422,0.11575807571271433
1775722071612502500,12.33650244140625,-1.9519722721636295,1.1198463254839182,-0.04409214837318286
1775722071622515500,12.346515380859374,-2.637940858414769,1.1317587354652583,-0.4452507816404104
1775722071632528600,12.356528564453125,-3.308307970908284,1.3772851094014942,-1.0758179447956382
1775722071642542600,12.36654248046875,-4.087445254722238,1.8114136085249481,-1.6390189601644873
