time,seconds_elapsed,z,y,x
1775722059336520000,0.06052001953125,0.09322255104780197,-0.011432632803916931,0.0766255334019661
1775722059346533000,0.070533203125,0.08104833960533142,-0.018421171233057976,0.03934323042631149
1775722059356546000,0.080546142578125,0.06246932968497276,-0.04402906447649002,0.009556574746966362
1775722059366559000,0.09055908203125,0.05677492544054985,-0.04146218299865723,-0.01506404485553503
1775722059376572000,0.100572021484375,0.06266023963689804,-0.038979850709438324,-0.02924164943397045
1775722059386585000,0.110585205078125,0.06299205124378204,-0.03759004920721054,-0.023211169987916946
1775722059396598000,0.120597900390625,0.06112544238567352,-0.048148419708013535,-0.0013309037312865257
1775722059406611000,0.13061083984375,0.06229883432388306,-0.07107077538967133,0.03305396810173988
1775722059416624000,0.1406240234375,0.06366782635450363,-0.08407614380121231,0.07620556652545929
1775722059426637000,0.150636962890625,0.07402040809392929,-0.09307708591222763,0.11909383535385132
1775722059436650000,0.16064990234375,0.08724087476730347,-0.07546506822109222,0.1691410094499588
1775722059446663000,0.170662841796875,0.08525347709655762,-0.026770353317260742,0.20516149699687958
1775722059456676000,0.180676025390625,0.08399593085050583,0.007420907262712717,0.21705783903598785
1775722059466688800,0.190688720703125,0.08409964293241501,0.011888968758285046,0.21000486612319946
1775722059476702000,0.200701904296875,0.08394411206245422,0.012090570293366909,0.19383469223976135
1775722059486715100,0.210715087890625,0.08221422135829926,-0.008968622423708439,0.17932835221290588
1775722059496728000,0.22072802734375,0.07834091782569885,0.0050910040736198425,0.16681335866451263
1775722059506741000,0.230740966796875,0.07830825448036194,0.055938608944416046,0.17205943167209625
1775722059516754000,0.24075390625,0.0769156888127327,0.11231186985969543,0.1895979344844818
1775722059526767000,0.25076708984375,0.06353490054607391,0.14883074164390564,0.200862318277359
1775722059536779800,0.26077978515625,0.05356147885322571,0.15410181879997253,0.19610019028186798
1775722059546793000,0.27079296875,0.049326859414577484,0.10053766518831253,0.17358894646167755
1775722059556806100,0.28080615234375,0.05007520690560341,0.0465971976518631,0.13484369218349457
1775722059566819800,0.29081982421875,0.05287502706050873,-0.0014143955195322633,0.09029190242290497
1775722059576833000,0.3008330078125,0.052556514739990234,-0.04073197394609451,0.035513341426849365
1775722059586846000,0.310845947265625,0.056546956300735474,-0.0676894262433052,-0.03037349320948124
1775722059596859000,0.32085888671875,0.053908295929431915,-0.07100559771060944,-0.09066931903362274
1775722059606872000,0.3308720703125,0.0501021072268486,-0.062200821936130524,-0.14223238825798035
1775722059616885000,0.340885009765625,0.03900125250220299,-0.05375513806939125,-0.17415890097618103
1775722059626898200,0.350898193359375,0.031604837626218796,-0.048868268728256226,-0.1836644858121872
1775722059636910800,0.360910888671875,0.02495092898607254,-0.019633954390883446,-0.15188685059547424
1775722059646924000,0.370924072265625,0.020106695592403412,0.03028068318963051,-0.0895894467830658
1775722059656937000,0.38093701171875,0.008911832235753536,0.05022696033120155,-0.01681165024638176
1775722059666950000,0.390949951171875,0.0020759543403983116,0.048355016857385635,0.06326089054346085
1775722059676963000,0.400963134765625,0.009419888257980347,0.09037996083498001,0.1360088586807251
1775722059686976000,0.41097607421875,0.025132235139608383,0.14169476926326752,0.1964256316423416
1775722059696989200,0.4209892578125,0.03945071995258331,0.15179242193698883,0.2404348999261856
1775722059707001900,0.431001953125,0.041111331433057785,0.13222385942935944,0.25653067231178284
1775722059717015000,0.44101513671875,0.03820981830358505,0.11213084310293198,0.24308061599731445
1775722059727028000,0.451028076171875,0.033553626388311386,0.08841380476951599,0.20278824865818024
1775722059737041000,0.461041015625,0.03359117731451988,0.05639222264289856,0.14077813923358917
1775722059747054000,0.47105419921875,0.03389040008187294,0.026031408458948135,0.06431277841329575
1775722059757067000,0.48106689453125,0.03865958750247955,-0.0056463610380887985,-0.011486640200018883
1775722059767080200,0.491080078125,0.04006889462471008,-0.047726571559906006,-0.08020254969596863
1775722059777092900,0.5010927734375,0.03770720213651657,-0.08381453901529312,-0.13201487064361572
1775722059787106000,0.51110595703125,0.0347580760717392,-0.10255060344934464,-0.1611994504928589
1775722059797120000,0.5211201171875,0.028545986860990524,-0.12098260223865509,-0.16498993337154388
1775722059807133000,0.5311328125,0.014218848198652267,-0.09595483541488647,-0.13051198422908783
1775722059817146000,0.54114599609375,-0.0057503338903188705,-0.011395475827157497,-0.07055863738059998
1775722059827159000,0.551158935546875,-0.022853247821331024,0.07041501998901367,0.0021220543421804905
1775722059837172000,0.561171875,-0.034170087426900864,0.08383841812610626,0.0723661258816719
1775722059847185000,0.571184814453125,-0.03241082280874252,0.04241717606782913,0.12933994829654694
1775722059857198000,0.581197998046875,-0.005354436580091715,0.0011424415279179811,0.15893086791038513
1775722059867210800,0.591210693359375,0.030578264966607094,-0.007838972844183445,0.15501414239406586
1775722059877224000,0.601223876953125,0.05647697299718857,-0.0038444974925369024,0.1204359382390976
1775722059887236900,0.61123681640625,0.06827051937580109,-0.004119069315493107,0.07229956239461899
1775722059897250000,0.62125,0.06826865673065186,-0.004314012825489044,0.025035379454493523
1775722059907263000,0.631262939453125,0.06099409610033035,0.007764403708279133,-0.010941133834421635
1775722059917276000,0.64127587890625,0.05397986248135567,0.02119658887386322,-0.022465962916612625
1775722059927289000,0.6512890625,0.05118951201438904,0.03637585788965225,-0.010323390364646912
1775722059937301800,0.6613017578125,0.04240933805704117,0.05454607680439949,0.02074211649596691
1775722059947315000,0.67131494140625,0.03285035863518715,0.06257768720388412,0.06724046915769577
1775722059957328000,0.681327880859375,0.022044850513339043,0.04878704249858856,0.10629865527153015
1775722059967341000,0.691341064453125,0.010584049858152866,0.01647106371819973,0.12773433327674866
1775722059977354000,0.70135400390625,0.0046598478220403194,-0.0312567763030529,0.12758173048496246
1775722059987367000,0.711366943359375,-0.0022807675413787365,-0.046316709369421005,0.10819646716117859
1775722059997380000,0.721380126953125,-0.011647904291749,-0.02178872749209404,0.07625770568847656
1775722060007392800,0.731392822265625,-0.025097325444221497,0.012365257367491722,0.03157005459070206
1775722060017406000,0.741406005859375,-0.03213872015476227,0.04249519854784012,-0.014069069176912308
1775722060027419000,0.7514189453125,-0.02551856078207493,0.0531901977956295,-0.04123285785317421
1775722060037432800,0.761432861328125,-0.012510350905358791,0.04720287770032883,-0.040600888431072235
1775722060047446000,0.771446044921875,0.003945019096136093,0.037345413118600845,-0.012001432478427887
1775722060057459000,0.781458984375,0.020154349505901337,0.021258851513266563,0.0312885157763958
1775722060067472000,0.791471923828125,0.030321726575493813,-0.002297670114785433,0.06744709610939026
1775722060077484800,0.80148486328125,0.041874781250953674,-0.03137193247675896,0.08820776641368866
1775722060087498000,0.811498046875,0.04799197241663933,-0.05358857288956642,0.08466239273548126
1775722060097511200,0.82151123046875,0.05185648798942566,-0.06465534120798111,0.05259260535240173
1775722060107523800,0.83152392578125,0.05379117280244827,-0.05067121982574463,0.00733041949570179
1775722060117537000,0.841537109375,0.04855380207300186,0.0017829316202551126,-0.025966551154851913
1775722060127550000,0.851550048828125,0.03762544319033623,0.04105363041162491,-0.04457690939307213
1775722060137563000,0.86156298828125,0.02205474115908146,0.03652998432517052,-0.047567106783390045
1775722060147575800,0.871575927734375,0.01923319883644581,0.007633194327354431,-0.037666354328393936
1775722060157589000,0.881589111328125,0.027107633650302887,-0.004846911411732435,-0.026942867785692215
1775722060167602000,0.891601806640625,0.04393276199698448,-0.011736328713595867,-0.018229877576231956
1775722060177614800,0.90161474609375,0.0611271969974041,-0.0158221498131752,-0.010591398924589157
1775722060187628000,0.9116279296875,0.06312644481658936,-0.013586394488811493,-0.003719931235536933
1775722060197641000,0.921640869140625,0.05577825754880905,-0.017404036596417427,0.0020799010526388884
1775722060207654000,0.93165380859375,0.03822458162903786,-0.0264764241874218,0.0014886604622006416
1775722060217666800,0.941666748046875,0.027601763606071472,-0.01267911959439516,-0.002875728067010641
1775722060227680000,0.951679931640625,0.019272061064839363,0.017306560650467873,-0.0023280479945242405
1775722060237693000,0.96169287109375,0.011633050628006458,0.041509367525577545,-0.00020151387434452772
1775722060247705900,0.971705810546875,0.006179486401379108,0.05086256191134453,0.008816689252853394
1775722060257719000,0.981718994140625,0.009751051664352417,0.051327016204595566,0.018760932609438896
1775722060267732000,0.99173193359375,0.018850332126021385,0.041880324482917786,0.030666004866361618
1775722060277746000,1.001745849609375,0.03049100935459137,0.02253459207713604,0.040269363671541214
1775722060287758800,1.0117587890625,0.033907175064086914,0.002444588579237461,0.0404503270983696
1775722060297772000,1.02177197265625,0.03100593201816082,-0.0019877103623002768,0.028771832585334778
1775722060307785000,1.031784912109375,0.028668778017163277,0.00844056811183691,0.01015416905283928
1775722060317798000,1.0417978515625,0.025604011490941048,0.016557883471250534,-0.011096790432929993
1775722060327811000,1.05181103515625,0.024315975606441498,0.028706073760986328,-0.027201592922210693
1775722060337823700,1.06182373046875,0.027115490287542343,0.03690674528479576,-0.029380058869719505
1775722060347837000,1.0718369140625,0.03270586207509041,0.04662719741463661,-0.017010608687996864
1775722060357849900,1.081849853515625,0.03416980430483818,0.04305749759078026,-0.0018407106399536133
1775722060367863000,1.091863037109375,0.034177202731370926,0.023542044684290886,0.01600438915193081
1775722060377876000,1.1018759765625,0.032009657472372055,0.001219961792230606,0.02618485502898693
1775722060387889000,1.111888916015625,0.03481090068817139,-0.017246408388018608,0.022163618355989456
1775722060397902000,1.121902099609375,0.031554121524095535,-0.025365320965647697,0.014889991842210293
1775722060407914800,1.131914794921875,0.02013557218015194,-0.039352040737867355,0.006655213423073292
1775722060417928000,1.141927978515625,0.003669779747724533,-0.032308246940374374,0.0024546091444790363
1775722060427940900,1.15194091796875,-0.005974725354462862,0.0195518396794796,0.010698024183511734
1775722060437954000,1.1619541015625,-0.01302198227494955,0.08579690754413605,0.028642935678362846
1775722060447967000,1.171967041015625,-0.018477220088243484,0.11130562424659729,0.04972294345498085
1775722060457980000,1.18197998046875,-0.016627388074994087,0.09952699393033981,0.07216247171163559
1775722060467993000,1.1919931640625,0.008408039808273315,0.10994712263345718,0.08034704625606537
1775722060478005800,1.202005859375,0.02931571565568447,0.09446536749601364,0.09589910507202148
1775722060488019000,1.21201904296875,0.036969296634197235,0.06122901290655136,0.10576193779706955
1775722060498031900,1.222031982421875,0.04601312801241875,0.0339483879506588,0.096042200922966
1775722060508045800,1.2320458984375,0.036966919898986816,0.0011622454039752483,0.06511648744344711
1775722060518059000,1.24205908203125,0.024645809084177017,-0.027481382712721825,0.02532939240336418
1775722060528072000,1.252072021484375,0.018517835065722466,-0.03557363525032997,-0.02826455421745777
1775722060538084900,1.2620849609375,0.015618185512721539,-0.03995000571012497,-0.08509082347154617
1775722060548097800,1.272097900390625,0.013539150357246399,-0.02835668995976448,-0.12235119938850403
1775722060558111000,1.282111083984375,0.004705712199211121,-0.01848914474248886,-0.13488057255744934
1775722060568124200,1.292124267578125,-0.006777588278055191,-0.0324426144361496,-0.124029241502285
1775722060578136800,1.30213671875,-0.017201732844114304,-0.05170552432537079,-0.10139583796262741
1775722060588150000,1.31214990234375,-0.019002128392457962,-0.042241327464580536,-0.07694472372531891
1775722060598163000,1.322162841796875,-0.013321872800588608,-0.021287040784955025,-0.049897924065589905
1775722060608175900,1.33217578125,-0.0023747014347463846,-0.0018192706629633904,-0.03259854391217232
1775722060618188800,1.342188720703125,0.011279858648777008,-0.00162166403606534,-0.019810844212770462
1775722060628202000,1.352201904296875,0.02390904352068901,-0.01178302988409996,-0.006816959008574486
1775722060638215000,1.36221484375,0.03364795818924904,0.018746117129921913,0.015491808764636517
1775722060648227800,1.372227783203125,0.03595238924026489,0.060824234038591385,0.04131834954023361
1775722060658241000,1.382240966796875,0.03286764770746231,0.07356798648834229,0.06736299395561218
1775722060668254000,1.39225390625,0.023949218913912773,0.08068062365055084,0.07961703091859818
1775722060678267000,1.402266845703125,0.025566555559635162,0.06977125257253647,0.08418063074350357
1775722060688279800,1.41227978515625,0.02152406983077526,0.054124731570482254,0.08165363222360611
1775722060698293000,1.42229296875,0.018794063478708267,0.043782077729701996,0.07252298295497894
1775722060708306000,1.432305908203125,0.015237734653055668,0.03245865926146507,0.05540785565972328
1775722060718318800,1.44231884765625,0.011844601482152939,0.021273115649819374,0.03392307087779045
1775722060728332000,1.45233203125,0.011533201672136784,0.0025510836858302355,0.0008229830418713391
1775722060738345000,1.462344970703125,0.009559799917042255,-0.02017952874302864,-0.03146757930517197
1775722060748359000,1.47235888671875,0.0022357061970978975,-0.022582413628697395,-0.05328299477696419
1775722060758371800,1.482371826171875,-0.0098257502540946,-0.006534472107887268,-0.05806390196084976
1775722060768385000,1.492385009765625,-0.024006683379411697,-0.0014213838148862123,-0.055888500064611435
1775722060778398000,1.50239794921875,-0.027042953297495842,-0.018775872886180878,-0.05327913165092468
1775722060788411000,1.512410888671875,-0.017348799854516983,-0.035215236246585846,-0.0441812202334404
1775722060798424000,1.522424072265625,-0.008129735477268696,-0.026550374925136566,-0.02914687804877758
1775722060808437000,1.53243701171875,-0.0005016042850911617,-0.0147965457290411,-0.01288112998008728
1775722060818450000,1.542449951171875,0.002059291349723935,-0.015436502173542976,0.0039511132054030895
1775722060828462800,1.552462890625,0.005334864836186171,-0.008233696222305298,0.015835851430892944
1775722060838476000,1.56247607421875,0.011814868077635765,0.019355852156877518,0.030049942433834076
1775722060848489000,1.572489013671875,0.01532763335853815,0.039740901440382004,0.0429140143096447
1775722060858502000,1.582501953125,0.014389668591320515,0.03973397985100746,0.05116608738899231
1775722060868514800,1.592514892578125,0.018092509359121323,0.02350333333015442,0.049154091626405716
1775722060878528000,1.602528076171875,0.02402842789888382,0.007221830543130636,0.03652937710285187
1775722060888540700,1.612540771484375,0.031294044107198715,0.005755292251706123,0.028440307825803757
1775722060898553900,1.622553955078125,0.030499625951051712,-0.004085620865225792,0.031124774366617203
1775722060908567000,1.632567138671875,0.0207656379789114,-0.021270018070936203,0.037730611860752106
1775722060918579700,1.642579833984375,0.005535820033401251,-0.02439257502555847,0.03884141519665718
1775722060928593000,1.652593017578125,-0.00390898622572422,-0.010415026918053627,0.03071255423128605
1775722060938605800,1.662605712890625,-0.008462991565465927,0.006944254972040653,0.010908490046858788
1775722060948619000,1.672618896484375,-0.006387476809322834,0.005483926273882389,-0.015401257202029228
1775722060958631700,1.682631591796875,-0.0007160089444369078,-0.013938507065176964,-0.03534993529319763
1775722060968646000,1.69264599609375,0.003999993670731783,-0.02026740275323391,-0.03908402845263481
1775722060978658800,1.702658935546875,0.004709193482995033,-0.014322694391012192,-0.028686515986919403
1775722060988671700,1.712671630859375,-0.0012172734132036567,-0.018830370157957077,-0.013244040310382843
1775722060998685000,1.722684814453125,-0.013509892858564854,-0.03058982640504837,-0.000286963302642107
1775722061008697900,1.73269775390625,-0.02070678025484085,-0.03296513110399246,0.005883010104298592
1775722061018710800,1.742710693359375,-0.021458590403199196,-0.022329797968268394,0.002237142762169242
1775722061028724000,1.752723876953125,-0.016364021226763725,-0.0184475164860487,-0.003647853620350361
1775722061038737000,1.76273681640625,-0.00814071111381054,-0.005198555998504162,0.000022248481400310993
1775722061048749800,1.772749755859375,-0.0025881340261548758,0.017147080972790718,0.010679800063371658
1775722061058762800,1.7827626953125,-0.0009132720297202468,0.02137644588947296,0.020945219323039055
1775722061068776000,1.79277587890625,0.0030273301526904106,0.009897317737340927,0.02484975755214691
1775722061078788900,1.802788818359375,0.010764611884951591,0.007312719710171223,0.01720462180674076
1775722061088801800,1.8128017578125,0.03093315288424492,0.011673061177134514,0.0043539139442145824
1775722061098815000,1.82281494140625,0.04399462416768074,0.005650854669511318,-0.007953351363539696
1775722061108828000,1.832827880859375,0.051349133253097534,-0.008751990273594856,-0.021479466930031776
1775722061118840800,1.8428408203125,0.04737409949302673,-0.02224036678671837,-0.03359152376651764
1775722061128853800,1.852853759765625,0.040239278227090836,-0.027313081547617912,-0.043216243386268616
1775722061138867000,1.862866943359375,0.02727341279387474,-0.031199699267745018,-0.05027495324611664
1775722061148880000,1.8728798828125,0.0074372971430420876,-0.037549953907728195,-0.04992998018860817
1775722061158892800,1.882892822265625,-0.0103912353515625,-0.03156876191496849,-0.045627109706401825
1775722061168906000,1.892906005859375,-0.02503342740237713,0.0030844719149172306,-0.030859746038913727
1775722061178919000,1.9029189453125,-0.028497667983174324,0.034444794058799744,-0.007129386067390442
1775722061188931800,1.912931884765625,-0.02537347376346588,0.03311920538544655,0.01792985573410988
1775722061198944800,1.92294482421875,-0.01477649062871933,0.017346903681755066,0.04232281446456909
1775722061208959000,1.932958984375,-0.007127835415303707,0.008772398345172405,0.056227121502161026
1775722061218972000,1.942971923828125,0.005815393291413784,0.01664922945201397,0.060373131185770035
1775722061228984800,1.95298486328125,0.009211532771587372,0.02930671162903309,0.05809072405099869
1775722061238998000,1.962998046875,0.005206671077758074,0.02846994809806347,0.05142590031027794
1775722061249010700,1.9730107421875,-0.0026189510244876146,0.01928907260298729,0.038633327931165695
1775722061259024000,1.98302392578125,0.0005249106325209141,0.0036382072139531374,0.02362668141722679
1775722061269036800,1.993036865234375,0.00915939174592495,-0.0168929323554039,-0.001412871410138905
1775722061279050000,2.003050048828125,0.018760086968541145,-0.030531512573361397,-0.027491610497236252
1775722061289062700,2.013062744140625,0.02356821484863758,-0.033759891986846924,-0.046132463961839676
1775722061299075800,2.023075927734375,0.01707356423139572,-0.00398495327681303,-0.052212193608284
1775722061309089000,2.033089111328125,0.009038826450705528,0.035924579948186874,-0.03821410611271858
1775722061319101700,2.043101806640625,0.0006448093336075544,0.05522051453590393,-0.011682363227009773
1775722061329115000,2.053114990234375,-0.007256540469825268,0.041075561195611954,0.021208224818110466
1775722061339127800,2.0631279296875,-0.003778452053666115,0.00868646427989006,0.04530397057533264
1775722061349141000,2.07314111328125,0.004402377177029848,-0.022968946024775505,0.05442703515291214
1775722061359153700,2.083153564453125,0.01158731896430254,-0.03082340583205223,0.04763517528772354
1775722061369166800,2.093166748046875,0.0112918047234416,-0.02884250320494175,0.026540180668234825
1775722061379180000,2.103179931640625,0.0075758956372737885,-0.02233853191137314,-0.00004109693691134453
1775722061389192700,2.113192626953125,0.0025630458258092403,-0.004926146473735571,-0.022927789017558098
1775722061399206000,2.123205810546875,-0.001327033620327711,0.01044189091771841,-0.037515789270401
1775722061409218800,2.13321875,-0.005464367102831602,-0.000733052147552371,-0.04577786475419998
1775722061419232000,2.14323193359375,-0.003896830603480339,-0.03154129907488823,-0.049880463629961014
1775722061429244700,2.15324462890625,0.00047524156980216503,-0.04468565806746483,-0.04703696817159653
1775722061439259000,2.1632587890625,0.0015511587262153625,-0.024989454075694084,-0.03773640841245651
1775722061449271800,2.173271728515625,-0.007130060810595751,-0.0036213677376508713,-0.01722835749387741
1775722061459284700,2.18328466796875,-0.022190503776073456,0.006769753992557526,0.009866641834378242
1775722061469298000,2.1932978515625,-0.030511930584907532,-0.0026260269805788994,0.03312120959162712
1775722061479310800,2.203310791015625,-0.03238280117511749,-0.023164592683315277,0.04142201691865921
1775722061489323800,2.21332373046875,-0.0208235215395689,-0.026636075228452682,0.039410438388586044
1775722061499337000,2.2233369140625,-0.003080476773902774,-0.011796941980719566,0.03187475726008415
1775722061509350000,2.233349853515625,0.0036084898747503757,-0.004125652834773064,0.01637924835085869
1775722061519362800,2.24336279296875,0.006398151163011789,0.008041530847549438,0.005437652114778757
1775722061529375700,2.253375732421875,0.005015609785914421,0.024809379130601883,0.002463261131197214
1775722061539389000,2.263388916015625,0.007566917687654495,0.025351066142320633,0.002475245390087366
1775722061549401900,2.27340185546875,0.007861367426812649,0.0033240176271647215,0.0033765563275665045
1775722061559414800,2.283414794921875,0.01112187560647726,-0.03680263087153435,-0.002298107137903571
1775722061569428000,2.293427978515625,0.0170842744410038,-0.06572148203849792,-0.015291783958673477
1775722061579441000,2.30344091796875,0.01828589290380478,-0.0722385048866272,-0.033694759011268616
1775722061589453800,2.313453857421875,0.012560857459902763,-0.04443230852484703,-0.041363026946783066
1775722061599466800,2.323466796875,0.003282936755567789,-0.00277354521676898,-0.03803008049726486
1775722061609480000,2.33347998046875,-0.00901489332318306,0.024932362139225006,-0.02760259062051773
1775722061619492900,2.343492919921875,-0.014361722394824028,0.034087780863046646,-0.01411554217338562
1775722061629505800,2.353505859375,-0.006137634161859751,0.0413547158241272,-0.0027310410514473915
1775722061639519000,2.36351904296875,0.0034204507246613503,0.043682850897312164,0.015353154391050339
1775722061649532000,2.373531982421875,0.011085771024227142,0.034236010164022446,0.03361716866493225
1775722061659545900,2.3835458984375,0.015449892729520798,0.00965130515396595,0.04052247852087021
1775722061669558800,2.393558837890625,0.017633838579058647,-0.010520593263208866,0.03476483374834061
1775722061679572000,2.403572021484375,0.01615605130791664,-0.022583648562431335,0.015628958120942116
1775722061689585000,2.4135849609375,0.005014998838305473,-0.029042871668934822,-0.007798085454851389
1775722061699597800,2.423597900390625,-0.006112487055361271,-0.021055251359939575,-0.032479461282491684
1775722061709611000,2.433611083984375,-0.012654231861233711,-0.003530955407768488,-0.05009712278842926
1775722061719623700,2.443623779296875,-0.012728001922369003,0.015864048153162003,-0.05273498222231865
1775722061729636900,2.453636962890625,-0.005260693375021219,0.03330570459365845,-0.04033084586262703
1775722061739649800,2.46364990234375,0.005236689001321793,0.031054269522428513,-0.016584500670433044
1775722061749663000,2.4736630859375,0.00969704706221819,0.00580914132297039,0.014574919827282429
1775722061759675600,2.483675537109375,0.012720000930130482,-0.026599131524562836,0.03640911355614662
1775722061769688800,2.493688720703125,0.009914779104292393,-0.04551021754741669,0.04126949608325958
1775722061779702000,2.503701904296875,0.010467917658388615,-0.0486610047519207,0.026887094601988792
1775722061789714700,2.513714599609375,0.0019090119749307632,-0.046804122626781464,0.002000425709411502
1775722061799727900,2.523727783203125,-0.012151413597166538,-0.04178858920931816,-0.0336100310087204
1775722061809740800,2.53374072265625,-0.015313876792788506,-0.011748695746064186,-0.05995965749025345
1775722061819754000,2.54375390625,-0.017532823607325554,0.02240900881588459,-0.07717885822057724
1775722061829766700,2.5537666015625,-0.015592179261147976,0.0324556864798069,-0.07439371943473816
1775722061839779800,2.56377978515625,-0.00752413272857666,0.02566222846508026,-0.05140691250562668
1775722061849793000,2.57379296875,0.006285612937062979,0.0041183107532560825,-0.016054436564445496
1775722061859805700,2.5838056640625,0.017424549907445908,-0.014155767858028412,0.016273675486445427
1775722061869818400,2.593818359375,0.02985137328505516,-0.02145169861614704,0.03871056064963341
1775722061879831600,2.60383154296875,0.03184022381901741,-0.024969736114144325,0.05297711491584778
1775722061889845500,2.613845458984375,0.027029411867260933,-0.02965567260980606,0.04689586162567139
1775722061899858400,2.6238583984375,0.018634328618645668,-0.04476219043135643,0.023800663650035858
1775722061909871600,2.63387158203125,0.012674023397266865,-0.048212334513664246,-0.016350068151950836
1775722061919884800,2.643884765625,0.0009031172376126051,-0.03408799320459366,-0.05849991738796234
1775722061929897500,2.6538974609375,-0.005952715873718262,-0.009108246304094791,-0.08519405871629715
1775722061939910700,2.66391064453125,-0.00898552406579256,0.017333215102553368,-0.09032916277647018
1775722061949923600,2.673923583984375,-0.009467403404414654,0.02642403170466423,-0.07490801066160202
1775722061959936500,2.6839365234375,-0.0019290598575025797,0.009218147024512291,-0.04560445621609688
1775722061969949400,2.693949462890625,0.011909257620573044,-0.01773836836218834,-0.015773054212331772
1775722061979962600,2.703962646484375,0.029405200853943825,-0.03280843049287796,0.01656567119061947
1775722061989975600,2.7139755859375,0.03568301349878311,-0.04422370716929436,0.04715000092983246
1775722061999988500,2.723988525390625,0.018421465530991554,-0.04496726393699646,0.0756724551320076
1775722062010001700,2.734001708984375,-0.012212647125124931,-0.027397291734814644,0.09284136444330215
1775722062020014600,2.7440146484375,-0.04728088527917862,-0.011505410075187683,0.08703913539648056
1775722062030027500,2.754027587890625,-0.06981039047241211,0.0002131692599505186,0.054476093500852585
1775722062040040400,2.76404052734375,-0.07774661481380463,0.0016190519090741873,0.0018592207925394177
1775722062050053600,2.7740537109375,-0.07606043666601181,0.004146401770412922,-0.04927307367324829
1775722062060066600,2.784066650390625,-0.06933222711086273,0.02414940483868122,-0.08140037953853607
1775722062070079500,2.79407958984375,-0.06256459653377533,0.050538402050733566,-0.08334795385599136
1775722062080092700,2.8040927734375,-0.054475244134664536,0.06253301352262497,-0.060910820960998535
1775722062090105600,2.814105712890625,-0.04068484529852867,0.04643520712852478,-0.024144833907485008
1775722062100118500,2.824118408203125,-0.01823226548731327,0.018060022965073586,0.014948772266507149
1775722062110132500,2.834132568359375,0.006519610062241554,-0.011554338037967682,0.0423612967133522
1775722062120145700,2.844145751953125,0.0305011123418808,-0.047136832028627396,0.053069066256284714
1775722062130158600,2.85415869140625,0.04070346802473068,-0.07905404269695282,0.04021686315536499
1775722062140171500,2.864171630859375,0.04016231372952461,-0.08084342628717422,0.009182248264551163
1775722062150184700,2.874184814453125,0.0343506895005703,-0.04861625283956528,-0.02922631800174713
1775722062160197400,2.884197265625,0.021288949996232986,0.00835249200463295,-0.06409215182065964
1775722062170210600,2.89421044921875,0.008789383806288242,0.05244651436805725,-0.08042903244495392
1775722062180223500,2.904223388671875,-0.0011077218223363161,0.0651460587978363,-0.07317165285348892
1775722062190236700,2.914236572265625,0.0045814188197255135,0.05230008065700531,-0.0442037470638752
1775722062200249600,2.92424951171875,0.02017262950539589,0.02017303928732872,-0.007195127196609974
1775722062210262500,2.934262451171875,0.045138679444789886,-0.00993562676012516,0.029946934431791306
1775722062220275700,2.944275634765625,0.0708693414926529,-0.05000501498579979,0.057085346430540085
1775722062230288400,2.954288330078125,0.08451089262962341,-0.08247190713882446,0.07636978477239609
1775722062240301600,2.964301513671875,0.09872204810380936,-0.07322940975427628,0.09055830538272858
1775722062250314500,2.974314453125,0.10700435191392899,-0.06305871158838272,0.09840598702430725
1775722062260327700,2.98432763671875,0.11261163651943207,-0.10433477908372879,0.08924550563097
1775722062270340600,2.994340576171875,0.13059215247631073,-0.16689349710941315,0.06603293865919113
1775722062280353500,3.004353515625,0.15946455299854279,-0.21434757113456726,0.04235929995775223
1775722062290366700,3.01436669921875,0.1803460270166397,-0.22387951612472534,0.013801253400743008
1775722062300379400,3.02437939453125,0.18917280435562134,-0.17240700125694275,-0.02459567040205002
1775722062310392600,3.034392578125,0.19001106917858124,-0.12789000570774078,-0.058051519095897675
1775722062320405500,3.044405517578125,0.1873851865530014,-0.10207625478506088,-0.06647828966379166
1775722062330418700,3.054418701171875,0.19864119589328766,-0.08343490958213806,-0.04769277200102806
1775722062340432600,3.0644326171875,0.22271430492401123,-0.0896560549736023,-0.016202755272388458
1775722062350445600,3.074445556640625,0.2512572109699249,-0.12125595659017563,0.021222438663244247
1775722062360458500,3.08445849609375,0.27664750814437866,-0.1281474232673645,0.06468948721885681
1775722062370471400,3.094471435546875,0.2989973723888397,-0.09945764392614365,0.10815887898206711
1775722062380484600,3.104484619140625,0.3068116009235382,-0.07219193875789642,0.14832226932048798
1775722062390497800,3.114497802734375,0.3055099844932556,-0.07847326248884201,0.17858630418777466
1775722062400510500,3.124510498046875,0.29985371232032776,-0.09841128438711166,0.2030080258846283
1775722062410523600,3.134523681640625,0.286633163690567,-0.08310209959745407,0.22372028231620789
1775722062420536600,3.14453662109375,0.27174103260040283,-0.03250017389655113,0.24541731178760529
1775722062430549500,3.154549560546875,0.25207775831222534,0.007051814813166857,0.27018535137176514
1775722062440562400,3.1645625,0.21890437602996826,0.005605185870081186,0.29433542490005493
1775722062450575600,3.17457568359375,0.1725499927997589,-0.014489758759737015,0.3101241886615753
1775722062460588500,3.184588623046875,0.10842746496200562,-0.0025931522250175476,0.3163474500179291
1775722062470601500,3.1946015625,0.04077330231666565,0.018456973135471344,0.30955371260643005
1775722062480614700,3.20461474609375,-0.017761647701263428,0.02439422346651554,0.2977551221847534
1775722062490627600,3.214627685546875,-0.05850242078304291,0.0018223358783870935,0.28309202194213867
1775722062500640500,3.224640625,-0.07051008194684982,-0.052974067628383636,0.2724284529685974
1775722062510653400,3.2346533203125,-0.053693246096372604,-0.12336660176515579,0.25516581535339355
1775722062520666600,3.24466650390625,-0.012651003897190094,-0.1994059830904007,0.23147407174110413
1775722062530679600,3.254679443359375,0.03297879919409752,-0.2588725984096527,0.20490451157093048
1775722062540692500,3.2646923828125,0.07062391191720963,-0.3051988184452057,0.17968784272670746
1775722062550705700,3.27470556640625,0.08714420348405838,-0.3154313266277313,0.16531725227832794
1775722062560719600,3.2847197265625,0.07362093776464462,-0.2774876654148102,0.160623699426651
1775722062570732500,3.294732666015625,0.05168497562408447,-0.2253597378730774,0.1633436232805252
1775722062580745500,3.304745361328125,0.03260209411382675,-0.16986903548240662,0.17888928949832916
1775722062590758700,3.314758544921875,0.030560553073883057,-0.12097182869911194,0.20764286816120148
1775722062600771600,3.324771484375,0.04977978765964508,-0.12786754965782166,0.24259579181671143
1775722062610784500,3.334784423828125,0.07602277398109436,-0.18909037113189697,0.2734355628490448
1775722062620797700,3.344797607421875,0.09448780119419098,-0.25511229038238525,0.2919903099536896
1775722062630810600,3.354810546875,0.1002226248383522,-0.30393847823143005,0.2923871576786041
1775722062640823600,3.364823486328125,0.08454646170139313,-0.3058173358440399,0.27263158559799194
1775722062650836500,3.37483642578125,0.05867718160152435,-0.25248435139656067,0.23844414949417114
1775722062660849700,3.384849609375,0.024574339389801025,-0.18097929656505585,0.20684973895549774
1775722062670862600,3.394862548828125,-0.017178092151880264,-0.1155119389295578,0.19432295858860016
1775722062680875500,3.40487548828125,-0.05074644088745117,-0.07041823118925095,0.20495270192623138
1775722062690888700,3.414888671875,-0.06779178977012634,-0.06880975514650345,0.23100699484348297
1775722062700901600,3.424901611328125,-0.07184165716171265,-0.08776134252548218,0.26554739475250244
1775722062710914600,3.43491455078125,-0.06278438121080399,-0.130621537566185,0.29927247762680054
1775722062720927500,3.444927490234375,-0.05428623408079147,-0.19134826958179474,0.3159281611442566
1775722062730940700,3.454940673828125,-0.0435372032225132,-0.2228923887014389,0.3008650839328766
1775722062740953600,3.46495361328125,-0.03188427537679672,-0.24509568512439728,0.2773299217224121
1775722062750966500,3.474966552734375,-0.03896959871053696,-0.29179999232292175,0.2369702160358429
1775722062760979700,3.484979736328125,-0.03445740416646004,-0.285129576921463,0.17716200649738312
1775722062770992600,3.49499267578125,-0.015324912033975124,-0.20957796275615692,0.11788422614336014
1775722062781006600,3.505006591796875,0.016876166686415672,-0.09540771692991257,0.08425542712211609
1775722062791019800,3.515019775390625,0.029641803354024887,-0.015063373371958733,0.09571630507707596
1775722062801032400,3.525032470703125,0.022958865389227867,0.0071007851511240005,0.15773414075374603
1775722062811045600,3.535045654296875,0.025766141712665558,-0.020637497305870056,0.24495340883731842
1775722062821058600,3.54505859375,0.06195450201630592,-0.057939596474170685,0.3215741813182831
1775722062831071500,3.555071533203125,0.12802909314632416,-0.09467324614524841,0.37261128425598145
1775722062841084400,3.56508447265625,0.21432030200958252,-0.14681394398212433,0.3867872953414917
1775722062851097600,3.57509765625,0.30033251643180847,-0.19678661227226257,0.3701688051223755
1775722062861110500,3.585110595703125,0.35673612356185913,-0.1869550198316574,0.34356170892715454
1775722062871124200,3.595124267578125,0.36394819617271423,-0.1434703767299652,0.3297196924686432
1775722062881137400,3.605137451171875,0.32616591453552246,-0.12025745213031769,0.32884085178375244
1775722062891150300,3.615150390625,0.27826154232025146,-0.11575215309858322,0.32787808775901794
1775722062901163300,3.625163330078125,0.24292805790901184,-0.10604919493198395,0.3135281801223755
1775722062911176200,3.63517626953125,0.2364761382341385,-0.10282641649246216,0.2821536064147949
1775722062921189400,3.645189453125,0.25685441493988037,-0.11566578596830368,0.24849897623062134
1775722062931202300,3.655202392578125,0.27562838792800903,-0.15362198650836945,0.22796037793159485
1775722062941215200,3.66521533203125,0.2761370539665222,-0.190508633852005,0.22921419143676758
1775722062951228400,3.675228515625,0.24691803753376007,-0.19728565216064453,0.24423055350780487
1775722062961241300,3.685241455078125,0.2026648223400116,-0.18957526981830597,0.27318763732910156
1775722062971254300,3.695254150390625,0.15555192530155182,-0.15964630246162415,0.30179983377456665
1775722062981267200,3.70526708984375,0.10696734488010406,-0.09356848150491714,0.322652131319046
1775722062991280400,3.7152802734375,0.06018953397870064,-0.041629642248153687,0.3267218768596649
1775722063001293300,3.725293212890625,0.01609957031905651,-0.03982561454176903,0.3121615946292877
1775722063011307300,3.735307373046875,-0.015435148030519485,-0.06691958010196686,0.2813996374607086
1775722063021320400,3.745320556640625,-0.022817961871623993,-0.07480067759752274,0.2462024986743927
1775722063031333000,3.7553330078125,-0.01863166131079197,-0.07736998796463013,0.21680645644664764
1775722063041346300,3.76534619140625,-0.016333887353539467,-0.10910021513700485,0.18835189938545227
1775722063051359500,3.775359375,-0.016006719321012497,-0.16039298474788666,0.16073238849639893
1775722063061372200,3.7853720703125,-0.019442729651927948,-0.18900305032730103,0.13515326380729675
1775722063071385300,3.79538525390625,-0.02824590355157852,-0.15644584596157074,0.1113998293876648
1775722063081398300,3.805398193359375,-0.029062962159514427,-0.08198573440313339,0.09851998090744019
1775722063091411500,3.815411376953125,-0.0204041488468647,-0.012057142332196236,0.10147228837013245
1775722063101424000,3.825424072265625,-0.03397827968001366,0.03886888921260834,0.12687377631664276
1775722063111437300,3.835437255859375,-0.06069231778383255,0.07802347093820572,0.15738628804683685
1775722063121450500,3.845450439453125,-0.08112089335918427,0.1094900518655777,0.1767709106206894
1775722063131463200,3.855463134765625,-0.0984472706913948,0.1393626630306244,0.19634364545345306
1775722063141476400,3.865476318359375,-0.11380039155483246,0.14511296153068542,0.21834349632263184
1775722063151489300,3.8754892578125,-0.11905720829963684,0.11012693494558334,0.2310028225183487
1775722063161502500,3.88550244140625,-0.10425882041454315,0.04980925843119621,0.23043105006217957
1775722063171515100,3.89551513671875,-0.061373479664325714,0.013344278559088707,0.21018870174884796
1775722063181528300,3.9055283203125,0.004819657653570175,0.01372431218624115,0.17657747864723206
1775722063191541500,3.91554150390625,0.08072115480899811,0.023102547973394394,0.14753377437591553
1775722063201554200,3.92555419921875,0.14610974490642548,0.025461575016379356,0.136778324842453
1775722063211567400,3.9355673828125,0.1881258636713028,0.03375771641731262,0.14447356760501862
1775722063221580300,3.945580322265625,0.20304594933986664,0.061325427144765854,0.15947969257831573
1775722063231594200,3.95559423828125,0.21052953600883484,0.09520460665225983,0.17248699069023132
1775722063241607400,3.965607421875,0.2208000272512436,0.12874151766300201,0.1812131106853485
1775722063251620400,3.975620361328125,0.2376023232936859,0.1519283652305603,0.19031670689582825
1775722063261633300,3.98563330078125,0.2507348954677582,0.16552487015724182,0.20074591040611267
1775722063271646200,3.995646240234375,0.24076643586158752,0.1687384396791458,0.20328283309936523
1775722063281659400,4.005659423828125,0.20286832749843597,0.16346991062164307,0.1950099915266037
1775722063291672300,4.01567236328125,0.13540160655975342,0.15563231706619263,0.1731462925672531
1775722063301685200,4.025685302734375,0.028041603043675423,0.18323571979999542,0.14593437314033508
1775722063311698200,4.0356982421875,-0.09378074109554291,0.24037298560142517,0.110636867582798
1775722063321711400,4.04571142578125,-0.2219160795211792,0.2900015413761139,0.0708140879869461
1775722063331724300,4.055724365234375,-0.3210831582546234,0.325590044260025,0.021457478404045105
1775722063341737200,4.0657373046875,-0.38693967461586,0.3648016154766083,-0.023246077820658684
1775722063351750400,4.07575048828125,-0.4258185923099518,0.382773756980896,-0.05063273012638092
1775722063361763300,4.085763427734375,-0.4496901035308838,0.358674556016922,-0.05618009716272354
1775722063371776300,4.0957763671875,-0.4750779867172241,0.2875579595565796,-0.04279027506709099
1775722063381789200,4.1057890625,-0.49996230006217957,0.2268112599849701,-0.01968921348452568
1775722063391802400,4.11580224609375,-0.5222369432449341,0.203030064702034,-0.005972890183329582
1775722063401815300,4.125815185546875,-0.5267563462257385,0.18755416572093964,-0.009488795883953571
1775722063411828200,4.135828125,-0.5089758634567261,0.18760570883750916,-0.024761337786912918
1775722063421841400,4.14584130859375,-0.4723188281059265,0.2138330489397049,-0.03789977729320526
1775722063431854300,4.155854248046875,-0.4302707016468048,0.2639824450016022,-0.04658409580588341
1775722063441867300,4.1658671875,-0.38735756278038025,0.3147311210632324,-0.05020493268966675
1775722063451880200,4.175880126953125,-0.3504074513912201,0.3487529456615448,-0.05093952268362045
1775722063461894400,4.185894287109375,-0.306325763463974,0.36737775802612305,-0.04443954676389694
1775722063471907300,4.1959072265625,-0.2417653501033783,0.3470785915851593,-0.024694912135601044
1775722063481920300,4.205920166015625,-0.15858285129070282,0.2765205204486847,0.0037037055008113384
1775722063491933400,4.215933349609375,-0.0595872588455677,0.20418697595596313,0.03202878311276436
1775722063501946000,4.225946044921875,0.04164402186870575,0.16599377989768982,0.049102310091257095
1775722063511959300,4.235959228515625,0.1270235776901245,0.14112432301044464,0.05533229932188988
1775722063521972500,4.245972412109375,0.19009362161159515,0.08598489314317703,0.04211129993200302
1775722063531985400,4.2559853515625,0.23344476521015167,0.003581386525183916,0.006381855346262455
1775722063541998300,4.265998291015625,0.2790508568286896,-0.06789226830005646,-0.04873918741941452
1775722063552011300,4.27601123046875,0.33501923084259033,-0.12010278552770615,-0.11343047022819519
1775722063562024400,4.2860244140625,0.3859497904777527,-0.14681002497673035,-0.1663253754377365
1775722063572037000,4.296037109375,0.4046124219894409,-0.1384948343038559,-0.1831810474395752
1775722063582050300,4.30605029296875,0.38494977355003357,-0.12738625705242157,-0.1560192108154297
1775722063592063500,4.3160634765625,0.3288806974887848,-0.1456732600927353,-0.10565727204084396
1775722063602076400,4.326076416015625,0.2593165338039398,-0.18163232505321503,-0.049580153077840805
1775722063612089300,4.33608935546875,0.19473698735237122,-0.19099842011928558,-0.0009534760611131787
1775722063622102300,4.346102294921875,0.1415073126554489,-0.18525397777557373,0.029706431552767754
1775722063632115500,4.356115478515625,0.09412359446287155,-0.17252570390701294,0.046900294721126556
1775722063642128100,4.366128173828125,0.0331939272582531,-0.14084553718566895,0.065733902156353
1775722063652141300,4.376141357421875,-0.05104998126626015,-0.07131484150886536,0.08327201753854752
1775722063662154200,4.386154296875,-0.13404633104801178,0.004040365107357502,0.08987905085086823
1775722063672167400,4.39616748046875,-0.19122403860092163,0.05229289084672928,0.08112834393978119
1775722063682181400,4.406181396484375,-0.2021975815296173,0.08906901627779007,0.05730317160487175
1775722063692194300,4.4161943359375,-0.1725202351808548,0.11864034086465836,0.029944898560643196
1775722063702207200,4.426207275390625,-0.13888132572174072,0.10397884249687195,0.011244712397456169
1775722063712220400,4.436220458984375,-0.12235920131206512,0.05194634944200516,0.0009360169060528278
1775722063722233300,4.4462333984375,-0.11926461011171341,0.029441043734550476,-0.004775132052600384
1775722063732246300,4.456246337890625,-0.11505119502544403,0.04169365018606186,-0.014297815971076488
1775722063742259200,4.46625927734375,-0.1105768233537674,0.07081850618124008,-0.0245046466588974
1775722063752272400,4.4762724609375,-0.09111612290143967,0.11455879360437393,-0.029530756175518036
1775722063762285300,4.486285400390625,-0.061665814369916916,0.155620738863945,-0.027613280341029167
1775722063772298200,4.49629833984375,-0.03043026477098465,0.17426571249961853,-0.023176321759819984
1775722063782311200,4.506311279296875,0.0015284668188542128,0.1659284085035324,-0.018238553777337074
1775722063792324400,4.516324462890625,0.03613506630063057,0.1430971622467041,-0.011017277836799622
1775722063802337500,4.526337646484375,0.06960034370422363,0.12852060794830322,-0.00017794582527130842
1775722063812350200,4.53635009765625,0.09191394597291946,0.12946714460849762,0.009347611106932163
1775722063822363400,4.54636328125,0.08667178452014923,0.1354145109653473,0.015828413888812065
1775722063832376300,4.556376220703125,0.06329194456338882,0.13293075561523438,0.007729151286184788
1775722063842389200,4.56638916015625,0.027182675898075104,0.12028313428163528,-0.014315696433186531
1775722063852402200,4.576402099609375,-0.011753574013710022,0.09875772893428802,-0.040248457342386246
1775722063862415400,4.586415283203125,-0.038555096834897995,0.07378394156694412,-0.06753040850162506
1775722063872428300,4.59642822265625,-0.05013743042945862,0.06076368689537048,-0.08777578175067902
1775722063882441200,4.606441162109375,-0.045974910259246826,0.07428881525993347,-0.0994393602013588
1775722063892454100,4.6164541015625,-0.03026486560702324,0.10796855390071869,-0.10151215642690659
1775722063902467300,4.62646728515625,-0.0040068961679935455,0.11397291719913483,-0.0889899730682373
1775722063912481300,4.636481201171875,0.02404421754181385,0.06602656841278076,-0.07266269624233246
1775722063922494200,4.646494140625,0.049681406468153,0.01655329018831253,-0.05309672653675079
1775722063932507400,4.65650732421875,0.07183930277824402,-0.01782766915857792,-0.037315499037504196
1775722063942520000,4.66652001953125,0.09457151591777802,-0.036931589245796204,-0.031217925250530243
1775722063952533200,4.676533203125,0.12191761285066605,-0.044326357543468475,-0.038107216358184814
1775722063962546200,4.686546142578125,0.14815081655979156,-0.043437659740448,-0.048829637467861176
1775722063972559000,4.69655908203125,0.18045981228351593,-0.051177434623241425,-0.058535851538181305
1775722063982572000,4.706572021484375,0.21635068953037262,-0.08649947494268417,-0.06023707613348961
1775722063992585200,4.716585205078125,0.23680420219898224,-0.15792027115821838,-0.049103088676929474
1775722064002598400,4.726598388671875,0.2262817770242691,-0.2132469117641449,-0.030136587098240852
1775722064012611000,4.736611083984375,0.17640309035778046,-0.20014916360378265,-0.014474192634224892
1775722064022624300,4.746624267578125,0.09516575932502747,-0.10455206036567688,-0.017616456374526024
1775722064032637200,4.75663720703125,0.00671481853350997,0.048128869384527206,-0.04272297024726868
1775722064042650000,4.766650146484375,-0.10030830651521683,0.15298232436180115,-0.06593667715787888
1775722064052663000,4.7766630859375,-0.17730535566806793,0.16410064697265625,-0.0773959755897522
1775722064062676200,4.78667626953125,-0.20811574161052704,0.12625525891780853,-0.09088701754808426
1775722064072689400,4.796689453125,-0.20200121402740479,0.07624631375074387,-0.10797750949859619
1775722064082702000,4.8067021484375,-0.1761925220489502,0.0032141786068677902,-0.1304551213979721
1775722064092715300,4.81671533203125,-0.1297488957643509,-0.07633575052022934,-0.16519014537334442
1775722064102728200,4.826728271484375,-0.0780675932765007,-0.13088448345661163,-0.20569710433483124
1775722064112741000,4.8367412109375,-0.03458943963050842,-0.16330617666244507,-0.21958805620670319
1775722064122754000,4.846754150390625,-0.012085195630788803,-0.19426622986793518,-0.21307343244552612
1775722064132767200,4.856767333984375,-0.009642868302762508,-0.22276568412780762,-0.1923462599515915
1775722064142781200,4.86678125,0.014383639208972454,-0.21059183776378632,-0.19003570079803467
1775722064152794000,4.876794189453125,0.06425825506448746,-0.15529875457286835,-0.2087012678384781
1775722064162807300,4.886807373046875,0.12356202304363251,-0.07947780191898346,-0.22965845465660095
1775722064172820000,4.896820068359375,0.16836486756801605,-0.03747253119945526,-0.23669873178005219
1775722064182833200,4.906833251953125,0.18110783398151398,-0.05326960235834122,-0.2264772653579712
1775722064192846300,4.916846435546875,0.16519467532634735,-0.10699455440044403,-0.20790600776672363
1775722064202859300,4.926859375,0.14664895832538605,-0.1733836829662323,-0.19369006156921387
1775722064212872200,4.9368720703125,0.13212233781814575,-0.1840256303548813,-0.1858985722064972
1775722064222885000,4.946885009765625,0.14074379205703735,-0.14489367604255676,-0.18899476528167725
1775722064232898300,4.956898193359375,0.15025009214878082,-0.12890644371509552,-0.1878177970647812
1775722064242911000,4.966910888671875,0.1567828208208084,-0.16364790499210358,-0.18491575121879578
1775722064252924200,4.976924072265625,0.16010966897010803,-0.2258448302745819,-0.18535280227661133
1775722064262937300,4.986937255859375,0.13651806116104126,-0.2516481876373291,-0.18351761996746063
1775722064272950300,4.9969501953125,0.09266354888677597,-0.17239461839199066,-0.17503227293491364
1775722064282963200,5.006963134765625,0.02250310406088829,-0.041726354509592056,-0.16644226014614105
1775722064292976000,5.01697607421875,-0.06689681857824326,0.05480773746967316,-0.164223313331604
1775722064302989300,5.0269892578125,-0.13472487032413483,0.07540302723646164,-0.17295394837856293
1775722064313002000,5.037001953125,-0.16116686165332794,0.055632688105106354,-0.1967170685529709
1775722064323015200,5.04701513671875,-0.149095818400383,0.02913716621696949,-0.23446764051914215
1775722064333028000,5.057028076171875,-0.11524315178394318,-0.05260524898767471,-0.27401360869407654
1775722064343041300,5.067041259765625,-0.08484077453613281,-0.14771047234535217,-0.3176228702068329
1775722064353054200,5.07705419921875,-0.07877453416585922,-0.1970282644033432,-0.354087233543396
1775722064363067100,5.087067138671875,-0.0967191830277443,-0.19414351880550385,-0.3919807970523834
1775722064373081000,5.0970810546875,-0.1192622110247612,-0.16270950436592102,-0.44284966588020325
1775722064383094000,5.107093994140625,-0.13664546608924866,-0.10528001934289932,-0.49317649006843567
1775722064393107200,5.117107177734375,-0.12994256615638733,-0.05398587882518768,-0.5350149869918823
1775722064403120400,5.127120361328125,-0.10576453059911728,-0.02074403502047062,-0.5688571333885193
1775722064413133000,5.137133056640625,-0.08821910619735718,0.013104445300996304,-0.5752079486846924
1775722064423146200,5.147146240234375,-0.09548234939575195,0.03501666709780693,-0.544891893863678
1775722064433159200,5.1571591796875,-0.11367246508598328,0.022547854110598564,-0.48522886633872986
1775722064443172000,5.167172119140625,-0.14860913157463074,0.0070317452773451805,-0.39903727173805237
1775722064453185000,5.17718505859375,-0.2102765440940857,-0.004904947243630886,-0.31519263982772827
1775722064463198200,5.1871982421875,-0.2756299674510956,-0.017254557460546494,-0.2723679542541504
1775722064473211400,5.19721142578125,-0.3222310543060303,0.011602155864238739,-0.2957842946052551
1775722064483224000,5.20722412109375,-0.3233533203601837,0.05523671954870224,-0.3808363378047943
1775722064493237200,5.2172373046875,-0.25772321224212646,0.08243920654058456,-0.47982946038246155
1775722064503250200,5.227250244140625,-0.20083941519260406,0.09321941435337067,-0.5305835008621216
1775722064513263000,5.23726318359375,-0.17116616666316986,0.03932925686240196,-0.5209546089172363
1775722064523276000,5.247276123046875,-0.1638222336769104,-0.06965688616037369,-0.46175864338874817
1775722064533289200,5.257289306640625,-0.14183810353279114,-0.13847403228282928,-0.38485532999038696
1775722064543302400,5.267302490234375,-0.109183169901371,-0.13079865276813507,-0.31112924218177795
1775722064553315000,5.277315185546875,-0.07164884358644485,-0.06743945926427841,-0.2554263174533844
1775722064563328300,5.287328369140625,-0.032597847282886505,0.020969761535525322,-0.21358884871006012
1775722064573341200,5.297341064453125,-0.011386951431632042,0.10107100754976273,-0.18168911337852478
1775722064583354000,5.30735400390625,-0.003166306298226118,0.12926296889781952,-0.14417476952075958
1775722064593367000,5.317366943359375,0.0011721153277903795,0.1591610312461853,-0.09892512112855911
1775722064603380200,5.327380126953125,0.012128093279898167,0.2005486935377121,-0.05355311185121536
1775722064613394200,5.337394287109375,0.032525017857551575,0.21024851500988007,-0.02814420685172081
1775722064623407000,5.347406982421875,0.042457543313503265,0.1659628003835678,-0.03044198267161846
1775722064633420300,5.357420166015625,0.04006600379943848,0.07237263768911362,-0.05433664098381996
1775722064643433200,5.36743310546875,0.0364326536655426,-0.05236636474728584,-0.09416234493255615
1775722064653446100,5.377446044921875,0.03065359778702259,-0.17093083262443542,-0.13762247562408447
1775722064663459300,5.387459228515625,0.011312387883663177,-0.22347339987754822,-0.18725979328155518
1775722064673472300,5.39747216796875,-0.022066760808229446,-0.1953732669353485,-0.2485152781009674
1775722064683485200,5.407485107421875,-0.060150764882564545,-0.1306275576353073,-0.3202155828475952
1775722064693498000,5.417498046875,-0.10122814029455185,-0.0754445269703865,-0.3790237605571747
1775722064703511300,5.42751123046875,-0.12483306974172592,-0.056028757244348526,-0.4105878174304962
1775722064713524200,5.437524169921875,-0.11441081017255783,-0.05024004727602005,-0.39378219842910767
1775722064723537200,5.447537109375,-0.07356670498847961,-0.021923983469605446,-0.3279198408126831
1775722064733550000,5.457550048828125,-0.023656344041228294,0.014920219779014587,-0.2214544266462326
1775722064743563300,5.467563232421875,0.013758672401309013,0.03827054798603058,-0.08921542763710022
1775722064753576200,5.477576171875,0.029957449063658714,0.0532083585858345,0.03381744772195816
1775722064763589000,5.487589111328125,0.030914319679141045,0.044372789561748505,0.11936484277248383
1775722064773602300,5.497602294921875,0.021191325038671494,0.0238904170691967,0.15963536500930786
1775722064783615200,5.507615234375,0.0009406488388776779,0.039017174392938614,0.1583533138036728
1775722064793628200,5.517628173828125,-0.019590629264712334,0.09985420107841492,0.12033659964799881
1775722064803641000,5.52764111328125,-0.034459058195352554,0.15500853955745697,0.06946010142564774
1775722064813654300,5.537654296875,-0.051695361733436584,0.1799456775188446,0.01460703182965517
1775722064823667200,5.547667236328125,-0.06477094441652298,0.19791455566883087,-0.027838697656989098
1775722064833680100,5.55768017578125,-0.08332020789384842,0.2095344513654709,-0.04621629789471626
1775722064843693300,5.567693359375,-0.1101187989115715,0.20345790684223175,-0.04353369399905205
1775722064853707000,5.57770703125,-0.13630712032318115,0.1788761466741562,-0.028393495827913284
1775722064863720200,5.58772021484375,-0.1561833620071411,0.14620821177959442,-0.007400064263492823
1775722064873733000,5.597733154296875,-0.15951623022556305,0.1040133684873581,0.007083728909492493
1775722064883746000,5.60774609375,-0.14630721509456635,0.06407713890075684,0.0021297165658324957
1775722064893759000,5.617759033203125,-0.12264615297317505,0.050109051167964935,-0.015767468139529228
1775722064903772200,5.627772216796875,-0.09558763355016708,0.058403998613357544,-0.0330098420381546
1775722064913785000,5.63778515625,-0.07689365744590759,0.10621019452810287,-0.03523482754826546
1775722064923798000,5.647798095703125,-0.0620337538421154,0.1925075352191925,-0.02013976499438286
1775722064933811000,5.65781103515625,-0.05723562836647034,0.2625942528247833,0.012775137089192867
1775722064943824100,5.66782421875,-0.05604652687907219,0.2825669050216675,0.049072690308094025
1775722064953837000,5.677837158203125,-0.05241125822067261,0.2558615207672119,0.07750294357538223
1775722064963850000,5.68785009765625,-0.03099491447210312,0.22448574006557465,0.08549722284078598
1775722064973863200,5.69786328125,0.007702852599322796,0.20072384178638458,0.07592325657606125
1775722064983876000,5.7078759765625,0.049793314188718796,0.16976964473724365,0.05522036924958229
1775722064993889000,5.717888916015625,0.07696057111024857,0.12406405061483383,0.03577415272593498
1775722065003902000,5.72790185546875,0.08430423587560654,0.07891068607568741,0.02258484996855259
1775722065013915100,5.7379150390625,0.07885083556175232,0.03903058543801308,0.012539181858301163
1775722065023928000,5.747927978515625,0.0627664104104042,0.018270177766680717,0.0016918607288971543
1775722065033941000,5.75794091796875,0.04684764891862869,0.02541201002895832,-0.00888437032699585
1775722065043954200,5.7679541015625,0.0234919935464859,0.05069153383374214,-0.01586504839360714
1775722065053967000,5.777967041015625,-0.004859752021729946,0.06354457885026932,-0.01641872338950634
1775722065063980000,5.78797998046875,-0.022284815087914467,0.056795064359903336,-0.00947027001529932
1775722065073993000,5.797992919921875,-0.03395267575979233,0.03657790645956993,0.00012485560728237033
1775722065084006100,5.808006103515625,-0.048081543296575546,0.028535693883895874,0.010829698294401169
1775722065094019000,5.81801904296875,-0.06991606205701828,0.03536609560251236,0.019237618893384933
1775722065104032000,5.828031982421875,-0.09056302160024643,0.0671306848526001,0.02583027444779873
1775722065114046200,5.838046142578125,-0.10010375082492828,0.10723918676376343,0.034788839519023895
1775722065124059000,5.848058837890625,-0.10482127219438553,0.12051664292812347,0.046395692974328995
1775722065134072000,5.858072021484375,-0.10035978257656097,0.09262841194868088,0.050258178263902664
1775722065144085200,5.868085205078125,-0.08842695504426956,0.04227176681160927,0.04500402510166168
1775722065154098000,5.878097900390625,-0.075409896671772,0.018382053822278976,0.02530776336789131
1775722065164111000,5.888111083984375,-0.06472183018922806,0.027698054909706116,-0.0011866948334500194
1775722065174124000,5.8981240234375,-0.0601472407579422,0.050596557557582855,-0.023968251422047615
1775722065184137200,5.90813720703125,-0.061048723757267,0.07338442653417587,-0.0385139063000679
1775722065194150000,5.91814990234375,-0.05658760666847229,0.06497424095869064,-0.040593892335891724
1775722065204163000,5.9281630859375,-0.04476556554436684,0.025145864114165306,-0.034153833985328674
1775722065214176300,5.93817626953125,-0.030487405136227608,-0.012730460613965988,-0.021134067326784134
1775722065224189000,5.94818896484375,-0.02852092683315277,-0.02561350166797638,-0.006403591949492693
1775722065234202000,5.9582021484375,-0.04322608560323715,-0.0021394980140030384,0.004948920104652643
1775722065244215000,5.968215087890625,-0.0649913027882576,0.02651078812777996,0.008611299097537994
1775722065254228200,5.978228271484375,-0.09162207692861557,0.04839492216706276,0.0004963440587744117
1775722065264241000,5.988240966796875,-0.10929081588983536,0.05362483859062195,-0.018019815906882286
1775722065274254000,5.998254150390625,-0.11259905248880386,0.05136044695973396,-0.045607972890138626
1775722065284267000,6.00826708984375,-0.10090991109609604,0.05116816610097885,-0.07323693484067917
1775722065294280000,6.018280029296875,-0.08606067299842834,0.05326370149850845,-0.08775807917118073
1775722065304293000,6.028293212890625,-0.07142047584056854,0.042197734117507935,-0.08891575038433075
1775722065314306000,6.03830615234375,-0.06515172123908997,0.032742977142333984,-0.0763210728764534
1775722065324319200,6.0483193359375,-0.053547002375125885,0.03548257052898407,-0.06048271805047989
1775722065334332000,6.058331787109375,-0.035174839198589325,0.039516571909189224,-0.04209819436073303
1775722065344345000,6.068344970703125,-0.024293161928653717,0.029851159080863,-0.02240411750972271
1775722065354359000,6.078359130859375,-0.015289547853171825,0.00843428261578083,-0.007115442771464586
1775722065364372000,6.0883720703125,-0.0006315095815807581,-0.016695303842425346,-0.004500485025346279
1775722065374385200,6.09838525390625,0.016340285539627075,-0.028769180178642273,-0.00508745014667511
1775722065384398000,6.108398193359375,0.02888430655002594,0.0060279481112957,-0.005982538685202599
1775722065394411000,6.118410888671875,0.044174958020448685,0.06615082174539566,-0.002377262804657221
1775722065404424000,6.128423828125,0.051764700561761856,0.09593188762664795,0.006163228303194046
1775722065414437000,6.13843701171875,0.050984568893909454,0.07255737483501434,0.018532373011112213
1775722065424450000,6.148449951171875,0.052553970366716385,0.009735004045069218,0.02664116583764553
1775722065434463000,6.158462890625,0.0636889711022377,-0.056493476033210754,0.029111724346876144
1775722065444476200,6.16847607421875,0.07073995471000671,-0.10077891498804092,0.01886574551463127
1775722065454489000,6.178489013671875,0.06807040423154831,-0.1184452623128891,0.0022862358018755913
1775722065464502000,6.188501953125,0.05089913681149483,-0.09926863759756088,-0.016057617962360382
1775722065474515000,6.198514892578125,0.027332879602909088,-0.0706997737288475,-0.032592177391052246
1775722065484528000,6.208528076171875,0.0025391175877302885,-0.06852290034294128,-0.04736792668700218
1775722065494541000,6.218541015625,0.0008596337866038084,-0.09241034090518951,-0.06630716472864151
1775722065504554000,6.228553955078125,0.01327688992023468,-0.09947570413351059,-0.07731134444475174
1775722065514567200,6.238567138671875,0.036967966705560684,-0.08684957027435303,-0.06878350675106049
1775722065524580000,6.248580078125,0.04312066733837128,-0.08462610095739365,-0.04601427912712097
1775722065534593000,6.258593017578125,0.037189412862062454,-0.08611249923706055,-0.01685386523604393
1775722065544606000,6.26860595703125,0.030526980757713318,-0.08710505813360214,0.014232681132853031
1775722065554619100,6.278619140625,0.01940447837114334,-0.06879886239767075,0.03826725482940674
1775722065564632000,6.288632080078125,0.009452245198190212,-0.04734097048640251,0.05134710669517517
1775722065574645000,6.29864501953125,0.000005940208211541176,-0.03527116775512695,0.05307023972272873
1775722065584658200,6.308658203125,-0.01131915207952261,-0.0046261753886938095,0.0511530302464962
1775722065594671000,6.318671142578125,-0.022251851856708527,0.0420638844370842,0.059457723051309586
1775722065604684000,6.32868408203125,-0.04077679663896561,0.05452774465084076,0.07222945243120193
1775722065614698200,6.3386982421875,-0.06487306207418442,0.035612575709819794,0.08120747655630112
1775722065624711000,6.3487109375,-0.07876411080360413,0.015938475728034973,0.08341071009635925
1775722065634724000,6.35872412109375,-0.08976519107818604,0.012159599922597408,0.08118546009063721
1775722065644737000,6.368737060546875,-0.1031009703874588,0.033530134707689285,0.07029366493225098
1775722065654750200,6.378750244140625,-0.12625481188297272,0.05367900803685188,0.05624794214963913
1775722065664763000,6.388762939453125,-0.1437099725008011,0.07605089247226715,0.043155308812856674
1775722065674776000,6.398776123046875,-0.14111824333667755,0.10911625623703003,0.04004373401403427
1775722065684789200,6.408789306640625,-0.11690770089626312,0.12063682824373245,0.05590258911252022
1775722065694802000,6.418802001953125,-0.07502617686986923,0.09929407387971878,0.08498471230268478
1775722065704815000,6.428815185546875,-0.026768894866108894,0.0739237368106842,0.1334020495414734
1775722065714828000,6.438828125,0.017875825986266136,0.04987036809325218,0.1876697838306427
1775722065724841200,6.44884130859375,0.04804784432053566,0.013969356194138527,0.23185642063617706
1775722065734854000,6.45885400390625,0.04846213385462761,-0.018171578645706177,0.2524840533733368
1775722065744867000,6.4688671875,0.02781624346971512,-0.012467887252569199,0.24917159974575043
1775722065754880000,6.4788798828125,0.0027171133551746607,0.04425269365310669,0.23246069252490997
1775722065764893000,6.488892822265625,-0.015417682006955147,0.11272096633911133,0.22003304958343506
1775722065774906000,6.498906005859375,-0.025190647691488266,0.13833369314670563,0.21374130249023438
1775722065784919000,6.5089189453125,-0.014931885525584221,0.11178010702133179,0.21415409445762634
1775722065794932200,6.51893212890625,0.017674094066023827,0.0503576397895813,0.21418781578540802
1775722065804945000,6.52894482421875,0.05517619475722313,-0.012139026075601578,0.21585415303707123
1775722065814958000,6.5389580078125,0.08031308650970459,-0.052855413407087326,0.2130817025899887
1775722065824971000,6.548970947265625,0.07665576785802841,-0.088224858045578,0.20691514015197754
1775722065834984200,6.558984130859375,0.053025081753730774,-0.09807997196912766,0.191918283700943
1775722065844997000,6.5689970703125,0.03518376499414444,-0.057096321135759354,0.16171909868717194
1775722065855010000,6.579010009765625,0.038266487419605255,0.0004521722439676523,0.1291075050830841
1775722065865023200,6.589023193359375,0.05057055875658989,0.054342035204172134,0.11337514966726303
1775722065875037200,6.599037109375,0.05629163980484009,0.081739142537117,0.1206420361995697
1775722065885050400,6.60905029296875,0.0579204298555851,0.08921703696250916,0.14321313798427582
1775722065895063000,6.61906298828125,0.05939336493611336,0.09450563788414001,0.17700470983982086
1775722065905076200,6.629076171875,0.06146476790308952,0.09511230885982513,0.21095068752765656
1775722065915089200,6.639089111328125,0.057637862861156464,0.07183368504047394,0.2401077151298523
1775722065925102300,6.649102294921875,0.04862812161445618,0.016404516994953156,0.25304269790649414
1775722065935115000,6.659114990234375,0.0349997952580452,-0.04058384895324707,0.24533803761005402
1775722065945128200,6.669128173828125,0.032948896288871765,-0.05659583956003189,0.22834759950637817
1775722065955141400,6.679141357421875,0.020040785893797874,-0.017892159521579742,0.21631333231925964
1775722065965154000,6.689154052734375,0.003966477699577808,0.018693283200263977,0.2136610895395279
1775722065975167200,6.699167236328125,-0.005058956332504749,0.012477932497859001,0.22603465616703033
1775722065985180200,6.70918017578125,-0.012362143024802208,0.0018900029826909304,0.2511964738368988
1775722065995193300,6.719193359375,-0.025658713653683662,0.007025282829999924,0.27866610884666443
1775722066005206000,6.7292060546875,-0.053961459547281265,0.03279722481966019,0.3006100356578827
1775722066015219200,6.73921923828125,-0.08887854963541031,0.0777054950594902,0.31318771839141846
1775722066025232100,6.749232177734375,-0.1269170194864273,0.10995610803365707,0.3160455524921417
1775722066035245000,6.7592451171875,-0.1694367527961731,0.12304682284593582,0.3150348961353302
1775722066045258200,6.76925830078125,-0.197537362575531,0.1077679991722107,0.30415427684783936
1775722066055271200,6.779271240234375,-0.20178252458572388,0.0763421505689621,0.283690869808197
1775722066065284400,6.789284423828125,-0.17519697546958923,0.04662739858031273,0.2668282687664032
1775722066075297000,6.799297119140625,-0.1315436065196991,0.019139470532536507,0.2658158242702484
1775722066085310200,6.809310302734375,-0.09940510988235474,-0.02199544943869114,0.27607566118240356
1775722066095323100,6.8193232421875,-0.08698606491088867,-0.05631827935576439,0.28741973638534546
1775722066105336000,6.829336181640625,-0.08374632894992828,-0.07363121956586838,0.2773447334766388
1775722066115349200,6.839349365234375,-0.09006895869970322,-0.0806574746966362,0.24835333228111267
1775722066125362200,6.849362060546875,-0.09303306043148041,-0.07554873079061508,0.20807701349258423
1775722066135375400,6.859375244140625,-0.07473969459533691,-0.06651914119720459,0.1757887303829193
1775722066145389000,6.86938916015625,-0.04118998721241951,-0.07608761638402939,0.15879082679748535
1775722066155402200,6.87940234375,0.00782229658216238,-0.11548162251710892,0.16039831936359406
1775722066165415200,6.889415283203125,0.058727022260427475,-0.1650257259607315,0.18105992674827576
1775722066175428000,6.899427978515625,0.09678460657596588,-0.20240557193756104,0.21232441067695618
1775722066185441300,6.909441162109375,0.12125372886657715,-0.23260581493377686,0.23568059504032135
1775722066195454200,6.9194541015625,0.13293421268463135,-0.2517523765563965,0.24014846980571747
1775722066205467100,6.929467041015625,0.13794095814228058,-0.26317572593688965,0.21761679649353027
1775722066215480000,6.93947998046875,0.1511659324169159,-0.2662641406059265,0.18341968953609467
1775722066225493200,6.9494931640625,0.17403902113437653,-0.232008159160614,0.15741178393363953
1775722066235506200,6.959506103515625,0.2007514238357544,-0.15746580064296722,0.15789346396923065
1775722066245519000,6.96951904296875,0.22518591582775116,-0.09372703731060028,0.1845461130142212
1775722066255532300,6.9795322265625,0.23530878126621246,-0.08293398469686508,0.22972992062568665
1775722066265545200,6.989545166015625,0.23572662472724915,-0.10033295303583145,0.2788524925708771
1775722066275558100,6.99955810546875,0.23590320348739624,-0.11133560538291931,0.3128415644168854
1775722066285571000,7.009571044921875,0.24913273751735687,-0.1332685947418213,0.31605494022369385
1775722066295584300,7.019584228515625,0.2777501344680786,-0.17374280095100403,0.2867206335067749
1775722066305597200,7.02959716796875,0.31897640228271484,-0.22731202840805054,0.2464243471622467
1775722066315610000,7.039610107421875,0.3662901222705841,-0.27030253410339355,0.2126312255859375
1775722066325623300,7.049623291015625,0.4082801640033722,-0.3067529499530792,0.20173916220664978
1775722066335636200,7.05963623046875,0.4280391037464142,-0.30980926752090454,0.2093745768070221
1775722066345649200,7.069649169921875,0.4269906282424927,-0.28137603402137756,0.22673092782497406
1775722066355662000,7.079662109375,0.3981280028820038,-0.24002434313297272,0.24529030919075012
1775722066365675300,7.08967529296875,0.3706854581832886,-0.21480794250965118,0.26158273220062256
1775722066375688200,7.099688232421875,0.3538544476032257,-0.2091572880744934,0.2659623920917511
1775722066385701000,7.109701171875,0.34330299496650696,-0.21903096139431,0.2735428214073181
1775722066395714300,7.11971435546875,0.32978305220603943,-0.20147095620632172,0.28385043144226074
1775722066405727200,7.129727294921875,0.29422852396965027,-0.1505017876625061,0.2883988618850708
1775722066415740200,7.139740234375,0.23096370697021484,-0.10189158469438553,0.2821098864078522
1775722066425754400,7.14975439453125,0.1612892895936966,-0.07582642883062363,0.2634187638759613
1775722066435767300,7.159767333984375,0.1155724972486496,-0.06634243577718735,0.2363034337759018
1775722066445780200,7.1697802734375,0.08783833682537079,-0.06073381379246712,0.21238425374031067
1775722066455793200,7.179793212890625,0.0774480551481247,-0.05338042229413986,0.19302010536193848
1775722066465806300,7.189806396484375,0.0825115218758583,-0.06695295870304108,0.17453403770923615
1775722066475819000,7.199819091796875,0.11065111309289932,-0.041915904730558395,0.14815852046012878
1775722066485832200,7.209832275390625,0.12758642435073853,-0.017647316679358482,0.14316189289093018
1775722066495845000,7.21984521484375,0.08146680891513824,-0.031510308384895325,0.1485772281885147
1775722066505858300,7.2298583984375,-0.002779632108286023,-0.04443835839629173,0.1457148641347885
1775722066515871200,7.239871337890625,-0.0948641374707222,-0.04323645308613777,0.1312553435564041
1775722066525884200,7.24988427734375,-0.17641519010066986,-0.015681257471442223,0.08491900563240051
1775722066535897300,7.2598974609375,-0.2375466376543045,0.01798803173005581,0.007478203624486923
1775722066545910000,7.269909912109375,-0.2740505635738373,0.05461927875876427,-0.09093891084194183
1775722066555923200,7.279923095703125,-0.28870493173599243,0.10366065800189972,-0.18844681978225708
1775722066565936000,7.28993603515625,-0.2943044900894165,0.1252351999282837,-0.2616187334060669
1775722066575949300,7.29994921875,-0.31352555751800537,0.1270546019077301,-0.3030969798564911
1775722066585962200,7.309962158203125,-0.35198479890823364,0.1233765110373497,-0.31238049268722534
1775722066595975200,7.31997509765625,-0.3914722502231598,0.10227615386247635,-0.2991901636123657
1775722066605988400,7.32998828125,-0.4262307584285736,0.06758395582437515,-0.26691344380378723
1775722066616001000,7.3400009765625,-0.441163033246994,0.02919583022594452,-0.22004587948322296
1775722066626014200,7.35001416015625,-0.4393446445465088,-0.0165876392275095,-0.1616739183664322
1775722066636027100,7.360027099609375,-0.42454519867897034,-0.05982639268040657,-0.10213786363601685
1775722066646040300,7.370040283203125,-0.3960413634777069,-0.06864678114652634,-0.04715690761804581
1775722066656053200,7.38005322265625,-0.3500145673751831,-0.040871746838092804,0.008913058787584305
1775722066666066200,7.390066162109375,-0.29174351692199707,0.006411079782992601,0.06706052273511887
1775722066676079400,7.400079345703125,-0.2375665158033371,0.07423653453588486,0.13985052704811096
1775722066686092000,7.410092041015625,-0.17515720427036285,0.14568567276000977,0.22308576107025146
1775722066696106200,7.420106201171875,-0.08935549110174179,0.1894284337759018,0.3033350706100464
1775722066706119400,7.430119384765625,0.012349028140306473,0.181194469332695,0.3771405816078186
1775722066716132000,7.440132080078125,0.11860525608062744,0.124020516872406,0.4518722593784332
1775722066726145300,7.450145263671875,0.18851137161254883,0.07096901535987854,0.5257507562637329
1775722066736158200,7.460158203125,0.21048839390277863,0.08433589339256287,0.5841889381408691
1775722066746171100,7.470171142578125,0.19580772519111633,0.12962855398654938,0.6132533550262451
1775722066756184000,7.48018408203125,0.15872198343276978,0.1549241989850998,0.6111365556716919
1775722066766197200,7.490197265625,0.10544011741876602,0.14103181660175323,0.5758241415023804
1775722066776210400,7.50021044921875,0.057755518704652786,0.10987313836812973,0.5090451836585999
1775722066786223000,7.51022314453125,0.031219517812132835,0.1265951246023178,0.4309088885784149
1775722066796236300,7.520236328125,0.025868255645036697,0.19357214868068695,0.36475133895874023
1775722066806249200,7.530249267578125,0.012064024806022644,0.26720109581947327,0.3296988308429718
1775722066816262100,7.54026220703125,-0.047833941876888275,0.3138341009616852,0.3310469090938568
1775722066826275000,7.550275146484375,-0.14942607283592224,0.3345223367214203,0.3565429449081421
1775722066836288300,7.560288330078125,-0.26892080903053284,0.30715861916542053,0.39962437748908997
1775722066846301200,7.57030126953125,-0.36253970861434937,0.3118380606174469,0.44012147188186646
1775722066856314000,7.580314208984375,-0.40581101179122925,0.33536291122436523,0.45415928959846497
1775722066866327300,7.590327392578125,-0.41109657287597656,0.3179205358028412,0.4257574677467346
1775722066876340000,7.600340087890625,-0.39960044622421265,0.2558731436729431,0.3593232333660126
1775722066886353000,7.610352783203125,-0.380744993686676,0.18321917951107025,0.2725768983364105
1775722066896365800,7.62036572265625,-0.3620493710041046,0.12846240401268005,0.17833350598812103
1775722066906378800,7.630378662109375,-0.3494712710380554,0.11047782003879547,0.08079950511455536
1775722066916392000,7.640391845703125,-0.3416709303855896,0.1189957708120346,-0.010883213952183723
1775722066926404600,7.650404541015625,-0.3373350501060486,0.14494720101356506,-0.08384689688682556
1775722066936417800,7.660417724609375,-0.31042250990867615,0.1597917675971985,-0.13951702415943146
1775722066946431000,7.670430908203125,-0.25710684061050415,0.1478099375963211,-0.1667497158050537
1775722066956444000,7.68044384765625,-0.18084709346294403,0.1106339544057846,-0.16145865619182587
1775722066966457900,7.690457763671875,-0.10481066256761551,0.06598259508609772,-0.12956303358078003
1775722066976470800,7.700470703125,-0.02846146561205387,0.01156120840460062,-0.0808163732290268
1775722066986483700,7.710483642578125,0.036142293363809586,-0.048917584121227264,-0.027065260335803032
1775722066996497000,7.720496826171875,0.07166425883769989,-0.08995024114847183,0.027088861912488937
1775722067006509800,7.730509765625,0.08067985624074936,-0.09393087029457092,0.06211289018392563
1775722067016523000,7.74052294921875,0.08862803876399994,-0.09050820767879486,0.0614125020802021
1775722067026535700,7.75053564453125,0.09398765116930008,-0.07186581939458847,0.02691444754600525
1775722067036548900,7.760548828125,0.1037721261382103,-0.01785511150956154,-0.028213005512952805
1775722067046561800,7.770561767578125,0.10787446051836014,0.052086956799030304,-0.07207819074392319
1775722067056574700,7.78057470703125,0.09907495975494385,0.08767715096473694,-0.09732428193092346
1775722067066588000,7.790587890625,0.09364744275808334,0.09433425962924957,-0.10214833170175552
1775722067076600800,7.800600830078125,0.10465363413095474,0.08834785968065262,-0.09093497693538666
1775722067086614000,7.810614013671875,0.12848307192325592,0.06872116029262543,-0.06485623866319656
1775722067096626700,7.820626708984375,0.15527206659317017,0.033972229808568954,-0.03251827508211136
1775722067106640000,7.830639892578125,0.176441952586174,0.003369068494066596,-0.0011820737272500992
1775722067116652800,7.84065283203125,0.183195099234581,-0.023412691429257393,0.026286661624908447
1775722067126665700,7.850665771484375,0.16578762233257294,-0.04482796788215637,0.04363289475440979
1775722067136679000,7.860678955078125,0.1312371790409088,-0.06722381711006165,0.04582939296960831
1775722067146691800,7.87069189453125,0.0909145176410675,-0.08630243688821793,0.03213462233543396
1775722067156705000,7.880705078125,0.06447304040193558,-0.08056075870990753,0.009292170405387878
1775722067166717700,7.8907177734375,0.05000941455364227,-0.05533156916499138,-0.021593306213617325
1775722067176731000,7.90073095703125,0.041749317198991776,-0.03807016462087631,-0.045702334493398666
1775722067186743800,7.910743896484375,0.021399304270744324,-0.043017782270908356,-0.04482961818575859
1775722067196756700,7.9207568359375,-0.01825033500790596,-0.07657729834318161,-0.034220948815345764
1775722067206769700,7.930769775390625,-0.06326894462108612,-0.1290879100561142,-0.026736663654446602
1775722067216782800,7.940782958984375,-0.09262386709451675,-0.1758899986743927,-0.04179447516798973
1775722067226796000,7.950796142578125,-0.098826102912426,-0.19915510714054108,-0.07395774126052856
1775722067236808700,7.96080859375,-0.09082132577896118,-0.17481853067874908,-0.0972256287932396
1775722067246822000,7.97082177734375,-0.07220502942800522,-0.10806240141391754,-0.09531987458467484
1775722067256835600,7.980835693359375,-0.05991187319159508,-0.06162433326244354,-0.06826881319284439
1775722067266848800,7.990848876953125,-0.049309562891721725,-0.06573332101106644,-0.037064291536808014
1775722067276862000,8.000862060546876,-0.030594542622566223,-0.09293299913406372,-0.007960394024848938
1775722067286875000,8.010875,-0.01044586393982172,-0.10204313695430756,0.005360471550375223
1775722067296887800,8.0208876953125,0.020936425775289536,-0.07493473589420319,-0.0011377716436982155
1775722067306900700,8.030900634765626,0.04773634672164917,-0.07213974744081497,0.0028748130425810814
1775722067316914000,8.040913818359375,0.043965402990579605,-0.08372747898101807,0.0047799451276659966
1775722067326926600,8.050926513671875,0.02528572827577591,-0.09757538884878159,0.0007886654930189252
1775722067336939800,8.060939697265624,0.01489582471549511,-0.09575766324996948,-0.01559525541961193
1775722067346953000,8.070952880859375,0.009651793166995049,-0.06347402930259705,-0.050705306231975555
1775722067356966000,8.0809658203125,0.018119752407073975,-0.03126783296465874,-0.08069027960300446
1775722067366978800,8.090978759765624,0.03802768141031265,0.0003963541239500046,-0.09678801894187927
1775722067376991700,8.10099169921875,0.05890186131000519,0.012513011693954468,-0.08997756987810135
1775722067387005000,8.1110048828125,0.08054430037736893,-0.005029762629419565,-0.07027923315763474
1775722067397017600,8.121017578125,0.10402132570743561,-0.011527717113494873,-0.036931585520505905
1775722067407030800,8.13103076171875,0.1304401457309723,-0.004274864215403795,-0.00008808437269181013
1775722067417044000,8.1410439453125,0.15364795923233032,-0.011240233667194843,0.029478900134563446
1775722067427057000,8.151056884765625,0.16810280084609985,-0.044549718499183655,0.04621792957186699
1775722067437069800,8.16106982421875,0.18010473251342773,-0.07687684893608093,0.0436403863132
1775722067447082800,8.171082763671874,0.19545972347259521,-0.09444386512041092,0.023060813546180725
1775722067457096000,8.181095947265625,0.20418134331703186,-0.10620610415935516,-0.010982146486639977
1775722067467108600,8.191108642578126,0.20898622274398804,-0.08723054826259613,-0.050036873668432236
1775722067477121800,8.201121826171875,0.21020862460136414,-0.049891501665115356,-0.08369898051023483
1775722067487135000,8.211135009765625,0.21907109022140503,-0.025629302486777306,-0.10963869839906693
1775722067497148000,8.22114794921875,0.24106422066688538,-0.03358487784862518,-0.12885041534900665
1775722067507160800,8.231160888671875,0.2844516336917877,-0.06489352881908417,-0.14305971562862396
1775722067517173800,8.241173828125,0.3342042863368988,-0.1198468878865242,-0.14784513413906097
1775722067527187000,8.25118701171875,0.3716925382614136,-0.20462143421173096,-0.14175501465797424
1775722067537199600,8.26119970703125,0.3750550150871277,-0.2709944248199463,-0.13052766025066376
1775722067547213800,8.2712138671875,0.34243208169937134,-0.3069375157356262,-0.12488042563199997
1775722067557227000,8.28122705078125,0.2826157212257385,-0.3265787363052368,-0.141212597489357
1775722067567239700,8.29123974609375,0.21489126980304718,-0.32566288113594055,-0.19196605682373047
1775722067577252900,8.3012529296875,0.15532545745372772,-0.2930576503276825,-0.257512629032135
1775722067587265800,8.311265869140625,0.11016436666250229,-0.22009718418121338,-0.3266807794570923
1775722067597278700,8.32127880859375,0.08536318689584732,-0.14495256543159485,-0.3700791597366333
1775722067607291600,8.331291748046874,0.07715638726949692,-0.0949714183807373,-0.38409167528152466
1775722067617304800,8.341304931640625,0.08259378373622894,-0.06722091138362885,-0.36858806014060974
1775722067627318000,8.351318115234376,0.099739208817482,-0.06491833925247192,-0.3331904113292694
1775722067637330700,8.36133056640625,0.13653893768787384,-0.09394737333059311,-0.2984991669654846
1775722067647343900,8.37134375,0.19772027432918549,-0.15233531594276428,-0.27812573313713074
1775722067657356800,8.381356689453124,0.27204522490501404,-0.21469494700431824,-0.27580726146698
1775722067667369700,8.39136962890625,0.34253135323524475,-0.25243327021598816,-0.2867020070552826
1775722067677382700,8.401382568359375,0.39088302850723267,-0.25613030791282654,-0.30377137660980225
1775722067687395800,8.411395751953124,0.4174427390098572,-0.21797040104866028,-0.3226851522922516
1775722067697409000,8.421408935546875,0.4340478479862213,-0.182188019156456,-0.3371267318725586
1775722067707421700,8.431421630859376,0.4455207586288452,-0.18883366882801056,-0.3395209014415741
1775722067717435000,8.441434814453125,0.4401950538158417,-0.23507653176784515,-0.32322508096694946
1775722067727447800,8.45144775390625,0.4043848514556885,-0.29232916235923767,-0.2968997359275818
1775722067737460700,8.461460693359374,0.34789127111434937,-0.2988630533218384,-0.27906885743141174
1775722067747473700,8.4714736328125,0.28586411476135254,-0.28156208992004395,-0.29200249910354614
1775722067757486800,8.48148681640625,0.21723037958145142,-0.26413092017173767,-0.33056288957595825
1775722067767500000,8.4915,0.15113072097301483,-0.2542319595813751,-0.3766523599624634
1775722067777512700,8.5015126953125,0.09979112446308136,-0.2793200612068176,-0.4234667420387268
1775722067787526000,8.51152587890625,0.05209524184465408,-0.30729177594184875,-0.45217642188072205
1775722067797538800,8.521538818359375,-0.006244539283216,-0.23189125955104828,-0.44086167216300964
1775722067807551700,8.5315517578125,-0.07514450699090958,-0.07983674108982086,-0.3937527537345886
1775722067817564700,8.541564697265626,-0.1359723061323166,0.06024181470274925,-0.3373010754585266
1775722067827577900,8.551577880859375,-0.16602155566215515,0.1450275331735611,-0.2917378544807434
1775722067837591000,8.561591064453125,-0.16487851738929749,0.20041203498840332,-0.2681443393230438
1775722067847604700,8.571604736328124,-0.1369486153125763,0.21982622146606445,-0.2617996335029602
1775722067857618000,8.581617919921875,-0.0980624184012413,0.17791685461997986,-0.27383455634117126
1775722067867630800,8.591630859375,-0.07265079766511917,0.10266284644603729,-0.28978049755096436
1775722067877643800,8.601643798828125,-0.07122848927974701,0.03948536887764931,-0.31143856048583984
1775722067887657000,8.611656982421875,-0.08866153657436371,-0.01056261733174324,-0.3492272198200226
1775722067897670100,8.621670166015624,-0.10147135704755783,-0.05386342108249664,-0.41152623295783997
1775722067907682800,8.631682861328125,-0.10138214379549026,-0.08496434986591339,-0.4875517785549164
1775722067917696000,8.641696044921876,-0.10154486447572708,-0.1074599027633667,-0.5532375574111938
1775722067927709000,8.651708984375,-0.09358307719230652,-0.10934808105230331,-0.6008024215698242
1775722067937721900,8.661721923828125,-0.07602335512638092,-0.0959828644990921,-0.6217537522315979
1775722067947734800,8.67173486328125,-0.0581495463848114,-0.09520628303289413,-0.6093423366546631
1775722067957748000,8.681748046875,-0.04682966694235802,-0.12060389667749405,-0.5450872182846069
1775722067967761200,8.69176123046875,-0.04363280534744263,-0.14020796120166779,-0.4099220037460327
1775722067977773800,8.70177392578125,-0.04618348926305771,-0.11426004022359848,-0.22200171649456024
1775722067987787000,8.711787109375,-0.06761980801820755,-0.04840698838233948,-0.0209298525005579
1775722067997800000,8.721800048828126,-0.10680960863828659,-0.003965297248214483,0.1434338539838791
1775722068007812900,8.731812744140624,-0.14531145989894867,-0.01124558039009571,0.2296033501625061
1775722068017825800,8.74182568359375,-0.16125227510929108,-0.02007164992392063,0.21809042990207672
1775722068027839000,8.7518388671875,-0.1798800230026245,-0.04002245515584946,0.13160906732082367
1775722068037852200,8.76185205078125,-0.21514222025871277,-0.027050312608480453,-0.029606088995933533
1775722068047864800,8.77186474609375,-0.25739753246307373,0.021124141290783882,-0.22448690235614777
1775722068057878000,8.7818779296875,-0.2955823838710785,0.09060826152563095,-0.42248234152793884
1775722068067891000,8.791890869140625,-0.3125579059123993,0.14494046568870544,-0.5990701913833618
1775722068077904000,8.80190380859375,-0.303373247385025,0.15389767289161682,-0.7270081043243408
1775722068087916800,8.811916748046874,-0.2847878634929657,0.12343430519104004,-0.7981851100921631
1775722068097930000,8.821929931640625,-0.2585142254829407,0.039091285318136215,-0.8198208212852478
1775722068107943200,8.831943115234376,-0.22539837658405304,-0.07083415240049362,-0.8029909729957581
1775722068117955800,8.841955810546875,-0.196506530046463,-0.11560002714395523,-0.7508694529533386
1775722068127969000,8.851968994140625,-0.18104715645313263,-0.08439603447914124,-0.6753422021865845
1775722068137982000,8.86198193359375,-0.17593993246555328,-0.029896028339862823,-0.5839356184005737
1775722068147995000,8.871994873046875,-0.16296474635601044,0.04100770503282547,-0.49187231063842773
1775722068158009000,8.882009033203126,-0.1399175226688385,0.15003983676433563,-0.38750457763671875
1775722068168022000,8.89202197265625,-0.10881713777780533,0.26801151037216187,-0.27104905247688293
1775722068178035000,8.902034912109375,-0.0849466323852539,0.3470201790332794,-0.15987172722816467
1775722068188048000,8.9120478515625,-0.061165936291217804,0.3749879002571106,-0.07114825397729874
1775722068198061000,8.92206103515625,-0.04702388867735863,0.38162633776664734,-0.019977865740656853
1775722068208073700,8.93207373046875,-0.03959260508418083,0.3468356132507324,-0.011664276011288166
1775722068218087000,8.9420869140625,-0.03654811531305313,0.28653761744499207,-0.044045887887477875
1775722068228099800,8.952099853515625,-0.021399520337581635,0.2512992024421692,-0.09764838963747025
1775722068238113000,8.962113037109376,0.01191540528088808,0.24078013002872467,-0.1590314507484436
1775722068248126000,8.9721259765625,0.04262911155819893,0.19530825316905975,-0.21817278861999512
1775722068258139000,8.982138916015625,0.06728971004486084,0.1184222623705864,-0.26634377241134644
1775722068268152000,8.992152099609376,0.09278494864702225,0.059507548809051514,-0.2905476689338684
1775722068278164700,9.002164794921875,0.11594783514738083,0.0384649820625782,-0.29678481817245483
1775722068288178000,9.012177978515625,0.1330847442150116,0.035904888063669205,-0.27597832679748535
1775722068298190800,9.02219091796875,0.13898245990276337,0.04132870212197304,-0.23821565508842468
1775722068308204000,9.0322041015625,0.13708123564720154,0.039743855595588684,-0.18292629718780518
1775722068318217000,9.042217041015626,0.1282251626253128,0.05563982576131821,-0.1207558810710907
1775722068328230000,9.05222998046875,0.1222226619720459,0.08415588736534119,-0.06253331899642944
1775722068338243000,9.0622431640625,0.11453981697559357,0.0972108542919159,-0.023705609142780304
1775722068348256000,9.072256103515626,0.10755035281181335,0.09269653260707855,-0.008627589792013168
1775722068358269000,9.08226904296875,0.11320095509290695,0.0878465324640274,-0.01564866304397583
1775722068368281900,9.09228173828125,0.12338487803936005,0.07367159426212311,-0.026528209447860718
1775722068378295000,9.102294921875,0.12439018487930298,0.07538819313049316,-0.03195621445775032
1775722068388308000,9.112307861328125,0.12257178127765656,0.11056029796600342,-0.026555055752396584
1775722068398321000,9.12232080078125,0.11742820590734482,0.15548373758792877,-0.017018603160977364
1775722068408334000,9.132333984375,0.10102073848247528,0.18203918635845184,-0.007213909644633532
1775722068418347000,9.142346923828125,0.09066233783960342,0.18175184726715088,0.002630241448059678
1775722068428360000,9.15235986328125,0.0856819599866867,0.16744108498096466,0.009855397045612335
1775722068438372900,9.162372802734374,0.08668994903564453,0.12505066394805908,0.008403454907238483
1775722068448386000,9.172385986328125,0.08958107978105545,0.06957808136940002,0.005288089159876108
1775722068458399000,9.18239892578125,0.08730295300483704,0.05806542560458183,0.004147512838244438
1775722068468413000,9.192412841796875,0.07569503039121628,0.09085187315940857,0.0028803804889321327
1775722068478425900,9.20242578125,0.061273593455553055,0.12027851492166519,-0.002583998953923583
1775722068488438800,9.212438720703124,0.05070004239678383,0.1267382800579071,-0.003358978545293212
1775722068498452000,9.222451904296875,0.039582300931215286,0.14403332769870758,0.012174546718597412
1775722068508465200,9.232465087890626,0.030174419283866882,0.18049973249435425,0.03515416383743286
1775722068518477800,9.242477783203125,0.0286317840218544,0.20568782091140747,0.05708063021302223
1775722068528491000,9.252490966796875,0.03404679149389267,0.2222958207130432,0.090976282954216
1775722068538504000,9.26250390625,0.038095273077487946,0.22023792564868927,0.13246358931064606
1775722068548516900,9.272516845703125,0.05080680549144745,0.17019712924957275,0.16160283982753754
1775722068558529800,9.28252978515625,0.08078427612781525,0.10156559199094772,0.17272087931632996
1775722068568543000,9.29254296875,0.10931045562028885,0.0704774484038353,0.16420303285121918
1775722068578556000,9.302555908203125,0.1250600516796112,0.07713853567838669,0.1386125236749649
1775722068588568800,9.31256884765625,0.1360682249069214,0.07926027476787567,0.09758678823709488
1775722068598582000,9.32258203125,0.14705805480480194,0.06690768152475357,0.05621428042650223
1775722068608595000,9.332594970703125,0.1582784801721573,0.04932122677564621,0.020987851545214653
1775722068618607900,9.34260791015625,0.15178890526294708,0.021194813773036003,-0.0014554199296981096
1775722068628620800,9.352620849609375,0.13366742432117462,0.005091211758553982,-0.015605593100190163
1775722068638634000,9.362634033203125,0.10885419696569443,0.028408482670783997,-0.005827239248901606
1775722068648647000,9.37264697265625,0.0739034041762352,0.08701826632022858,0.02949453331530094
1775722068658659800,9.382659912109375,0.024963602423667908,0.1378355175256729,0.07933316379785538
1775722068668673000,9.392673095703126,-0.011727835051715374,0.169026717543602,0.12411341816186905
1775722068678686000,9.40268603515625,-0.021405739709734917,0.18868008255958557,0.16252203285694122
1775722068688699000,9.412698974609375,-0.018322864547371864,0.1986626833677292,0.19347089529037476
1775722068698711800,9.4227119140625,-0.019622141495347023,0.186075359582901,0.210719034075737
1775722068708725000,9.43272509765625,-0.023075463250279427,0.1334020346403122,0.20860500633716583
1775722068718738000,9.442738037109375,-0.028627436608076096,0.06392260640859604,0.18270933628082275
1775722068728750800,9.452750732421874,-0.03515511006116867,0.020341308787465096,0.14589247107505798
1775722068738764000,9.462763916015625,-0.04195227846503258,0.012736588716506958,0.10259982943534851
1775722068748777000,9.47277685546875,-0.05364035815000534,0.006478960160166025,0.0529976524412632
1775722068758790100,9.4827900390625,-0.058111805468797684,-0.022105813026428223,-0.003927947022020817
1775722068768802800,9.492802734375,-0.05037905275821686,-0.05944705754518509,-0.06280803680419922
1775722068778816000,9.50281591796875,-0.0361110121011734,-0.09093242883682251,-0.10886409878730774
1775722068788829000,9.512828857421875,-0.0380236953496933,-0.09953737258911133,-0.13343815505504608
1775722068798843000,9.5228427734375,-0.05480973422527313,-0.07417440414428711,-0.13351792097091675
1775722068808856000,9.53285595703125,-0.07739520817995071,-0.020586278289556503,-0.10529640316963196
1775722068818869000,9.542868896484375,-0.09511618316173553,0.03312395140528679,-0.05587261915206909
1775722068828882000,9.5528818359375,-0.10084623843431473,0.04171450808644295,0.001360576949082315
1775722068838894800,9.562894775390625,-0.09494154155254364,0.014701459556818008,0.06060078367590904
1775722068848908000,9.572907958984375,-0.07548661530017853,0.024056611582636833,0.11621078848838806
1775722068858921000,9.5829208984375,-0.05713392794132233,0.058896053582429886,0.15943942964076996
1775722068868934100,9.59293408203125,-0.05073195695877075,0.0660996362566948,0.1830020248889923
1775722068878947300,9.602947265625,-0.06300009787082672,0.04435063153505325,0.18473362922668457
1775722068888960000,9.6129599609375,-0.0845533236861229,0.05202027037739754,0.16043788194656372
1775722068898973200,9.62297314453125,-0.104997918009758,0.08339909464120865,0.11029059439897537
1775722068908986000,9.632986083984376,-0.11515334993600845,0.10081084072589874,0.039069946855306625
1775722068918999300,9.642999267578125,-0.11047518998384476,0.07219312340021133,-0.03781264275312424
1775722068929012200,9.65301220703125,-0.08420470356941223,0.03063289448618889,-0.09849090129137039
1775722068939025200,9.663025146484374,-0.04917275160551071,0.015945283696055412,-0.1276596337556839
1775722068949038300,9.673038330078125,-0.01714477874338627,0.017724275588989258,-0.13114623725414276
1775722068959051000,9.683051025390625,0.008686876855790615,-0.0016804083716124296,-0.11781718581914902
1775722068969064200,9.693064208984374,0.030339442193508148,-0.038136955350637436,-0.0969340056180954
1775722068979077000,9.7030771484375,0.04609290137887001,-0.07825995981693268,-0.0650206133723259
1775722068989090300,9.71309033203125,0.05138752982020378,-0.09007240831851959,-0.03547683358192444
1775722068999103200,9.723103271484375,0.054911039769649506,-0.048006799072027206,-0.006886873859912157
1775722069009116200,9.7331162109375,0.05319969356060028,0.010553713887929916,0.018376672640442848
1775722069019129300,9.74312939453125,0.038667090237140656,0.043852549046278,0.03956877440214157
1775722069029142000,9.75314208984375,0.02393607795238495,0.0477474220097065,0.05092209577560425
1775722069039155200,9.7631552734375,0.015699127689003944,0.03949784114956856,0.05163055658340454
1775722069049168100,9.773168212890624,0.01704535447061062,0.034550223499536514,0.03682870790362358
1775722069059181300,9.783181396484375,0.016858115792274475,0.03154384344816208,0.017779937013983727
1775722069069194000,9.793194091796876,0.016492197290062904,0.025578893721103668,0.002646524226292968
1775722069079207200,9.803207275390625,0.009095387533307076,0.019143709912896156,0.000403751153498888
1775722069089220400,9.813220458984375,-0.006607143208384514,-0.005099842790514231,0.0061386022716760635
1775722069099233000,9.82323291015625,-0.018918104469776154,-0.045938313007354736,0.010039571672677994
1775722069109246200,9.83324609375,-0.03292366862297058,-0.06942871958017349,0.009552746079862118
1775722069119259100,9.843259033203125,-0.04677120968699455,-0.06848113238811493,-0.0011141132563352585
1775722069129272300,9.853272216796874,-0.056000661104917526,-0.06736712902784348,-0.02092749997973442
1775722069139286300,9.863286376953125,-0.061024293303489685,-0.06611771881580353,-0.047572847455739975
1775722069149299200,9.87329931640625,-0.0538255013525486,-0.05000906065106392,-0.06431294232606888
1775722069159312100,9.88331201171875,-0.04017956554889679,-0.00496306549757719,-0.052264172583818436
1775722069169325000,9.893324951171875,-0.03560557961463928,0.042813509702682495,-0.01317802257835865
1775722069179338200,9.903338134765624,-0.03248496726155281,0.05902735888957977,0.04147198051214218
1775722069189351200,9.91335107421875,-0.028067581355571747,0.027811650186777115,0.09594481438398361
1775722069199364000,9.923364013671875,-0.019840147346258163,0.0048797857016325,0.13507504761219025
1775722069209377300,9.933377197265624,-0.004528834018856287,-0.010562021285295486,0.14606377482414246
1775722069219390200,9.94339013671875,0.014103059656918049,-0.04705999419093132,0.13724349439144135
1775722069229403100,9.953403076171876,0.01836305297911167,-0.07204816490411758,0.1172141283750534
1775722069239416000,9.963416015625,0.009506425820291042,-0.07483989000320435,0.08804268389940262
1775722069249429200,9.97342919921875,-0.005918070673942566,-0.07011837512254715,0.05055708810687065
1775722069259442200,9.983442138671874,-0.021429650485515594,-0.07067470997571945,0.006428776308894157
1775722069269455000,9.993455078125,-0.03025829792022705,-0.07511632889509201,-0.03418203443288803
1775722069279468300,10.00346826171875,-0.033348292112350464,-0.07712284475564957,-0.050870802253484726
1775722069289481200,10.013481201171874,-0.041720472276210785,-0.08257699757814407,-0.045687757432460785
1775722069299494100,10.023494140625,-0.04549913480877876,-0.08186731487512589,-0.017198685556650162
1775722069309507000,10.033507080078126,-0.04626239463686943,-0.07144477218389511,0.029836202040314674
1775722069319520300,10.043520263671875,-0.03848680481314659,-0.06175287067890167,0.07792067527770996
1775722069329533200,10.053533203125,-0.03029625117778778,-0.0801292136311531,0.11642306298017502
1775722069339546000,10.063546142578126,-0.024714510887861252,-0.11304744333028793,0.14273479580879211
1775722069349559300,10.073559326171875,-0.023895589634776115,-0.13419800996780396,0.1436043232679367
1775722069359572200,10.083572265625,-0.021091695874929428,-0.11912985891103745,0.12473970651626587
1775722069369585200,10.093585205078124,-0.006893054116517305,-0.07550008594989777,0.10292602330446243
1775722069379598000,10.10359814453125,0.010656587779521942,-0.049759116023778915,0.09138952940702438
1775722069389611300,10.113611328125,0.03291662037372589,-0.056133657693862915,0.10224910080432892
1775722069399624200,10.123624267578125,0.06562246382236481,-0.05529215186834335,0.1483352780342102
1775722069409637000,10.13363720703125,0.09566930681467056,-0.038371492177248,0.22070881724357605
1775722069419650000,10.143650146484376,0.11281786859035492,-0.030549433082342148,0.30197975039482117
1775722069429663200,10.153663330078125,0.10709313303232193,-0.025227904319763184,0.37994620203971863
1775722069439676200,10.16367626953125,0.07979605346918106,0.010128462687134743,0.43510130047798157
1775722069449689000,10.173689208984374,0.042690228670835495,0.06750679761171341,0.4595850706100464
1775722069459702300,10.183702392578125,0.00450116815045476,0.12743796408176422,0.46475252509117126
1775722069469716000,10.193716064453126,-0.024709714576601982,0.15598545968532562,0.4596483111381531
1775722069479729200,10.203729248046875,-0.04651723802089691,0.1352144330739975,0.44490528106689453
1775722069489742300,10.213742431640625,-0.05504175275564194,0.07493191957473755,0.41255906224250793
1775722069499755300,10.22375537109375,-0.04006624221801758,0.011992398649454117,0.36642909049987793
1775722069509768200,10.233768310546875,-0.006021990440785885,-0.02319648116827011,0.31116369366645813
1775722069519781000,10.243781005859375,0.02743396908044815,-0.028619840741157532,0.2623751163482666
1775722069529794300,10.253794189453124,0.03491292521357536,-0.03595232218503952,0.23273681104183197
1775722069539807000,10.263806884765625,0.020253799855709076,-0.04323307424783707,0.22756950557231903
1775722069549820200,10.273820068359376,-0.01179015263915062,-0.03900158032774925,0.23882721364498138
1775722069559833300,10.283833251953125,-0.03428836166858673,-0.014502206817269325,0.26044684648513794
1775722069569846300,10.29384619140625,-0.040389131754636765,-0.001978425309062004,0.2895008623600006
1775722069579859200,10.303859130859376,-0.03463250398635864,0.0005222775507718325,0.33293256163597107
1775722069589872000,10.3138720703125,-0.024957241490483284,0.01421705074608326,0.3858117461204529
1775722069599885300,10.32388525390625,-0.02372286655008793,0.012062819674611092,0.42738208174705505
1775722069609898000,10.33389794921875,-0.038199543952941895,-0.012318686582148075,0.4426547884941101
1775722069619911200,10.3439111328125,-0.048842255026102066,-0.023744339123368263,0.42631861567497253
1775722069629924400,10.35392431640625,-0.04458838701248169,-0.02600030228495598,0.3834976255893707
1775722069639937300,10.363937255859375,-0.030117511749267578,-0.032413918524980545,0.3362736403942108
1775722069649950200,10.3739501953125,-0.024333126842975616,-0.04768634960055351,0.29731613397598267
1775722069659963100,10.383963134765626,-0.01888526976108551,-0.07018628716468811,0.26526138186454773
1775722069669976300,10.393976318359375,-0.015610112808644772,-0.07607506215572357,0.2422085404396057
1775722069679989000,10.403989013671875,-0.007282561622560024,-0.07427223026752472,0.22961488366127014
1775722069690002200,10.414002197265624,0.0030797983054071665,-0.07641420513391495,0.22038330137729645
1775722069700015400,10.424015380859375,0.013673530891537666,-0.06024463102221489,0.22228805720806122
1775722069710028300,10.4340283203125,0.013684183359146118,-0.040604349225759506,0.23833252489566803
1775722069720041200,10.444041259765624,-0.00503744138404727,-0.040454331785440445,0.26453736424446106
1775722069730054100,10.45405419921875,-0.032408345490694046,-0.06585236638784409,0.2877822518348694
1775722069740067300,10.4640673828125,-0.05608665570616722,-0.08548857271671295,0.29699426889419556
1775722069750080000,10.474080078125,-0.06599628180265427,-0.0714249536395073,0.28090983629226685
1775722069760093200,10.48409326171875,-0.06305674463510513,-0.05288206413388252,0.24107272922992706
1775722069770106000,10.494106201171874,-0.06587276607751846,-0.05472151190042496,0.19781793653964996
1775722069780119300,10.504119384765625,-0.06862670183181763,-0.047794491052627563,0.160319522023201
1775722069790132200,10.51413232421875,-0.05047886446118355,-0.008385566994547844,0.14322201907634735
1775722069800145200,10.524145263671874,-0.013262592256069183,0.038639988750219345,0.14978119730949402
1775722069810159000,10.5341591796875,0.02375321462750435,0.05587143823504448,0.17504501342773438
1775722069820172300,10.54417236328125,0.05847775191068649,0.042139265686273575,0.2161707729101181
1775722069830185200,10.554185302734375,0.08137162029743195,0.0032579104881733656,0.2464919239282608
1775722069840198400,10.564198486328126,0.10118956118822098,-0.04885628819465637,0.25211301445961
1775722069850211000,10.574211181640624,0.11883246898651123,-0.0816083699464798,0.23095767199993134
1775722069860224300,10.584224365234375,0.12485786527395248,-0.10853340476751328,0.18726453185081482
1775722069870237000,10.59423681640625,0.12082849442958832,-0.1510680764913559,0.12288927286863327
1775722069880249900,10.604249755859374,0.11578462272882462,-0.17505958676338196,0.05425892025232315
1775722069890263000,10.614262939453125,0.10978372395038605,-0.13949306309223175,-0.007628949359059334
1775722069900276000,10.62427587890625,0.10273146629333496,-0.10102175921201706,-0.0460248626768589
1775722069910289200,10.6342890625,0.09650472551584244,-0.05741915851831436,-0.04067191109061241
1775722069920301800,10.6443017578125,0.0803995430469513,-0.024216890335083008,0.006155238952487707
1775722069930315000,10.65431494140625,0.06146180257201195,-0.009585217572748661,0.06641831248998642
1775722069940328000,10.664327880859375,0.06040951609611511,-0.030774036422371864,0.11592228710651398
1775722069950340900,10.6743408203125,0.08103596419095993,-0.07847204804420471,0.14841631054878235
1775722069960354000,10.68435400390625,0.12650690972805023,-0.12289658933877945,0.1531243771314621
1775722069970367000,10.694366943359375,0.17454953491687775,-0.1565789133310318,0.13459676504135132
1775722069980380200,10.704380126953126,0.20494180917739868,-0.17618554830551147,0.09662727266550064
1775722069990392800,10.714392822265625,0.2164759635925293,-0.17855308949947357,0.05142197012901306
1775722070000406000,10.724406005859375,0.20758594572544098,-0.1594526320695877,0.01686784438788891
1775722070010419000,10.7344189453125,0.1788267344236374,-0.12650319933891296,0.0025618751533329487
1775722070020432000,10.744431884765625,0.14810337126255035,-0.11289364099502563,0.0055180564522743225
1775722070030445000,10.754445068359376,0.1355830579996109,-0.1314239203929901,0.022671744227409363
1775722070040458000,10.7644580078125,0.14702121913433075,-0.16208015382289886,0.04485171288251877
1775722070050471200,10.77447119140625,0.16982346773147583,-0.17379619181156158,0.06995893269777298
1775722070060483800,10.78448388671875,0.19482554495334625,-0.17898617684841156,0.09189268201589584
1775722070070497000,10.7944970703125,0.2088761180639267,-0.18205946683883667,0.11620095372200012
1775722070080510000,10.804510009765625,0.21075257658958435,-0.15614478290081024,0.14888885617256165
1775722070090523000,10.81452294921875,0.19982856512069702,-0.12267178297042847,0.19282329082489014
1775722070100535800,10.824535888671875,0.15603384375572205,-0.09618595987558365,0.2399405539035797
1775722070110549000,10.834549072265625,0.08074549585580826,-0.08387496322393417,0.27747488021850586
1775722070120562200,10.844562255859374,-0.010968545451760292,-0.07374674081802368,0.2961314916610718
1775722070130574800,10.854574951171875,-0.0926349088549614,-0.055233508348464966,0.284307599067688
1775722070140588000,10.864588134765626,-0.1508704423904419,-0.023899445310235023,0.24961236119270325
1775722070150602000,10.87460205078125,-0.20167876780033112,0.011311005800962448,0.2091110199689865
1775722070160615000,10.884614990234375,-0.2484004646539688,0.016506997868418694,0.16924457252025604
1775722070170628000,10.894628173828124,-0.28545302152633667,-0.006881946697831154,0.1319933384656906
1775722070180641000,10.90464111328125,-0.31355345249176025,-0.037069253623485565,0.0969904288649559
1775722070190654000,10.914654052734376,-0.33276256918907166,-0.06559517234563828,0.0775594711303711
1775722070200667000,10.9246669921875,-0.3437219262123108,-0.06836128979921341,0.07605097442865372
1775722070210680000,10.93468017578125,-0.35090208053588867,-0.057744596153497696,0.08919873833656311
1775722070220693000,10.94469287109375,-0.3478109836578369,-0.08014211803674698,0.10931818187236786
1775722070230706000,10.954705810546875,-0.3535708785057068,-0.1147882491350174,0.139699786901474
1775722070240719000,10.964718994140625,-0.3688555061817169,-0.12534856796264648,0.16199517250061035
1775722070250732000,10.97473193359375,-0.36619606614112854,-0.12141507863998413,0.15806540846824646
1775722070260745000,10.984744873046875,-0.3292120695114136,-0.09105070680379868,0.126714825630188
1775722070270758000,10.9947578125,-0.263127863407135,-0.044454172253608704,0.08787979930639267
1775722070280771000,11.00477099609375,-0.18658331036567688,-0.03950515761971474,0.05928226560354233
1775722070290784000,11.014783935546875,-0.11796271055936813,-0.08500845730304718,0.046808551996946335
1775722070300797000,11.024796875,-0.05069566145539284,-0.10434745252132416,0.03693528473377228
1775722070310810000,11.03481005859375,0.022741269320249557,-0.0481792576611042,0.033980242908000946
1775722070320823000,11.044822998046875,0.10375478118658066,0.04490756615996361,0.061640482395887375
1775722070330836000,11.0548359375,0.17038840055465698,0.09774202108383179,0.1332038789987564
1775722070340849000,11.064848876953125,0.22586919367313385,0.07269059121608734,0.22339773178100586
1775722070350862000,11.074862060546875,0.2964189946651459,-0.007505713030695915,0.2901868522167206
1775722070360875000,11.084875,0.3937430679798126,-0.12349804490804672,0.3152260184288025
1775722070370888000,11.094887939453125,0.4820862412452698,-0.1983693391084671,0.3059787452220917
1775722070380901000,11.104901123046876,0.5238547325134277,-0.24910826981067657,0.283468633890152
1775722070390914000,11.1149140625,0.5360954403877258,-0.27645519375801086,0.23099637031555176
1775722070400927000,11.124927001953125,0.5237551331520081,-0.2706572711467743,0.1579175889492035
1775722070410940000,11.13493994140625,0.4964521527290344,-0.22908291220664978,0.07988562434911728
1775722070420953000,11.144953125,0.4714641869068146,-0.20163603127002716,-0.0015689539723098278
1775722070430966000,11.154966064453125,0.4605308473110199,-0.20901192724704742,-0.08378393203020096
1775722070440979000,11.16497900390625,0.42673343420028687,-0.21627093851566315,-0.1333431899547577
1775722070450991900,11.174991943359375,0.35243311524391174,-0.20635226368904114,-0.14163601398468018
1775722070461005000,11.185005126953126,0.2548014223575592,-0.20507651567459106,-0.11847243458032608
1775722070471018000,11.19501806640625,0.16266323626041412,-0.24863384664058685,-0.09625394642353058
1775722070481031000,11.205031005859375,0.09294432401657104,-0.32755836844444275,-0.09858764708042145
1775722070491044000,11.215044189453126,0.07198817282915115,-0.40534529089927673,-0.12982545793056488
1775722070501058000,11.22505810546875,0.07329174131155014,-0.457876980304718,-0.17580117285251617
1775722070511071000,11.235071044921876,0.05803795903921127,-0.47060689330101013,-0.2228938490152359
1775722070521084200,11.245084228515625,0.014302890747785568,-0.43605226278305054,-0.26787880063056946
1775722070531096800,11.255096923828125,-0.043775856494903564,-0.3234730064868927,-0.3046959340572357
1775722070541110000,11.265110107421876,-0.1159738078713417,-0.15751534700393677,-0.31564876437187195
1775722070551123000,11.275123046875,-0.19541563093662262,-0.0035611968487501144,-0.2827531397342682
1775722070561136000,11.28513623046875,-0.25318676233291626,0.09342258423566818,-0.2068970501422882
1775722070571148800,11.295148681640624,-0.26447802782058716,0.11874764412641525,-0.1100461408495903
1775722070581162000,11.305161865234375,-0.2201705425977707,0.11461344361305237,-0.01167396828532219
1775722070591175200,11.315175048828126,-0.1502561718225479,0.09636839479207993,0.07382228970527649
1775722070601187800,11.325187744140624,-0.09125552326440811,0.06486351788043976,0.13729271292686462
1775722070611201000,11.335200927734375,-0.06317435950040817,0.015666678547859192,0.17090073227882385
1775722070621214000,11.3452138671875,-0.05795808508992195,-0.019213182851672173,0.16876201331615448
1775722070631227100,11.35522705078125,-0.05620146170258522,-0.013732129707932472,0.1307365894317627
1775722070641239800,11.36523974609375,-0.042681220918893814,0.03832969442009926,0.07523854821920395
1775722070651253000,11.3752529296875,-0.024656150490045547,0.09724760800600052,0.02746037393808365
1775722070661266200,11.38526611328125,-0.010098719969391823,0.11750297993421555,0.004053787793964148
1775722070671278800,11.39527880859375,0.005878648720681667,0.07918062806129456,0.004751269705593586
1775722070681292000,11.4052919921875,0.020255189388990402,0.036878347396850586,0.02509489841759205
1775722070691305000,11.415304931640625,0.03990425914525986,0.04155619069933891,0.05799851566553116
1775722070701318100,11.425318115234376,0.05381784960627556,0.07224421203136444,0.09393289685249329
1775722070711330800,11.435330810546875,0.06334877014160156,0.07612922787666321,0.12181539833545685
1775722070721344000,11.445343994140625,0.060590192675590515,0.0530640184879303,0.14607954025268555
1775722070731357200,11.455357177734374,0.0638941079378128,0.026019351556897163,0.1589665710926056
1775722070741369900,11.465369873046875,0.0697551965713501,-0.004334460012614727,0.15881744027137756
1775722070751383000,11.475383056640625,0.0781521424651146,-0.00006088544614613056,0.15048334002494812
1775722070761396000,11.48539599609375,0.08193705976009369,0.05100926011800766,0.14575593173503876
1775722070771409200,11.4954091796875,0.07473108172416687,0.09634745121002197,0.15095442533493042
1775722070781421800,11.505421875,0.07013697922229767,0.0935593694448471,0.15374822914600372
1775722070791435000,11.51543505859375,0.07700047641992569,0.04842277988791466,0.1532699316740036
1775722070801448000,11.525447998046875,0.10089319944381714,-0.006273433566093445,0.13678504526615143
1775722070811460900,11.5354609375,0.1358724981546402,-0.05872811749577522,0.10505668073892593
1775722070821474000,11.54547412109375,0.16082069277763367,-0.06248550862073898,0.05981145426630974
1775722070831487000,11.555487060546875,0.1676516979932785,-0.03039814718067646,0.018869880586862564
1775722070841500200,11.565500244140624,0.14868828654289246,0.0032205525785684586,-0.011052212677896023
1775722070851512800,11.575512939453125,0.10879971832036972,0.0145400520414114,-0.017097322270274162
1775722070861526000,11.585526123046876,0.05451875552535057,0.013498371466994286,0.002488518599420786
1775722070871539700,11.595539794921875,0.003515491494908929,0.013868018984794617,0.026374677196145058
1775722070881552400,11.605552490234375,-0.03865467756986618,0.0219721756875515,0.04072466492652893
1775722070891565600,11.615565673828126,-0.06771375238895416,0.04673211649060249,0.04426001384854317
1775722070901578500,11.62557861328125,-0.07789977639913559,0.07029413431882858,0.041489750146865845
1775722070911591400,11.63559130859375,-0.06746178865432739,0.06876441836357117,0.028156636282801628
1775722070921604400,11.645604248046874,-0.04982857033610344,0.06673025339841843,0.00891805998980999
1775722070931617500,11.655617431640625,-0.03099522925913334,0.06114612892270088,-0.007962653413414955
1775722070941630500,11.66563037109375,-0.003775500925257802,0.04717183858156204,-0.028386782854795456
1775722070951643400,11.675643310546874,0.03312499076128006,0.02802104689180851,-0.04676952213048935
1775722070961656600,11.685656494140625,0.08268643915653229,-0.006592919584363699,-0.06396903097629547
1775722070971669500,11.69566943359375,0.1322188377380371,-0.07697973400354385,-0.07688003033399582
1775722070981682400,11.705682373046875,0.18057067692279816,-0.15290269255638123,-0.09511099755764008
1775722070991695400,11.7156953125,0.2328820824623108,-0.18235725164413452,-0.11961980164051056
1775722071001708500,11.72570849609375,0.27914488315582275,-0.17189785838127136,-0.14442521333694458
1775722071011721500,11.735721435546875,0.2918231189250946,-0.14195461571216583,-0.17141954600811005
1775722071021734400,11.745734375,0.2828625440597534,-0.11908173561096191,-0.19063016772270203
1775722071031747600,11.75574755859375,0.26828280091285706,-0.1013842225074768,-0.2006649672985077
1775722071041760500,11.765760498046875,0.27775052189826965,-0.11767666041851044,-0.2050953209400177
1775722071051773400,11.7757734375,0.33072319626808167,-0.14913657307624817,-0.21193379163742065
1775722071061786400,11.785786376953125,0.4023071527481079,-0.18343769013881683,-0.21799039840698242
1775722071071799600,11.795799560546875,0.4609816372394562,-0.2244860678911209,-0.20751112699508667
1775722071081812500,11.8058125,0.47620388865470886,-0.2224917709827423,-0.16468417644500732
1775722071091825400,11.815825439453125,0.4319053888320923,-0.13292326033115387,-0.09836933761835098
1775722071101838600,11.825838623046875,0.3518363833427429,-0.013625401072204113,-0.037551235407590866
1775722071111851500,11.8358515625,0.27021077275276184,0.07049799710512161,-0.006345112342387438
1775722071121864400,11.845864501953125,0.20268967747688293,0.1286361962556839,-0.005101324059069157
1775722071131877400,11.85587744140625,0.13806061446666718,0.16382507979869843,-0.01743176020681858
1775722071141890600,11.865890625,0.08101294189691544,0.18447597324848175,-0.028630517423152924
1775722071151903500,11.875903564453125,0.03851022943854332,0.19635048508644104,-0.03396962583065033
1775722071161916400,11.88591650390625,-0.010231911204755306,0.23343700170516968,-0.041064925491809845
1775722071171929600,11.8959296875,-0.07323458045721054,0.2567782998085022,-0.05434318259358406
1775722071181942500,11.905942626953125,-0.1498780995607376,0.2411717027425766,-0.07764650136232376
1775722071191955500,11.91595556640625,-0.2280365377664566,0.21383355557918549,-0.12210638076066971
1775722071201968400,11.925968505859375,-0.28311026096343994,0.17896857857704163,-0.18407058715820312
1775722071211981600,11.935981689453126,-0.299247145652771,0.15535113215446472,-0.25999146699905396
1775722071221994500,11.945994384765624,-0.2693396806716919,0.14734502136707306,-0.33725765347480774
1775722071232007400,11.95600732421875,-0.21820193529129028,0.15292701125144958,-0.3899938464164734
1775722071242020400,11.966020263671876,-0.17399246990680695,0.1669713407754898,-0.4012261629104614
1775722071252034300,11.976034423828125,-0.15087009966373444,0.16348525881767273,-0.37151727080345154
1775722071262047500,11.986047607421876,-0.14892353117465973,0.13830864429473877,-0.32027894258499146
1775722071272060400,11.996060302734374,-0.16236849129199982,0.12775427103042603,-0.2643440365791321
1775722071282073600,12.006073486328125,-0.16706916689872742,0.1298224925994873,-0.21498507261276245
1775722071292086500,12.01608642578125,-0.15081243216991425,0.13424573838710785,-0.1667371243238449
1775722071302099500,12.026099365234375,-0.12388602644205093,0.1446843296289444,-0.11138037592172623
1775722071312112600,12.036112548828125,-0.0859849825501442,0.17235617339611053,-0.04589857533574104
1775722071322125300,12.046125244140624,-0.0494452528655529,0.23044392466545105,0.02946985885500908
1775722071332138500,12.056138427734375,-0.03257226198911667,0.3003939688205719,0.10483279079198837
1775722071342151400,12.0661513671875,-0.043852366507053375,0.34724730253219604,0.1714477837085724
1775722071352164600,12.07616455078125,-0.07579831779003143,0.3573310971260071,0.21831382811069489
1775722071362177300,12.08617724609375,-0.11661941558122635,0.3157658576965332,0.24337273836135864
1775722071372190500,12.0961904296875,-0.17713920772075653,0.23614560067653656,0.2434220165014267
1775722071382203600,12.10620361328125,-0.22599194943904877,0.1631775051355362,0.2036828100681305
1775722071392216300,12.11621630859375,-0.2441674917936325,0.13171252608299255,0.10627823323011398
1775722071402229500,12.1262294921875,-0.265649676322937,0.16947625577449799,-0.019800277426838875
1775722071412242400,12.136242431640625,-0.29598069190979004,0.25501564145088196,-0.13329727947711945
1775722071422255600,12.146255615234375,-0.33263731002807617,0.3350895941257477,-0.19856248795986176
1775722071432268300,12.156268310546874,-0.3722241520881653,0.37042441964149475,-0.21188680827617645
1775722071442281500,12.166281494140625,-0.37528836727142334,0.37948599457740784,-0.18729357421398163
1775722071452294700,12.176294677734376,-0.3131600320339203,0.38155367970466614,-0.14625346660614014
1775722071462307300,12.186307373046875,-0.2129586786031723,0.3858962953090668,-0.10284118354320526
