time,seconds_elapsed,z,y,x
1775341244762240500,0.059240478515625,2.282752752304077,9.540184020996094,0.04785645380616188
1775341244779026700,0.076026611328125,2.3545374870300293,9.528220176696777,0.040677983313798904
1775341244795814000,0.09281396484375,2.328216314315796,9.523433685302734,0.04785645380616188
1775341244812601300,0.109601318359375,2.311466693878174,9.547362327575684,0.04307080805301666
1775341244829388500,0.126388427734375,2.297109842300415,9.53779125213623,0.038285162299871445
1775341244846176000,0.143176025390625,2.3473589420318604,9.533005714416504,0.062213387340307236
1775341244862963200,0.159963134765625,2.337787628173828,9.528220176696777,0.02153540402650833
1775341244879750700,0.176750732421875,2.2995026111602783,9.540184020996094,0.04307080805301666
1775341244896537900,0.193537841796875,2.313859462738037,9.535398483276367,0.035892341285943985
1775341244913325300,0.2103251953125,2.3545374870300293,9.525827407836914,0.05024927482008934
1775341244930112500,0.227112548828125,2.3330020904541016,9.549755096435547,0.031106693670153618
1775341244946900000,0.24389990234375,2.3258235454559326,9.528220176696777,0.05742774158716202
1775341244963687200,0.260687255859375,2.344966173171997,9.523433685302734,0.038285162299871445
1775341244980474400,0.277474365234375,2.297109842300415,9.547362327575684,0.02632104977965355
1775341244997261800,0.29426171875,2.3186452388763428,9.53061294555664,0.05024927482008934
1775341245014049300,0.31104931640625,2.337787628173828,9.523433685302734,0.02871387079358101
1775341245030836500,0.32783642578125,2.3330020904541016,9.540184020996094,0.040677983313798904
1775341245047624000,0.3446240234375,2.297109842300415,9.540184020996094,0.02871387079358101
1775341245064411100,0.3614111328125,2.3234307765960693,9.542576789855957,0.05024927482008934
1775341245081198300,0.3781982421875,2.352144718170166,9.525827407836914,0.02153540402650833
1775341245097985800,0.39498583984375,2.3617160320281982,9.497113227844238,0.05742774158716202
1775341245114773000,0.41177294921875,2.2755744457244873,9.561718940734863,0.031106693670153618
1775341245131560400,0.428560546875,2.297109842300415,9.542576789855957,0.06699903309345245
1775341245148348000,0.445347900390625,2.342573404312134,9.523433685302734,0.019142581149935722
1775341245165135000,0.462135009765625,2.344966173171997,9.693324089050293,-0.007178467698395252
1775341245181922300,0.47892236328125,2.1918256282806396,9.504291534423828,0.05024927482008934
1775341245198709800,0.495709716796875,2.4430718421936035,9.485149383544922,0.04785645380616188
1775341245215497000,0.5124970703125,2.431107759475708,9.480362892150879,0.02632104977965355
1775341245232284400,0.529284423828125,2.297109842300415,9.571290969848633,0.064606212079525
1775341245249071600,0.546071533203125,2.2301106452941895,9.578469276428223,0.031106693670153618
1775341245265859000,0.562859130859375,2.306680917739868,9.540184020996094,0.062213387340307236
1775341245282646300,0.579646240234375,2.495713949203491,9.45882797241211,0.03349951654672623
1775341245299433700,0.596433837890625,2.4119651317596436,9.497113227844238,0.03349951654672623
1775341245316221000,0.613220947265625,2.218146562576294,9.588040351867676,0.031106693670153618
1775341245333008400,0.63000830078125,2.273181438446045,9.554540634155273,0.059820566326379776
1775341245349795600,0.646795654296875,2.376072883605957,9.509077072143555,0.02871387079358101
1775341245366583000,0.6635830078125,2.3880369663238525,9.504291534423828,0.0526420995593071
1775341245383370200,0.680370361328125,2.311466693878174,9.53779125213623,0.031106693670153618
1775341245400157700,0.69715771484375,2.2707886695861816,9.578469276428223,0.0526420995593071
1775341245416945000,0.71394482421875,2.287538528442383,9.53061294555664,0.04785645380616188
1775341245433732000,0.730732177734375,2.3497519493103027,9.516255378723145,0.038285162299871445
1775341245450519600,0.74751953125,2.3569302558898926,9.516255378723145,0.02871387079358101
1775341245467307000,0.76430712890625,2.3330020904541016,9.533005714416504,0.035892341285943985
1775341245484094200,0.78109423828125,2.287538528442383,9.559326171875,0.031106693670153618
1775341245500881400,0.79788134765625,2.2995026111602783,9.53779125213623,0.04546362906694412
1775341245517668900,0.8146689453125,2.3569302558898926,9.525827407836914,0.035892341285943985
1775341245534456000,0.8314560546875,2.3497519493103027,9.513862609863281,0.038285162299871445
1775341245551243500,0.848243408203125,2.321038007736206,9.53779125213623,0.05503492057323456
1775341245568030700,0.86503076171875,2.2779672145843506,9.542576789855957,0.04307080805301666
1775341245584818200,0.881818115234375,2.3090739250183105,9.542576789855957,0.04307080805301666
1775341245601605400,0.89860546875,2.359323024749756,9.525827407836914,0.040677983313798904
1775341245618392800,0.915392822265625,2.335394859313965,9.521040916442871,0.038285162299871445
1775341245635180000,0.932179931640625,2.2923240661621094,9.54496955871582,0.02632104977965355
1775341245651967500,0.948967529296875,2.289931297302246,9.54496955871582,0.05742774158716202
1775341245668754700,0.965754638671875,2.3306093215942383,9.523433685302734,0.03349951654672623
1775341245685542100,0.982542236328125,2.342573404312134,9.53061294555664,0.05024927482008934
1775341245702329300,0.999329345703125,2.306680917739868,9.53779125213623,0.038285162299871445
1775341245719116800,1.01611669921875,2.306680917739868,9.528220176696777,0.031106693670153618
1775341245735904000,1.032904052734375,2.3306093215942383,9.53061294555664,0.04785645380616188
1775341245752691500,1.04969140625,2.3162522315979004,9.535398483276367,0.040677983313798904
1775341245769478700,1.066478759765625,2.311466693878174,9.535398483276367,0.040677983313798904
1775341245786266000,1.08326611328125,2.3330020904541016,9.521040916442871,0.04785645380616188
1775341245803053300,1.10005322265625,2.3401806354522705,9.523433685302734,0.038285162299871445
1775341245819840800,1.1168408203125,2.3162522315979004,9.53779125213623,0.040677983313798904
1775341245836628000,1.1336279296875,2.3234307765960693,9.53779125213623,0.038285162299871445
1775341245853415200,1.150415283203125,2.311466693878174,9.540184020996094,0.04307080805301666
1775341245870202600,1.16720263671875,2.342573404312134,9.528220176696777,0.02632104977965355
1775341245886990000,1.183989990234375,2.328216314315796,9.528220176696777,0.04546362906694412
1775341245903777300,1.20077734375,2.3186452388763428,9.540184020996094,0.031106693670153618
1775341245920564500,1.217564453125,2.3090739250183105,9.53779125213623,0.05024927482008934
1775341245937352000,1.23435205078125,2.297109842300415,9.53061294555664,0.031106693670153618
1775341245954139100,1.25113916015625,2.3330020904541016,9.525827407836914,0.040677983313798904
1775341245970926600,1.267926513671875,2.3306093215942383,9.533005714416504,0.03349951654672623
1775341245987714000,1.284714111328125,2.311466693878174,9.53779125213623,0.04307080805301666
1775341246004501200,1.301501220703125,2.3258235454559326,9.523433685302734,0.02871387079358101
1775341246021288400,1.318288330078125,2.3401806354522705,9.521040916442871,0.04785645380616188
1775341246038076000,1.335075927734375,2.3162522315979004,9.53061294555664,0.031106693670153618
1775341246054863000,1.351863037109375,2.3186452388763428,9.523433685302734,0.05024927482008934
1775341246071650600,1.368650634765625,2.328216314315796,9.53061294555664,0.038285162299871445
1775341246088437800,1.385437744140625,2.2923240661621094,9.549755096435547,0.04307080805301666
1775341246105225200,1.40222509765625,2.3090739250183105,9.535398483276367,0.02871387079358101
1775341246122012400,1.419012451171875,2.352144718170166,9.525827407836914,0.0526420995593071
1775341246138799900,1.4357998046875,2.2923240661621094,9.547362327575684,0.02392822690308094
1775341246155587000,1.452587158203125,2.328216314315796,9.535398483276367,0.05024927482008934
1775341246172374500,1.46937451171875,2.3330020904541016,9.533005714416504,0.04307080805301666
1775341246189161700,1.48616162109375,2.3234307765960693,9.53779125213623,0.040677983313798904
1775341246205949200,1.50294921875,2.337787628173828,9.542576789855957,0.04785645380616188
1775341246222736400,1.519736328125,2.3258235454559326,9.533005714416504,0.040677983313798904
1775341246239523800,1.53652392578125,2.3306093215942383,9.533005714416504,0.040677983313798904
1775341246256311000,1.55331103515625,2.321038007736206,9.528220176696777,0.035892341285943985
1775341246273098500,1.570098388671875,2.313859462738037,9.535398483276367,0.04307080805301666
1775341246289885700,1.5868857421875,2.311466693878174,9.525827407836914,0.035892341285943985
1775341246306673200,1.603673095703125,2.3401806354522705,9.528220176696777,0.038285162299871445
1775341246323460400,1.62046044921875,2.3018953800201416,9.53061294555664,0.04785645380616188
1775341246340247800,1.637247802734375,2.3306093215942383,9.528220176696777,0.040677983313798904
1775341246357035000,1.654034912109375,2.3258235454559326,9.528220176696777,0.0526420995593071
1775341246373822500,1.670822509765625,2.282752752304077,9.533005714416504,0.040677983313798904
1775341246390609700,1.687609619140625,2.3306093215942383,9.525827407836914,0.04307080805301666
1775341246407397000,1.704397216796875,2.321038007736206,9.53779125213623,0.04307080805301666
1775341246424184300,1.721184326171875,2.3234307765960693,9.53061294555664,0.04546362906694412
1775341246440971800,1.7379716796875,2.304288148880005,9.535398483276367,0.03349951654672623
1775341246457759000,1.754759033203125,2.297109842300415,9.540184020996094,0.04546362906694412
1775341246474546400,1.77154638671875,2.359323024749756,9.521040916442871,0.03349951654672623
1775341246491333600,1.788333740234375,2.3186452388763428,9.521040916442871,0.04785645380616188
1775341246508121000,1.80512109375,2.297109842300415,9.535398483276367,0.038285162299871445
1775341246524908300,1.821908203125,2.3330020904541016,9.533005714416504,0.04785645380616188
1775341246541695700,1.83869580078125,2.3258235454559326,9.525827407836914,0.03349951654672623
1775341246558483000,1.85548291015625,2.3641088008880615,9.535398483276367,0.04307080805301666
1775341246575270400,1.8722705078125,2.304288148880005,9.535398483276367,0.02632104977965355
1775341246592057600,1.8890576171875,2.306680917739868,9.547362327575684,0.04546362906694412
1775341246608845000,1.905844970703125,2.3234307765960693,9.535398483276367,0.035892341285943985
1775341246625632300,1.92263232421875,2.3306093215942383,9.533005714416504,0.05024927482008934
1775341246642419700,1.939419677734375,2.335394859313965,9.53779125213623,0.038285162299871445
1775341246659207000,1.95620703125,2.313859462738037,9.523433685302734,0.04307080805301666
1775341246675994400,1.972994384765625,2.3090739250183105,9.535398483276367,0.0526420995593071
1775341246692781600,1.989781494140625,2.3234307765960693,9.528220176696777,0.038285162299871445
1775341246709569000,2.006569091796875,2.342573404312134,9.525827407836914,0.040677983313798904
1775341246726356200,2.023356201171875,2.3258235454559326,9.525827407836914,0.03349951654672623
1775341246743143700,2.040143798828125,2.3306093215942383,9.518648147583008,0.035892341285943985
1775341246759931000,2.056930908203125,2.313859462738037,9.53061294555664,0.04785645380616188
1775341246776718300,2.07371826171875,2.3258235454559326,9.533005714416504,0.04546362906694412
1775341246793505500,2.090505615234375,2.342573404312134,9.535398483276367,0.04546362906694412
1775341246810293000,2.10729296875,2.311466693878174,9.542576789855957,0.038285162299871445
1775341246827080200,2.124080078125,2.344966173171997,9.525827407836914,0.04307080805301666
1775341246843867600,2.14086767578125,2.3090739250183105,9.549755096435547,0.059820566326379776
1775341246860654800,2.15765478515625,2.297109842300415,9.540184020996094,0.031106693670153618
1775341246877442300,2.1744423828125,2.3880369663238525,9.511469841003418,0.038285162299871445
1775341246894229500,2.1912294921875,2.313859462738037,9.540184020996094,0.04307080805301666
1775341246911017000,2.208016845703125,2.3330020904541016,9.54496955871582,0.02871387079358101
1775341246927804200,2.22480419921875,2.342573404312134,9.518648147583008,0.04785645380616188
1775341246944591600,2.241591552734375,2.337787628173828,9.518648147583008,0.03349951654672623
1775341246961378800,2.25837890625,2.3234307765960693,9.540184020996094,0.0526420995593071
1775341246978166300,2.275166259765625,2.3808584213256836,9.45164966583252,0.05742774158716202
1775341246994953500,2.291953369140625,2.3736801147460938,9.556933403015137,-0.009571290574967861
1775341247011740700,2.30874072265625,2.2133610248565674,9.588040351867676,0.07178468257188797
1775341247028528000,2.325528076171875,2.287538528442383,9.549755096435547,0.02153540402650833
1775341247045315600,2.342315673828125,2.289931297302246,9.53779125213623,0.0526420995593071
1775341247062102800,2.359102783203125,2.447857618331909,9.492327690124512,0.04307080805301666
1775341247078890200,2.37589013671875,2.280359983444214,9.53779125213623,0.059820566326379776
1775341247095677400,2.392677490234375,2.2612173557281494,9.561718940734863,0.040677983313798904
1775341247112464600,2.409464599609375,2.3234307765960693,9.525827407836914,0.038285162299871445
1775341247129252000,2.426252197265625,2.3473589420318604,9.521040916442871,0.059820566326379776
1775341247146039600,2.44303955078125,2.359323024749756,9.513862609863281,0.01196411345154047
1775341247162826800,2.45982666015625,2.3018953800201416,9.547362327575684,0.07417750358581543
1775341247179614000,2.476614013671875,2.266003131866455,9.549755096435547,0.009571290574967861
1775341247196401400,2.4934013671875,2.3641088008880615,9.521040916442871,0.04546362906694412
1775341247213188600,2.510188720703125,2.352144718170166,9.53061294555664,0.031106693670153618
1775341247229976000,2.52697607421875,2.266003131866455,9.55214786529541,0.04307080805301666
1775341247246763500,2.543763427734375,2.256431818008423,9.573683738708496,0.04785645380616188
1775341247263550700,2.56055078125,2.337787628173828,9.542576789855957,0.07178468257188797
1775341247280338000,2.577337890625,2.337787628173828,9.523433685302734,0.02871387079358101
1775341247297125400,2.59412548828125,2.3258235454559326,9.528220176696777,0.05503492057323456
1775341247313912800,2.610912841796875,2.423929452896118,9.485149383544922,0.038285162299871445
1775341247330700000,2.627699951171875,2.4646072387695312,9.499505996704102,-0.007178467698395252
1775341247347487500,2.644487548828125,2.3497519493103027,9.516255378723145,0.04785645380616188
1775341247364274700,2.661274658203125,2.289931297302246,9.55214786529541,0.059820566326379776
1775341247381062000,2.678061767578125,2.3784656524658203,9.518648147583008,0.01196411345154047
1775341247397849300,2.694849365234375,2.368894338607788,9.504291534423828,0.08853443711996078
1775341247414636800,2.71163671875,2.2779672145843506,9.580862045288086,0.04307080805301666
1775341247431424000,2.728424072265625,2.2755744457244873,9.542576789855957,0.05503492057323456
1775341247448211200,2.745211181640625,2.352144718170166,9.535398483276367,0.05742774158716202
1775341247464998700,2.76199853515625,2.352144718170166,9.528220176696777,0.016749758273363113
1775341247481786000,2.7787861328125,2.3497519493103027,9.533005714416504,0.031106693670153618
1775341247498573300,2.7955732421875,2.289931297302246,9.549755096435547,0.02392822690308094
1775341247515360800,2.81236083984375,2.313859462738037,9.528220176696777,0.031106693670153618
1775341247532148000,2.82914794921875,2.342573404312134,9.53779125213623,0.04307080805301666
1775341247548935400,2.845935302734375,2.306680917739868,9.525827407836914,0.059820566326379776
1775341247565722600,2.86272265625,2.3234307765960693,9.528220176696777,0.06699903309345245
1775341247582510000,2.879510009765625,2.3234307765960693,9.518648147583008,0.07657032459974289
1775341247599297300,2.89629736328125,2.3545374870300293,9.525827407836914,0.038285162299871445
1775341247616084500,2.91308447265625,2.289931297302246,9.53779125213623,0.038285162299871445
1775341247632872000,2.929871826171875,2.3641088008880615,9.525827407836914,0.02632104977965355
1775341247649659100,2.9466591796875,2.3401806354522705,9.525827407836914,0.014356935396790504
1775341247666446600,2.963446533203125,2.289931297302246,9.542576789855957,0.016749758273363113
1775341247683234000,2.980234130859375,2.352144718170166,9.528220176696777,0.05024927482008934
1775341247700021200,2.997021240234375,2.3306093215942383,9.53779125213623,0.04307080805301666
1775341247716808700,3.01380859375,2.282752752304077,9.556933403015137,0.11246266216039658
1775341247733596000,3.030595947265625,2.3258235454559326,9.518648147583008,0.03349951654672623
1775341247750383400,3.04738330078125,2.3258235454559326,9.511469841003418,0.02871387079358101
1775341247767170600,3.064170654296875,2.3306093215942383,9.540184020996094,0.02632104977965355
1775341247783957800,3.080957763671875,2.3090739250183105,9.547362327575684,0.0526420995593071
1775341247800745200,3.0977451171875,2.2995026111602783,9.516255378723145,0.014356935396790504
1775341247817532400,3.114532470703125,2.416750907897949,9.492327690124512,0.014356935396790504
1775341247834320000,3.13131982421875,2.2636101245880127,9.556933403015137,0.05024927482008934
1775341247851107300,3.148107421875,2.2779672145843506,9.54496955871582,0.10049854964017868
1775341247867894500,3.16489453125,2.383251428604126,9.509077072143555,-0.03349951654672623
1775341247884682000,3.181681884765625,2.2995026111602783,9.523433685302734,0.1579262912273407
1775341247901469200,3.19846923828125,2.3306093215942383,9.533005714416504,-0.014356935396790504
1775341247918256600,3.215256591796875,2.352144718170166,9.523433685302734,0.02632104977965355
1775341247935043800,3.2320439453125,2.2779672145843506,9.54496955871582,0.06939185410737991
1775341247951831000,3.2488310546875,2.3186452388763428,9.533005714416504,0.016749758273363113
1775341247968618500,3.265618408203125,2.3617160320281982,9.525827407836914,0.01196411345154047
1775341247985406000,3.282406005859375,2.342573404312134,9.54496955871582,0.06939185410737991
1775341248002193200,3.299193115234375,2.313859462738037,9.549755096435547,0.035892341285943985
1775341248018980600,3.315980712890625,2.3330020904541016,9.533005714416504,0
1775341248035767800,3.332767822265625,2.342573404312134,9.521040916442871,0.11724831163883209
1775341248052555000,3.349554931640625,2.3162522315979004,9.53061294555664,0.0023928226437419653
1775341248069342500,3.366342529296875,2.313859462738037,9.533005714416504,0.035892341285943985
1775341248086130000,3.3831298828125,2.3641088008880615,9.525827407836914,0.0526420995593071
1775341248102917000,3.399917236328125,2.3234307765960693,9.533005714416504,0.06939185410737991
1775341248119704300,3.416704345703125,2.2995026111602783,9.561718940734863,-0.02632104977965355
1775341248136491800,3.43349169921875,2.3497519493103027,9.518648147583008,0.1052841991186142
1775341248153279200,3.450279296875,2.3186452388763428,9.535398483276367,0.016749758273363113
1775341248170066400,3.46706640625,2.342573404312134,9.528220176696777,0.03349951654672623
1775341248186853600,3.483853515625,2.311466693878174,9.533005714416504,0.031106693670153618
1775341248203641000,3.50064111328125,2.304288148880005,9.511469841003418,0.08853443711996078
1775341248220428300,3.51742822265625,2.342573404312134,9.535398483276367,-0.064606212079525
1775341248237215700,3.5342158203125,2.2683959007263184,9.54496955871582,0.08853443711996078
1775341248254003200,3.551003173828125,2.3018953800201416,9.528220176696777,0.02632104977965355
1775341248270790400,3.567790283203125,2.3330020904541016,9.523433685302734,0.04307080805301666
1775341248287577600,3.58457763671875,2.4191436767578125,9.511469841003418,0.062213387340307236
1775341248304365000,3.601364990234375,2.500499725341797,9.43489933013916,0.02871387079358101
1775341248321152300,3.61815234375,2.2157537937164307,9.65503978729248,0.016749758273363113
1775341248337939700,3.634939697265625,2.2061824798583984,9.535398483276367,0.03349951654672623
1775341248354727200,3.65172705078125,2.5076780319213867,9.511469841003418,0.09810572862625122
1775341248371514400,3.668514404296875,2.2301106452941895,9.559326171875,-0.09092725813388824
1775341248388301600,3.685301513671875,2.5052852630615234,9.487542152404785,0.12203395366668701
1775341248405089000,3.702089111328125,2.1918256282806396,9.592825889587402,-0.007178467698395252
1775341248421876500,3.71887646484375,2.342573404312134,9.509077072143555,0.059820566326379776
1775341248438663700,3.73566357421875,2.383251428604126,9.494720458984375,0.09571290761232376
1775341248455451000,3.752450927734375,2.234896421432495,9.564111709594727,0.031106693670153618
1775341248472238300,3.76923828125,2.2995026111602783,9.55214786529541,0.02392822690308094
1775341248489025500,3.786025634765625,2.2779672145843506,9.533005714416504,0.016749758273363113
1775341248505813000,3.80281298828125,2.407179594039917,9.513862609863281,0.04546362906694412
1775341248522600400,3.819600341796875,2.342573404312134,9.549755096435547,-0.02392822690308094
1775341248539387600,3.8363876953125,2.242074728012085,9.542576789855957,0.11246266216039658
1775341248556174800,3.8531748046875,2.3306093215942383,9.521040916442871,-0.0023928226437419653
1775341248572962300,3.86996240234375,2.3018953800201416,9.540184020996094,0.1052841991186142
1775341248589749500,3.88674951171875,2.3162522315979004,9.533005714416504,-0.019142581149935722
1775341248606537000,3.903536865234375,2.321038007736206,9.513862609863281,0.13878370821475983
1775341248623324200,3.92032421875,2.3234307765960693,9.554540634155273,-0.09092725813388824
1775341248640111600,3.937111572265625,2.3258235454559326,9.506684303283691,0.1339980661869049
1775341248656898800,3.95389892578125,2.3258235454559326,9.547362327575684,-0.062213387340307236
1775341248673686300,3.970686279296875,2.2851455211639404,9.525827407836914,0.14356936514377594
1775341248690473700,3.9874736328125,2.2947168350219727,9.547362327575684,-0.02871387079358101
1775341248707261000,4.004260986328125,2.4119651317596436,9.497113227844238,0.17228323221206665
1775341248724048100,4.021048095703125,2.344966173171997,9.499505996704102,-0.10049854964017868
1775341248740835600,4.037835693359375,2.3569302558898926,9.540184020996094,0.1698904037475586
1775341248757623000,4.054623046875,2.258824586868286,9.549755096435547,-0.040677983313798904
1775341248774410200,4.07141015625,2.3736801147460938,9.492327690124512,0.07178468257188797
1775341248791197700,4.08819775390625,2.344966173171997,9.516255378723145,-0.0526420995593071
1775341248807985000,4.10498486328125,2.062613010406494,9.640682220458984,0.12921242415905
1775341248824772000,4.121772216796875,2.297109842300415,9.559326171875,0.007178467698395252
1775341248841559600,4.1385595703125,2.447857618331909,9.489934921264648,0.07417750358581543
1775341248858346800,4.1553466796875,2.3641088008880615,9.501898765563965,0.06939185410737991
1775341248875134200,4.17213427734375,2.313859462738037,9.509077072143555,0.062213387340307236
1775341248891921400,4.18892138671875,2.2947168350219727,9.55214786529541,-0.004785645287483931
1775341248908708900,4.205708984375,2.3401806354522705,9.53779125213623,0.05024927482008934
1775341248925496000,4.22249609375,2.2851455211639404,9.518648147583008,-0.007178467698395252
1775341248942283500,4.239283447265625,2.3784656524658203,9.513862609863281,0.040677983313798904
1775341248959070700,4.25607080078125,2.392822742462158,9.521040916442871,-0.01196411345154047
1775341248975858200,4.272858154296875,2.2707886695861816,9.56889820098877,0.064606212079525
1775341248992645400,4.289645263671875,2.2396819591522217,9.559326171875,0.05742774158716202
1775341249009432800,4.306432861328125,2.392822742462158,9.489934921264648,0.07178468257188797
1775341249026220000,4.323219970703125,2.3545374870300293,9.516255378723145,0.04785645380616188
1775341249043007500,4.340007568359375,2.287538528442383,9.55214786529541,0.06699903309345245
1775341249059794700,4.356794677734375,2.306680917739868,9.554540634155273,0.040677983313798904
1775341249076582100,4.37358203125,2.3258235454559326,9.533005714416504,0.007178467698395252
1775341249093369600,4.39036962890625,2.368894338607788,9.523433685302734,0.04307080805301666
1775341249110156800,4.40715673828125,2.3018953800201416,9.525827407836914,0.007178467698395252
1775341249126944300,4.4239443359375,2.242074728012085,9.56650447845459,0.031106693670153618
1775341249143731500,4.4407314453125,2.392822742462158,9.516255378723145,0.04785645380616188
1775341249160518700,4.4575185546875,2.3473589420318604,9.518648147583008,0.07896314561367035
1775341249177306000,4.47430615234375,2.2851455211639404,9.556933403015137,0.01196411345154047
1775341249194093600,4.491093505859375,2.2779672145843506,9.53061294555664,0.12203395366668701
1775341249210880800,4.507880859375,2.321038007736206,9.535398483276367,0.0023928226437419653
1775341249227668000,4.52466796875,2.3234307765960693,9.523433685302734,0.0526420995593071
1775341249244455400,4.541455322265625,2.2947168350219727,9.540184020996094,-0.004785645287483931
1775341249261242600,4.55824267578125,2.3330020904541016,9.547362327575684,0.02392822690308094
1775341249278030000,4.575030029296875,2.376072883605957,9.518648147583008,-0.0023928226437419653
1775341249294817500,4.591817626953125,2.2947168350219727,9.528220176696777,0.07896314561367035
1775341249311604700,4.608604736328125,2.287538528442383,9.564111709594727,0.02632104977965355
1775341249328392000,4.625391845703125,2.3569302558898926,9.513862609863281,0.07417750358581543
1775341249345179400,4.642179443359375,2.3497519493103027,9.525827407836914,0.04546362906694412
1775341249361966800,4.658966796875,2.280359983444214,9.554540634155273,0.059820566326379776
1775341249378754000,4.675754150390625,2.328216314315796,9.547362327575684,0.031106693670153618
1775341249395541200,4.692541259765625,2.3162522315979004,9.53779125213623,0.02632104977965355
1775341249412328700,4.70932861328125,2.3401806354522705,9.53061294555664,0.014356935396790504
1775341249429116000,4.726115966796875,2.273181438446045,9.53779125213623,0.02871387079358101
1775341249445903400,4.7429033203125,2.3018953800201416,9.549755096435547,0.016749758273363113
1775341249462690800,4.75969091796875,2.335394859313965,9.518648147583008,0.059820566326379776
1775341249479478000,4.77647802734375,2.311466693878174,9.547362327575684,0.04546362906694412
1775341249496265200,4.79326513671875,2.3258235454559326,9.53779125213623,0.059820566326379776
1775341249513052700,4.810052734375,2.328216314315796,9.53061294555664,0.0526420995593071
1775341249529840000,4.826840087890625,2.3234307765960693,9.533005714416504,0.04307080805301666
1775341249546627300,4.84362744140625,2.287538528442383,9.54496955871582,0.016749758273363113
1775341249563414500,4.86041455078125,2.2755744457244873,9.554540634155273,0.04785645380616188
1775341249580202000,4.877201904296875,2.352144718170166,9.528220176696777,-0.02392822690308094
1775341249596989200,4.8939892578125,2.3569302558898926,9.516255378723145,0.04785645380616188
1775341249613776600,4.910776611328125,2.3330020904541016,9.53061294555664,0.04785645380616188
1775341249630564000,4.927564208984375,2.280359983444214,9.54496955871582,0.040677983313798904
1775341249647351300,4.944351318359375,2.2995026111602783,9.556933403015137,0.059820566326379776
1775341249664138500,4.961138427734375,2.335394859313965,9.533005714416504,0.08374879509210587
1775341249680926000,4.977926025390625,2.3162522315979004,9.523433685302734,0.02632104977965355
1775341249697713200,4.994713134765625,2.3258235454559326,9.53779125213623,0.04785645380616188
1775341249714500600,5.01150048828125,2.3497519493103027,9.535398483276367,0.03349951654672623
1775341249731287800,5.028287841796875,2.313859462738037,9.53779125213623,0.040677983313798904
1775341249748075300,5.0450751953125,2.328216314315796,9.528220176696777,0.035892341285943985
1775341249764862500,5.061862548828125,2.3569302558898926,9.53061294555664,0.059820566326379776
1775341249781650000,5.07864990234375,2.203789710998535,9.561718940734863,0.02392822690308094
1775341249798437400,5.095437255859375,2.342573404312134,9.518648147583008,0.08135596662759781
1775341249815224600,5.112224609375,2.407179594039917,9.509077072143555,0.02632104977965355
1775341249832011800,5.12901171875,2.2755744457244873,9.549755096435547,0.040677983313798904
1775341249848799200,5.14579931640625,2.266003131866455,9.556933403015137,0.04546362906694412
1775341249865586400,5.16258642578125,2.3641088008880615,9.523433685302734,0.05024927482008934
1775341249882374000,5.179373779296875,2.337787628173828,9.533005714416504,-0.014356935396790504
1775341249899161000,5.1961611328125,2.289931297302246,9.53779125213623,0.07417750358581543
1775341249915948500,5.212948486328125,2.2372891902923584,9.561718940734863,0.019142581149935722
1775341249932735700,5.22973583984375,2.4263222217559814,9.501898765563965,0.038285162299871445
1775341249949523200,5.246523193359375,2.3545374870300293,9.523433685302734,0.05024927482008934
1775341249966310400,5.263310302734375,2.2683959007263184,9.547362327575684,0.062213387340307236
1775341249983097900,5.280097900390625,2.2947168350219727,9.554540634155273,0.02153540402650833
1775341249999885000,5.296885009765625,2.3234307765960693,9.523433685302734,0.0526420995593071
1775341250016672500,5.313672607421875,2.3306093215942383,9.53061294555664,0.035892341285943985
1775341250033459700,5.330459716796875,2.258824586868286,9.54496955871582,0.04307080805301666
1775341250050247200,5.3472470703125,2.328216314315796,9.540184020996094,0.038285162299871445
1775341250067034400,5.364034423828125,2.3712873458862305,9.528220176696777,0.02153540402650833
1775341250083821800,5.38082177734375,2.335394859313965,9.535398483276367,0.02392822690308094
1775341250100609000,5.397609130859375,2.266003131866455,9.53061294555664,0.031106693670153618
1775341250117396500,5.414396484375,2.2947168350219727,9.54496955871582,0.07178468257188797
1775341250134183700,5.43118359375,2.359323024749756,9.533005714416504,0.01196411345154047
1775341250150971100,5.44797119140625,2.2372891902923584,9.554540634155273,0.09810572862625122
1775341250167758300,5.46475830078125,2.3306093215942383,9.540184020996094,-0.0023928226437419653
1775341250184545800,5.4815458984375,2.3258235454559326,9.547362327575684,0.07178468257188797
1775341250201333000,5.4983330078125,2.251646041870117,9.554540634155273,0.04785645380616188
1775341250218120400,5.515120361328125,2.368894338607788,9.521040916442871,0.05503492057323456
1775341250234907600,5.53190771484375,2.3018953800201416,9.53779125213623,0
1775341250251695000,5.548695068359375,2.3497519493103027,9.511469841003418,0.0526420995593071
1775341250268482300,5.565482421875,2.3306093215942383,9.53779125213623,0.016749758273363113
1775341250285269800,5.582269775390625,2.3401806354522705,9.521040916442871,0.04785645380616188
1775341250302057000,5.599056884765625,2.311466693878174,9.528220176696777,0.02392822690308094
1775341250318844400,5.615844482421875,2.3617160320281982,9.511469841003418,0.040677983313798904
1775341250335631600,5.632631591796875,2.3162522315979004,9.535398483276367,0.035892341285943985
1775341250352419000,5.649419189453125,2.227717876434326,9.573683738708496,0.08135596662759781
1775341250369206300,5.666206298828125,2.352144718170166,9.518648147583008,0.01196411345154047
1775341250385993700,5.68299365234375,2.3401806354522705,9.518648147583008,0.04785645380616188
1775341250402781000,5.699781005859375,2.3186452388763428,9.54496955871582,0.04785645380616188
1775341250419568400,5.716568359375,2.3473589420318604,9.53061294555664,0.02392822690308094
1775341250436355600,5.73335546875,2.3401806354522705,9.53779125213623,0.06939185410737991
1775341250453143000,5.75014306640625,2.3497519493103027,9.525827407836914,-0.04307080805301666
1775341250469930200,5.76693017578125,2.4023938179016113,9.516255378723145,0.11006984114646912
1775341250486717700,5.7837177734375,2.3952155113220215,9.559326171875,-0.05024927482008934
1775341250503505000,5.8005048828125,2.304288148880005,9.547362327575684,0.09810572862625122
1775341250520292400,5.817292236328125,2.4526431560516357,9.492327690124512,0.02392822690308094
1775341250537079600,5.83407958984375,2.4119651317596436,9.485149383544922,0.11724831163883209
1775341250553867000,5.850866943359375,2.469393014907837,9.494720458984375,-0.04307080805301666
1775341250570654200,5.867654296875,2.2372891902923584,9.509077072143555,0.15074782073497772
1775341250587441700,5.884441650390625,2.3808584213256836,9.56650447845459,-0.07417750358581543
1775341250604228900,5.901228759765625,2.644068956375122,9.4061861038208,0.02392822690308094
1775341250621016300,5.918016357421875,2.416750907897949,9.573683738708496,0.062213387340307236
1775341250637803500,5.934803466796875,2.2612173557281494,9.592825889587402,0.09810572862625122
1775341250654591000,5.951591064453125,2.4335005283355713,9.4660062789917,-0.11006984114646912
1775341250671378200,5.968378173828125,2.328216314315796,9.56650447845459,0.15074782073497772
1775341250688165600,5.98516552734375,2.3808584213256836,9.516255378723145,-0.09571290761232376
1775341250704952800,6.001952880859375,2.359323024749756,9.547362327575684,0.0933200865983963
1775341250721740300,6.018740234375,2.447857618331909,9.480362892150879,0.11485548317432404
1775341250738527500,6.035527587890625,2.4287149906158447,9.454042434692383,0.02871387079358101
1775341250755314700,6.052314697265625,2.3258235454559326,9.600004196166992,0.031106693670153618
1775341250772102100,6.06910205078125,2.392822742462158,9.518648147583008,0.064606212079525
1775341250788889600,6.0858896484375,2.311466693878174,9.528220176696777,0.06699903309345245
1775341250805676800,6.1026767578125,2.2301106452941895,9.597611427307129,-0.03349951654672623
1775341250822464300,6.11946435546875,2.2683959007263184,9.611968994140625,0.0933200865983963
1775341250839251500,6.13625146484375,2.7876384258270264,9.391828536987305,0.004785645287483931
1775341250856039000,6.153038818359375,2.170290231704712,9.734002113342285,0.031106693670153618
1775341250872826000,6.169826171875,1.9860427379608154,9.824930191040039,0
1775341250889613600,6.186613525390625,1.892722725868225,10.100104331970215,0.12921242415905
1775341250906400800,6.20340087890625,1.674975872039795,10.3681001663208,0.2392822653055191
1775341250923188000,6.22018798828125,2.4263222217559814,10.279565811157227,0.12681959569454193
1775341250939975400,6.236975341796875,3.7782669067382812,10.073782920837402,0.02153540402650833
1775341250956762600,6.2537626953125,1.2011969089508057,11.12901782989502,0.30149564146995544
1775341250973550000,6.270550048828125,1.7587246894836426,11.452049255371094,0.16749759018421173
1775341250990337300,6.287337158203125,3.2207393646240234,10.887343406677246,0.2799602448940277
1775341251007124700,6.304124755859375,2.7278177738189697,11.150553703308105,-0.2153540402650833
1775341251023912000,6.320911865234375,2.50289249420166,11.033305168151855,0.16031911969184875
1775341251040699400,6.337699462890625,-2.9862427711486816,12.134003639221191,0.1818545162677765
1775341251057486600,6.354486572265625,-4.364508628845215,11.404192924499512,0.3732803463935852
1775341251074274000,6.371274169921875,-0.062213387340307236,10.116853713989258,-0.07896314561367035
1775341251091061200,6.388061279296875,3.3714871406555176,7.479963779449463,0.2105683982372284
1775341251107848700,6.4048486328125,5.927021503448486,7.331608772277832,-0.6556333899497986
1775341251124636000,6.421635986328125,7.417750358581543,5.9198431968688965,0.0933200865983963
1775341251141423400,6.43842333984375,7.877171993255615,5.675775527954102,-0.6269195079803467
1775341251158210600,6.45521044921875,8.161917686462402,5.608776092529297,-0.1746760457754135
1775341251174998000,6.471998046875,6.510870456695557,5.661418437957764,-0.605384111404419
1775341251191785200,6.48878515625,4.319045066833496,7.8388872146606445,0.03349951654672623
1775341251208572700,6.50557275390625,2.1272194385528564,8.726624488830566,0.12203395366668701
1775341251225360000,6.52235986328125,0.059820566326379776,8.516056060791016,0.10049854964017868
1775341251242147300,6.539147216796875,1.7563318014144897,7.829315662384033,0.380458801984787
1775341251258934500,6.5559345703125,4.878965377807617,7.869993686676025,-0.11485548317432404
1775341251275722000,6.572721923828125,3.610769271850586,7.51585578918457,-0.009571290574967861
1775341251292509200,6.58950927734375,3.311666488647461,7.365108013153076,0.2967100143432617
1775341251309296600,6.606296630859375,4.450650215148926,6.367300987243652,-0.12203395366668701
1775341251326083800,6.623083740234375,67.10431671142578,-19.436899185180664,4.804787635803223
1775341251342871300,6.639871337890625,-33.90629577636719,23.502304077148438,-3.775874137878418
1775341251359658500,6.656658447265625,26.261228561401367,0.49292147159576416,-1.6031911373138428
1775341251376446000,6.673446044921875,-7.982456207275391,12.56710433959961,3.7016966342926025
1775341251393233200,6.690233154296875,17.185253143310547,4.551148891448975,-3.893122434616089
1775341251410020600,6.7070205078125,3.6442689895629883,6.522834300994873,3.658625841140747
1775341251426807800,6.723807861328125,5.225924491882324,9.030512809753418,-2.8115665912628174
1775341251443595300,6.74059521484375,9.276973724365234,4.9531426429748535,0.6317051649093628
1775341251460382500,6.757382568359375,4.024727821350098,9.248259544372559,-0.6005984544754028
1775341251477170000,6.774169921875,7.03489875793457,6.888936519622803,-0.6556333899497986
1775341251493957000,6.79095703125,7.463213920593262,6.939185619354248,-0.3565305769443512
1775341251510744300,6.807744384765625,6.463014125823975,8.590232849121094,-0.6149554252624512
1775341251527531800,6.82453173828125,8.520841598510742,6.192625045776367,-0.1986042857170105
1775341251544319200,6.8413193359375,6.2428741455078125,7.874779224395752,-0.7082754969596863
1775341251561106400,6.8581064453125,6.156732559204102,7.276573657989502,0.22013968229293823
1775341251577894000,6.874893798828125,7.467999458312988,7.020541667938232,-0.15074782073497772
1775341251594681000,6.89168115234375,6.640082836151123,7.027719974517822,0.04307080805301666
1775341251611468300,6.90846826171875,7.204789161682129,6.714260101318359,0.40677985548973083
1775341251628255700,6.925255859375,7.853243827819824,6.687939167022705,-0.21296121180057526
1775341251645043000,6.94204296875,6.671189308166504,7.04207706451416,0.29431718587875366
1775341251661830400,6.958830322265625,7.10429048538208,7.101897716522217,-0.11006984114646912
1775341251678617600,6.97561767578125,6.620940208435059,7.080362319946289,-0.12921242415905
1775341251695405000,6.992405029296875,6.240481376647949,7.460821151733398,-0.2871387302875519
1775341251712192300,7.009192138671875,6.831508636474609,7.140182971954346,-0.4331009089946747
1775341251728979700,7.025979736328125,7.597211837768555,6.900900363922119,-0.44745782017707825
1775341251745767000,7.042766845703125,6.704689025878906,7.0061845779418945,-0.3278166949748993
1775341251762554400,7.059554443359375,6.57547664642334,7.058826923370361,-0.39960137009620667
1775341251779341600,7.076341552734375,6.941578388214111,7.113861560821533,-0.040677983313798904
1775341251796129000,7.09312890625,6.573083877563477,6.441478729248047,0.12442677468061447
1775341251812916200,7.109916259765625,6.496513366699219,7.0995049476623535,-0.29431718587875366
1775341251829703700,7.12670361328125,6.522834300994873,6.8865437507629395,0.3517449200153351
1775341251846491000,7.143490966796875,6.874579429626465,7.015756130218506,-0.39481574296951294
1775341251863278300,7.1602783203125,6.398407936096191,7.195217609405518,0.12203395366668701
1775341251880065500,7.1770654296875,6.573083877563477,7.164111137390137,-0.3732803463935852
1775341251896853000,7.19385302734375,6.625725746154785,7.494320392608643,-0.1339980661869049
1775341251913640200,7.21064013671875,7.664210796356201,6.9104719161987305,-0.48095735907554626
1775341251930427600,7.227427734375,6.422336101531982,7.130611419677734,-0.5862415432929993
1775341251947214800,7.24421484375,6.97268533706665,7.255038261413574,-0.20338992774486542
1775341251964002300,7.261002197265625,6.080162525177002,7.463213920593262,-0.18903298676013947
1775341251980789500,7.27778955078125,7.980063438415527,6.752545356750488,-0.05503492057323456
1775341251997577000,7.294576904296875,6.178267955780029,7.317251682281494,0.02153540402650833
1775341252014364200,7.3113642578125,6.963113784790039,7.0923261642456055,0.07896314561367035
1775341252031151600,7.328151611328125,7.238288402557373,7.061219692230225,-0.035892341285943985
1775341252047938800,7.344938720703125,6.632904529571533,7.276573657989502,0.08614161610603333
1775341252064726300,7.361726318359375,6.8410797119140625,7.348358154296875,-0.1052841991186142
1775341252081513500,7.378513427734375,6.860222339630127,7.223931789398193,-0.22492532432079315
1775341252098300700,7.39530078125,6.932007312774658,7.195217609405518,-0.48813581466674805
1775341252115088100,7.412088134765625,6.843472957611084,7.1473612785339355,-0.49292147159576416
1775341252131875300,7.428875244140625,6.766902446746826,7.001399040222168,-0.48813581466674805
1775341252148662800,7.445662841796875,6.405586242675781,7.106683254241943,-0.34695929288864136
1775341252165450200,7.4624501953125,6.589833736419678,6.999006271362305,-0.16031911969184875
1775341252182237400,7.479237548828125,6.398407936096191,6.989434719085693,-0.08374879509210587
1775341252199024600,7.496024658203125,7.259823799133301,6.608976364135742,0.02392822690308094
1775341252215812000,7.51281201171875,6.230910301208496,7.025327205657959,0.26560330390930176
1775341252232599600,7.529599609375,6.879364967346191,6.7932233810424805,0.19621145725250244
1775341252249386800,7.54638671875,6.888936519622803,6.814758777618408,0.07417750358581543
1775341252266174000,7.563174072265625,6.460621356964111,7.073183536529541,-0.10289137065410614
1775341252282961400,7.57996142578125,7.04207706451416,6.929614543914795,-0.37088751792907715
1775341252299748600,7.59674853515625,6.52044153213501,7.020541667938232,-0.7106683254241943
1775341252316536000,7.6135361328125,6.453442573547363,7.269395351409912,-0.5335994362831116
1775341252333323300,7.6303232421875,5.98444938659668,7.161718368530273,-0.5120640397071838
1775341252350110700,7.64711083984375,7.085147857666016,6.8171515464782715,-0.26081767678260803
1775341252366898000,7.66389794921875,6.56829833984375,7.044469833374023,-0.17946170270442963
1775341252383685400,7.680685302734375,6.206982135772705,7.11146879196167,0.02153540402650833
1775341252400472600,7.69747265625,7.202396392822266,6.955935478210449,0.035892341285943985
1775341252417260000,7.714260009765625,7.044469833374023,6.675975322723389,0.11724831163883209
1775341252434047200,7.731047119140625,6.192625045776367,6.9822564125061035,0.14356936514377594
1775341252450834700,7.747834716796875,6.879364967346191,6.508477687835693,0.031106693670153618
1775341252467622000,7.764621826171875,5.654240131378174,6.69990348815918,-0.4546363055706024
1775341252484409300,7.781409423828125,6.474977970123291,6.333801746368408,-0.16031911969184875
1775341252501196500,7.798196533203125,6.5874409675598145,6.278766632080078,-0.4259224236011505
1775341252517984000,7.81498388671875,5.61116886138916,6.434299945831299,-0.42352959513664246
1775341252534771200,7.831771240234375,6.592226505279541,6.025127410888672,-0.3086741268634796
1775341252551558700,7.84855859375,5.979663848876953,6.029912948608398,-0.38763725757598877
1775341252568345900,7.865345947265625,6.2668023109436035,6.6113691329956055,0.36610186100006104
1775341252585133300,7.88213330078125,6.733402729034424,5.946164131164551,0.064606212079525
1775341252601920500,7.89892041015625,6.10169792175293,5.962913990020752,-0.1818545162677765
1775341252618708000,7.9157080078125,5.838487148284912,6.752545356750488,0.2560320198535919
1775341252635495200,7.9324951171875,6.771687984466553,6.489335060119629,-0.2799602448940277
1775341252652282600,7.94928271484375,6.613761901855469,6.623332977294922,0.2919243574142456
1775341252669069800,7.96606982421875,6.2428741455078125,6.951149940490723,-0.4307080805301666
1775341252685857300,7.982857177734375,7.5565338134765625,6.63051176071167,-0.23210379481315613
1775341252702644500,7.99964453125,6.302694797515869,7.668996810913086,-0.8159525394439697
1775341252719432000,8.016431884765625,6.63051176071167,7.6498541831970215,0.2225325107574463
1775341252736219100,8.03321923828125,7.472784996032715,7.566105365753174,-0.7130611538887024
1775341252753006600,8.050006591796874,7.3986077308654785,7.410571575164795,0.32303106784820557
1775341252769793800,8.066793701171875,7.369893550872803,7.247859954833984,-0.6436693072319031
1775341252786581200,8.083581298828125,6.8243303298950195,7.3746795654296875,0.3158525824546814
1775341252803368400,8.100368408203124,6.44387149810791,7.800601959228516,-0.2273181527853012
1775341252820156000,8.117156005859375,7.408178806304932,6.807580471038818,-0.064606212079525
1775341252836943000,8.133943115234375,7.274180889129639,7.2095746994018555,-0.5312066078186035
1775341252853730300,8.150730224609376,6.295516490936279,7.1162543296813965,-0.014356935396790504
1775341252870517800,8.167517822265625,6.269195556640625,7.269395351409912,-0.4091726839542389
1775341252887305000,8.184304931640625,7.015756130218506,6.477370738983154,-0.21296121180057526
1775341252904092400,8.201092529296876,7.080362319946289,6.821937561035156,-0.40677985548973083
1775341252920879900,8.2178798828125,6.723831653594971,6.6831536293029785,-0.23210379481315613
1775341252937667000,8.2346669921875,6.640082836151123,7.178467750549316,0.19142581522464752
1775341252954454300,8.251454345703126,6.7932233810424805,6.905686378479004,0.062213387340307236
1775341252971241700,8.26824169921875,6.604190349578857,6.728617191314697,0.12442677468061447
1775341252988029000,8.28502880859375,6.508477687835693,7.300501823425293,-0.11246266216039658
1775341253004816400,8.30181640625,6.601797580718994,6.845865726470947,-0.27756741642951965
1775341253021603800,8.318603759765624,6.747759819030762,6.965506553649902,-0.12203395366668701
1775341253038391000,8.33539111328125,7.063612461090088,7.214360237121582,-0.16271193325519562
1775341253055178200,8.35217822265625,6.534798622131348,6.766902446746826,-0.10289137065410614
1775341253071965700,8.368965576171876,7.11146879196167,7.386643409729004,-0.349352091550827
1775341253088753200,8.385753173828125,7.135396957397461,6.750152587890625,0.004785645287483931
1775341253105540400,8.402540283203125,6.831508636474609,7.410571575164795,-0.3397808074951172
1775341253122327600,8.41932763671875,6.86261510848999,7.590033531188965,-0.14356936514377594
1775341253139115000,8.436114990234374,6.668796539306641,7.23589563369751,-0.47617170214653015
1775341253155902200,8.452902099609375,6.936792850494385,7.362715244293213,-0.11485548317432404
1775341253172689700,8.469689697265625,6.905686378479004,6.932007312774658,-0.24406790733337402
1775341253189476900,8.486476806640624,6.891329288482666,7.259823799133301,-0.2105683982372284
1775341253206264300,8.503264404296875,6.479763507843018,7.164111137390137,-0.19142581522464752
1775341253223051500,8.520051513671875,6.558726787567139,6.9344000816345215,-0.35413774847984314
1775341253239839000,8.5368388671875,7.140182971954346,6.750152587890625,0.12442677468061447
1775341253256626200,8.553626220703125,6.604190349578857,7.118647575378418,0.07178468257188797
1775341253273413600,8.57041357421875,6.565905570983887,7.171289443969727,-0.10289137065410614
1775341253290200800,8.587200927734376,6.915257453918457,6.833901405334473,-0.24885354936122894
1775341253306988300,8.60398828125,6.7310099601745605,7.101897716522217,-0.3613162338733673
1775341253323775500,8.620775390625,6.872186660766602,6.965506553649902,-0.11246266216039658
1775341253340563000,8.63756298828125,6.771687984466553,7.022934436798096,-0.5694918036460876
1775341253357350100,8.65435009765625,6.479763507843018,6.967899322509766,-0.2584248483181
1775341253374137600,8.6711376953125,6.836294174194336,6.9344000816345215,-0.4331009089946747
1775341253390924800,8.6879248046875,7.176074981689453,7.3292155265808105,0.12203395366668701
1775341253407712300,8.704712158203124,6.8865437507629395,7.168896675109863,-0.21774685382843018
1775341253424499500,8.72149951171875,7.219145774841309,7.04925537109375,0.07417750358581543
1775341253441287000,8.738286865234375,6.668796539306641,7.523034572601318,-0.20578274130821228
1775341253458074000,8.75507421875,6.953542709350586,7.613961696624756,0.059820566326379776
1775341253474861300,8.771861328125,7.350750923156738,7.195217609405518,-0.16031911969184875
1775341253491648800,8.788648681640625,7.204789161682129,7.269395351409912,-0.28235307335853577
1775341253508436000,8.80543603515625,6.728617191314697,7.69531774520874,-0.37088751792907715
1775341253525223400,8.822223388671874,6.946363925933838,7.252645492553711,-0.2584248483181
1775341253542010600,8.8390107421875,6.970292568206787,6.951149940490723,-0.4163511395454407
1775341253558798000,8.855798095703125,7.137789726257324,7.1856465339660645,-0.12921242415905
1775341253575585300,8.872585205078124,6.429514408111572,7.271788120269775,-0.2871387302875519
1775341253592372700,8.889372802734375,6.821937561035156,7.044469833374023,0.09092725813388824
1775341253609160000,8.906159912109375,6.922435760498047,7.010970115661621,-0.12681959569454193
1775341253625947400,8.922947509765624,6.151947021484375,7.032505512237549,-0.01196411345154047
1775341253642734600,8.939734619140625,6.900900363922119,6.7621169090271,0.064606212079525
1775341253659522000,8.95652197265625,6.946363925933838,7.113861560821533,-0.4211367964744568
1775341253676309200,8.973309326171876,6.419943332672119,6.920042991638184,0.05503492057323456
1775341253693096700,8.9900966796875,6.642475605010986,6.750152587890625,-0.48574298620224
1775341253709884000,9.0068837890625,6.63769006729126,7.09711217880249,-0.02871387079358101
1775341253726671400,9.02367138671875,6.953542709350586,7.001399040222168,-0.2512463629245758
1775341253743458600,9.04045849609375,6.695117950439453,7.04925537109375,-0.1459621787071228
1775341253760246000,9.05724609375,6.5180487632751465,7.149754047393799,0.22971096634864807
1775341253777033200,9.074033203125,7.1856465339660645,6.963113784790039,-0.1866401731967926
1775341253793820400,9.0908203125,6.977470874786377,7.154539585113525,-0.08853443711996078
1775341253810607900,9.10760791015625,6.5491557121276855,7.247859954833984,-0.16510476171970367
1775341253827395300,9.124395263671875,7.135396957397461,7.2335028648376465,-0.18903298676013947
1775341253844182500,9.1411826171875,6.903293132781982,7.1162543296813965,-0.28235307335853577
1775341253860970000,9.157969970703125,6.7621169090271,7.0923261642456055,-0.2105683982372284
1775341253877757200,9.174757080078125,6.685546398162842,7.252645492553711,-0.12681959569454193
1775341253894544400,9.19154443359375,6.7070817947387695,7.207181930541992,-0.2560320198535919
1775341253911331800,9.208331787109374,7.393822193145752,6.946363925933838,-0.12442677468061447
1775341253928119000,9.225119140625,6.821937561035156,7.245467185974121,-0.24646073579788208
1775341253944906500,9.241906494140625,6.300302028656006,7.106683254241943,0.07896314561367035
1775341253961693700,9.258693603515624,7.348358154296875,7.223931789398193,-0.4259224236011505
1775341253978481200,9.275481201171875,7.066005229949951,6.9104719161987305,-0.06699903309345245
1775341253995268400,9.292268310546875,6.233303070068359,7.1473612785339355,-0.3924229145050049
1775341254012055800,9.309055908203124,6.948757171630859,6.941578388214111,-0.11724831163883209
1775341254028843000,9.325843017578125,7.197610378265381,7.044469833374023,-0.4977070987224579
1775341254045630500,9.34263037109375,6.477370738983154,7.499105930328369,0.22013968229293823
1775341254062417700,9.359417724609376,6.9822564125061035,7.623532772064209,-0.638883650302887
1775341254079205000,9.376205078125,7.470392227172852,7.295716285705566,0.2392822653055191
1775341254095992300,9.392992431640625,7.18086051940918,8.063812255859375,-0.3397808074951172
1775341254112779800,9.40977978515625,7.45364236831665,8.331808090209961,0.44027936458587646
1775341254129567000,9.42656689453125,8.147561073303223,9.047262191772461,-0.6029912829399109
1775341254146354200,9.443354248046875,9.123832702636719,8.745766639709473,0.2991028428077698
1775341254163141600,9.4601416015625,8.432307243347168,9.308079719543457,-0.5431707501411438
1775341254179929000,9.47692919921875,9.025727272033691,9.257830619812012,-0.03349951654672623
1775341254196716300,9.49371630859375,8.752944946289062,9.226723670959473,-0.7226324677467346
1775341254213503500,9.51050341796875,8.307880401611328,9.269794464111328,-0.22492532432079315
1775341254230291000,9.527291015625,8.24566650390625,9.265008926391602,-0.4139583110809326
1775341254247078100,9.544078125,8.401200294494629,9.047262191772461,0.01196411345154047
1775341254263865600,9.560865478515625,8.073383331298828,8.96112060546875,-0.04307080805301666
1775341254280652800,9.57765283203125,7.4225358963012695,8.291130065917969,-0.28235307335853577
1775341254297440300,9.594440185546874,7.731209754943848,8.47298526763916,-0.27756741642951965
1775341254314227500,9.6112275390625,7.956135272979736,8.0350980758667,-0.22971096634864807
1775341254331015000,9.628014892578125,7.130611419677734,8.047062873840332,-0.14117653667926788
1775341254347802000,9.644802001953124,7.255038261413574,8.173882484436035,-0.0526420995593071
1775341254364589600,9.661589599609375,7.6498541831970215,7.936992645263672,0.1052841991186142
1775341254381376800,9.678376708984375,7.549355506896973,8.26241683959961,-0.36610186100006104
1775341254398164000,9.6951640625,7.369893550872803,8.011170387268066,-0.12442677468061447
1775341254414951400,9.711951416015625,7.733603000640869,7.865208148956299,-0.28235307335853577
1775341254431739000,9.72873876953125,7.0061845779418945,7.781459331512451,-0.28235307335853577
1775341254448526000,9.745526123046876,7.269395351409912,7.740781307220459,0.059820566326379776
1775341254465313300,9.762313232421874,8.126026153564453,7.920242786407471,-0.4307080805301666
1775341254482100700,9.779100830078125,7.223931789398193,8.008777618408203,0.0933200865983963
1775341254498888000,9.795887939453126,7.489534854888916,7.8819580078125,-0.44745782017707825
1775341254515675400,9.81267529296875,7.922635555267334,7.956135272979736,-0.02871387079358101
1775341254532462600,9.829462646484375,7.262216567993164,7.511070251464844,-0.35413774847984314
1775341254549250000,9.84625,7.755138397216797,7.70967435836792,0.064606212079525
1775341254566037200,9.863037353515624,7.728816986083984,8.001599311828613,-0.6340979933738708
1775341254582824700,9.87982470703125,7.331608772277832,7.798209190368652,0.1866401731967926
1775341254599612000,9.89661181640625,6.7310099601745605,7.733603000640869,-0.46420758962631226
1775341254616399400,9.9133994140625,7.178467750549316,7.726424217224121,0.16749759018421173
1775341254633186600,9.9301865234375,7.195217609405518,7.3986077308654785,-0.17706887423992157
1775341254649974000,9.94697412109375,7.077969551086426,7.668996810913086,-0.17946170270442963
1775341254666761200,9.96376123046875,6.994220733642578,7.63310432434082,-0.22492532432079315
1775341254683548400,9.98054833984375,7.410571575164795,7.7455668449401855,-0.05503492057323456
1775341254700335900,9.9973359375,7.592426300048828,6.991827964782715,0.05024927482008934
1775341254717123000,10.014123046875,6.080162525177002,6.831508636474609,-0.11006984114646912
1775341254733910500,10.03091064453125,5.972485542297363,6.829115867614746,-0.08374879509210587
1775341254750697700,10.04769775390625,5.97727108001709,6.436692714691162,-0.2512463629245758
1775341254767485200,10.064485107421875,7.477570533752441,5.970092296600342,-0.349352091550827
1775341254784272400,10.0812724609375,5.6925249099731445,5.654240131378174,0.064606212079525
1775341254801059800,10.098059814453125,4.926821708679199,5.020142078399658,-0.07657032459974289
1775341254817847000,10.114846923828125,6.467799663543701,5.106283664703369,-0.2273181527853012
1775341254834634500,10.131634521484376,4.634897232055664,5.242674350738525,0.06699903309345245
1775341254851421700,10.148421630859374,5.190032482147217,4.560719966888428,-0.23210379481315613
1775341254868209200,10.165209228515625,4.551148891448975,4.9124650955200195,-0.42831525206565857
1775341254884996400,10.181996337890626,4.185046672821045,4.890929698944092,0.33499518036842346
1775341254901783600,10.198783447265624,5.6207404136657715,4.1730828285217285,-0.7968099117279053
1775341254918571000,10.215571044921875,3.7806596755981445,4.917250633239746,0.2799602448940277
1775341254935358200,10.232358154296875,5.142175674438477,5.089533805847168,-0.47617170214653015
1775341254952145700,10.249145751953124,2.043470621109009,5.773880958557129,0.2991028428077698
1775341254968932900,10.265932861328125,11.48076343536377,2.806781053543091,-0.7920243144035339
1775341254985720300,10.28272021484375,6.721438884735107,3.9912281036376953,0.5048855543136597
1775341255002507500,10.299507568359376,4.704289436340332,5.97727108001709,-0.3613162338733673
1775341255019295000,10.316294921875,5.702096462249756,5.556134223937988,0.4378865361213684
1775341255036082200,10.333082275390625,5.917450428009033,6.226124286651611,-0.4546363055706024
1775341255052869400,10.349869384765626,5.522634506225586,6.259624004364014,-0.04785645380616188
1775341255069656800,10.36665673828125,6.489335060119629,6.453442573547363,-0.4091726839542389
1775341255086444000,10.383444091796875,7.35314416885376,7.204789161682129,-0.2512463629245758
1775341255103231500,10.4002314453125,7.089933395385742,7.214360237121582,-0.16031911969184875
1775341255120018700,10.417018798828124,8.439485549926758,6.912864685058594,-0.07657032459974289
1775341255136806100,10.43380615234375,4.8813581466674805,8.74337387084961,-0.42352959513664246
1775341255153593300,10.45059326171875,8.109275817871094,7.472784996032715,0.15553347766399384
1775341255170380800,10.467380859375,8.788837432861328,7.286144733428955,-0.7465606927871704
1775341255187168000,10.48416796875,5.9437713623046875,8.233702659606934,0.349352091550827
1775341255203955200,10.500955078125,6.723831653594971,8.116454124450684,-0.44745782017707825
1775341255220742700,10.51774267578125,7.867600917816162,7.401000499725342,0.01196411345154047
1775341255237529900,10.53452978515625,6.853044033050537,7.2813591957092285,-0.6795616149902344
1775341255254317300,10.5513173828125,6.642475605010986,7.64028263092041,0.2991028428077698
1775341255271104500,10.5681044921875,7.16650390625,7.5804619789123535,-0.6891329288482666
1775341255287892000,10.58489208984375,7.025327205657959,7.762316703796387,0.06939185410737991
1775341255304679200,10.60167919921875,7.657032489776611,7.214360237121582,-0.4953143000602722
1775341255321466600,10.618466552734375,7.491927623748779,6.92482852935791,0.18424734473228455
1775341255338253800,10.63525390625,6.075376510620117,7.685746192932129,-0.4426721930503845
1775341255355041300,10.652041259765625,6.4319071769714355,7.015756130218506,0.6939185857772827
1775341255371828500,10.668828369140625,6.491727828979492,7.178467750549316,-0.5455635786056519
1775341255388615700,10.68561572265625,6.640082836151123,6.56829833984375,0.43549370765686035
1775341255405403100,10.702403076171874,6.853044033050537,7.094718933105469,-0.6460621356964111
1775341255422190300,10.7191904296875,6.599404811859131,6.912864685058594,0.19381862878799438
1775341255438977800,10.735977783203126,6.6831536293029785,7.113861560821533,-0.7872386574745178
1775341255455765000,10.752764892578124,6.747759819030762,6.829115867614746,-0.03349951654672623
1775341255472552400,10.769552490234375,6.300302028656006,6.891329288482666,-0.31106695532798767
1775341255489339600,10.786339599609375,6.31944465637207,6.92482852935791,0.0526420995593071
1775341255506127000,10.803127197265624,7.192824840545654,6.687939167022705,-0.11724831163883209
1775341255522914300,10.819914306640625,6.317051887512207,6.845865726470947,-0.064606212079525
1775341255539701500,10.836701416015625,7.451249599456787,6.570691108703613,0.01196411345154047
1775341255556489000,10.853489013671876,6.726224422454834,7.046862602233887,0.08135596662759781
1775341255573276200,10.870276123046875,7.22871732711792,6.719046115875244,-0.07896314561367035
1775341255590063600,10.887063720703125,6.838686943054199,6.898507595062256,-0.17946170270442963
1775341255606850800,10.903850830078126,6.527620315551758,7.137789726257324,-0.24646073579788208
1775341255623638300,10.92063818359375,6.853044033050537,6.8865437507629395,-0.35892340540885925
1775341255640425500,10.937425537109375,7.716853141784668,6.903293132781982,-0.576670229434967
1775341255657213000,10.954212890625,6.546762943267822,7.226324558258057,-0.2584248483181
1775341255674000100,10.971000244140624,6.807580471038818,7.144968509674072,-0.26081767678260803
1775341255690787600,10.98778759765625,7.03489875793457,6.908079147338867,-0.09810572862625122
1775341255707574800,11.00457470703125,7.137789726257324,6.7621169090271,-0.07896314561367035
1775341255724362000,11.021362060546876,6.259624004364014,6.936792850494385,-0.24885354936122894
1775341255741149400,11.0381494140625,6.302694797515869,6.766902446746826,-0.11246266216039658
1775341255757936600,11.0549365234375,6.556334018707275,6.623332977294922,-0.20817556977272034
1775341255774724000,11.07172412109375,5.374279499053955,6.675975322723389,-0.15553347766399384
1775341255791511300,11.08851123046875,6.233303070068359,5.929414749145508,-0.44027936458587646
1775341255808298500,11.105298583984375,6.283552169799805,5.898307800292969,0.17228323221206665
1775341255825086000,11.1220859375,6.400800704956055,5.9676995277404785,-0.05742774158716202
1775341255841873200,11.138873046875,5.2043890953063965,6.331408500671387,0.0023928226437419653
1775341255858660600,11.15566064453125,6.175875186920166,5.757131099700928,0.11485548317432404
1775341255875447800,11.17244775390625,6.350551128387451,5.7619171142578125,-0.06699903309345245
1775341255892235300,11.1892353515625,5.017749309539795,6.640082836151123,-0.37806597352027893
1775341255909022500,11.2060224609375,5.302495002746582,6.245266914367676,0.27756741642951965
1775341255925810000,11.222809814453125,8.171489715576172,5.383851051330566,-0.5718846321105957
1775341255942597000,11.23959716796875,5.362315654754639,6.226124286651611,0.02392822690308094
1775341255959384300,11.25638427734375,5.874379634857178,6.183053493499756,-0.48813581466674805
1775341255976171800,11.273171875,6.527620315551758,6.343372821807861,-0.23688943684101105
1775341255992959000,11.289958984375,6.465406894683838,6.321837425231934,-0.41156548261642456
1775341256009746400,11.306746337890624,6.865008354187012,6.38165807723999,-0.2679961323738098
1775341256026533600,11.32353369140625,6.369693756103516,6.814758777618408,-0.5168496966362
1775341256043321000,11.340321044921875,7.482356548309326,6.221338748931885,0.397208571434021
1775341256060108300,11.3571083984375,6.204588890075684,7.197610378265381,-0.7154539823532104
1775341256076895500,11.3738955078125,6.080162525177002,6.8004021644592285,0.5934200286865234
1775341256093683000,11.390682861328125,7.616354465484619,6.726224422454834,-0.8279166221618652
1775341256110470100,11.40747021484375,6.357729911804199,7.23589563369751,0.5431707501411438
1775341256127257600,11.424257568359375,6.489335060119629,7.525427341461182,-0.5264210104942322
1775341256144044800,11.441044921875,7.29093074798584,7.04925537109375,0.2392822653055191
1775341256160832300,11.457832275390626,7.066005229949951,7.1162543296813965,-0.5168496966362
1775341256177619500,11.474619384765624,6.276373863220215,7.010970115661621,0.0023928226437419653
1775341256194407000,11.491406982421875,6.8410797119140625,7.022934436798096,-0.6245267391204834
1775341256211194000,11.508194091796875,6.747759819030762,7.04925537109375,0.09810572862625122
1775341256227981300,11.524981201171874,7.056434154510498,7.245467185974121,-0.5168496966362
1775341256244768800,11.541768798828125,6.50608491897583,7.04925537109375,-0.009571290574967861
1775341256261556000,11.558555908203125,6.4510498046875,6.821937561035156,-0.009571290574967861
1775341256278343400,11.575343505859376,6.790830612182617,7.013363361358643,0.019142581149935722
1775341256295130600,11.592130615234375,6.616154670715332,7.286144733428955,-0.14835500717163086
1775341256311917800,11.608917724609375,7.410571575164795,7.269395351409912,-0.064606212079525
1775341256328705300,11.625705322265626,6.869793891906738,7.0301127433776855,-0.30628129839897156
1775341256345492500,11.642492431640624,6.838686943054199,7.530212879180908,0.004785645287483931
1775341256362280000,11.659280029296875,7.326822757720947,7.594819068908691,-0.5120640397071838
1775341256379067100,11.676067138671876,7.312466144561768,7.458428382873535,0.04785645380616188
1775341256395854600,11.6928544921875,6.723831653594971,7.412964344024658,-0.3206382393836975
1775341256412641800,11.709641845703125,7.369893550872803,7.630711555480957,0.0023928226437419653
1775341256429429200,11.72642919921875,7.401000499725342,7.846065521240234,-0.3900300860404968
1775341256446216400,11.743216552734374,6.774080753326416,7.307680130004883,-0.08135596662759781
1775341256463003600,11.760003662109375,7.295716285705566,7.762316703796387,-0.5096712112426758
1775341256479791000,11.776791015625,6.865008354187012,7.2335028648376465,-0.0526420995593071
1775341256496578300,11.793578369140626,7.156932353973389,7.499105930328369,-0.18903298676013947
1775341256513365800,11.81036572265625,6.831508636474609,7.1856465339660645,-0.064606212079525
1775341256530153000,11.827153076171875,6.752545356750488,7.336394309997559,0.035892341285943985
1775341256546940200,11.843940185546876,6.898507595062256,7.161718368530273,0.007178467698395252
1775341256563727600,11.8607275390625,6.702296257019043,7.283751964569092,-0.06939185410737991
1775341256580514800,11.877514892578125,6.984649181365967,7.362715244293213,-0.14117653667926788
1775341256597302300,11.89430224609375,7.190432071685791,7.322037220001221,-0.20099709928035736
1775341256614089500,11.91108935546875,7.192824840545654,7.5708909034729,-0.16510476171970367
1775341256630876700,11.927876708984375,6.920042991638184,7.276573657989502,-0.1746760457754135
1775341256647664000,11.9446640625,7.066005229949951,7.558926582336426,-0.38763725757598877
1775341256664451300,11.961451416015626,7.197610378265381,7.190432071685791,-0.1698904037475586
1775341256681238800,11.97823876953125,7.128218650817871,7.317251682281494,-0.3206382393836975
1775341256698026000,11.99502587890625,6.716653347015381,7.317251682281494,-0.16510476171970367
1775341256714813400,12.0118134765625,7.001399040222168,7.379465103149414,-0.12921242415905
1775341256731600600,12.0286005859375,6.836294174194336,7.348358154296875,-0.23688943684101105
1775341256748388000,12.04538818359375,7.044469833374023,6.963113784790039,-0.3326023519039154
1775341256765175300,12.06217529296875,7.482356548309326,7.343572616577148,-0.2871387302875519
1775341256781962500,12.07896240234375,6.565905570983887,7.142575740814209,-0.22013968229293823
1775341256798750000,12.09575,6.510870456695557,7.441678524017334,-0.3924229145050049
1775341256815537200,12.112537109375,7.1473612785339355,7.020541667938232,0
1775341256832324600,12.12932470703125,7.238288402557373,7.121040344238281,-0.031106693670153618
1775341256849111800,12.14611181640625,6.4941205978393555,7.231110095977783,-0.02632104977965355
1775341256865899000,12.16289892578125,6.8482584953308105,7.23589563369751,-0.30628129839897156
1775341256882686500,12.1796865234375,6.8482584953308105,7.025327205657959,-0.0023928226437419653
1775341256899473700,12.1964736328125,7.295716285705566,7.1856465339660645,-0.41156548261642456
1775341256916261000,12.21326123046875,6.429514408111572,6.821937561035156,-0.07417750358581543
1775341256933048300,12.23004833984375,6.539584159851074,7.295716285705566,-0.31824541091918945
1775341256949835800,12.246835693359374,6.970292568206787,7.223931789398193,-0.0933200865983963
1775341256966623000,12.263623046875,6.905686378479004,8.090133666992188,0.36610186100006104
1775341256983410200,12.28041015625,8.317451477050781,7.692924976348877,-0.916451096534729
1775341257000197600,12.29719775390625,7.429714202880859,9.142974853515625,0.5862415432929993
1775341257016984800,12.31398486328125,9.154939651489258,8.475378036499023,-0.2991028428077698
1775341257033772300,12.330772216796875,8.183453559875488,9.853643417358398,0.5120640397071838
1775341257050559500,12.3475595703125,8.358129501342773,9.68375301361084,-0.7968099117279053
1775341257067346700,12.3643466796875,9.56650447845459,9.083154678344727,-0.09571290761232376
1775341257084134100,12.381134033203125,8.104490280151367,9.585647583007812,-0.5647061467170715
1775341257100921300,12.39792138671875,8.468199729919434,8.95394229888916,-0.2727817893028259
1775341257117708800,12.414708740234374,8.413164138793945,9.035298347473145,-0.2225325107574463
1775341257134496000,12.43149609375,8.489734649658203,8.405985832214355,-0.20338992774486542
1775341257151283200,12.448283203125,7.259823799133301,8.37727165222168,-0.3756731450557709
1775341257168070700,12.465070556640624,8.252845764160156,8.140382766723633,0.064606212079525
1775341257184857900,12.48185791015625,7.403393268585205,7.812565803527832,-0.43549370765686035
1775341257201645300,12.498645263671875,6.991827964782715,8.025527000427246,0.21296121180057526
1775341257218432500,12.5154326171875,7.630711555480957,7.927421569824219,-0.15553347766399384
1775341257235220000,12.532219970703125,7.869993686676025,7.405786037445068,0.1339980661869049
1775341257252007200,12.549007080078125,6.881757736206055,7.850851058959961,-0.37088751792907715
1775341257268794400,12.56579443359375,7.546962738037109,8.044670104980469,-0.31824541091918945
1775341257285581800,12.582581787109374,7.568498134613037,7.601997375488281,-0.12681959569454193
1775341257302369000,12.599369140625,7.085147857666016,7.69531774520874,-0.729810893535614
1775341257319156500,12.616156494140625,7.04925537109375,8.082955360412598,-0.275174617767334
1775341257335943700,12.632943603515624,8.303094863891602,7.310073375701904,-0.3852444589138031
1775341257352731000,12.64973095703125,6.884150981903076,7.226324558258057,-0.14117653667926788
1775341257369518300,12.666518310546875,6.601797580718994,7.814958572387695,-0.12203395366668701
1775341257386305500,12.683305419921876,7.384250640869141,7.506284713745117,-0.2632105052471161
1775341257403093000,12.700093017578125,7.350750923156738,7.82692289352417,0.12203395366668701
1775341257419880200,12.716880126953125,7.661818027496338,7.4464640617370605,0.14356936514377594
1775341257436667400,12.73366748046875,7.616354465484619,7.456035137176514,-0.3038884699344635
1775341257453454800,12.750454833984374,7.317251682281494,7.171289443969727,-0.13639089465141296
1775341257470242000,12.767241943359375,7.262216567993164,7.700103282928467,-0.2871387302875519
1775341257487029500,12.784029541015625,7.085147857666016,7.434499740600586,-0.3565305769443512
1775341257503816700,12.800816650390624,7.441678524017334,7.527820110321045,-0.05742774158716202
1775341257520604000,12.81760400390625,6.345765590667725,7.144968509674072,-0.2560320198535919
1775341257537391400,12.834391357421875,7.001399040222168,7.393822193145752,-0.18903298676013947
1775341257554178600,12.851178466796876,6.4079790115356445,7.190432071685791,-0.10289137065410614
1775341257570966000,12.867966064453125,6.920042991638184,7.456035137176514,-0.02871387079358101
1775341257587753200,12.884753173828125,7.077969551086426,6.592226505279541,-0.32303106784820557
1775341257604540400,12.90154052734375,6.185446739196777,7.1473612785339355,-0.2991028428077698
1775341257621328000,12.918327880859374,6.305087566375732,6.853044033050537,-0.26560330390930176
1775341257638115000,12.935114990234375,7.525427341461182,6.915257453918457,-0.3326023519039154
1775341257654902500,12.951902587890626,6.735795974731445,6.498906135559082,-0.12203395366668701
1775341257671689700,12.968689697265624,5.766702651977539,7.051648139953613,-0.37806597352027893
1775341257688477000,12.985476806640625,6.429514408111572,6.527620315551758,-0.1459621787071228
1775341257705264400,13.002264404296875,6.881757736206055,6.479763507843018,-0.34695929288864136
1775341257722051600,13.019051513671876,6.597012042999268,6.1710896492004395,-0.16510476171970367
1775341257738839000,13.035839111328125,5.941378593444824,6.343372821807861,-0.3278166949748993
1775341257755626200,13.052626220703125,5.941378593444824,5.881557941436768,-0.11964113265275955
1775341257772413400,13.069413330078126,5.946164131164551,6.317051887512207,-0.35892340540885925
1775341257789201000,13.086200927734374,5.453242778778076,5.436492919921875,0.08614161610603333
1775341257805988000,13.102988037109375,7.219145774841309,5.960521221160889,-0.009571290574967861
1775341257822775600,13.119775634765626,5.630311489105225,5.551348686218262,-0.035892341285943985
1775341257839562800,13.136562744140624,5.237888813018799,6.068198204040527,-0.03349951654672623
1775341257856350000,13.153349853515625,5.173282623291016,4.989035129547119,-0.3732803463935852
1775341257873137400,13.170137451171875,6.809973239898682,5.257031440734863,-0.04785645380616188
1775341257889924600,13.186924560546874,3.5270206928253174,4.981856822967529,0.04307080805301666
1775341257906712000,13.203712158203125,4.9435715675354,4.66361141204834,-0.7752745151519775
1775341257923499300,13.220499267578125,4.398007869720459,4.9986066818237305,0.1052841991186142
1775341257940286500,13.237286376953126,4.867001056671143,5.120640277862549,-0.2512463629245758
1775341257957074000,13.254073974609375,6.290730953216553,4.510470867156982,-0.09810572862625122
1775341257973861000,13.270861083984375,4.926821708679199,5.034498691558838,-0.38285163044929504
1775341257990648600,13.287648681640626,5.240281581878662,5.982056617736816,0.2679961323738098
1775341258007435800,13.304435791015624,5.520241737365723,5.874379634857178,0.059820566326379776
1775341258024223000,13.321222900390625,6.175875186920166,5.9676995277404785,-0.07178468257188797
1775341258041010400,13.338010498046875,5.79063081741333,5.639883041381836,-0.004785645287483931
1775341258057797600,13.354797607421874,5.9509501457214355,6.044270038604736,-0.32303106784820557
1775341258074585000,13.371585205078125,5.142175674438477,5.903093338012695,-0.21296121180057526
1775341258091372300,13.388372314453125,6.192625045776367,5.970092296600342,-0.43549370765686035
1775341258108159500,13.405159423828126,5.8097734451293945,5.675775527954102,-0.380458801984787
1775341258124947000,13.421947021484375,5.7858452796936035,6.001199245452881,-0.16271193325519562
1775341258141734100,13.438734130859375,5.714060306549072,6.0610198974609375,0.04307080805301666
1775341258158521300,13.455521240234376,6.116054534912109,6.147161483764648,-0.29431718587875366
1775341258175308800,13.472308837890624,6.515655994415283,5.7858452796936035,-0.349352091550827
1775341258192096000,13.489095947265625,5.917450428009033,6.673582553863525,0.13878370821475983
1775341258208883500,13.505883544921875,5.986842155456543,6.561119556427002,-0.2512463629245758
1775341258225670700,13.522670654296874,6.970292568206787,6.573083877563477,0.2799602448940277
1775341258242458000,13.5394580078125,6.728617191314697,6.7621169090271,-0.2991028428077698
1775341258259245300,13.556245361328125,6.532405853271484,6.86261510848999,-0.06939185410737991
1775341258276032500,13.573032470703126,6.577869415283203,6.984649181365967,-0.24646073579788208
1775341258292820000,13.589820068359375,7.57806921005249,7.106683254241943,-0.2153540402650833
1775341258309607200,13.606607177734375,7.587640762329102,6.740581512451172,-0.28953152894973755
1775341258326394400,13.623394287109376,6.135197162628174,7.671389579772949,-0.19381862878799438
1775341258343181800,13.640181884765624,6.592226505279541,7.810173034667969,-0.3852444589138031
1775341258359969000,13.656968994140625,7.149754047393799,7.04207706451416,0.08614161610603333
1775341258376756200,13.673756103515625,6.726224422454834,8.133204460144043,-0.32542386651039124
1775341258393543700,13.690543701171874,6.750152587890625,6.97268533706665,0.04307080805301666
1775341258410331000,13.707330810546875,7.472784996032715,7.63310432434082,-0.1866401731967926
1775341258427118300,13.724118408203125,7.2095746994018555,7.188039302825928,-0.38763725757598877
1775341258443905500,13.740905517578126,7.300501823425293,7.369893550872803,-0.15314064919948578
1775341258460692700,13.757692626953125,7.070790767669678,7.355536937713623,-0.3517449200153351
1775341258477480200,13.774480224609375,6.539584159851074,7.762316703796387,-0.4259224236011505
1775341258494267400,13.791267333984376,7.2813591957092285,7.0683979988098145,-0.20578274130821228
1775341258511054600,13.8080546875,7.10429048538208,7.22871732711792,-0.38285163044929504
1775341258527842000,13.824842041015625,6.891329288482666,7.286144733428955,0.3278166949748993
1775341258544629200,13.841629150390625,6.20219612121582,7.250252723693848,-0.42352959513664246
1775341258561416700,13.858416748046874,7.168896675109863,7.0755767822265625,0.5024927258491516
1775341258578204000,13.875203857421875,6.577869415283203,7.379465103149414,-0.19381862878799438
1775341258594991000,13.8919912109375,7.267002582550049,7.226324558258057,0.13160525262355804
1775341258611778600,13.908778564453126,7.037291526794434,7.140182971954346,-0.5455635786056519
1775341258628565800,13.925565673828125,6.348158359527588,7.377072334289551,0.04785645380616188
1775341258645353200,13.942353271484375,6.91765022277832,7.2335028648376465,-0.4546363055706024
1775341258662140400,13.959140380859376,7.211967468261719,7.331608772277832,-0.22971096634864807
1775341258678927600,13.975927734375,6.692724704742432,7.22871732711792,0.08135596662759781
1775341258695715000,13.992715087890625,7.039684295654297,7.018148899078369,-0.1866401731967926
1775341258712502300,14.009502197265626,7.302894592285156,7.2335028648376465,0.1459621787071228
1775341258729289500,14.02628955078125,6.597012042999268,7.204789161682129,-0.28235307335853577
1775341258746077000,14.043076904296875,6.97986364364624,7.2335028648376465,-0.09571290761232376
1775341258762864000,14.059864013671875,6.618547439575195,6.953542709350586,-0.2799602448940277
1775341258779651600,14.076651611328124,6.7070817947387695,7.133004188537598,-0.13639089465141296
1775341258796438800,14.093438720703125,6.891329288482666,7.140182971954346,-0.2153540402650833
1775341258813226000,14.11022607421875,6.8243303298950195,7.022934436798096,-0.37088751792907715
1775341258830013400,14.127013427734376,6.783652305603027,6.750152587890625,-0.3326023519039154
1775341258846800600,14.143800537109374,6.829115867614746,7.204789161682129,0.02871387079358101
1775341258863588000,14.160588134765625,6.7621169090271,6.963113784790039,-0.2871387302875519
1775341258880375300,14.177375244140626,7.015756130218506,7.082755088806152,0
1775341258897162500,14.19416259765625,6.8243303298950195,7.025327205657959,-0.2799602448940277
1775341258913950000,14.210949951171875,7.231110095977783,7.101897716522217,0.02871387079358101
1775341258930737200,14.227737060546875,6.668796539306641,7.202396392822266,-0.4163511395454407
1775341258947524400,14.2445244140625,6.642475605010986,7.101897716522217,0.16510476171970367
1775341258964311800,14.261311767578125,7.216753005981445,7.070790767669678,-0.3613162338733673
1775341258981099000,14.27809912109375,7.080362319946289,7.403393268585205,0.007178467698395252
1775341258997886200,14.29488623046875,7.039684295654297,7.058826923370361,-0.06699903309345245
1775341259014673700,14.311673583984375,7.2095746994018555,7.542177200317383,-0.3732803463935852
1775341259031460900,14.3284609375,7.051648139953613,7.178467750549316,-0.07178468257188797
1775341259048248300,14.345248291015626,7.221538543701172,7.637889862060547,-0.2799602448940277
1775341259065035500,14.362035400390624,7.058826923370361,7.4464640617370605,-0.07896314561367035
1775341259081822700,14.37882275390625,7.322037220001221,7.3675007820129395,-0.27038896083831787
1775341259098610200,14.395610107421875,7.293323516845703,7.214360237121582,-0.17228323221206665
1775341259115397400,14.4123974609375,6.64486837387085,7.645068168640137,-0.27756741642951965
1775341259132184600,14.4291845703125,7.178467750549316,7.271788120269775,-0.34695929288864136
1775341259148972000,14.445971923828125,7.36032247543335,7.226324558258057,-0.5479564070701599
1775341259165759200,14.46275927734375,6.7070817947387695,7.609176158905029,0.12442677468061447
1775341259182546700,14.479546630859375,7.144968509674072,7.83410120010376,0.4498506486415863
1775341259199334000,14.496333984375,9.095118522644043,8.595019340515137,-1.0719845294952393
1775341259216121000,14.51312109375,6.190232276916504,9.30329418182373,0.5431707501411438
1775341259232908500,14.529908447265624,10.504491806030273,9.267401695251465,-0.6747759580612183
1775341259249695700,14.54669580078125,8.059026718139648,10.293923377990723,0.3900300860404968
1775341259266483000,14.56348291015625,8.9850492477417,10.755738258361816,-0.48095735907554626
1775341259283270400,14.5802705078125,9.757930755615234,9.305686950683594,-0.23449662327766418
1775341259300057600,14.5970576171875,8.913264274597168,10.095318794250488,-0.4091726839542389
1775341259316844800,14.6138447265625,8.073383331298828,9.827322959899902,-0.0526420995593071
1775341259333632300,14.63063232421875,8.228917121887207,8.863015174865723,-0.8949156403541565
1775341259350419500,14.64741943359375,8.934800148010254,8.391629219055176,-0.019142581149935722
1775341259367207000,14.66420703125,7.905886173248291,9.43489933013916,0.1986042857170105
1775341259383994000,14.680994140625,7.5637125968933105,7.9585280418396,-0.08614161610603333
1775341259400781300,14.69778125,7.4225358963012695,7.635497093200684,-0.019142581149935722
1775341259417568800,14.71456884765625,6.984649181365967,8.513663291931152,-0.014356935396790504
1775341259434356000,14.73135595703125,8.34855842590332,7.858029365539551,-0.3206382393836975
1775341259451143200,14.74814306640625,7.846065521240234,7.83410120010376,-0.20338992774486542
1775341259467930600,14.7649306640625,6.4510498046875,7.977670669555664,-0.25363919138908386
1775341259484717800,14.7817177734375,6.6352972984313965,7.690532207489014,-0.3158525824546814
1775341259501505000,14.798505126953126,8.22413158416748,6.984649181365967,-0.18903298676013947
1775341259518292500,14.81529248046875,6.656832695007324,8.02791976928711,-0.32303106784820557
1775341259535079700,14.83207958984375,6.932007312774658,7.7838521003723145,-0.23688943684101105
1775341259551867000,14.848866943359376,7.946564197540283,7.219145774841309,0.0023928226437419653
1775341259568654300,14.865654296875,6.92482852935791,7.23589563369751,-0.3613162338733673
1775341259585441500,14.882441650390625,7.176074981689453,7.984848976135254,0.11485548317432404
1775341259602229000,14.89922900390625,7.159325122833252,7.1856465339660645,-0.04785645380616188
1775341259619016200,14.91601611328125,7.221538543701172,7.467999458312988,-0.25363919138908386
1775341259635803400,14.932803466796875,6.879364967346191,7.511070251464844,-0.4307080805301666
1775341259652590800,14.9495908203125,6.58265495300293,7.140182971954346,-0.38285163044929504
1775341259669378000,14.9663779296875,7.393822193145752,7.365108013153076,-0.062213387340307236
1775341259686165200,14.983165283203125,6.774080753326416,7.214360237121582,-0.6293123364448547
1775341259702952700,14.99995263671875,6.463014125823975,7.396214962005615,0.019142581149935722
1775341259719740000,15.016739990234376,6.86261510848999,7.118647575378418,-0.5575276613235474
1775341259736527000,15.033527099609374,6.8243303298950195,6.850651264190674,-0.014356935396790504
1775341259753314600,15.050314453125,6.230910301208496,7.317251682281494,-0.064606212079525
1775341259770101800,15.067101806640625,6.754938125610352,7.156932353973389,0.22492532432079315
1775341259786889000,15.083888916015624,6.594619274139404,6.738188743591309,-0.23449662327766418
1775341259803676400,15.100676513671875,6.465406894683838,6.664011001586914,-0.04546362906694412
1775341259820463600,15.117463623046875,6.5491557121276855,6.7310099601745605,-0.5982056856155396
1775341259837251000,15.1342509765625,6.6831536293029785,6.795616149902344,0.0023928226437419653
1775341259854038300,15.151038330078125,6.247660160064697,6.829115867614746,-0.5216353535652161
1775341259870825500,15.167825439453125,6.884150981903076,6.594619274139404,-0.09571290761232376
1775341259887613000,15.184613037109376,6.2189459800720215,6.537191390991211,-0.38285163044929504
1775341259904400100,15.201400146484374,6.678368091583252,6.551548480987549,0.3038884699344635
1775341259921187300,15.218187255859375,6.1950178146362305,6.498906135559082,-0.5000999569892883
1775341259937974800,15.234974853515626,6.295516490936279,6.154339790344238,0.2727817893028259
1775341259954762000,15.251761962890624,6.051448345184326,6.290730953216553,-0.32303106784820557
1775341259971549200,15.268549072265625,5.264209747314453,5.670989513397217,0.2153540402650833
1775341259988336600,15.285336669921875,5.615954875946045,5.419743061065674,-0.519242525100708
1775341260005123800,15.302123779296876,5.2737812995910645,6.1399827003479,0.8566305041313171
1775341260021911000,15.3189111328125,4.450650215148926,4.137190341949463,-0.6436693072319031
1775341260038698500,15.335698486328125,6.2189459800720215,3.8979079723358154,-0.04307080805301666
1775341260055485700,15.352485595703126,4.591826438903809,4.5200419425964355,-0.5958128571510315
1775341260072273000,15.36927294921875,2.6392834186553955,4.275974273681641,0.06699903309345245
1775341260089060400,15.386060302734375,4.450650215148926,3.9050865173339844,-0.27756741642951965
1775341260105847600,15.40284765625,4.359723091125488,4.0079779624938965,0.007178467698395252
1775341260122634800,15.419634765625,4.603790760040283,4.249652862548828,-0.019142581149935722
1775341260139422200,15.436422119140625,5.558526992797852,4.3788652420043945,-0.040677983313798904
1775341260156209400,15.45320947265625,3.9218363761901855,5.381458282470703,0.15553347766399384
1775341260172996600,15.46999658203125,4.807180881500244,5.477170944213867,0.06699903309345245
1775341260189784000,15.4867841796875,8.38684368133545,4.433900356292725,-0.4785645306110382
1775341260206571300,15.5035712890625,2.785245656967163,6.759724140167236,0.37806597352027893
1775341260223358700,15.520358642578126,7.377072334289551,5.407779216766357,-0.34695929288864136
1775341260240146000,15.53714599609375,5.958128452301025,6.5874409675598145,-0.2105683982372284
1775341260256933000,15.55393310546875,5.84566593170166,6.245266914367676,-0.13639089465141296
1775341260273720600,15.570720458984376,6.589833736419678,6.6113691329956055,-0.6221339106559753
1775341260290507800,15.5875078125,5.168497085571289,7.412964344024658,0.062213387340307236
1775341260307295000,15.604294921875,6.6592254638671875,6.668796539306641,-0.6101697683334351
1775341260324082400,15.62108251953125,7.805387496948242,6.951149940490723,-0.03349951654672623
1775341260340869600,15.63786962890625,5.685346603393555,6.640082836151123,-0.3565305769443512
1775341260357656800,15.65465673828125,7.726424217224121,7.195217609405518,0.059820566326379776
1775341260374444300,15.6714443359375,7.45364236831665,6.39601469039917,-0.4378865361213684
1775341260391231500,15.6882314453125,6.436692714691162,7.420143127441406,0.17946170270442963
1775341260408018700,15.705018798828124,5.7786664962768555,7.245467185974121,-1.0959128141403198
1775341260424806000,15.721805908203125,7.133004188537598,7.477570533752441,0.275174617767334
1775341260441593300,15.73859326171875,7.606783390045166,6.711867332458496,-0.698704183101654
1775341260458380500,15.755380615234374,7.57806921005249,7.200003147125244,0.16749759018421173
1775341260475168000,15.77216796875,6.068198204040527,7.573283672332764,-0.7202396392822266
1775341260491955200,15.788955078125,7.22871732711792,7.008577346801758,0.1746760457754135
1775341260508742400,15.805742431640626,7.458428382873535,7.252645492553711,-0.03349951654672623
1775341260525529900,15.82252978515625,6.434299945831299,7.156932353973389,0.01196411345154047
1775341260542317000,15.839317138671875,5.879165172576904,7.657032489776611,0.09092725813388824
1775341260559104300,15.856104248046876,6.860222339630127,7.36032247543335,-0.26081767678260803
1775341260575891700,15.8728916015625,6.936792850494385,6.678368091583252,-0.1579262912273407
1775341260592679000,15.889678955078125,6.580262184143066,7.458428382873535,-0.05742774158716202
1775341260609466000,15.906466064453125,6.908079147338867,6.888936519622803,-0.3445664644241333
1775341260626253600,15.923253662109374,7.061219692230225,7.216753005981445,-0.16271193325519562
1775341260643040800,15.940040771484375,6.671189308166504,7.137789726257324,-0.3038884699344635
1775341260659828000,15.956827880859375,6.955935478210449,7.288537979125977,-0.04785645380616188
1775341260676615400,15.973615478515624,6.903293132781982,7.6498541831970215,0.0023928226437419653
1775341260693402600,15.990402587890625,6.537191390991211,7.066005229949951,-0.14356936514377594
1775341260710189800,16.00718994140625,7.8819580078125,7.762316703796387,0.05742774158716202
1775341260726977000,16.02397705078125,6.690331935882568,7.300501823425293,-0.3278166949748993
1775341260743764500,16.040764404296876,6.996613502502441,7.817351341247559,-0.07417750358581543
1775341260760551700,16.0575517578125,7.6498541831970215,7.439285755157471,-0.48095735907554626
1775341260777339100,16.074339111328126,6.7932233810424805,7.539783954620361,-0.42831525206565857
1775341260794126300,16.091126220703124,6.97268533706665,7.630711555480957,-0.3445664644241333
1775341260810913500,16.10791357421875,7.434499740600586,7.877171993255615,-0.39481574296951294
1775341260827701000,16.124700927734374,6.809973239898682,7.23589563369751,-0.1746760457754135
1775341260844488200,16.14148828125,6.965506553649902,7.245467185974121,-0.05024927482008934
1775341260861275400,16.158275390625,7.195217609405518,7.539783954620361,-0.07896314561367035
1775341260878062800,16.175062744140625,6.903293132781982,7.015756130218506,0.31345975399017334
1775341260894850000,16.19185009765625,6.9344000816345215,7.204789161682129,-0.13639089465141296
1775341260911637200,16.20863720703125,6.436692714691162,7.295716285705566,-0.064606212079525
1775341260928424700,16.2254248046875,6.903293132781982,6.860222339630127,-0.4043870270252228
1775341260945212000,16.2422119140625,6.831508636474609,7.200003147125244,-0.11724831163883209
1775341260961999000,16.2589990234375,6.872186660766602,7.0755767822265625,-0.1746760457754135
1775341260978786300,16.275786376953125,7.271788120269775,6.989434719085693,-0.1818545162677765
1775341260995573800,16.29257373046875,6.876972198486328,7.247859954833984,-0.23449662327766418
1775341261012361000,16.30936083984375,6.8482584953308105,7.22871732711792,0.11964113265275955
1775341261029148400,16.3261484375,7.616354465484619,7.491927623748779,-0.4091726839542389
1775341261045935600,16.342935546875,6.422336101531982,7.436892986297607,0.07178468257188797
1775341261062722800,16.359722900390626,7.200003147125244,7.17368221282959,-0.24885354936122894
1775341261079510300,16.37651025390625,7.061219692230225,7.345965385437012,-0.2512463629245758
1775341261096297500,16.39329736328125,6.774080753326416,7.066005229949951,-0.01196411345154047
1775341261113084700,16.410084716796874,6.616154670715332,7.22871732711792,-0.5120640397071838
1775341261129872000,16.426871826171876,7.4847493171691895,8.11406135559082,0.38285163044929504
1775341261146659300,16.443659423828127,7.83410120010376,7.274180889129639,-0.7585247755050659
1775341261163446500,16.460446533203125,7.9250288009643555,8.116454124450684,0.5288137793540955
1775341261180233700,16.477233642578124,7.922635555267334,8.793622970581055,-0.8997012972831726
1775341261197021200,16.494021240234375,7.994420528411865,9.312865257263184,0.1052841991186142
1775341261213808400,16.510808349609373,8.508877754211426,9.734002113342285,-0.5838487148284912
1775341261230595600,16.527595703125,8.922835350036621,9.504291534423828,0
1775341261247383000,16.544383056640626,8.922835350036621,9.80100154876709,-0.4833501875400543
1775341261264170200,16.561170166015625,8.695517539978027,9.698110580444336,-0.21774685382843018
1775341261280957400,16.57795751953125,8.492127418518066,9.269794464111328,-0.26081767678260803
1775341261297745000,16.594744873046874,8.874979019165039,9.073583602905273,-0.6843472719192505
1775341261314532000,16.611531982421877,7.690532207489014,8.733802795410156,-0.16271193325519562
1775341261331319300,16.6283193359375,7.927421569824219,8.676374435424805,-0.02871387079358101
1775341261348106800,16.645106689453126,8.367700576782227,8.446663856506348,0.22013968229293823
1775341261364894000,16.66189404296875,6.819544315338135,8.504091262817383,-0.14356936514377594
1775341261381681200,16.67868115234375,8.425128936767578,8.142775535583496,-0.009571290574967861
1775341261398468600,16.695468505859374,8.173882484436035,8.37966537475586,-0.5000999569892883
1775341261415255800,16.712255859375,6.869793891906738,7.817351341247559,-0.07178468257188797
1775341261432043000,16.72904296875,7.4464640617370605,8.23848819732666,-0.5407779216766357
1775341261448830500,16.74583056640625,7.152146816253662,8.073383331298828,-0.09810572862625122
1775341261465617700,16.76261767578125,7.645068168640137,7.659425258636475,-0.23688943684101105
1775341261482404900,16.77940478515625,8.193024635314941,7.4464640617370605,-0.17946170270442963
1775341261499192300,16.7961923828125,6.305087566375732,7.843672752380371,-0.1052841991186142
1775341261515979500,16.8129794921875,7.216753005981445,8.281558990478516,0.009571290574967861
1775341261532766700,16.8297666015625,7.606783390045166,7.267002582550049,-0.10289137065410614
1775341261549554000,16.846553955078125,8.001599311828613,8.097311973571777,-0.06939185410737991
1775341261566341400,16.86334130859375,6.501298904418945,8.118846893310547,-0.31106695532798767
1775341261583128600,16.880128662109374,7.0923261642456055,7.408178806304932,-0.07178468257188797
1775341261599915800,16.896915771484377,6.936792850494385,7.841279983520508,-0.3900300860404968
1775341261616703200,16.913703125,6.288337707519531,7.802994728088379,-0.11964113265275955
1775341261633490400,16.930490478515626,6.647261142730713,6.996613502502441,-0.5096712112426758
1775341261650277600,16.947277587890625,6.711867332458496,7.128218650817871,-0.2105683982372284
1775341261667065000,16.964065185546875,6.6113691329956055,7.8077802658081055,0.11246266216039658
1775341261683852300,16.980852294921874,6.7932233810424805,7.587640762329102,0.27756741642951965
1775341261700639500,16.997639404296876,6.975078105926514,7.0755767822265625,-0.10049854964017868
1775341261717427000,17.014427001953123,6.45822811126709,6.412764549255371,-0.3158525824546814
1775341261734214100,17.031214111328126,6.4319071769714355,6.8004021644592285,0.05024927482008934
1775341261751001300,17.04800146484375,6.781259536743164,7.0995049476623535,-0.09092725813388824
1775341261767788800,17.064788818359375,6.896114826202393,6.649653911590576,-0.2679961323738098
1775341261784576000,17.081575927734374,6.922435760498047,6.632904529571533,-0.13160525262355804
1775341261801363200,17.09836328125,6.853044033050537,6.8171515464782715,-0.3038884699344635
1775341261818150700,17.115150634765627,6.577869415283203,6.3601226806640625,-0.4498506486415863
1775341261834937900,17.131937744140625,7.032505512237549,6.192625045776367,-0.21774685382843018
1775341261851725000,17.14872509765625,6.005984783172607,6.254838466644287,-0.0526420995593071
1775341261868512300,17.16551220703125,5.998806476593018,6.116054534912109,0.12442677468061447
1775341261885299700,17.1822998046875,6.948757171630859,5.996413707733154,-0.5527420043945312
1775341261902087000,17.1990869140625,6.190232276916504,6.735795974731445,0.36610186100006104
1775341261918874000,17.2158740234375,5.340780258178711,6.149554252624512,-0.4139583110809326
1775341261935661600,17.23266162109375,5.714060306549072,6.015556335449219,0.13878370821475983
1775341261952448800,17.24944873046875,5.800201892852783,5.848058700561523,-0.5024927258491516
1775341261969236000,17.266236083984374,6.070590972900391,5.5345988273620605,-0.040677983313798904
1775341261986023400,17.2830234375,4.273581027984619,5.304887771606445,-0.2273181527853012
1775341262002810600,17.299810546875,4.88853645324707,5.213960647583008,0.16749759018421173
1775341262019597800,17.316597900390626,5.948556900024414,4.713860511779785,-0.4618147611618042
1775341262036385000,17.333385009765625,4.840680122375488,4.9052863121032715,0.13639089465141296
1775341262053172500,17.35017236328125,5.816951751708984,4.584648132324219,-0.1866401731967926
1775341262069959700,17.366959716796874,5.120640277862549,5.149354457855225,0.035892341285943985
1775341262086747000,17.383746826171876,5.029713153839111,4.922036170959473,-0.09092725813388824
1775341262103534300,17.400534423828127,5.864808082580566,4.9292144775390625,-0.04785645380616188
1775341262120321500,17.417321533203125,5.319244861602783,5.395814895629883,-0.3565305769443512
1775341262137108700,17.434108642578124,5.374279499053955,5.374279499053955,-0.02632104977965355
1775341262153896000,17.45089599609375,5.8097734451293945,5.501099109649658,-0.30628129839897156
1775341262170683400,17.467683349609374,5.517848968505859,5.556134223937988,-0.20578274130821228
1775341262187470600,17.484470703125,5.481956481933594,5.929414749145508,-0.16031911969184875
1775341262204257800,17.5012578125,5.682953834533691,5.821737289428711,-0.11006984114646912
1775341262221045200,17.518045166015625,6.515655994415283,5.927021503448486,-0.2392822653055191
1775341262237832400,17.53483251953125,5.776273727416992,5.917450428009033,-0.33499518036842346
1775341262254619600,17.55161962890625,5.86002254486084,5.958128452301025,-0.13639089465141296
1775341262271407000,17.568406982421877,6.147161483764648,6.778866767883301,-0.34695929288864136
1775341262288194300,17.5851943359375,7.302894592285156,6.209374904632568,0.01196411345154047
1775341262304981500,17.6019814453125,5.747560024261475,6.6592254638671875,-0.3086741268634796
1775341262321768700,17.618768798828125,6.606583118438721,6.4079790115356445,0.09810572862625122
1775341262338556200,17.63555615234375,6.616154670715332,6.553941249847412,-0.5335994362831116
1775341262355343400,17.65234326171875,6.135197162628174,6.771687984466553,-0.0023928226437419653
1775341262372130600,17.669130615234376,6.884150981903076,6.776473522186279,-0.20099709928035736
1775341262388918000,17.68591796875,6.812366008758545,6.876972198486328,-0.26560330390930176
1775341262405705200,17.702705322265626,6.474977970123291,6.893722057342529,-0.11246266216039658
1775341262422492400,17.719492431640624,7.616354465484619,6.7692952156066895,-0.33499518036842346
1775341262439279900,17.73627978515625,6.230910301208496,7.130611419677734,-0.2512463629245758
1775341262456067000,17.753067138671874,5.723631858825684,7.5637125968933105,0.24646073579788208
1775341262472854300,17.769854248046876,7.781459331512451,7.073183536529541,-0.4091726839542389
1775341262489641500,17.786641357421875,6.747759819030762,7.319644451141357,0.019142581149935722
1775341262506429000,17.803428955078125,6.429514408111572,7.444071292877197,-0.3397808074951172
1775341262523216100,17.820216064453124,6.8865437507629395,7.130611419677734,-0.06939185410737991
1775341262540003300,17.83700341796875,7.434499740600586,7.176074981689453,-0.31106695532798767
1775341262556790500,17.85379052734375,6.7310099601745605,7.013363361358643,-0.33499518036842346
1775341262573578000,17.870577880859376,6.831508636474609,7.554141044616699,0.0023928226437419653
1775341262590365200,17.887365234375,7.16650390625,6.946363925933838,-0.20817556977272034
1775341262607152600,17.904152587890625,6.896114826202393,7.372286796569824,-0.4019941985607147
1775341262623939800,17.92093994140625,6.759724140167236,7.164111137390137,0.09810572862625122
1775341262640727000,17.93772705078125,6.5252275466918945,6.953542709350586,-0.3086741268634796
1775341262657514200,17.95451416015625,7.377072334289551,7.066005229949951,0.30149564146995544
1775341262674301700,17.9713017578125,7.066005229949951,7.350750923156738,-0.6125625967979431
1775341262691089000,17.9880888671875,6.747759819030762,7.164111137390137,0.15074782073497772
1775341262707876000,18.0048759765625,6.97986364364624,7.197610378265381,-0.5790630578994751
1775341262724663300,18.021663330078123,6.831508636474609,7.221538543701172,0.035892341285943985
1775341262741450800,18.03845068359375,6.9583282470703125,7.3292155265808105,-0.16271193325519562
1775341262758238000,18.055238037109376,7.0755767822265625,7.29810905456543,-0.009571290574967861
1775341262775025200,18.072025146484375,6.778866767883301,7.168896675109863,-0.14356936514377594
1775341262791812400,18.088812255859374,7.140182971954346,7.247859954833984,-0.06699903309345245
1775341262808599800,18.105599853515624,6.891329288482666,7.240681171417236,-0.1579262912273407
1775341262825387000,18.122386962890626,6.920042991638184,7.269395351409912,-0.1698904037475586
1775341262842174500,18.139174560546873,6.9583282470703125,7.499105930328369,-0.3732803463935852
1775341262858961700,18.155961669921876,7.015756130218506,7.472784996032715,-0.4570291340351105
1775341262875748900,18.172748779296874,7.300501823425293,7.255038261413574,-0.2679961323738098
1775341262892536000,18.1895361328125,7.09711217880249,7.1162543296813965,-0.3086741268634796
1775341262909323500,18.206323486328124,6.893722057342529,7.10429048538208,-0.10049854964017868
1775341262926110700,18.22311083984375,6.747759819030762,7.195217609405518,-0.39481574296951294
1775341262942898000,18.23989794921875,6.8410797119140625,7.144968509674072,0.08374879509210587
1775341262959685000,18.25668505859375,7.0301127433776855,7.264609336853027,-0.11724831163883209
1775341262976472600,18.27347265625,7.152146816253662,7.130611419677734,-0.059820566326379776
1775341262993259800,18.290259765625,6.685546398162842,7.118647575378418,-0.23449662327766418
1775341263010047000,18.307046875,7.142575740814209,7.106683254241943,-0.05742774158716202
1775341263026834200,18.323834228515626,7.020541667938232,7.29810905456543,-0.3158525824546814
1775341263043621600,18.34062158203125,7.109076023101807,7.441678524017334,-0.014356935396790504
1775341263060408800,18.357408935546875,6.750152587890625,7.267002582550049,-0.39481574296951294
1775341263077196000,18.374196044921874,7.343572616577148,7.23589563369751,-0.20338992774486542
1775341263093983200,18.390983154296876,6.922435760498047,7.45364236831665,-0.14117653667926788
1775341263110770700,18.407770751953127,6.601797580718994,7.692924976348877,-0.13878370821475983
1775341263127558000,18.424557861328125,6.91765022277832,7.066005229949951,-0.02871387079358101
1775341263144345000,18.441344970703124,7.654639720916748,7.11146879196167,-0.42831525206565857
1775341263161132500,18.458132568359375,6.963113784790039,7.326822757720947,-0.08135596662759781
1775341263177919700,18.474919677734373,6.757331371307373,7.439285755157471,-0.1698904037475586
1775341263194707000,18.49170703125,6.628118515014648,7.118647575378418,-0.275174617767334
1775341263211494400,18.508494384765626,6.891329288482666,7.0755767822265625,-0.19142581522464752
1775341263228281600,18.525281494140625,7.23589563369751,7.250252723693848,-0.41874396800994873
1775341263245068800,18.54206884765625,6.999006271362305,7.094718933105469,0.02871387079358101
1775341263261856000,18.55885595703125,6.640082836151123,7.2430739402771,-0.23210379481315613
1775341263278643500,18.5756435546875,6.324230194091797,7.269395351409912,0.014356935396790504
1775341263295430700,18.5924306640625,7.073183536529541,6.996613502502441,-0.15553347766399384
1775341263312217900,18.6092177734375,7.913064479827881,7.671389579772949,0.12921242415905
1775341263329005000,18.626005126953125,6.1950178146362305,7.886743545532227,-0.363709032535553
1775341263345792500,18.64279248046875,7.439285755157471,8.09970474243164,0.04785645380616188
1775341263362579700,18.659579833984374,8.149953842163086,8.221738815307617,-0.4570291340351105
1775341263379367000,18.676366943359376,7.755138397216797,8.621339797973633,-0.11006984114646912
1775341263396154000,18.693154052734375,8.695517539978027,9.540184020996094,0.031106693670153618
1775341263412941600,18.709941650390626,9.573683738708496,9.018548965454102,0.035892341285943985
1775341263429728800,18.726728759765624,7.884350776672363,9.717252731323242,-0.18424734473228455
1775341263446516000,18.743515869140627,8.48016357421875,9.504291534423828,-0.46420758962631226
1775341263463303400,18.760303466796874,8.96112060546875,9.078369140625,-0.2919243574142456
1775341263480090600,18.777090576171876,8.338987350463867,9.19561767578125,-0.31824541091918945
1775341263496877800,18.7938779296875,7.747959613800049,8.738588333129883,-0.016749758273363113
1775341263513665000,18.8106650390625,8.023134231567383,8.48016357421875,-0.20578274130821228
1775341263530452500,18.827452392578124,7.910671710968018,8.09252643585205,-0.17706887423992157
1775341263547239700,18.84423974609375,7.525427341461182,8.228917121887207,-0.20338992774486542
1775341263564027000,18.86102685546875,7.154539585113525,8.133204460144043,-0.14356936514377594
1775341263580814000,18.87781396484375,7.76470947265625,7.953742504119873,-0.12203395366668701
1775341263597601500,18.8946015625,7.130611419677734,7.843672752380371,-0.01196411345154047
1775341263614388700,18.911388671875,7.310073375701904,8.15234661102295,-0.040677983313798904
1775341263631176000,18.928176025390623,7.7838521003723145,7.668996810913086,-0.2273181527853012
1775341263647963100,18.944963134765626,7.121040344238281,7.89631462097168,-0.48574298620224
1775341263664750600,18.96175048828125,7.482356548309326,7.89631462097168,-0.064606212079525
1775341263681537800,18.978537841796875,7.4225358963012695,8.018348693847656,-0.32542386651039124
1775341263698325000,18.995324951171874,7.202396392822266,7.927421569824219,-0.12203395366668701
1775341263715112400,19.012112548828124,7.401000499725342,7.872386455535889,-0.11246266216039658
1775341263731899600,19.028899658203127,7.171289443969727,7.867600917816162,-0.08135596662759781
1775341263748686800,19.045686767578125,7.585247993469238,7.676175117492676,-0.20099709928035736
1775341263765474300,19.062474365234376,7.475177764892578,7.506284713745117,-0.19621145725250244
1775341263782261500,19.079261474609375,7.381857872009277,7.795815944671631,-0.3086741268634796
1775341263799048700,19.096048583984373,7.420143127441406,7.5637125968933105,-0.22971096634864807
1775341263815836000,19.1128359375,7.240681171417236,7.7216386795043945,-0.1986042857170105
1775341263832623400,19.129623291015626,6.884150981903076,7.381857872009277,0.16271193325519562
1775341263849410600,19.14641064453125,7.3052873611450195,7.403393268585205,-0.3086741268634796
1775341263866197800,19.16319775390625,7.5637125968933105,7.496713161468506,-0.06699903309345245
1775341263882985000,19.17998486328125,6.9344000816345215,7.594819068908691,-0.03349951654672623
1775341263899772400,19.1967724609375,6.652047157287598,7.156932353973389,0.1818545162677765
1775341263916559600,19.2135595703125,7.087540626525879,6.776473522186279,-0.4378865361213684
1775341263933346800,19.230346923828126,7.252645492553711,7.101897716522217,0.004785645287483931
1775341263950134000,19.247134033203125,7.240681171417236,6.771687984466553,-0.44027936458587646
1775341263966921500,19.26392138671875,7.027719974517822,6.489335060119629,0.02392822690308094
1775341263983708700,19.280708740234374,6.501298904418945,6.463014125823975,0.02632104977965355
1775341264000495900,19.297495849609376,6.7310099601745605,6.620940208435059,-0.21774685382843018
1775341264017283300,19.314283447265623,6.5180487632751465,6.20219612121582,-0.28235307335853577
1775341264034070500,19.331070556640626,6.728617191314697,6.245266914367676,-0.27756741642951965
1775341264050857700,19.347857666015624,5.86002254486084,6.460621356964111,-0.26560330390930176
1775341264067645200,19.364645263671875,5.570491313934326,6.570691108703613,-0.2632105052471161
1775341264084432400,19.381432373046874,6.262016773223877,6.331408500671387,0.07178468257188797
1775341264101219600,19.398219482421876,6.068198204040527,5.960521221160889,-0.34695929288864136
1775341264118006800,19.4150068359375,5.618347644805908,6.058627128601074,-0.031106693670153618
1775341264134794200,19.431794189453125,6.439085960388184,5.888736724853516,-0.42831525206565857
1775341264151581400,19.44858154296875,5.869594097137451,5.97727108001709,-0.08135596662759781
1775341264168368600,19.46536865234375,5.465207099914551,6.187839508056641,-0.2273181527853012
1775341264185155800,19.48215576171875,6.429514408111572,5.8719868659973145,-0.08374879509210587
1775341264201943300,19.498943359375,6.357729911804199,5.72123908996582,-0.22013968229293823
1775341264218730500,19.51573046875,5.053641319274902,5.757131099700928,-0.22013968229293823
1775341264235517700,19.532517578125,5.917450428009033,5.807380676269531,-0.02632104977965355
1775341264252305000,19.549304931640624,6.448657035827637,5.632704734802246,-0.48813581466674805
1775341264269092400,19.56609228515625,5.242674350738525,5.635097503662109,-0.14356936514377594
1775341264285879600,19.582879638671876,5.690132141113281,5.374279499053955,-0.15314064919948578
1775341264302666800,19.599666748046875,5.682953834533691,5.225924491882324,-0.02392822690308094
1775341264319454200,19.6164541015625,5.362315654754639,5.548955917358398,-0.038285162299871445
1775341264336241400,19.633241455078124,5.819344520568848,5.5968122482299805,-0.12681959569454193
1775341264353028600,19.650028564453127,5.682953834533691,5.771488189697266,-0.17946170270442963
1775341264369815800,19.66681591796875,5.828916072845459,5.962913990020752,0.02871387079358101
1775341264386603300,19.683603271484376,6.39601469039917,6.096911907196045,-0.17946170270442963
1775341264403390500,19.700390380859375,6.317051887512207,6.345765590667725,-0.15314064919948578
1775341264420177700,19.717177734375,6.4079790115356445,6.738188743591309,-0.45942193269729614
1775341264436965000,19.733965087890624,6.903293132781982,6.833901405334473,0.08614161610603333
1775341264453752300,19.75075244140625,6.2500529289245605,7.161718368530273,-0.44745782017707825
1775341264470539500,19.76753955078125,6.814758777618408,7.3052873611450195,-0.09571290761232376
1775341264487326700,19.78432666015625,7.594819068908691,7.276573657989502,-0.4833501875400543
1775341264504114200,19.8011142578125,7.331608772277832,7.501499176025391,0.04546362906694412
1775341264520901400,19.8179013671875,6.716653347015381,8.097311973571777,-0.19142581522464752
1775341264537688600,19.8346884765625,7.288537979125977,7.884350776672363,0.06699903309345245
1775341264554475800,19.851475830078126,7.869993686676025,7.436892986297607,-0.4785645306110382
1775341264571263200,19.86826318359375,7.156932353973389,7.618747234344482,-0.1698904037475586
1775341264588050400,19.885050537109375,6.905686378479004,7.412964344024658,-0.2847459018230438
1775341264604837600,19.901837646484374,7.027719974517822,7.4847493171691895,-0.2847459018230438
1775341264621625000,19.918625,6.742974281311035,7.3746795654296875,-0.2847459018230438
1775341264638412300,19.935412353515623,7.142575740814209,7.094718933105469,-0.17228323221206665
1775341264655199500,19.952199462890626,6.838686943054199,7.044469833374023,-0.16271193325519562
1775341264671986700,19.968986572265624,6.831508636474609,6.434299945831299,-0.04307080805301666
1775341264688774100,19.985774169921875,5.958128452301025,6.757331371307373,-0.19381862878799438
1775341264705561300,20.002561279296874,5.910272121429443,6.477370738983154,-0.031106693670153618
1775341264722348500,20.0193486328125,6.1950178146362305,6.111268997192383,-0.0023928226437419653
1775341264739135700,20.0361357421875,6.147161483764648,6.269195556640625,-0.07178468257188797
1775341264755923200,20.052923095703125,5.67338228225708,6.013163089752197,0.0023928226437419653
1775341264772710400,20.06971044921875,5.723631858825684,6.087340831756592,-0.35892340540885925
1775341264789497600,20.08649755859375,6.137589931488037,5.67338228225708,-0.1698904037475586
1775341264806284800,20.103284912109373,5.828916072845459,5.812166213989258,-0.28953152894973755
1775341264823072300,20.120072265625,5.91505765914917,5.764309883117676,-0.1746760457754135
1775341264839859500,20.136859375,5.5106706619262695,5.637490272521973,-0.08853443711996078
1775341264856646700,20.153646728515625,6.175875186920166,5.163711071014404,-0.23688943684101105
1775341264873433900,20.170433837890624,5.458028316497803,6.211767673492432,-0.39481574296951294
1775341264890221300,20.18722119140625,5.704489231109619,5.855237007141113,0.34217363595962524
1775341264907008500,20.204008544921876,6.003592014312744,6.096911907196045,-0.519242525100708
1775341264923795700,20.220795654296875,5.989234924316406,5.568098068237305,0.22971096634864807
1775341264940583000,20.2375830078125,6.058627128601074,6.008377552032471,-0.4211367964744568
1775341264957370400,20.254370361328125,7.133004188537598,5.699703693389893,0.10049854964017868
1775341264974157600,20.271157470703123,5.548955917358398,6.7070817947387695,-0.1746760457754135
1775341264990944800,20.28794482421875,6.0370917320251465,6.735795974731445,-0.3086741268634796
1775341265007732200,20.304732177734376,6.238088607788086,6.623332977294922,-0.3756731450557709
1775341265024519400,20.32151953125,6.3601226806640625,6.690331935882568,-0.20338992774486542
1775341265041306600,20.338306640625,6.556334018707275,6.833901405334473,-0.16271193325519562
1775341265058093800,20.35509375,7.197610378265381,6.6352972984313965,-0.25363919138908386
1775341265074881300,20.37188134765625,6.4941205978393555,7.089933395385742,-0.17946170270442963
1775341265091668500,20.38866845703125,6.879364967346191,6.920042991638184,-0.07178468257188797
1775341265108455700,20.40545556640625,6.943971157073975,6.6831536293029785,-0.13160525262355804
1775341265125243000,20.422242919921874,6.900900363922119,6.745367050170898,-0.32303106784820557
1775341265142030300,20.4390302734375,6.357729911804199,6.920042991638184,0.12442677468061447
1775341265158817500,20.455817626953124,6.285944938659668,7.381857872009277,-0.38285163044929504
1775341265175604700,20.472604736328126,7.269395351409912,6.6592254638671875,0.22013968229293823
1775341265192392000,20.489391845703125,6.951149940490723,6.943971157073975,-0.672383189201355
1775341265209179400,20.506179443359375,6.927221775054932,7.080362319946289,0.11964113265275955
1775341265225966600,20.522966552734374,7.204789161682129,7.288537979125977,-0.5216353535652161
1775341265242753800,20.53975390625,6.324230194091797,7.393822193145752,-0.038285162299871445
1775341265259541000,20.556541015625,7.8795647621154785,6.874579429626465,-0.05024927482008934
1775341265276328400,20.573328369140626,6.939185619354248,7.554141044616699,-0.2632105052471161
1775341265293115600,20.59011572265625,6.501298904418945,7.836493968963623,0.11485548317432404
1775341265309902800,20.60690283203125,7.341179847717285,7.293323516845703,-0.18903298676013947
1775341265326690000,20.62368994140625,7.475177764892578,7.554141044616699,-0.25363919138908386
1775341265343477500,20.6404775390625,6.908079147338867,7.379465103149414,-0.28953152894973755
1775341265360264700,20.6572646484375,7.776673793792725,7.424928665161133,-0.40677985548973083
1775341265377052000,20.674052001953125,7.113861560821533,7.5804619789123535,-0.12203395366668701
1775341265393839000,20.690839111328124,6.290730953216553,7.848458290100098,-0.28953152894973755
1775341265410626600,20.70762646484375,7.611568927764893,7.494320392608643,0.30149564146995544
1775341265427413800,20.724413818359373,7.609176158905029,7.417750358581543,-0.4977070987224579
1775341265444201000,20.741200927734376,6.400800704956055,7.657032489776611,0.38285163044929504
1775341265460988200,20.75798828125,7.477570533752441,7.551748275756836,-0.2847459018230438
1775341265477775400,20.774775390625,7.245467185974121,7.149754047393799,0.04546362906694412
1775341265494562800,20.791562744140624,7.037291526794434,7.618747234344482,-0.24167509377002716
1775341265511350000,20.80835009765625,6.8865437507629395,7.57806921005249,-0.1818545162677765
1775341265528137200,20.82513720703125,7.061219692230225,7.094718933105469,-0.33738797903060913
1775341265544924700,20.841924560546875,7.046862602233887,7.221538543701172,-0.18903298676013947
1775341265561711900,20.8587119140625,6.64486837387085,7.302894592285156,-0.2512463629245758
1775341265578499000,20.8754990234375,7.164111137390137,7.482356548309326,-0.31824541091918945
1775341265595286300,20.892286376953123,7.269395351409912,7.424928665161133,-0.2727817893028259
1775341265612073700,20.90907373046875,6.795616149902344,7.348358154296875,0.16031911969184875
1775341265628861000,20.92586083984375,6.778866767883301,7.57806921005249,-0.08853443711996078
1775341265645648100,20.942648193359375,7.178467750549316,7.377072334289551,-0.11724831163883209
1775341265662435300,20.959435302734374,7.1473612785339355,7.326822757720947,-0.2632105052471161
1775341265679222500,20.976222412109376,6.970292568206787,7.4225358963012695,-0.2919243574142456
1775341265696010000,20.993010009765626,6.922435760498047,7.2095746994018555,-0.2560320198535919
1775341265712797200,21.009797119140625,7.121040344238281,7.226324558258057,-0.2679961323738098
1775341265729584400,21.02658447265625,7.274180889129639,7.7216386795043945,0.064606212079525
1775341265746371600,21.04337158203125,6.216553211212158,7.63310432434082,0.06939185410737991
1775341265763159000,21.060158935546873,8.3629150390625,8.468199729919434,-0.4666004180908203
1775341265779946200,21.0769462890625,8.72183895111084,8.769695281982422,0.5072783827781677
1775341265796733400,21.0937333984375,10.052248001098633,8.951549530029297,-0.1579262912273407
1775341265813520600,21.110520751953125,7.731209754943848,10.360921859741211,0.17228323221206665
1775341265830308000,21.12730810546875,9.607182502746582,9.377471923828125,-0.4833501875400543
1775341265847095300,21.14409521484375,9.09990406036377,9.858428955078125,-0.43549370765686035
1775341265863882500,21.160882568359376,8.044670104980469,9.489934921264648,-0.4211367964744568
1775341265880669700,21.177669677734375,8.549555778503418,9.399007797241211,-0.5288137793540955
1775341265897457000,21.194456787109374,8.642875671386719,8.999405860900879,-0.19142581522464752
1775341265914244400,21.211244384765624,8.085348129272461,8.319844245910645,-0.24406790733337402
1775341265931031600,21.228031494140627,7.101897716522217,8.12123966217041,0.05742774158716202
1775341265947818800,21.24481884765625,7.087540626525879,8.032705307006836,-0.21296121180057526
1775341265964606000,21.26160595703125,7.893921852111816,7.51585578918457,0.5694918036460876
1775341265981393400,21.278393310546875,6.415157318115234,7.829315662384033,-0.38285163044929504
1775341265998180600,21.2951806640625,8.195417404174805,7.503891944885254,0.019142581149935722
1775341266014967800,21.3119677734375,6.97268533706665,7.539783954620361,-0.6747759580612183
1775341266031755000,21.328755126953126,6.190232276916504,7.707281589508057,0.1579262912273407
1775341266048542500,21.34554248046875,7.700103282928467,7.657032489776611,-0.35892340540885925
1775341266065329700,21.36232958984375,6.764509677886963,7.087540626525879,-0.17228323221206665
1775341266082116900,21.379116943359374,6.726224422454834,7.542177200317383,-0.2679961323738098
1775341266098904000,21.395904052734377,7.278966426849365,7.501499176025391,-0.14356936514377594
1775341266115691300,21.412691162109375,7.283751964569092,7.470392227172852,-0.019142581149935722
1775341266132478700,21.429478759765626,7.1856465339660645,7.470392227172852,0.23210379481315613
1775341266149266000,21.446265869140625,7.094718933105469,7.5804619789123535,0
1775341266166053000,21.46305322265625,7.070790767669678,7.5804619789123535,-0.39481574296951294
