time,seconds_elapsed,z,y,x
1775721945516130600,0.051130615234375,0.02641216665506363,0.04146115854382515,-0.021891450509428978
1775721945526143500,0.0611435546875,0.0022003035992383957,0.03942570462822914,0.005071191117167473
1775721945536156700,0.07115673828125,0.02219345234334469,0.004697283264249563,0.025198031216859818
1775721945546170600,0.081170654296875,0.05919754505157471,0.005248291417956352,0.044375985860824585
1775721945556183600,0.09118359375,0.0805334597826004,0.012749350629746914,0.053531136363744736
1775721945566196700,0.10119677734375,0.09289585053920746,0.03477262705564499,0.07216234505176544
1775721945576209700,0.111209716796875,0.09772602468729019,0.042812976986169815,0.0820850133895874
1775721945586223600,0.1212236328125,0.11305598169565201,0.036257874220609665,0.0709034651517868
1775721945596236800,0.13123681640625,0.1417320966720581,0.02376684918999672,0.032171253114938736
1775721945606249500,0.14124951171875,0.16964362561702728,0.02107066474854946,-0.027247600257396698
1775721945616263700,0.151263671875,0.16537857055664062,0.023567376658320427,-0.07460366189479828
1775721945626276600,0.161276611328125,0.11251349747180939,0.02123471535742283,-0.06504184752702713
1775721945636289500,0.17128955078125,0.05116092041134834,0.019666379317641258,0.003216033335775137
1775721945646303700,0.1813037109375,0.010606572031974792,0.0006282397080212831,0.0836150050163269
1775721945656316700,0.191316650390625,0.013559218496084213,-0.059475310146808624,0.1350710093975067
1775721945666329600,0.20132958984375,0.03428313881158829,-0.0915680006146431,0.16225920617580414
1775721945676342800,0.2113427734375,0.04838510975241661,-0.05753173679113388,0.18874648213386536
1775721945686356500,0.2213564453125,0.05108768492937088,-0.01139912847429514,0.1876407414674759
1775721945696369700,0.23136962890625,0.04868018627166748,0.016390424221754074,0.16661427915096283
1775721945706382800,0.2413828125,0.03972823917865753,0.059850018471479416,0.15657256543636322
1775721945716396500,0.251396484375,0.034996598958969116,0.07571925967931747,0.14719051122665405
1775721945726409700,0.26140966796875,0.042269427329301834,0.06465595960617065,0.12741973996162415
1775721945736422700,0.271422607421875,0.055032357573509216,0.03557104244828224,0.09693054109811783
1775721945746436600,0.2814365234375,0.06925017386674881,-0.04603060707449913,0.05240541696548462
1775721945756449800,0.29144970703125,0.07625748962163925,-0.1215144470334053,0.004564391914755106
1775721945766462700,0.301462646484375,0.07697707414627075,-0.16303952038288116,-0.04339833930134773
1775721945776475600,0.3114755859375,0.06308309733867645,-0.13993579149246216,-0.08754023164510727
1775721945786489600,0.321489501953125,0.04423777014017105,-0.07734991610050201,-0.10860557109117508
1775721945796502800,0.331502685546875,0.03287858888506889,-0.03122210130095482,-0.09418215602636337
1775721945806515700,0.341515625,0.021999308839440346,-0.0033537186682224274,-0.03945792838931084
1775721945816529700,0.35152978515625,0.004537493921816349,0.034335069358348846,0.06003430858254433
1775721945826542800,0.36154296875,-0.004202468320727348,0.05615301802754402,0.1791820079088211
1775721945836555800,0.3715556640625,-0.014612498693168163,0.05512663349509239,0.29691848158836365
1775721945846569700,0.38156982421875,-0.029982931911945343,0.04162467643618584,0.39012354612350464
1775721945856583000,0.3915830078125,-0.040519196540117264,0.06339255720376968,0.46248534321784973
1775721945866595800,0.401595947265625,-0.0512823611497879,0.06715001165866852,0.505753219127655
1775721945876608800,0.41160888671875,-0.060022056102752686,0.04718136042356491,0.5167582035064697
1775721945886622700,0.421622802734375,-0.06782884895801544,0.01859605498611927,0.48859336972236633
1775721945896635600,0.4316357421875,-0.07934968173503876,-0.020350279286503792,0.4450240731239319
1775721945906648800,0.44164892578125,-0.09661629050970078,0.00762969022616744,0.41109541058540344
1775721945916662800,0.451662841796875,-0.11127805709838867,0.06291638314723969,0.36705684661865234
1775721945926675700,0.46167578125,-0.12139301002025604,0.08947182446718216,0.29634377360343933
1775721945936688600,0.471688720703125,-0.13135802745819092,0.09477311372756958,0.22149696946144104
1775721945946702600,0.48170263671875,-0.14557796716690063,0.07904928177595139,0.17419283092021942
1775721945956715800,0.4917158203125,-0.16646620631217957,0.061228469014167786,0.16952911019325256
1775721945966728700,0.501728759765625,-0.18382389843463898,0.04165876284241676,0.19352978467941284
1775721945976742700,0.51174267578125,-0.19279953837394714,0.013274792581796646,0.21214555203914642
1775721945986755800,0.521755859375,-0.18686015903949738,-0.007830492220818996,0.2090831845998764
1775721945996768800,0.531768798828125,-0.1804070621728897,-0.0032839439809322357,0.19309568405151367
1775721946006781700,0.54178173828125,-0.1751268059015274,0.02135482244193554,0.17819610238075256
1775721946016796000,0.5517958984375,-0.163948193192482,0.05198117718100548,0.197947695851326
1775721946026808800,0.561808837890625,-0.14797694981098175,0.06531881541013718,0.2496362030506134
1775721946036821800,0.57182177734375,-0.12339171022176743,0.09716436266899109,0.32054126262664795
1775721946046835700,0.581835693359375,-0.09877558052539825,0.11870161443948746,0.3857617974281311
1775721946056848600,0.5918486328125,-0.07940161228179932,0.09358268231153488,0.4234021306037903
1775721946066861800,0.60186181640625,-0.05794905498623848,0.11041972041130066,0.4651338756084442
1775721946076875800,0.611875732421875,-0.08358490467071533,0.0939432755112648,0.4799596667289734
1775721946086888700,0.621888671875,-0.11728188395500183,0.05420411750674248,0.4535003900527954
1775721946096902000,0.63190185546875,-0.12342899292707443,0.041252896189689636,0.40006670355796814
1775721946106914800,0.641914794921875,-0.11918258666992188,0.03250867500901222,0.3500293791294098
1775721946116928800,0.6519287109375,-0.12092162668704987,0.03838387504220009,0.3290676474571228
1775721946126941700,0.661941650390625,-0.12193363159894943,0.08548080921173096,0.32885751128196716
1775721946136955000,0.671954833984375,-0.119968481361866,0.1130400002002716,0.3163747489452362
1775721946146968800,0.68196875,-0.11606961488723755,0.10764790326356888,0.2808380722999573
1775721946156981800,0.691981689453125,-0.10700102150440216,0.08632875978946686,0.24911794066429138
1775721946166994700,0.70199462890625,-0.10705135017633438,0.05048181489109993,0.24410107731819153
1775721946177009000,0.7120087890625,-0.10596291720867157,0.011196195147931576,0.2710205912590027
1775721946187021800,0.722021728515625,-0.10630833357572556,-0.032410137355327606,0.2951490879058838
1775721946197034800,0.73203466796875,-0.09970422089099884,-0.05974961817264557,0.29512616991996765
1775721946207047700,0.742047607421875,-0.09530255198478699,-0.04470542073249817,0.2684248089790344
1775721946217061600,0.7520615234375,-0.0831524133682251,-0.044729121029376984,0.21926045417785645
1775721946227074800,0.76207470703125,-0.06839556992053986,-0.05546166002750397,0.16529467701911926
1775721946237087700,0.772087646484375,-0.061638329178094864,-0.058096058666706085,0.13935576379299164
1775721946247101700,0.782101806640625,-0.06917507946491241,-0.02424941398203373,0.16766543686389923
1775721946257115000,0.792114990234375,-0.07663778960704803,0.023609988391399384,0.2146470546722412
1775721946267127800,0.8021279296875,-0.08574899286031723,0.06202928349375725,0.22771279513835907
1775721946277141800,0.812141845703125,-0.09643785655498505,0.10417939722537994,0.21123448014259338
1775721946287154700,0.82215478515625,-0.09482744336128235,0.1560354083776474,0.19173294305801392
1775721946297168000,0.83216796875,-0.06772737950086594,0.16047462821006775,0.15778537094593048
1775721946307180800,0.842180908203125,-0.015364841558039188,0.1232961043715477,0.12939846515655518
1775721946317194800,0.85219482421875,0.03743845224380493,0.0655108317732811,0.12353019416332245
1775721946327207700,0.862207763671875,0.10331626981496811,0.005497829522937536,0.14604029059410095
1775721946337220600,0.872220703125,0.15966743230819702,-0.028233235701918602,0.18136419355869293
1775721946347234800,0.88223486328125,0.1963077336549759,-0.052612610161304474,0.2211342453956604
1775721946357247700,0.892247802734375,0.21644362807273865,-0.011376225389540195,0.26758456230163574
1775721946367260700,0.9022607421875,0.22545602917671204,0.0555918887257576,0.29547664523124695
1775721946377274600,0.912274658203125,0.24244539439678192,0.09178371727466583,0.2945069968700409
1775721946387287800,0.922287841796875,0.26973187923431396,0.10631924867630005,0.29514190554618835
1775721946397300700,0.93230078125,0.2938385307788849,0.1000959724187851,0.30653783679008484
1775721946407314000,0.94231396484375,0.3112596273422241,0.03740436211228371,0.31259065866470337
1775721946417327900,0.952327880859375,0.31020259857177734,-0.014085192233324051,0.304286390542984
1775721946427340800,0.9623408203125,0.30637484788894653,-0.041545845568180084,0.2713175117969513
1775721946437353700,0.972353759765625,0.29863569140434265,-0.07181400060653687,0.2197994738817215
1775721946447367700,0.98236767578125,0.2857651710510254,-0.09871086478233337,0.1815016120672226
1775721946457380900,0.992380859375,0.27976587414741516,-0.14233903586864471,0.15587694942951202
1775721946467393800,1.002393798828125,0.27560120820999146,-0.17888586223125458,0.15526628494262695
1775721946477407700,1.01240771484375,0.2888656258583069,-0.19865557551383972,0.15730014443397522
1775721946487420700,1.022420654296875,0.3143395483493805,-0.19191430509090424,0.1600530445575714
1775721946497433600,1.03243359375,0.32490217685699463,-0.14893434941768646,0.17082446813583374
1775721946507446800,1.04244677734375,0.32786014676094055,-0.08931203931570053,0.19365042448043823
1775721946517460700,1.052460693359375,0.3371671140193939,-0.05927424132823944,0.22386318445205688
1775721946527473700,1.0624736328125,0.3462740480899811,-0.06838145107030869,0.2952803671360016
1775721946537486800,1.07248681640625,0.35614240169525146,-0.09779153764247894,0.3871152400970459
1775721946547500800,1.082500732421875,0.35877013206481934,-0.14832182228565216,0.4505772888660431
1775721946557513700,1.092513671875,0.33022239804267883,-0.1917390674352646,0.4636771082878113
1775721946567527000,1.10252685546875,0.2598124146461487,-0.27310290932655334,0.41837939620018005
1775721946577540900,1.112540771484375,0.16122829914093018,-0.31574732065200806,0.3525916039943695
1775721946587553800,1.1225537109375,0.04658640921115875,-0.26766127347946167,0.3038661479949951
1775721946597566700,1.132566650390625,-0.07173091173171997,-0.20877905189990997,0.2573798596858978
1775721946607579600,1.14257958984375,-0.16233856976032257,-0.1336193084716797,0.23724263906478882
1775721946617593900,1.15259375,-0.17801740765571594,-0.050265032798051834,0.24053724110126495
1775721946627606800,1.162606689453125,-0.1344510167837143,0.057917628437280655,0.27523770928382874
1775721946637619700,1.17261962890625,-0.1122993752360344,0.18361003696918488,0.35222622752189636
1775721946647633700,1.182633544921875,-0.14116111397743225,0.2401108741760254,0.4495410621166229
1775721946657646600,1.192646484375,-0.1878681629896164,0.21370641887187958,0.5121508836746216
1775721946667659800,1.20265966796875,-0.2510945498943329,0.16824014484882355,0.5063374638557434
1775721946677673700,1.212673828125,-0.31738966703414917,0.07987778633832932,0.41576817631721497
1775721946687686700,1.222686767578125,-0.3647313714027405,0.03466903045773506,0.28669223189353943
1775721946697699800,1.232699951171875,-0.41187676787376404,0.08158008009195328,0.1610645204782486
1775721946707712800,1.242712646484375,-0.43614935874938965,0.1803402155637741,0.06162634491920471
1775721946717726700,1.252726806640625,-0.41225066781044006,0.3621920347213745,0.03808639943599701
1775721946727740000,1.262739990234375,-0.31934070587158203,0.469036728143692,0.07511046528816223
1775721946737752600,1.272752685546875,-0.1951575130224228,0.4766978323459625,0.15769429504871368
1775721946747766800,1.282766845703125,-0.09573318064212799,0.4335498511791229,0.26869937777519226
1775721946757779700,1.29277978515625,-0.05041683465242386,0.3349524140357971,0.3385005593299866
1775721946767792600,1.302792724609375,-0.025853700935840607,0.2171003520488739,0.33440035581588745
1775721946777806600,1.312806640625,-0.020357202738523483,0.07568011432886124,0.26991376280784607
1775721946787819500,1.322819580078125,-0.011812717653810978,-0.11814820766448975,0.15244732797145844
1775721946797832700,1.332832763671875,0.02105575054883957,-0.28275206685066223,0.02923751436173916
1775721946807845600,1.342845703125,0.06884271651506424,-0.352517306804657,-0.048702824860811234
1775721946817859600,1.352859619140625,0.1141076609492302,-0.41825664043426514,-0.0791371613740921
1775721946827872500,1.36287255859375,0.12628789246082306,-0.4900091290473938,-0.06974925100803375
1775721946837885700,1.3728857421875,0.09464474767446518,-0.5035387873649597,-0.031502265483140945
1775721946847899600,1.382899658203125,0.03316913917660713,-0.4736538529396057,-0.0031055121216923
1775721946857912600,1.39291259765625,-0.02131061442196369,-0.3902106285095215,-0.000222373942960985
1775721946867925800,1.40292578125,-0.06759475916624069,-0.2837963104248047,-0.017585119232535362
1775721946877938400,1.4129384765625,-0.10835789889097214,-0.23474353551864624,-0.041665952652692795
1775721946887952600,1.42295263671875,-0.1663527637720108,-0.21504013240337372,-0.03764963895082474
1775721946897965600,1.432965576171875,-0.2470683753490448,-0.18068456649780273,-0.006826214492321014
1775721946907978500,1.442978515625,-0.32220974564552307,-0.13111567497253418,-0.0001675128296483308
1775721946917992700,1.45299267578125,-0.367948979139328,-0.06376459449529648,-0.03105298988521099
1775721946928005600,1.463005615234375,-0.37007713317871094,-0.020110860466957092,-0.08863931894302368
1775721946938018600,1.4730185546875,-0.34633344411849976,-0.00896952673792839,-0.15155437588691711
1775721946948032500,1.483032470703125,-0.3025825023651123,-0.0012146678054705262,-0.18557998538017273
1775721946958045700,1.493045654296875,-0.2492484450340271,-0.02629338949918747,-0.18817763030529022
1775721946968058600,1.50305859375,-0.19685447216033936,-0.05300835520029068,-0.17079544067382812
1775721946978071800,1.51307177734375,-0.14511750638484955,-0.05873361974954605,-0.15021666884422302
1775721946988085500,1.52308544921875,-0.1046782061457634,-0.0013512879377231002,-0.12727700173854828
1775721946998098700,1.5330986328125,-0.05219476297497749,0.07386037707328796,-0.10713976621627808
1775721947008111600,1.543111572265625,0.004595017991960049,0.08961137384176254,-0.09853216260671616
1775721947018125600,1.55312548828125,0.04608200863003731,0.03976072743535042,-0.08729416131973267
1775721947028138800,1.563138671875,0.07937498390674591,-0.02581588365137577,-0.06767731159925461
1775721947038151400,1.5731513671875,0.11322988569736481,-0.08540944010019302,-0.03913222253322601
1775721947048165600,1.58316552734375,0.14025218784809113,-0.13265711069107056,-0.018757175654172897
1775721947058178600,1.593178466796875,0.16432049870491028,-0.14757294952869415,-0.011303520761430264
1775721947068191500,1.60319140625,0.17210838198661804,-0.10322305560112,0.00737242866307497
1775721947078204700,1.61320458984375,0.16157424449920654,-0.04370114207267761,0.04289447143673897
1775721947088218600,1.623218505859375,0.14455558359622955,-0.011139736510813236,0.05783586949110031
1775721947098231600,1.6332314453125,0.13075615465641022,0.019469838589429855,0.06163646653294563
1775721947108244700,1.64324462890625,0.12062148749828339,0.03886643797159195,0.05560067668557167
1775721947118258700,1.6532587890625,0.11050893366336823,0.04288727790117264,0.05194975063204765
1775721947128271600,1.663271728515625,0.09747275710105896,0.04099297150969505,0.04273175075650215
1775721947138284800,1.673284912109375,0.0846075639128685,0.04107899218797684,0.030117155984044075
1775721947148298500,1.683298583984375,0.07292134314775467,0.010396980680525303,0.005515406373888254
1775721947158311700,1.693311767578125,0.06019596382975578,-0.01053360104560852,-0.023626232519745827
1775721947168324600,1.70332470703125,0.051114317029714584,-0.015547800809144974,-0.05637725442647934
1775721947178337500,1.713337646484375,0.03560379892587662,-0.01554993074387312,-0.08601424098014832
1775721947188351700,1.723351806640625,0.025114940479397774,-0.013097425922751427,-0.10064352303743362
1775721947198364400,1.733364501953125,0.020733507350087166,0.000003462109361862531,-0.09974896162748337
1775721947208377600,1.743377685546875,0.03214967995882034,0.03322160243988037,-0.08409490436315536
1775721947218391600,1.7533916015625,0.05626726523041725,0.0889652892947197,-0.06789329648017883
1775721947228404500,1.763404541015625,0.11729680001735687,0.1625383198261261,-0.06101355329155922
1775721947238417700,1.773417724609375,0.19316519796848297,0.2078016698360443,-0.0754992812871933
1775721947248430600,1.7834306640625,0.2624819576740265,0.18607506155967712,-0.11962013691663742
1775721947258444500,1.793444580078125,0.289718896150589,0.09672574698925018,-0.17140130698680878
1775721947268457700,1.803457763671875,0.27361157536506653,0.0012381036067381501,-0.21598848700523376
1775721947278470400,1.813470458984375,0.24663081765174866,-0.09318480640649796,-0.2841259837150574
1775721947288484600,1.823484619140625,0.2064937800168991,-0.1350473016500473,-0.34761789441108704
1775721947298497800,1.833497802734375,0.13756930828094482,-0.1399291455745697,-0.3959049880504608
1775721947308510500,1.843510498046875,0.05958316847681999,-0.1312538981437683,-0.43747082352638245
1775721947318524700,1.853524658203125,0.0010181264951825142,-0.08244507759809494,-0.46000808477401733
1775721947328537600,1.86353759765625,-0.028629779815673828,0.014887070283293724,-0.4303598999977112
1775721947338550500,1.873550537109375,-0.051468782126903534,0.10416661202907562,-0.36368101835250854
1775721947348563700,1.883563720703125,-0.07557891309261322,0.1663181334733963,-0.28607702255249023
1775721947358577400,1.893577392578125,-0.11384374648332596,0.20904989540576935,-0.21559646725654602
1775721947368590600,1.903590576171875,-0.16600628197193146,0.20601575076580048,-0.16835039854049683
1775721947378603800,1.913603759765625,-0.24731925129890442,0.10385236144065857,-0.15611237287521362
1775721947388617500,1.923617431640625,-0.31166040897369385,0.053642190992832184,-0.13519003987312317
1775721947398630700,1.933630615234375,-0.3034730553627014,0.07718692719936371,-0.12806688249111176
1775721947408643800,1.943643798828125,-0.27197983860969543,0.06583227962255478,-0.17713376879692078
1775721947418656500,1.953656494140625,-0.23954841494560242,0.0708446130156517,-0.25125885009765625
1775721947428670700,1.963670654296875,-0.21800050139427185,0.11288074404001236,-0.29912278056144714
1775721947438683400,1.973683349609375,-0.20924963057041168,0.13264593482017517,-0.3207505941390991
1775721947448696600,1.983696533203125,-0.21841169893741608,0.15860696136951447,-0.29182174801826477
1775721947458710800,1.993710693359375,-0.2081284373998642,0.18287020921707153,-0.23002681136131287
1775721947468723500,2.003723388671875,-0.14536385238170624,0.13932673633098602,-0.18168671429157257
1775721947478736600,2.013736572265625,-0.05164534971117973,0.055326372385025024,-0.14340269565582275
1775721947488750600,2.02375048828125,0.03009585104882717,-0.015852732583880424,-0.13035374879837036
1775721947498763500,2.033763427734375,0.08505497127771378,-0.03501124680042267,-0.13436207175254822
1775721947508776700,2.043776611328125,0.10810889303684235,0.008328503929078579,-0.11872132122516632
1775721947518789600,2.05378955078125,0.09662987291812897,0.09030672907829285,-0.07526998966932297
1775721947528803600,2.063803466796875,0.08609360456466675,0.1244569718837738,-0.054244063794612885
1775721947538816800,2.073816650390625,0.08100111037492752,0.1932658702135086,-0.027179956436157227
1775721947548829400,2.083829345703125,0.08397878706455231,0.2356354296207428,0.0026791400741785765
1775721947558843600,2.09384375,0.08444005250930786,0.20241647958755493,0.012811935506761074
1775721947568856800,2.10385693359375,0.07664018124341965,0.14843341708183289,0.003719104453921318
1775721947578869500,2.113869384765625,0.04104384034872055,0.1611422896385193,-0.009071258828043938
1775721947588882700,2.123882568359375,0.014904647134244442,0.17936868965625763,-0.029696376994252205
1775721947598896400,2.133896484375,-0.008379902690649033,0.19282324612140656,-0.07209283858537674
1775721947608909600,2.14390966796875,-0.03772074729204178,0.23921099305152893,-0.11434495449066162
1775721947618922800,2.1539228515625,-0.05160673335194588,0.24559246003627777,-0.15573926270008087
1775721947628936400,2.1639365234375,-0.05951792001724243,0.2378740757703781,-0.18659570813179016
1775721947638949600,2.17394970703125,-0.06579046696424484,0.24953339993953705,-0.19066528975963593
1775721947648962600,2.183962646484375,-0.07606600224971771,0.2265567034482956,-0.1829674243927002
1775721947658976500,2.1939765625,-0.09490227699279785,0.16629283130168915,-0.1694268435239792
1775721947668989700,2.20398974609375,-0.11359873414039612,0.09304898232221603,-0.15741997957229614
1775721947679002600,2.214002685546875,-0.1257541924715042,0.04717656597495079,-0.15650571882724762
1775721947689015600,2.224015625,-0.12228702753782272,0.019402991980314255,-0.17376700043678284
1775721947699029800,2.23402978515625,-0.10193754732608795,0.004649080336093903,-0.22355931997299194
1775721947709042400,2.24404248046875,-0.06916788220405579,0.05053561180830002,-0.27640682458877563
1775721947719055600,2.2540556640625,-0.03999455273151398,0.10527795553207397,-0.3087650239467621
1775721947729069800,2.26406982421875,-0.015332084149122238,0.1033487617969513,-0.32388511300086975
1775721947739082500,2.27408251953125,0.014119813218712807,0.05114547535777092,-0.3226747214794159
1775721947749095700,2.284095703125,0.0501856729388237,-0.007821171544492245,-0.29952147603034973
1775721947759108600,2.294108642578125,0.08524538576602936,-0.07201773673295975,-0.28094831109046936
1775721947769123300,2.304123291015625,0.09659364819526672,-0.09474275261163712,-0.25535348057746887
1775721947779136300,2.31413623046875,0.08737804740667343,-0.11786245554685593,-0.24193699657917023
1775721947789149200,2.324149169921875,0.06739981472492218,-0.12233656644821167,-0.23728898167610168
1775721947799163400,2.334163330078125,0.04346731677651405,-0.09959716349840164,-0.23781070113182068
1775721947809176300,2.34417626953125,0.03960040584206581,-0.07606147974729538,-0.257140189409256
1775721947819189200,2.354189208984375,0.046733416616916656,-0.01884026639163494,-0.26038071513175964
1775721947829203500,2.364203369140625,0.0552254393696785,0.02996695414185524,-0.23398905992507935
1775721947839216000,2.374216064453125,0.049979276955127716,0.03579208627343178,-0.1922549307346344
1775721947849229300,2.384229248046875,0.034984081983566284,0.04379222169518471,-0.14185060560703278
1775721947859242200,2.3942421875,0.013942713849246502,0.052014466375112534,-0.10663163661956787
1775721947869256200,2.404256103515625,-0.005328985396772623,0.038066692650318146,-0.09082045406103134
1775721947879269400,2.414269287109375,-0.026932815089821815,0.02497672289609909,-0.089623361825943
1775721947889282300,2.4242822265625,-0.050288472324609756,-0.009545302018523216,-0.10738824307918549
1775721947899296300,2.434296142578125,-0.062079351395368576,-0.050156909972429276,-0.14217178523540497
1775721947909309400,2.444309326171875,-0.05997811630368233,-0.05706062167882919,-0.18529954552650452
1775721947919322400,2.454322265625,-0.04501993954181671,0.010786068625748158,-0.20398321747779846
1775721947929335300,2.464335205078125,-0.010552776046097279,0.10167549550533295,-0.1819082796573639
1775721947939349200,2.474349365234375,0.03965207189321518,0.15437252819538116,-0.13108691573143005
1775721947949362200,2.484362060546875,0.0944008007645607,0.1561826765537262,-0.056291501969099045
1775721947959375400,2.494375244140625,0.15569372475147247,0.13013537228107452,0.01540265791118145
1775721947969389300,2.504389404296875,0.22275957465171814,0.0546824187040329,0.04519304260611534
1775721947979402200,2.51440234375,0.27262672781944275,-0.01210007257759571,0.03608982637524605
1775721947989415200,2.524415283203125,0.2967645525932312,-0.02786784991621971,0.003610979998484254
1775721947999429000,2.53442919921875,0.2995353043079376,-0.00697774812579155,-0.0455286018550396
1775721948009442300,2.5444423828125,0.29833608865737915,0.01949886605143547,-0.10642151534557343
1775721948019455200,2.554455322265625,0.30091723799705505,0.07298099994659424,-0.16503742337226868
1775721948029468400,2.564468505859375,0.3137693703174591,0.06563334167003632,-0.22407518327236176
1775721948039482400,2.574482421875,0.3205265998840332,0.00384427304379642,-0.2580573856830597
1775721948049495300,2.584495361328125,0.33119338750839233,-0.048835981637239456,-0.24517486989498138
1775721948059508200,2.59450830078125,0.34665754437446594,-0.09813455492258072,-0.22218726575374603
1775721948069522400,2.6045224609375,0.3517141044139862,-0.10717412084341049,-0.20232008397579193
1775721948079535400,2.614535400390625,0.35159850120544434,-0.11350765079259872,-0.19491542875766754
1775721948089548300,2.62454833984375,0.31714707612991333,-0.09875480830669403,-0.17570844292640686
1775721948099561200,2.634561279296875,0.2814766764640808,-0.10568461567163467,-0.15692995488643646
1775721948109575200,2.6445751953125,0.26121029257774353,-0.15305691957473755,-0.14698785543441772
1775721948119588400,2.65458837890625,0.23619309067726135,-0.15833930671215057,-0.14132463932037354
1775721948129601300,2.664601318359375,0.20840859413146973,-0.11464668810367584,-0.1490374207496643
1775721948139615200,2.674615234375,0.2026609629392624,-0.07315649837255478,-0.16848328709602356
1775721948149628200,2.684628173828125,0.20009741187095642,-0.02003016695380211,-0.17530710995197296
1775721948159641300,2.694641357421875,0.21684496104717255,-0.006617955397814512,-0.16859221458435059
1775721948169654300,2.704654296875,0.2331341803073883,-0.032099347561597824,-0.15195810794830322
1775721948179668200,2.714668212890625,0.24158546328544617,-0.07392828911542892,-0.12797288596630096
1775721948189681400,2.724681396484375,0.24358682334423065,-0.11084555834531784,-0.10800635814666748
1775721948199694000,2.734694091796875,0.24606676399707794,-0.12668336927890778,-0.09089794754981995
1775721948209708300,2.744708251953125,0.240611270070076,-0.08559932559728622,-0.06739608198404312
1775721948219721200,2.75472119140625,0.23698005080223083,0.03899160772562027,-0.023782560601830482
1775721948229734100,2.764734130859375,0.2384280115365982,0.14406423270702362,0.01810683123767376
1775721948239748400,2.774748291015625,0.23311235010623932,0.21723325550556183,0.06226204335689545
1775721948249761300,2.78476123046875,0.23605461418628693,0.2366841733455658,0.09104175865650177
1775721948259774200,2.794774169921875,0.22678335011005402,0.20155096054077148,0.1086183562874794
1775721948269787400,2.804787353515625,0.210592120885849,0.1424327790737152,0.11953731626272202
1775721948279801300,2.81480126953125,0.18858961760997772,0.10283290594816208,0.09233792126178741
1775721948289814300,2.824814208984375,0.16775144636631012,0.07501591742038727,0.040831584483385086
1775721948299827500,2.834827392578125,0.14091797173023224,0.045040179044008255,-0.012921657413244247
1775721948309841200,2.844841064453125,0.1013985276222229,0.02720179408788681,-0.034213628619909286
1775721948319854300,2.854854248046875,0.0669124573469162,0.004376638680696487,-0.020055999979376793
1775721948329867300,2.8648671875,0.031265776604413986,0.02052951045334339,0.012718725018203259
1775721948339880200,2.874880126953125,0.003099120454862714,0.06511828303337097,0.029634591192007065
1775721948349894400,2.884894287109375,-0.015725700184702873,0.09652920067310333,0.010963168926537037
1775721948359907300,2.8949072265625,-0.043528035283088684,0.11556920409202576,-0.023060312494635582
1775721948369920300,2.904920166015625,-0.07506146281957626,0.13275058567523956,-0.04650731384754181
1775721948379934200,2.914934326171875,-0.0989079400897026,0.13786332309246063,-0.04566655308008194
1775721948389947100,2.924947021484375,-0.11969364434480667,0.11482005566358566,-0.04536055773496628
1775721948399960300,2.934960205078125,-0.12793320417404175,0.09652361273765564,-0.058875568211078644
1775721948409973500,2.944973388671875,-0.11591994762420654,0.08512900769710541,-0.08020509034395218
1775721948419987200,2.9549873046875,-0.0969126969575882,0.06186576560139656,-0.1003417819738388
1775721948430000400,2.96500048828125,-0.05544168874621391,0.028808478266000748,-0.1019521951675415
1775721948440013000,2.975012939453125,0.004229366313666105,0.023728765547275543,-0.07057696580886841
1775721948450027300,2.98502734375,0.07170161604881287,-0.0027885958552360535,-0.017883125692605972
1775721948460040400,2.99504052734375,0.13906894624233246,-0.014990135096013546,0.04653394594788551
1775721948470053000,3.00505322265625,0.2166324406862259,-0.008560198359191418,0.06473904848098755
1775721948480066300,3.01506640625,0.2626103162765503,-0.0280915554612875,0.04104490578174591
1775721948490080300,3.025080322265625,0.285497784614563,-0.015361645258963108,0.039555929601192474
1775721948500093200,3.03509326171875,0.29000386595726013,-0.018671687692403793,0.046609580516815186
1775721948510106400,3.0451064453125,0.2748776376247406,-0.03019918128848076,0.05401849374175072
1775721948520120300,3.055120361328125,0.23712892830371857,-0.04079163819551468,0.05392741411924362
1775721948530133200,3.06513330078125,0.19797992706298828,-0.052570801228284836,0.036859214305877686
1775721948540146400,3.075146484375,0.15277568995952606,-0.05830192193388939,-0.011899270117282867
1775721948550160100,3.08516015625,0.11368928104639053,-0.03803952783346176,-0.06411001086235046
1775721948560173300,3.09517333984375,0.09927944839000702,0.004827778320759535,-0.11117792129516602
1775721948570186500,3.1051865234375,0.10186724364757538,0.014912104234099388,-0.15390221774578094
1775721948580199200,3.11519921875,0.10372292995452881,0.013177054934203625,-0.1751963198184967
1775721948590213400,3.12521337890625,0.1019066572189331,-0.012575979344546795,-0.1967327743768692
1775721948600226000,3.13522607421875,0.09475553780794144,-0.05768513306975365,-0.21680660545825958
1775721948610239200,3.1452392578125,0.07123210281133652,-0.09374566376209259,-0.2189302146434784
1775721948620253400,3.15525341796875,0.029919283464550972,-0.11270684003829956,-0.2176510989665985
1775721948630266000,3.16526611328125,-0.011691809631884098,-0.11834155768156052,-0.22295105457305908
1775721948640279300,3.175279296875,-0.0557844378054142,-0.0735490545630455,-0.20547805726528168
1775721948650292200,3.185292236328125,-0.09659072011709213,0.006308495998382568,-0.14556705951690674
1775721948660306200,3.19530615234375,-0.1307111382484436,0.08636204898357391,-0.05260089412331581
1775721948670319400,3.2053193359375,-0.15213361382484436,0.15159805119037628,0.06614839285612106
1775721948680332300,3.215332275390625,-0.17956896126270294,0.19435855746269226,0.19391460716724396
1775721948690346200,3.22534619140625,-0.21458500623703003,0.2110070437192917,0.3041790723800659
1775721948700359400,3.235359375,-0.24787931144237518,0.20630496740341187,0.37865516543388367
1775721948710372000,3.2453720703125,-0.269805908203125,0.21780715882778168,0.4208287298679352
1775721948720385300,3.25538525390625,-0.27659085392951965,0.21552909910678864,0.4248141348361969
1775721948730399500,3.2653994140625,-0.2960399091243744,0.22409407794475555,0.4024536907672882
1775721948740412200,3.275412109375,-0.3108486831188202,0.20753268897533417,0.3489169776439667
1775721948750425300,3.28542529296875,-0.31742003560066223,0.19547629356384277,0.26427000761032104
1775721948760439000,3.29543896484375,-0.30790162086486816,0.253630131483078,0.16602864861488342
1775721948770451200,3.305451171875,-0.2602590024471283,0.3145350217819214,0.07293839007616043
1775721948780464400,3.31546435546875,-0.19218115508556366,0.3395274579524994,0.01757979206740856
1775721948790477300,3.325477294921875,-0.12612943351268768,0.3191241919994354,0.03138907998800278
1775721948800491300,3.3354912109375,-0.09103377163410187,0.24418842792510986,0.09145135432481766
1775721948810504400,3.34550439453125,-0.07443481683731079,0.15442578494548798,0.18407076597213745
1775721948820517400,3.355517333984375,-0.07399992644786835,0.08723876625299454,0.27296069264411926
1775721948830531300,3.36553125,-0.07927564531564713,0.06252116709947586,0.3347116708755493
1775721948840544500,3.37554443359375,-0.10112981498241425,0.07845193147659302,0.3986528515815735
1775721948850557400,3.385557373046875,-0.13084083795547485,0.07788867503404617,0.4466025233268738
1775721948860570400,3.3955703125,-0.150594562292099,0.05777488276362419,0.433959424495697
1775721948870584300,3.405584228515625,-0.14893461763858795,0.05869127810001373,0.36039066314697266
1775721948880597200,3.41559716796875,-0.12531477212905884,0.06528393179178238,0.25824007391929626
1775721948890610400,3.4256103515625,-0.10774723440408707,0.09156693518161774,0.18202120065689087
1775721948900624400,3.435624267578125,-0.10945086181163788,0.09881392866373062,0.14202451705932617
1775721948910637300,3.44563720703125,-0.11966967582702637,0.08639667183160782,0.12817367911338806
1775721948920650200,3.455650146484375,-0.12073227763175964,0.025914687663316727,0.13118970394134521
1775721948930663400,3.465663330078125,-0.1068689227104187,-0.033609624952077866,0.1329450011253357
1775721948940677400,3.475677490234375,-0.0903402790427208,-0.09353367984294891,0.12339942902326584
1775721948950690300,3.485690185546875,-0.09994763880968094,-0.10331547260284424,0.13254472613334656
1775721948960703500,3.495703369140625,-0.12877315282821655,-0.04321112111210823,0.16905240714550018
1775721948970717400,3.505717529296875,-0.16365736722946167,0.023556724190711975,0.2089793086051941
1775721948980730400,3.51573046875,-0.1758623719215393,0.06422585994005203,0.23366469144821167
1775721948990743300,3.525743408203125,-0.16533756256103516,0.06197601929306984,0.2312856912612915
1775721949000756200,3.535756103515625,-0.14756815135478973,0.040772464126348495,0.20689405500888824
1775721949010770400,3.5457705078125,-0.12948448956012726,0.028081435710191727,0.16853947937488556
1775721949020783400,3.555783447265625,-0.12007580697536469,0.02533278614282608,0.1303606629371643
1775721949030796300,3.56579638671875,-0.10515331476926804,0.024391891434788704,0.11499316245317459
1775721949040810200,3.575810302734375,-0.08470263332128525,-0.00015872440417297184,0.12080445140600204
1775721949050823400,3.585823486328125,-0.06232063099741936,-0.027568776160478592,0.15170936286449432
1775721949060836400,3.59583642578125,-0.042284075170755386,-0.031625568866729736,0.21102941036224365
1775721949070849500,3.605849609375,-0.024110661819577217,-0.04446360468864441,0.26536375284194946
1775721949080863500,3.615863525390625,-0.018940668553113937,-0.07233864814043045,0.2985590100288391
1775721949090876400,3.62587646484375,-0.029317675158381462,-0.12159034609794617,0.31442585587501526
1775721949100889300,3.635889404296875,-0.05155080929398537,-0.16042642295360565,0.32555466890335083
1775721949110903300,3.6459033203125,-0.0789795070886612,-0.19023944437503815,0.328267902135849
1775721949120916500,3.65591650390625,-0.10941757261753082,-0.22038988769054413,0.32277005910873413
1775721949130929400,3.665929443359375,-0.15561436116695404,-0.22392044961452484,0.3125198185443878
1775721949140942300,3.6759423828125,-0.20178744196891785,-0.1741720587015152,0.29529157280921936
1775721949150956300,3.685956298828125,-0.20135308802127838,-0.12764637172222137,0.24337030947208405
1775721949160969200,3.69596923828125,-0.15845142304897308,-0.016596820205450058,0.19651758670806885
1775721949170982400,3.705982421875,-0.1280117630958557,0.11409807950258255,0.21986179053783417
1775721949180996400,3.715996337890625,-0.09921819716691971,0.135817751288414,0.289231538772583
1775721949191009300,3.72600927734375,-0.05356735363602638,0.07333093881607056,0.36122292280197144
1775721949201022500,3.7360224609375,-0.008303736336529255,-0.06538060307502747,0.40542739629745483
1775721949211035100,3.74603515625,0.023005183786153793,-0.21293704211711884,0.40335890650749207
1775721949221049300,3.75604931640625,0.046723295003175735,-0.31460827589035034,0.3508957028388977
1775721949231062500,3.7660625,0.0789874941110611,-0.3447880148887634,0.2758813798427582
1775721949241075200,3.7760751953125,0.12650202214717865,-0.3551122844219208,0.20639312267303467
1775721949251089400,3.78608935546875,0.17394223809242249,-0.3650139272212982,0.19501103460788727
1775721949261102300,3.796102294921875,0.23252326250076294,-0.35016119480133057,0.2368394434452057
1775721949271115300,3.806115234375,0.2845670282840729,-0.2725644111633301,0.30929020047187805
1775721949281128400,3.81612841796875,0.280863881111145,-0.17473426461219788,0.4000198543071747
1775721949291142400,3.826142333984375,0.2343568354845047,-0.09758354723453522,0.48636138439178467
1775721949301155300,3.8361552734375,0.17449989914894104,-0.04149923846125603,0.5471422076225281
1775721949311168500,3.84616845703125,0.11648746579885483,-0.004290086217224598,0.5942806601524353
1775721949321182200,3.85618212890625,0.06964512169361115,0.0041007352992892265,0.6316509246826172
1775721949331195400,3.8661953125,0.030606377869844437,-0.02828010730445385,0.6506003737449646
1775721949341208600,3.87620849609375,-0.04085075855255127,-0.036490634083747864,0.6777489185333252
1775721949351221200,3.88622119140625,-0.1693112701177597,0.0363934263586998,0.7170217633247375
1775721949361235500,3.8962353515625,-0.32860371470451355,0.19223655760288239,0.7375991940498352
1775721949371248000,3.906248046875,-0.47639691829681396,0.4149084985256195,0.7507736086845398
1775721949381261300,3.91626123046875,-0.6018680334091187,0.57061767578125,0.7262746691703796
1775721949391275500,3.926275634765625,-0.6968360543251038,0.6374489068984985,0.6860966086387634
1775721949401288200,3.9362880859375,-0.7410996556282043,0.6278988122940063,0.6407797336578369
1775721949411301400,3.94630126953125,-0.7348273992538452,0.5752947330474854,0.585784912109375
1775721949421314300,3.956314208984375,-0.6936892867088318,0.4893622398376465,0.5236355066299438
1775721949431328300,3.966328369140625,-0.6360023021697998,0.3971766531467438,0.47808560729026794
1775721949441341400,3.976341552734375,-0.5612531900405884,0.3622002899646759,0.4710575342178345
1775721949451354400,3.986354248046875,-0.43138042092323303,0.3589930534362793,0.484731525182724
1775721949461368300,3.996368408203125,-0.2628111243247986,0.30384722352027893,0.4999810457229614
1775721949471381500,4.006381591796875,-0.09951886534690857,0.19244161248207092,0.5119466185569763
1775721949481394200,4.016394287109375,0.010131729766726494,0.08740867674350739,0.5282816886901855
1775721949491407400,4.026407470703125,0.062423694878816605,0.00276063266210258,0.5243521928787231
1775721949501421600,4.036421630859375,0.06816627085208893,-0.021978270262479782,0.5058528184890747
1775721949511434200,4.046434326171875,0.04851214215159416,0.018066352233290672,0.4698905348777771
1775721949521447400,4.056447509765625,0.028673456981778145,0.025190308690071106,0.39134007692337036
1775721949531461400,4.06646142578125,0.008817194029688835,0.024655811488628387,0.30101683735847473
1775721949541474300,4.076474365234375,-0.049311358481645584,0.036852288991212845,0.21648968756198883
1775721949551487500,4.086487548828125,-0.14505572617053986,0.027168504893779755,0.13346245884895325
1775721949561500400,4.09650048828125,-0.22304026782512665,0.03522350266575813,0.04722956195473671
1775721949571514400,4.106514404296875,-0.3043558895587921,0.07296369224786758,-0.031013576313853264
1775721949581527600,4.116527587890625,-0.3690832257270813,0.11767975986003876,-0.0946601927280426
1775721949591540200,4.126540283203125,-0.4007420837879181,0.147865891456604,-0.15042732656002045
1775721949601554400,4.136554443359375,-0.3945331871509552,0.14749278128147125,-0.18526892364025116
1775721949611567400,4.1465673828125,-0.3579445481300354,0.0738380029797554,-0.21815922856330872
1775721949621580300,4.156580322265625,-0.29700183868408203,-0.053459230810403824,-0.24866653978824615
1775721949631593500,4.166593505859375,-0.22384481132030487,-0.19060643017292023,-0.27465152740478516
1775721949641607200,4.176607177734375,-0.12837634980678558,-0.30713358521461487,-0.30480092763900757
1775721949651620400,4.186620361328125,-0.024293089285492897,-0.3778724670410156,-0.3413996696472168
1775721949661633300,4.19663330078125,0.05457030236721039,-0.3676254153251648,-0.35200998187065125
1775721949671647200,4.206647216796875,0.09720564633607864,-0.31758302450180054,-0.34803253412246704
1775721949681660400,4.216660400390625,0.1391669511795044,-0.257585734128952,-0.33199766278266907
1775721949691673300,4.22667333984375,0.19963641464710236,-0.17204660177230835,-0.29117831587791443
1775721949701686300,4.236686279296875,0.2711963355541229,-0.14424718916416168,-0.25129854679107666
1775721949711700500,4.246700439453125,0.3388185501098633,-0.18647001683712006,-0.1975005567073822
1775721949721713400,4.25671337890625,0.389689177274704,-0.23106171190738678,-0.12179487943649292
1775721949731726300,4.266726318359375,0.4299822747707367,-0.27740365266799927,-0.06546822190284729
1775721949741739300,4.2767392578125,0.4596935510635376,-0.29006803035736084,-0.044024184346199036
1775721949751753200,4.286753173828125,0.47435426712036133,-0.2720365822315216,-0.04009468853473663
1775721949761766400,4.296766357421875,0.47844886779785156,-0.25491803884506226,-0.038538072258234024
1775721949771779600,4.306779541015625,0.45432382822036743,-0.22808963060379028,-0.016214122995734215
1775721949781793500,4.31679345703125,0.4018148183822632,-0.2091398984193802,0.010731207206845284
1775721949791806700,4.326806640625,0.33111801743507385,-0.17969439923763275,0.029701435938477516
1775721949801819600,4.336819580078125,0.25910505652427673,-0.11890587955713272,0.04718508943915367
1775721949811832600,4.34683251953125,0.1828923225402832,-0.04680079594254494,0.060147758573293686
1775721949821846800,4.3568466796875,0.10690248012542725,0.016138223931193352,0.0668053925037384
1775721949831859700,4.366859619140625,0.03801582381129265,0.05818234756588936,0.07268938422203064
1775721949841872600,4.37687255859375,-0.007561779581010342,0.062071360647678375,0.0673164576292038
1775721949851886800,4.386886962890625,-0.04490329325199127,0.051180098205804825,0.049038115888834
1775721949861899500,4.3968994140625,-0.06779902428388596,0.03482908755540848,0.010451842099428177
1775721949871912700,4.40691259765625,-0.08125544339418411,0.012144546955823898,-0.03887016698718071
1775721949881925600,4.416925537109375,-0.08405522257089615,-0.031243938952684402,-0.09580641984939575
1775721949891939600,4.426939697265625,-0.07265768945217133,-0.04897340014576912,-0.13714534044265747
1775721949901952800,4.436952880859375,-0.05756848677992821,-0.04265185445547104,-0.15403777360916138
1775721949911965700,4.446965576171875,-0.04935316741466522,-0.01655074767768383,-0.16407576203346252
1775721949921979600,4.456979736328125,-0.036846697330474854,0.03299789875745773,-0.18409819900989532
1775721949931992600,4.46699267578125,-0.015460981987416744,0.10343743860721588,-0.19754156470298767
1775721949942005800,4.477005859375,0.007075219880789518,0.13035693764686584,-0.19716979563236237
1775721949952018700,4.487018798828125,0.04813610389828682,0.1115904450416565,-0.17251531779766083
1775721949962032600,4.49703271484375,0.08586084842681885,0.05774931609630585,-0.13149704039096832
1775721949972045600,4.507045654296875,0.11379207670688629,0.014476411044597626,-0.08614926785230637
1775721949982058800,4.517058837890625,0.1394502967596054,-0.01564021222293377,-0.07372508943080902
1775721949992072700,4.52707275390625,0.16268984973430634,-0.04833211377263069,-0.09740830957889557
1775721950002085600,4.537085693359375,0.18090985715389252,-0.06380614638328552,-0.13977894186973572
1775721950012098600,4.5470986328125,0.20056399703025818,-0.08788058906793594,-0.18070080876350403
1775721950022111700,4.55711181640625,0.23226413130760193,-0.12743119895458221,-0.20812204480171204
1775721950032125700,4.567125732421875,0.24795708060264587,-0.1816512942314148,-0.20645597577095032
1775721950042138600,4.577138671875,0.24585583806037903,-0.2192668318748474,-0.1814267784357071
1775721950052151600,4.587151611328125,0.2378426492214203,-0.22007137537002563,-0.15647003054618835
1775721950062165800,4.597165771484375,0.209471195936203,-0.15312910079956055,-0.1254892200231552
1775721950072178700,4.6071787109375,0.17692551016807556,-0.030422354117035866,-0.08776553720235825
1775721950082191600,4.617191650390625,0.14243996143341064,0.08636018633842468,-0.04742663726210594
1775721950092204500,4.62720458984375,0.11421738564968109,0.18524761497974396,-0.0041151163168251514
1775721950102218800,4.63721875,0.09466978162527084,0.23963390290737152,0.04030108451843262
1775721950112231700,4.647231689453125,0.08763397485017776,0.22889550030231476,0.05885053426027298
1775721950122244600,4.65724462890625,0.09269531816244125,0.15448598563671112,0.04488465189933777
1775721950132258600,4.667258544921875,0.09627007693052292,0.0542730912566185,0.0161262396723032
1775721950142271700,4.677271728515625,0.10225366801023483,-0.0515633262693882,-0.03925472870469093
1775721950152284700,4.68728466796875,0.11875967681407928,-0.1380409598350525,-0.12238796055316925
1775721950162297600,4.697297607421875,0.11385706067085266,-0.13074150681495667,-0.18496398627758026
1775721950172311600,4.7073115234375,0.08586324006319046,-0.09105613827705383,-0.22467465698719025
1775721950182324700,4.71732470703125,0.03389351814985275,-0.04225797578692436,-0.24573414027690887
1775721950192337700,4.727337646484375,-0.01053093746304512,0.031805332750082016,-0.23417441546916962
1775721950202350600,4.7373505859375,-0.0455658882856369,0.10771474242210388,-0.19135558605194092
1775721950212364800,4.74736474609375,-0.0826067253947258,0.1466381698846817,-0.13276523351669312
1775721950222377500,4.75737744140625,-0.11344506591558456,0.11931121349334717,-0.09288786351680756
1775721950232390700,4.767390625,-0.1341008096933365,0.05354365333914757,-0.07246700674295425
1775721950242404600,4.777404541015625,-0.13005013763904572,-0.004018976353108883,-0.07403986901044846
1775721950252417500,4.78741748046875,-0.10771580785512924,-0.042021218687295914,-0.10051196068525314
1775721950262430700,4.7974306640625,-0.07206806540489197,-0.057138651609420776,-0.15524791181087494
1775721950272443600,4.807443603515625,-0.003968908917158842,-0.08862094581127167,-0.22189298272132874
1775721950282457600,4.81745751953125,0.05832322686910629,-0.10082408040761948,-0.23472276329994202
1775721950292470800,4.827470703125,0.07964955270290375,-0.057967960834503174,-0.16705529391765594
1775721950302483500,4.8374833984375,0.08870670199394226,-0.039621178060770035,-0.09421145170927048
1775721950312497700,4.84749755859375,0.08934426307678223,-0.009092031978070736,-0.0420992486178875
1775721950322510600,4.857510498046875,0.09608019143342972,0.02882365882396698,-0.027962658554315567
1775721950332523500,4.8675234375,0.08697058260440826,0.04685752093791962,-0.0328676700592041
1775721950342536700,4.87753662109375,0.06878039240837097,0.042393263429403305,-0.03524826839566231
1775721950352550700,4.887550537109375,0.042387139052152634,0.00990243162959814,-0.040044356137514114
1775721950362563600,4.8975634765625,-0.0008583368035033345,0.0009856359101831913,-0.04258820787072182
1775721950372576800,4.90757666015625,-0.05824492871761322,0.034147582948207855,-0.05808354169130325
1775721950382590500,4.917590576171875,-0.09338081628084183,0.07507184892892838,-0.09859741479158401
1775721950392603600,4.927603759765625,-0.1287286877632141,0.13177001476287842,-0.16179528832435608
1775721950402616800,4.937616943359375,-0.1687309592962265,0.20001430809497833,-0.20951861143112183
1775721950412629500,4.94762939453125,-0.1743643432855606,0.228447824716568,-0.2298470437526703
1775721950422643700,4.957643798828125,-0.16663798689842224,0.2274712324142456,-0.19669468700885773
1775721950432656600,4.96765673828125,-0.16661374270915985,0.19205573201179504,-0.13987614214420319
1775721950442669600,4.977669677734375,-0.15396933257579803,0.13941727578639984,-0.11232201755046844
1775721950452682800,4.987682861328125,-0.13527420163154602,0.10566224902868271,-0.13946016132831573
1775721950462696400,4.997696533203125,-0.13571256399154663,0.07700583338737488,-0.19477321207523346
1775721950472709600,5.007709716796875,-0.13145603239536285,0.06102660298347473,-0.2650340497493744
1775721950482722800,5.017722900390625,-0.11168339103460312,0.05497563257813454,-0.3194331228733063
1775721950492736500,5.027736572265625,-0.08715461194515228,0.02756131999194622,-0.35596609115600586
1775721950502749700,5.037749755859375,-0.06371266394853592,-0.02148505114018917,-0.3812437653541565
1775721950512762600,5.0477626953125,-0.03329723700881004,-0.09180288761854172,-0.3954535722732544
1775721950522775600,5.057775634765625,-0.016342753544449806,-0.13454928994178772,-0.37532514333724976
1775721950532789800,5.067789794921875,-0.028297685086727142,-0.14990293979644775,-0.34375524520874023
1775721950542802700,5.077802734375,-0.03171718493103981,-0.11371245235204697,-0.32360416650772095
1775721950552815600,5.087815673828125,-0.01386894378811121,-0.05433274805545807,-0.3296077251434326
1775721950562829800,5.097829833984375,0.002234125742688775,-0.004898352082818747,-0.3574353754520416
1775721950572842500,5.107842529296875,0.014901718124747276,-0.011874768882989883,-0.3803800940513611
1775721950582855700,5.117855712890625,0.03251000493764877,-0.055100005120038986,-0.37213975191116333
1775721950592868600,5.12786865234375,0.047996021807193756,-0.10423372685909271,-0.3440212905406952
1775721950602882600,5.137882568359375,0.05777701362967491,-0.12259915471076965,-0.2999025583267212
1775721950612895700,5.147895751953125,0.0692158192396164,-0.1035815179347992,-0.27988091111183167
1775721950622908700,5.15790869140625,0.07270323485136032,-0.0915466919541359,-0.3002604842185974
1775721950632922600,5.167922607421875,0.06196456775069237,-0.09372995048761368,-0.3319595754146576
1775721950642935800,5.177935791015625,0.05258677899837494,-0.0823364183306694,-0.36632364988327026
1775721950652948700,5.18794873046875,0.06541468948125839,-0.07025179266929626,-0.3923070728778839
1775721950662961700,5.197961669921875,0.08493486791849136,-0.06099837273359299,-0.3688288927078247
1775721950672975600,5.2079755859375,0.10443053394556046,-0.06288495659828186,-0.3188996911048889
1775721950682988500,5.217988525390625,0.1205141618847847,-0.06825841963291168,-0.28268522024154663
1775721950693001700,5.228001708984375,0.1285763531923294,-0.0616774782538414,-0.28680434823036194
1775721950703014700,5.2380146484375,0.12459173053503036,-0.04109390825033188,-0.3093855381011963
1775721950713028600,5.248028564453125,0.12054266035556793,-0.02859089896082878,-0.3406875431537628
1775721950723041500,5.25804150390625,0.10512695461511612,-0.02827531285583973,-0.334993451833725
1775721950733054700,5.2680546875,0.07260842621326447,0.009093896485865116,-0.2794873118400574
1775721950743068700,5.278068603515625,0.049305498600006104,0.06970690935850143,-0.23349930346012115
1775721950753081600,5.28808154296875,0.035580363124608994,0.11297155916690826,-0.23555339872837067
1775721950763094800,5.2980947265625,0.03044871985912323,0.1727006733417511,-0.26545456051826477
1775721950773107200,5.308107177734375,0.03394119068980217,0.19411301612854004,-0.31218212842941284
1775721950783121400,5.318121337890625,0.03473028168082237,0.15368463099002838,-0.3462492823600769
1775721950793134300,5.32813427734375,0.04090056195855141,0.10616425424814224,-0.33907926082611084
1775721950803147300,5.338147216796875,0.05377854406833649,0.054061371833086014,-0.31958305835723877
1775721950813161500,5.348161376953125,0.06831593811511993,-0.01528920792043209,-0.31597021222114563
1775721950823174400,5.35817431640625,0.07342947274446487,-0.07868708670139313,-0.32525452971458435
1775721950833187300,5.368187255859375,0.0648823231458664,-0.13013750314712524,-0.3332490622997284
1775721950843200500,5.378200439453125,0.06101967766880989,-0.1600370705127716,-0.3247106969356537
1775721950853214500,5.38821435546875,0.05705263465642929,-0.15949271619319916,-0.29577094316482544
1775721950863227400,5.398227294921875,0.05802442133426666,-0.12926344573497772,-0.25719743967056274
1775721950873240600,5.408240478515625,0.05901538208127022,-0.07776643335819244,-0.22070202231407166
1775721950883253200,5.418253173828125,0.04026539623737335,-0.030067088082432747,-0.17308230698108673
1775721950893267500,5.428267333984375,0.00777563126757741,-0.00044022052315995097,-0.1275627464056015
1775721950903280400,5.4382802734375,-0.024381771683692932,0.029342176392674446,-0.11045833677053452
1775721950913293300,5.448293212890625,-0.06377152353525162,0.04633127897977829,-0.12880271673202515
1775721950923307500,5.4583076171875,-0.10623136162757874,0.05342274531722069,-0.16535726189613342
1775721950933320200,5.4683203125,-0.12552650272846222,0.05068341642618179,-0.21112848818302155
1775721950943333400,5.47833349609375,-0.1284511834383011,0.030594127252697945,-0.24897226691246033
1775721950953346600,5.4883466796875,-0.13867132365703583,0.03766562044620514,-0.25374677777290344
1775721950963360300,5.4983603515625,-0.142617329955101,0.06515663117170334,-0.23743972182273865
1775721950973373400,5.50837353515625,-0.12406814843416214,0.08077740669250488,-0.2288060188293457
1775721950983386600,5.51838671875,-0.09189743548631668,0.09507405012845993,-0.22303281724452972
1775721950993399300,5.5283994140625,-0.0545833520591259,0.07922451198101044,-0.225571870803833
1775721951003413500,5.53841357421875,-0.022710638120770454,0.027182618156075478,-0.227383092045784
1775721951013426200,5.54842626953125,0.012539760209619999,0.02948572114109993,-0.19655433297157288
1775721951023439400,5.558439453125,0.061770156025886536,0.04578692838549614,-0.1573246419429779
1775721951033453600,5.56845361328125,0.0980013981461525,0.044566404074430466,-0.1212068498134613
1775721951043466200,5.57846630859375,0.11981375515460968,0.03057442046701908,-0.10011674463748932
1775721951053479400,5.5884794921875,0.12497389316558838,0.01756461337208748,-0.10032474249601364
1775721951063492400,5.598492431640625,0.11846911907196045,-0.0024232103023678064,-0.1340629905462265
1775721951073506300,5.60850634765625,0.11894635856151581,0.003007774008437991,-0.1696726530790329
1775721951083519500,5.61851953125,0.13363422453403473,0.025844912976026535,-0.18392722308635712
1775721951093532400,5.628532470703125,0.15363003313541412,0.03494946286082268,-0.17742511630058289
1775721951103545300,5.63854541015625,0.18319565057754517,0.03123941272497177,-0.14656813442707062
1775721951113559600,5.6485595703125,0.22819268703460693,0.014340856112539768,-0.10202676802873611
1775721951123572200,5.658572265625,0.26295119524002075,-0.04318768531084061,-0.06731272488832474
1775721951133585400,5.66858544921875,0.27122005820274353,-0.08110150694847107,-0.037702370434999466
1775721951143599600,5.678599609375,0.2565937042236328,-0.10609074681997299,-0.03539687395095825
1775721951153612300,5.6886123046875,0.2440507560968399,-0.10206112265586853,-0.04206942394375801
1775721951163625500,5.69862548828125,0.23312033712863922,-0.09554543346166611,-0.04909564182162285
1775721951173638400,5.708638427734375,0.22082798182964325,-0.07627452909946442,-0.046758983284235
1775721951183652400,5.71865234375,0.2153778225183487,-0.05698658525943756,-0.036500487476587296
1775721951193665500,5.72866552734375,0.20698539912700653,-0.048355814069509506,-0.01486603170633316
1775721951203678500,5.738678466796875,0.19722677767276764,-0.08028152585029602,0.0032743564806878567
1775721951213692400,5.7486923828125,0.17214593291282654,-0.10719409584999084,0.02905162423849106
1775721951223705300,5.758705322265625,0.14126472175121307,-0.05634529888629913,0.05668165534734726
1775721951233718300,5.76871826171875,0.1185586079955101,0.023680562153458595,0.051962800323963165
1775721951243731500,5.7787314453125,0.10115617513656616,0.0807608887553215,0.02340705506503582
1775721951253745400,5.788745361328125,0.08968647569417953,0.09126253426074982,-0.007928230799734592
1775721951263758300,5.79875830078125,0.07423321902751923,0.05926012620329857,-0.024441692978143692
1775721951273771300,5.808771240234375,0.0641677975654602,0.02743295580148697,-0.0024048343766480684
1775721951283784400,5.818784423828125,0.06604745984077454,-0.02406352385878563,0.020911939442157745
1775721951293798400,5.82879833984375,0.08160831034183502,-0.05222991481423378,0.03634975105524063
1775721951303811300,5.838811279296875,0.1019282266497612,-0.032215725630521774,0.03875911235809326
1775721951313824500,5.848824462890625,0.11785313487052917,-0.0057042245753109455,0.02828596718609333
1775721951323838500,5.85883837890625,0.12520478665828705,0.003982490859925747,0.023726634681224823
1775721951333851400,5.868851318359375,0.11342136561870575,0.002025333931669593,0.04540982469916344
1775721951343864300,5.8788642578125,0.09131446480751038,-0.008163920603692532,0.06465861946344376
1775721951353877200,5.888877197265625,0.06801127642393112,0.0068113007582724094,0.05342434346675873
1775721951363891500,5.898891357421875,0.05579641833901405,0.08550558239221573,0.029507825151085854
1775721951373904400,5.908904296875,0.05167624354362488,0.13170689344406128,0.0023901870008558035
1775721951383917300,5.918917236328125,0.04709374159574509,0.13539297878742218,-0.007199323270469904
1775721951393930500,5.928930419921875,0.04869936406612396,0.09387589246034622,-0.006121009588241577
1775721951403944400,5.9389443359375,0.05108688771724701,0.0375007688999176,0.0003779025573749095
1775721951413957400,5.948957275390625,0.04736645147204399,-0.031019967049360275,0.0037087181117385626
1775721951423970600,5.958970458984375,0.023815583437681198,-0.07459993660449982,0.0029726203065365553
1775721951433984500,5.968984619140625,-0.005511411931365728,-0.06234486773610115,-0.0018224010709673166
1775721951443997400,5.97899755859375,-0.027725636959075928,-0.038770563900470734,-0.03409751504659653
1775721951454010400,5.98901025390625,-0.048226650804281235,-0.010784204117953777,-0.07314105331897736
1775721951464023300,5.999023193359375,-0.06736945360898972,0.035780634731054306,-0.09535901248455048
1775721951474037500,6.00903759765625,-0.07801757007837296,0.0642133429646492,-0.0988948866724968
1775721951484050400,6.019050537109375,-0.07689424604177475,0.060332316905260086,-0.08864437788724899
1775721951494063400,6.0290634765625,-0.071224644780159,0.041244108229875565,-0.07181240618228912
1775721951504076500,6.03907666015625,-0.05661693960428238,0.029164010658860207,-0.059909138828516006
1775721951514090200,6.04909033203125,-0.029456691816449165,0.04506095126271248,-0.05181233212351799
1775721951524103400,6.059103515625,-0.001740109408274293,0.05493035912513733,-0.04252668842673302
1775721951534116600,6.06911669921875,0.016116652637720108,0.05577884241938591,-0.018399247899651527
1775721951544130300,6.07913037109375,0.03864699602127075,0.026860909536480904,-0.006980677600950003
1775721951554143500,6.0891435546875,0.0650506392121315,0.006792924832552671,-0.0021166803780943155
1775721951564156400,6.099156494140625,0.09960462152957916,0.010517355985939503,0.00933011807501316
1775721951574169300,6.10916943359375,0.13718634843826294,0.0017787253018468618,0.01937902346253395
1775721951584183600,6.11918359375,0.15459437668323517,-0.009108543395996094,0.0363478884100914
1775721951594196200,6.1291962890625,0.15348249673843384,-0.013776532374322414,0.045705970376729965
1775721951604209400,6.13920947265625,0.14491191506385803,-0.022822225466370583,0.03225327655673027
1775721951614222300,6.149222412109375,0.1335415542125702,-0.0269453302025795,0.0025784724857658148
1775721951624236300,6.159236328125,0.12539653480052948,-0.014948323369026184,-0.02172180637717247
1775721951634249500,6.16924951171875,0.11518597602844238,-0.00866406224668026,-0.0347963310778141
1775721951644262400,6.179262451171875,0.11039575189352036,-0.0036906085442751646,-0.02858663722872734
1775721951654276400,6.1892763671875,0.10929267108440399,0.008590824902057648,-0.005570800509303808
1775721951664289500,6.19928955078125,0.11153451353311539,0.03531937301158905,0.010999920777976513
1775721951674302500,6.209302490234375,0.11912213265895844,0.0686778649687767,0.011757323518395424
1775721951684315400,6.2193154296875,0.12323910742998123,0.08911442756652832,0.02165655978024006
1775721951694329600,6.22932958984375,0.11880947649478912,0.07322068512439728,0.03991732373833656
1775721951704342300,6.23934228515625,0.11843103915452957,0.03742992877960205,0.06258109211921692
1775721951714355500,6.24935546875,0.1106783077120781,0.008161523379385471,0.07481218874454498
1775721951724368400,6.259368408203125,0.10754057765007019,-0.002371544949710369,0.0709756389260292
1775721951734382300,6.26938232421875,0.10838772356510162,0.005571332760155201,0.06252755969762802
1775721951744395500,6.2793955078125,0.110769122838974,0.010290187783539295,0.050324954092502594
1775721951754408400,6.289408447265625,0.12812547385692596,0.003369963960722089,0.04062945023179054
1775721951764422400,6.29942236328125,0.14236833155155182,-0.0043771713972091675,0.0383194275200367
1775721951774435600,6.309435546875,0.1401488482952118,-0.027303526178002357,0.04469742998480797
1775721951784448500,6.319448486328125,0.12008272856473923,-0.042688872665166855,0.06010248512029648
1775721951794461700,6.329461669921875,0.09296988695859909,-0.015469503588974476,0.08238594979047775
1775721951804475600,6.3394755859375,0.07890146970748901,0.038545262068510056,0.10151570290327072
1775721951814488600,6.349488525390625,0.054729290306568146,0.08860763162374496,0.1215280294418335
1775721951824501500,6.35950146484375,0.030830349773168564,0.12282685190439224,0.14104607701301575
1775721951834514700,6.3695146484375,0.0087807085365057,0.14207059144973755,0.14770850539207458
1775721951844528600,6.379528564453125,-0.003483947366476059,0.17730900645256042,0.14169055223464966
1775721951854541600,6.38954150390625,-0.01872415281832218,0.17143353819847107,0.1335250437259674
1775721951864554800,6.3995546875,-0.04090775176882744,0.13578499853610992,0.15939924120903015
1775721951874567400,6.4095673828125,-0.06847093999385834,0.09053682535886765,0.20960462093353271
1775721951884581600,6.41958154296875,-0.09342209249734879,0.05392927676439285,0.2560861110687256
1775721951894594600,6.429594482421875,-0.10841488838195801,0.09263486415147781,0.2921016216278076
1775721951904607500,6.439607421875,-0.11749760061502457,0.1519128382205963,0.30036622285842896
1775721951914621700,6.44962158203125,-0.13095881044864655,0.18309205770492554,0.28815484046936035
1775721951924634600,6.459634521484375,-0.1434013694524765,0.1982097625732422,0.27324458956718445
1775721951934647600,6.4696474609375,-0.1546793282032013,0.18220283091068268,0.26137489080429077
1775721951944660700,6.47966064453125,-0.1545749306678772,0.1343895047903061,0.25673991441726685
1775721951954674700,6.4896748046875,-0.14393293857574463,0.0725354552268982,0.24715092778205872
1775721951964687600,6.4996875,-0.13256949186325073,0.020315924659371376,0.21669901907444
1775721951974700800,6.50970068359375,-0.1148269847035408,-0.012458800338208675,0.17562615871429443
1775721951984713500,6.51971337890625,-0.10116523504257202,-0.037756167352199554,0.13284486532211304
1775721951994727700,6.529727783203125,-0.08296305686235428,-0.06338110566139221,0.09845387190580368
1775721952004740600,6.53974072265625,-0.04916967824101448,-0.10095777362585068,0.06005081906914711
1775721952014753500,6.54975341796875,-0.014391455799341202,-0.12739869952201843,0.03352919965982437
1775721952024767700,6.559767822265625,0.043237484991550446,-0.12125691771507263,0.03235980495810509
1775721952034780400,6.569780517578125,0.11477825045585632,-0.09687861055135727,0.050521764904260635
1775721952044793600,6.579793701171875,0.18127605319023132,-0.08324961364269257,0.08587069809436798
1775721952054806800,6.589806884765625,0.21298231184482574,-0.07216393947601318,0.13499590754508972
1775721952064820500,6.599820556640625,0.22212333977222443,-0.0744534581899643,0.1896708607673645
1775721952074833700,6.609833740234375,0.22807444632053375,-0.06578114628791809,0.24950569868087769
1775721952084846600,6.6198466796875,0.24437165260314941,-0.05410504713654518,0.29293546080589294
1775721952094859500,6.629859619140625,0.27993205189704895,-0.019811788573861122,0.31615450978279114
1775721952104873700,6.639873779296875,0.26882535219192505,0.009132778272032738,0.3464072048664093
1775721952114886400,6.649886474609375,0.20738168060779572,-0.02027544379234314,0.34910500049591064
1775721952124899600,6.659899658203125,0.15672756731510162,-0.02863297611474991,0.31192514300346375
1775721952134912500,6.66991259765625,0.09522878378629684,0.006104497704654932,0.2817464768886566
1775721952144926500,6.679926513671875,0.020203005522489548,0.05444673076272011,0.2783906161785126
1775721952154939600,6.689939697265625,-0.03211665898561478,0.08638975024223328,0.27935492992401123
1775721952164952600,6.69995263671875,-0.07382495701313019,0.10264009237289429,0.2815789580345154
1775721952174966500,6.709966552734375,-0.10412906855344772,0.1105496808886528,0.278171181678772
1775721952184979700,6.719979736328125,-0.11355932056903839,0.09392356872558594,0.259977787733078
1775721952194992600,6.72999267578125,-0.11400220543146133,0.06509590893983841,0.2339898645877838
1775721952205005600,6.740005615234375,-0.11865341663360596,0.04928632453083992,0.2027384638786316
1775721952215019800,6.750019775390625,-0.14192011952400208,0.03672259300947189,0.17853645980358124
1775721952225032400,6.760032470703125,-0.19206450879573822,0.01756115071475506,0.15999393165111542
1775721952235045600,6.770045654296875,-0.24047333002090454,0.018014419823884964,0.12613503634929657
1775721952245058600,6.78005859375,-0.2686288058757782,0.017417073249816895,0.06731618940830231
1775721952255072500,6.790072509765625,-0.27548378705978394,-0.010032393969595432,0.006627542432397604
1775721952265085700,6.800085693359375,-0.23451103270053864,-0.01737845689058304,-0.016562465578317642
1775721952275098600,6.8100986328125,-0.16580307483673096,-0.03803739696741104,0.009782589972019196
1775721952285112600,6.820112548828125,-0.12470171600580215,-0.0789795070886612,0.06688155978918076
1775721952295125800,6.830125732421875,-0.08706352859735489,-0.11664298921823502,0.11442484706640244
1775721952305138700,6.840138671875,-0.058161042630672455,-0.14425916969776154,0.13783909380435944
1775721952315151600,6.850151611328125,-0.037338316440582275,-0.1818704605102539,0.13190823793411255
1775721952325165600,6.86016552734375,-0.017490576952695847,-0.18960349261760712,0.11005965620279312
1775721952335178500,6.870178466796875,0.005105013493448496,-0.20390811562538147,0.09355365484952927
1775721952345191700,6.880191650390625,0.024580709636211395,-0.22697855532169342,0.09265989810228348
1775721952355204600,6.89020458984375,0.017434917390346527,-0.23718991875648499,0.11197127401828766
1775721952365218600,6.900218505859375,-0.010412161238491535,-0.24085788428783417,0.12784051895141602
1775721952375231500,6.9102314453125,-0.0501910001039505,-0.23377414047718048,0.12435497343540192
1775721952385244700,6.92024462890625,-0.08347678184509277,-0.23281194269657135,0.08686193078756332
1775721952395257600,6.930257568359375,-0.09101273119449615,-0.2603799104690552,0.026433737948536873
1775721952405271600,6.940271484375,-0.09057064354419708,-0.29119083285331726,-0.017490044236183167
1775721952415284700,6.95028466796875,-0.09773615002632141,-0.3469044268131256,-0.03201945126056671
1775721952425297400,6.96029736328125,-0.10562576353549957,-0.37820136547088623,-0.015973374247550964
1775721952435310600,6.970310546875,-0.10811342298984528,-0.37472647428512573,0.0022498385515064
1775721952445324500,6.980324462890625,-0.10585532337427139,-0.3760735094547272,-0.006924218963831663
1775721952455337500,6.99033740234375,-0.09078583121299744,-0.326250284910202,-0.01858407072722912
1775721952465350700,7.0003505859375,-0.03828666731715202,-0.28559285402297974,-0.023302925750613213
1775721952475364600,7.010364501953125,0.030969634652137756,-0.3012828826904297,0.007012103218585253
1775721952485377500,7.02037744140625,0.1125212162733078,-0.3428944945335388,0.06847546249628067
1775721952495390700,7.030390625,0.20695850253105164,-0.3742572069168091,0.1320781409740448
1775721952505403400,7.0404033203125,0.2943253815174103,-0.40126514434814453,0.16718526184558868
1775721952515417600,7.05041748046875,0.36155661940574646,-0.40018388628959656,0.17513799667358398
1775721952525430800,7.0604306640625,0.4109601080417633,-0.41572076082229614,0.16666728258132935
1775721952535443500,7.070443359375,0.44071879982948303,-0.4340156316757202,0.17394569516181946
1775721952545456600,7.08045654296875,0.4615095555782318,-0.4424828886985779,0.20560136437416077
1775721952555470600,7.090470703125,0.45992445945739746,-0.4266892671585083,0.2625479996204376
1775721952565483500,7.1004833984375,0.42591774463653564,-0.33384400606155396,0.33808961510658264
1775721952575496700,7.11049658203125,0.36049720644950867,-0.20883789658546448,0.40026912093162537
1775721952585510400,7.120510498046875,0.2914622128009796,-0.10608382523059845,0.41878047585487366
1775721952595523600,7.130523681640625,0.2148750275373459,-0.021752433851361275,0.4208891689777374
1775721952605536800,7.140536865234375,0.14488714933395386,0.005261873826384544,0.3975047469139099
1775721952615549400,7.150549560546875,0.07196393609046936,-0.052494898438453674,0.34896063804626465
1775721952625563600,7.160563720703125,-0.027890753000974655,-0.1524936705827713,0.29722633957862854
1775721952635576800,7.170576904296875,-0.14760863780975342,-0.1804257035255432,0.2735636234283447
1775721952645589500,7.180589599609375,-0.2628808915615082,-0.1267094761133194,0.2541358768939972
1775721952655602700,7.190602783203125,-0.3784865736961365,-0.045223671942949295,0.22595509886741638
1775721952665616600,7.20061669921875,-0.46037453413009644,0.07858748733997345,0.2145618349313736
1775721952675629600,7.210629638671875,-0.5004785656929016,0.23384365439414978,0.23275016248226166
1775721952685642800,7.220642822265625,-0.510097086429596,0.2855800688266754,0.2575700283050537
1775721952695655700,7.23065576171875,-0.4881337285041809,0.25400590896606445,0.28748929500579834
1775721952705669600,7.240669677734375,-0.4440629482269287,0.23736515641212463,0.32776349782943726
1775721952715682600,7.2506826171875,-0.3972717225551605,0.18287500739097595,0.34153950214385986
1775721952725695500,7.260695556640625,-0.37174347043037415,0.10332106053829193,0.33597108721733093
1775721952735708700,7.270708740234375,-0.3602777421474457,0.06390334665775299,0.31247588992118835
1775721952745722600,7.28072265625,-0.33200883865356445,0.060010604560375214,0.26874810457229614
1775721952755735600,7.290735595703125,-0.31845253705978394,0.07609077543020248,0.2490827888250351
1775721952765748500,7.30074853515625,-0.34190914034843445,0.06865229457616806,0.25772687792778015
1775721952775762700,7.3107626953125,-0.3738827705383301,0.014009292237460613,0.2525715231895447
1775721952785775600,7.320775634765625,-0.4009658098220825,-0.0015062838792800903,0.22588026523590088
1775721952795788800,7.330788818359375,-0.43116071820259094,0.04205584153532982,0.1806611269712448
1775721952805801700,7.3408017578125,-0.45698538422584534,0.0848483145236969,0.12515711784362793
1775721952815815700,7.350815673828125,-0.46368536353111267,0.14315663278102875,0.09671536087989807
1775721952825828900,7.360828857421875,-0.47060638666152954,0.17718623578548431,0.09719020128250122
1775721952835841500,7.370841552734375,-0.4542918801307678,0.16689710319042206,0.10572429746389389
1775721952845854700,7.380854736328125,-0.42172566056251526,0.14446502923965454,0.10078120231628418
1775721952855869000,7.390868896484375,-0.3886982202529907,0.13692322373390198,0.07487743347883224
1775721952865881600,7.400881591796875,-0.33657002449035645,0.12989674508571625,0.0398949533700943
1775721952875894800,7.410894775390625,-0.27590587735176086,0.1261768490076065,0.019175026565790176
1775721952885907700,7.42090771484375,-0.19351646304130554,0.11145249009132385,0.016086291521787643
1775721952895921700,7.430921630859375,-0.11667601764202118,0.060564011335372925,0.029884662479162216
1775721952905934800,7.440934814453125,-0.07258312404155731,0.026754915714263916,0.05859300494194031
1775721952915947800,7.45094775390625,-0.03277738764882088,-0.006352171767503023,0.06302770227193832
1775721952925960700,7.460960693359375,0.01678883284330368,-0.026284068822860718,0.033488985151052475
1775721952935975000,7.470974853515625,0.04843038320541382,-0.03136670961976051,-0.004376638680696487
1775721952945987600,7.480987548828125,0.06293928623199463,-0.037460822612047195,-0.03387327864766121
1775721952956000800,7.491000732421875,0.077844999730587,-0.060317136347293854,-0.06591296941041946
1775721952966014700,7.5010146484375,0.07900480180978775,-0.09148836880922318,-0.09085933119058609
1775721952976027600,7.511027587890625,0.057247843593358994,-0.11382696777582169,-0.09531666338443756
1775721952986040800,7.521040771484375,0.02840767242014408,-0.08332818001508713,-0.08578547835350037
1775721952996053800,7.5310537109375,0.005595034919679165,-0.0280968826264143,-0.08824969828128815
1775721953006067700,7.541067626953125,-0.014433001168072224,0.03628982976078987,-0.0924239382147789
1775721953016080600,7.55108056640625,-0.029292374849319458,0.11254572123289108,-0.08766913414001465
1775721953026093800,7.56109375,-0.016570454463362694,0.15520529448986053,-0.09061458706855774
1775721953036106800,7.571106689453125,0.01823519729077816,0.14281973242759705,-0.09746424108743668
1775721953046120700,7.58112060546875,0.05726275593042374,0.09225429594516754,-0.09030725806951523
1775721953056133600,7.591133544921875,0.08776713907718658,0.03563016653060913,-0.06985817849636078
1775721953066146800,7.601146728515625,0.1144818365573883,0.006434996146708727,-0.05590587481856346
1775721953076159700,7.61115966796875,0.13332237303256989,-0.008732771500945091,-0.05976106971502304
1775721953086173700,7.621173583984375,0.15090003609657288,-0.009520800784230232,-0.08807766437530518
1775721953096186600,7.6311865234375,0.19007833302021027,-0.011603392660617828,-0.13652455806732178
1775721953106199800,7.64119970703125,0.23480957746505737,-0.01852814480662346,-0.1730404943227768
1775721953116212700,7.651212646484375,0.27242806553840637,-0.036808080971241,-0.16963723301887512
1775721953126226700,7.661226806640625,0.2959024906158447,-0.05097370222210884,-0.12786981463432312
1775721953136239900,7.671239990234375,0.3082451820373535,-0.06798943877220154,-0.08758524060249329
1775721953146252500,7.68125244140625,0.31058555841445923,-0.06878998130559921,-0.06937028467655182
1775721953156266800,7.691266845703125,0.30857568979263306,-0.03404052555561066,-0.0781901404261589
1775721953166279700,7.70127978515625,0.284711629152298,-0.004979046061635017,-0.10915631800889969
1775721953176292600,7.711292724609375,0.24756212532520294,-0.004892759490758181,-0.1435859203338623
1775721953186305800,7.721305908203125,0.19852347671985626,-0.018800850957632065,-0.15899311006069183
1775721953196319700,7.73131982421875,0.15115542709827423,-0.03255767747759819,-0.15862585604190826
1775721953206332700,7.741332763671875,0.09728846698999405,-0.028655080124735832,-0.16401582956314087
1775721953216345900,7.751345947265625,0.05107303708791733,-0.007749532349407673,-0.193685844540596
1775721953226358500,7.761358642578125,0.016826650127768517,0.034571293741464615,-0.2386743575334549
1775721953236372700,7.771372802734375,-0.013440174981951714,0.07844340801239014,-0.27039819955825806
1775721953246386000,7.781385986328125,-0.027839088812470436,0.09892311692237854,-0.2730957269668579
1775721953256398600,7.791398681640625,-0.017878333106637,0.10305821150541306,-0.25073501467704773
1775721953266411800,7.801411865234375,0.01631585694849491,0.1070777177810669,-0.21055804193019867
1775721953276425700,7.81142578125,0.07268086075782776,0.09991301596164703,-0.18613046407699585
1775721953286438700,7.821438720703125,0.13200436532497406,0.07331016659736633,-0.18166087567806244
1775721953296451800,7.831451904296875,0.16751842200756073,0.039441946893930435,-0.1897776573896408
1775721953306464800,7.84146484375,0.16114947199821472,-0.004658934194594622,-0.2139999121427536
1775721953316478700,7.851478759765625,0.1292346864938736,-0.03183729201555252,-0.23379863798618317
1775721953326492000,7.861491943359375,0.09523064643144608,-0.02034655027091503,-0.26249128580093384
1775721953336504600,7.871504638671875,0.07137937098741531,-0.01088646985590458,-0.3005707561969757
1775721953346517800,7.881517822265625,0.05738472938537598,0.0003483414766378701,-0.3347918391227722
1775721953356531700,7.89153173828125,0.053474411368370056,-0.006298642139881849,-0.35560736060142517
1775721953366544600,7.901544677734375,0.0691620260477066,-0.03533269092440605,-0.36824408173561096
1775721953376557800,7.911557861328125,0.06720806658267975,-0.04724021628499031,-0.3592529594898224
1775721953386571500,7.921571533203125,0.05907716974616051,-0.04315705597400665,-0.32357221841812134
1775721953396584700,7.931584716796875,0.09582692384719849,-0.037513554096221924,-0.31027930974960327
1775721953406597600,7.94159765625,0.15566948056221008,-0.05780896916985512,-0.3141299784183502
1775721953416610800,7.95161083984375,0.20456698536872864,-0.09373874217271805,-0.311051607131958
1775721953426624800,7.961624755859375,0.24145735800266266,-0.14407329261302948,-0.2954218089580536
1775721953436637700,7.9716376953125,0.256877064704895,-0.1417110562324524,-0.24521800875663757
1775721953446650600,7.981650634765625,0.2603977620601654,-0.10448379814624786,-0.1864471137523651
1775721953456663800,7.991663818359375,0.26696619391441345,-0.07407049834728241,-0.15207847952842712
1775721953466677800,8.001677734375,0.26259300112724304,-0.03827149048447609,-0.12814491987228394
1775721953476690700,8.011690673828125,0.2598944306373596,-0.010583136230707169,-0.1017543226480484
1775721953486703600,8.02170361328125,0.2562336325645447,-0.007647267077118158,-0.07811290770769119
1775721953496716800,8.031716796875,0.25933435559272766,0.02051139995455742,-0.018626414239406586
1775721953506730800,8.041730712890624,0.27499693632125854,0.08744090050458908,0.06731326133012772
1775721953516743700,8.05174365234375,0.2806212902069092,0.17096614837646484,0.15190671384334564
1775721953526756900,8.0617568359375,0.2691430449485779,0.2367912381887436,0.19094784557819366
1775721953536769500,8.07176953125,0.2499946653842926,0.2551438808441162,0.17965976893901825
1775721953546783700,8.08178369140625,0.2222149521112442,0.2801232635974884,0.1385757178068161
1775721953556796700,8.091796630859376,0.20367243885993958,0.2949994206428528,0.09653772413730621
1775721953566809600,8.1018095703125,0.1969175934791565,0.3087889850139618,0.07906179875135422
1775721953576822800,8.11182275390625,0.20317308604717255,0.2995145320892334,0.0876302495598793
1775721953586836700,8.121836669921874,0.2218567579984665,0.32616692781448364,0.12388679385185242
1775721953596849700,8.131849609375,0.2541726231575012,0.39953169226646423,0.15681704878807068
1775721953606862800,8.14186279296875,0.292934387922287,0.47414547204971313,0.1639346033334732
1775721953616875800,8.151875732421875,0.3333550691604614,0.4888184070587158,0.1384819746017456
1775721953626889700,8.1618896484375,0.3504538834095001,0.39466342329978943,0.09979183971881866
1775721953636903000,8.17190283203125,0.34310010075569153,0.25835084915161133,0.07984263449907303
1775721953646915600,8.18191552734375,0.3275861144065857,0.12146011739969254,0.060376256704330444
1775721953656928800,8.1919287109375,0.3044312596321106,-0.0011294466676190495,0.01537336315959692
1775721953666942700,8.201942626953125,0.2954561412334442,-0.07808174937963486,-0.048879124224185944
1775721953676955600,8.21195556640625,0.29310086369514465,-0.07154688984155655,-0.09345511347055435
1775721953686968800,8.22196875,0.28194940090179443,-0.022174278274178505,-0.11832956969738007
1775721953696982500,8.231982421875,0.25943875312805176,0.017852233722805977,-0.1158650815486908
1775721953706995700,8.24199560546875,0.24598713219165802,0.05320489779114723,-0.08866595476865768
1775721953717009000,8.2520087890625,0.20981261134147644,0.041856102645397186,-0.054484814405441284
1775721953727021600,8.262021484375,0.14420057833194733,0.03788985684514046,-0.01588895171880722
1775721953737035800,8.272035888671875,0.07264863699674606,0.053221676498651505,-0.027340011671185493
1775721953747048700,8.282048583984375,0.007041397970169783,0.04839416220784187,-0.1127326712012291
1775721953757061600,8.2920615234375,-0.04001878947019577,0.04343456029891968,-0.22941002249717712
1775721953767074800,8.30207470703125,-0.07530993223190308,0.03874499723315239,-0.34674063324928284
1775721953777088800,8.3120888671875,-0.09872204810380936,-0.010949852876365185,-0.41631731390953064
1775721953787101700,8.322101806640624,-0.10757812857627869,-0.033480994403362274,-0.40952253341674805
1775721953797114600,8.332114501953125,-0.09011205285787582,0.05309677496552467,-0.35001900792121887
1775721953807127800,8.3421279296875,-0.05161392688751221,0.1466972976922989,-0.2954087555408478
1775721953817141500,8.3521416015625,-0.011886753141880035,0.21858373284339905,-0.23608283698558807
1775721953827154700,8.36215478515625,0.015679094940423965,0.24827319383621216,-0.1876029223203659
1775721953837167600,8.372167724609374,0.038663771003484726,0.21386036276817322,-0.18131360411643982
1775721953847180500,8.3821806640625,0.06707357615232468,0.13851100206375122,-0.18522045016288757
1775721953857194800,8.39219482421875,0.07124408334493637,0.08924412727355957,-0.17523573338985443
1775721953867207700,8.402207763671875,0.05787768214941025,0.08339235931634903,-0.17015574872493744
1775721953877220600,8.412220703125,0.04658587649464607,0.10093273967504501,-0.18997766077518463
1775721953887233800,8.42223388671875,0.03412867709994316,0.103147953748703,-0.22387543320655823
1775721953897247500,8.43224755859375,0.016895093023777008,0.07098176330327988,-0.25646987557411194
1775721953907260700,8.4422607421875,0.0057558901607990265,0.019351594150066376,-0.27648353576660156
1775721953917273900,8.45227392578125,0.008065382950007915,0.006479737348854542,-0.2823469936847687
1775721953927286500,8.46228662109375,0.034743331372737885,0.003572896821424365,-0.27666035294532776
1775721953937300700,8.47230078125,0.06337204575538635,-0.03369511291384697,-0.2699294984340668
1775721953947313700,8.482313720703125,0.08503073453903198,-0.08215505629777908,-0.2705625295639038
1775721953957326600,8.49232666015625,0.10217723250389099,-0.10236791521310806,-0.2768915295600891
1775721953967339800,8.50233984375,0.11784620583057404,-0.11173877865076065,-0.3070089519023895
1775721953977353500,8.512353515625,0.1362646371126175,-0.12393366545438766,-0.3375716507434845
1775721953987366700,8.52236669921875,0.15413311123847961,-0.132346048951149,-0.3468889892101288
1775721953997379600,8.532379638671875,0.1703656166791916,-0.16280436515808105,-0.3397647440433502
1775721954007392800,8.542392822265626,0.18652354180812836,-0.18943864107131958,-0.3139302432537079
1775721954017406700,8.55240673828125,0.19788165390491486,-0.1623992919921875,-0.2633304297924042
1775721954027419600,8.562419677734376,0.20284073054790497,-0.11527572572231293,-0.23777234554290771
1775721954037432600,8.5724326171875,0.20581281185150146,-0.07448834925889969,-0.2359006702899933
1775721954047445500,8.582445556640625,0.20104815065860748,-0.04026859253644943,-0.2318793088197708
1775721954057459700,8.592459716796874,0.19344216585159302,-0.015205850824713707,-0.22897565364837646
1775721954067472600,8.60247265625,0.17904351651668549,-0.02305338717997074,-0.24170690774917603
1775721954077485600,8.612485595703125,0.1547299176454544,-0.04192667827010155,-0.2539348006248474
1775721954087498800,8.622498779296874,0.13237029314041138,-0.03243676945567131,-0.2510032057762146
1775721954097512700,8.6325126953125,0.10806388407945633,-0.015400527976453304,-0.21669235825538635
1775721954107525600,8.642525634765626,0.08786088228225708,0.015096395276486874,-0.15511128306388855
1775721954117538800,8.652538818359375,0.06319575011730194,0.03972770646214485,-0.094676174223423
1775721954127552800,8.662552734375,0.02670857682824135,0.04204332455992699,-0.06671778112649918
1775721954137565700,8.672565673828124,-0.0363585390150547,0.04466520622372627,-0.05547524243593216
1775721954147578600,8.68257861328125,-0.09852444380521774,0.1002698764204979,-0.05272899195551872
1775721954157591600,8.692591552734376,-0.13324913382530212,0.1514909863471985,-0.05896851047873497
1775721954167605800,8.702605712890625,-0.15819069743156433,0.17725014686584473,-0.06413024663925171
1775721954177618700,8.71261865234375,-0.17306818068027496,0.20180369913578033,-0.07903382927179337
1775721954187631600,8.722631591796874,-0.1954730898141861,0.20315977931022644,-0.09440533071756363
1775721954197644800,8.732644775390625,-0.22307196259498596,0.18070240318775177,-0.10115111619234085
1775721954207658800,8.74265869140625,-0.23454806208610535,0.14121118187904358,-0.11169803887605667
1775721954217671700,8.752671630859375,-0.23126091063022614,0.10087335109710693,-0.12782374024391174
1775721954227684900,8.762684814453126,-0.213058739900589,0.08442486822605133,-0.13618767261505127
1775721954237697500,8.772697509765624,-0.168805792927742,0.05934561416506767,-0.14219655096530914
1775721954247711700,8.782711669921875,-0.10625213384628296,0.03003220073878765,-0.14197684824466705
1775721954257724700,8.792724609375,-0.05434739589691162,0.018578743562102318,-0.12454485893249512
1775721954267737600,8.802737548828125,-0.01203881949186325,0.017954232171177864,-0.07906339317560196
1775721954277750800,8.812750732421875,0.03410736843943596,-0.002606702037155628,-0.041308823972940445
1775721954287764500,8.822764404296874,0.08108020573854446,-0.0267754215747118,-0.010291785933077335
1775721954297777700,8.832777587890625,0.1092953309416771,-0.03658837080001831,0.012617258355021477
1775721954307790800,8.842790771484376,0.1123150885105133,-0.02678527496755123,0.03110998310148716
1775721954317803500,8.852803466796875,0.11438809335231781,0.020372116938233376,0.051896221935749054
1775721954327817700,8.862817626953126,0.12075544893741608,0.07123929262161255,0.06806933134794235
1775721954337830700,8.87283056640625,0.12737873196601868,0.10869824886322021,0.07586893439292908
1775721954347843600,8.882843505859375,0.12747806310653687,0.10917308926582336,0.06481201946735382
1775721954357856800,8.892856689453126,0.11780386418104172,0.08727765083312988,0.05156918615102768
1775721954367870500,8.902870361328125,0.1052638366818428,0.04268168285489082,0.03386582061648369
1775721954377883600,8.912883544921876,0.09600535780191422,0.0031736891251057386,0.010367153212428093
1775721954387896600,8.922896484375,0.09675051271915436,-0.012013785541057587,-0.005230181850492954
1775721954397909800,8.93290966796875,0.0908002108335495,-0.02538365311920643,-0.014673484489321709
1775721954407923700,8.942923828125,0.07415412366390228,-0.04201323166489601,-0.01794011890888214
1775721954417936600,8.9529365234375,0.052975866943597794,-0.04001079872250557,-0.008304801769554615
1775721954427949600,8.962949462890625,0.024178573861718178,-0.03257498890161514,0.003832555143162608
1775721954437962500,8.97296240234375,-0.005620601586997509,-0.034269556403160095,0.00845740083605051
1775721954447976700,8.982976806640625,-0.03676733374595642,-0.024686969816684723,0.014162690378725529
1775721954457989600,8.99298974609375,-0.060930993407964706,-0.01534513384103775,0.018864767625927925
1775721954468002600,9.00300244140625,-0.07312320917844772,-0.021081050857901573,0.02137106843292713
1775721954478015700,9.013015625,-0.08303176611661911,-0.02810380607843399,0.042095787823200226
1775721954488029700,9.02302978515625,-0.07594456523656845,-0.016320383176207542,0.05645288899540901
1775721954498042600,9.033042724609375,-0.06367724388837814,-0.04511528089642525,0.04032665118575096
1775721954508055800,9.043055908203126,-0.05703692138195038,-0.05396416410803795,0.043953344225883484
1775721954518068500,9.053068359375,-0.05449972674250603,-0.035655997693538666,0.0513332299888134
1775721954528082700,9.063082763671876,-0.0587804913520813,-0.018067151308059692,0.05714291334152222
1775721954538095600,9.073095703125,-0.06539924442768097,0.015262043103575706,0.06067240238189697
1775721954548108500,9.083108642578125,-0.06247695907950401,0.049074336886405945,0.05564488470554352
1775721954558121700,9.093121826171876,-0.06523732841014862,0.05993284285068512,0.0446028895676136
1775721954568135700,9.1031357421875,-0.0761759951710701,0.03483787551522255,0.03658517450094223
1775721954578148600,9.113148681640626,-0.08441475033760071,0.010695787146687508,0.018990201875567436
1775721954588161800,9.123161865234374,-0.09788928180932999,-0.026969298720359802,-0.015132080763578415
1775721954598174500,9.133174560546875,-0.10858266800642014,-0.038960982114076614,-0.031123830005526543
1775721954608188700,9.143188720703124,-0.11532951891422272,-0.036307141184806824,-0.03314676880836487
1775721954618201900,9.153201904296875,-0.12336454540491104,-0.02959570847451687,-0.02262728102505207
1775721954628214500,9.163214599609375,-0.13209278881549835,-0.022548984736204147,-0.003179814200848341
1775721954638227700,9.173227783203124,-0.1383512169122696,-0.00264798104763031,0.014900386333465576
1775721954648241700,9.18324169921875,-0.1431875228881836,0.038895733654499054,0.023152191191911697
1775721954658254600,9.193254638671876,-0.14080265164375305,0.07489901036024094,0.02749500796198845
1775721954668267800,9.203267822265625,-0.12311740219593048,0.0843348577618599,0.028929119929671288
1775721954678280700,9.21328076171875,-0.1060771644115448,0.06115949526429176,0.034822430461645126
1775721954688294700,9.223294677734375,-0.08837966620922089,0.01178981363773346,0.04701544716954231
1775721954698307800,9.233307861328125,-0.06651191413402557,-0.044979460537433624,0.05071297660470009
1775721954708320500,9.243320556640626,-0.04884743317961693,-0.0781288892030716,0.04360606521368027
1775721954718333700,9.253333740234375,-0.031564317643642426,-0.1145114004611969,0.02580469846725464
1775721954728347600,9.26334765625,-0.02423849329352379,-0.1266716569662094,0.024105869233608246
1775721954738360600,9.273360595703124,-0.021577730774879456,-0.1576966792345047,0.02544730342924595
1775721954748373800,9.283373779296875,-0.014970693737268448,-0.18350191414356232,0.04086780548095703
1775721954758386700,9.29338671875,-0.0002966761530842632,-0.19655673205852509,0.05756529048085213
1775721954768400600,9.303400634765625,0.015504657290875912,-0.2131042778491974,0.0822027251124382
1775721954778413600,9.31341357421875,0.02635197900235653,-0.19826488196849823,0.1385541558265686
1775721954788426800,9.3234267578125,0.0371771976351738,-0.1786767989397049,0.20201674103736877
1775721954798439400,9.333439453125,0.07300975918769836,-0.15087926387786865,0.2555635869503021
1775721954808453600,9.34345361328125,0.09647087752819061,-0.11300990730524063,0.31515130400657654
1775721954818466600,9.353466552734375,0.08487840741872787,-0.07226540893316269,0.38067731261253357
1775721954828479500,9.3634794921875,0.06471055001020432,-0.011844941414892673,0.4203839600086212
1775721954838492700,9.37349267578125,0.03437182307243347,0.06907946616411209,0.43049705028533936
1775721954848506600,9.383506591796875,-0.005498628597706556,0.1325354129076004,0.412068247795105
1775721954858519600,9.39351953125,-0.0226251520216465,0.14300855994224548,0.34537816047668457
1775721954868532700,9.40353271484375,-0.038419295102357864,0.1139846220612526,0.27672693133354187
1775721954878545400,9.41354541015625,-0.06827066838741302,0.0531790666282177,0.2317248433828354
1775721954888559600,9.4235595703125,-0.09244924038648605,-0.003575826296582818,0.2051241248846054
1775721954898572800,9.43357275390625,-0.09390918165445328,-0.008362592197954655,0.190863698720932
1775721954908585500,9.44358544921875,-0.07823435217142105,0.0307571142911911,0.1924101859331131
1775721954918598700,9.4535986328125,-0.05112816393375397,0.06189505755901337,0.20100341737270355
1775721954928612600,9.463612548828126,-0.010667025111615658,0.0598183274269104,0.20341411232948303
1775721954938625500,9.47362548828125,0.037991322576999664,0.04608254134654999,0.20888130366802216
1775721954948638700,9.483638671875,0.07543723285198212,0.015989884734153748,0.21199001371860504
1775721954958651600,9.493651611328126,0.1039450392127037,0.006943127140402794,0.22025594115257263
1775721954968665600,9.50366552734375,0.10377699881792068,-0.017723336815834045,0.23052188754081726
1775721954978678800,9.5136787109375,0.0779280886054039,-0.059362657368183136,0.22962360084056854
1775721954988691500,9.52369140625,0.03310469165444374,-0.0610729418694973,0.20443037152290344
1775721954998704600,9.53370458984375,-0.02323181927204132,-0.004555337131023407,0.1557544469833374
1775721955008718600,9.543718505859376,-0.07329525053501129,0.060201287269592285,0.08580225706100464
1775721955018731500,9.5537314453125,-0.09652706980705261,0.10769636929035187,0.028425516560673714
1775721955028744700,9.56374462890625,-0.09165482223033905,0.11959191411733627,0.014053234830498695
1775721955038757600,9.573757568359374,-0.08112441003322601,0.09784107655286789,0.04746578633785248
1775721955048771600,9.583771484375,-0.0724283903837204,0.0692986473441124,0.09419307857751846
1775721955058784800,9.59378466796875,-0.05913043022155762,0.02708434872329235,0.1061227098107338
1775721955068797700,9.603797607421875,-0.06882167607545853,-0.014216752722859383,0.07975474745035172
1775721955078810600,9.613810546875,-0.08666911721229553,-0.06596916168928146,0.02177959680557251
1775721955088824600,9.623824462890624,-0.10351067781448364,-0.12779098749160767,-0.05440358817577362
1775721955098837500,9.63383740234375,-0.11970962584018707,-0.1658262461423874,-0.10530431568622589
1775721955108850700,9.6438505859375,-0.12982936203479767,-0.15564951300621033,-0.1026398241519928
1775721955118863600,9.653863525390625,-0.11852611601352692,-0.11890481412410736,-0.06873086094856262
1775721955128877600,9.663877685546876,-0.08552874624729156,-0.08412313461303711,-0.023374032229185104
1775721955138890500,9.673890380859374,-0.03905072808265686,-0.05699297785758972,0.026079803705215454
1775721955148903700,9.683903564453125,-0.0020240023732185364,-0.028018051758408546,0.0751141905784607
1775721955158916600,9.69391650390625,0.030369091778993607,-0.028081169351935387,0.12295574694871902
1775721955168930600,9.7039306640625,0.07104381918907166,-0.04218447208404541,0.1524398773908615
1775721955178943700,9.71394384765625,0.1198265329003334,-0.06657876074314117,0.165909081697464
1775721955188956400,9.723956298828124,0.1654273122549057,-0.11390978842973709,0.16892670094966888
1775721955198969600,9.733969482421875,0.19452448189258575,-0.14716148376464844,0.18263505399227142
1775721955208983600,9.743983642578126,0.20961634814739227,-0.15368810296058655,0.1982627511024475
1775721955218996500,9.75399658203125,0.21118095517158508,-0.1586357206106186,0.21168002486228943
1775721955229009700,9.764009765625,0.20920568704605103,-0.1297987401485443,0.23839020729064941
1775721955239022600,9.774022705078124,0.22432231903076172,-0.0930364653468132,0.24640844762325287
1775721955249036500,9.78403662109375,0.24248240888118744,-0.06566023826599121,0.2533891201019287
1775721955259049700,9.7940498046875,0.2543635666370392,-0.07361722737550735,0.2736853361129761
1775721955269062400,9.8040625,0.23153150081634521,-0.11179151386022568,0.30640971660614014
1775721955279075600,9.81407568359375,0.21546810865402222,-0.12221299111843109,0.3390195965766907
1775721955289089800,9.82408984375,0.20013388991355896,-0.12845464050769806,0.34806209802627563
1775721955299102500,9.8341025390625,0.1516726166009903,-0.0871649980545044,0.3519391417503357
1775721955309115600,9.84411572265625,0.11246395856142044,-0.05411703139543533,0.3392595648765564
1775721955319128600,9.854128662109375,0.08166397362947464,-0.016091085970401764,0.34124788641929626
1775721955329142500,9.864142578125,0.051296211779117584,-0.009571400471031666,0.35188961029052734
1775721955339155700,9.87415576171875,0.02484596148133278,-0.015088139101862907,0.37498265504837036
1775721955349168600,9.884168701171875,-0.001585912425071001,-0.0206349715590477,0.402354896068573
1775721955359181600,9.894181640625,-0.020719658583402634,-0.029210349544882774,0.4224362075328827
1775721955369195800,9.90419580078125,-0.033008817583322525,-0.026254506781697273,0.42926934361457825
1775721955379208400,9.91420849609375,-0.03798146918416023,-0.028246551752090454,0.4178299903869629
1775721955389221600,9.9242216796875,-0.03748399019241333,-0.037750307470560074,0.39105403423309326
1775721955399234600,9.934234619140625,-0.03867815434932709,-0.04892200231552124,0.3593706786632538
1775721955409248500,9.94424853515625,-0.032528117299079895,-0.06989732384681702,0.3361319303512573
1775721955419261700,9.95426171875,-0.028501149266958237,-0.11272361874580383,0.3281683027744293
1775721955429274600,9.964274658203125,-0.017653828486800194,-0.13504676520824432,0.34143537282943726
1775721955439287600,9.97428759765625,-0.0164231825619936,-0.15544497966766357,0.34942856431007385
1775721955449301800,9.9843017578125,-0.013089437037706375,-0.1620168685913086,0.3425368368625641
1775721955459314700,9.994314697265626,-0.01393126230686903,-0.13561294972896576,0.333577960729599
1775721955469327600,10.00432763671875,-0.003817108692601323,-0.10830570012331009,0.3309262692928314
1775721955479340500,10.014340576171875,-0.003947603516280651,-0.1368159055709839,0.34360796213150024
1775721955489354500,10.0243544921875,0.01780882477760315,-0.15001267194747925,0.35557007789611816
1775721955499367700,10.03436767578125,0.03411616012454033,-0.16366003453731537,0.3629118800163269
1775721955509380600,10.044380615234376,0.03402135148644447,-0.17304874956607819,0.3708038926124573
1775721955519393800,10.054393798828125,0.01876862719655037,-0.19389517605304718,0.364102840423584
1775721955529407500,10.064407470703125,-0.009132778272032738,-0.20984351634979248,0.3463086783885956
1775721955539420700,10.074420654296874,-0.0559396967291832,-0.20589537918567657,0.3244158923625946
1775721955549433600,10.08443359375,-0.12221432477235794,-0.184644415974617,0.30102109909057617
1775721955559446500,10.094446533203126,-0.183579683303833,-0.14575640857219696,0.2678218483924866
1775721955569460700,10.104460693359375,-0.23634488880634308,-0.08097074925899506,0.24058571457862854
1775721955579473400,10.114473388671875,-0.2660734951496124,-0.03190387040376663,0.21936777234077454
1775721955589486600,10.124486572265624,-0.2875092625617981,-0.004274107050150633,0.22514043748378754
1775721955599499800,10.134499755859375,-0.3000231981277466,-0.015138206072151661,0.23854732513427734
1775721955609512400,10.144512451171876,-0.30460864305496216,-0.03705442324280739,0.23637445271015167
1775721955619526700,10.154526611328125,-0.31736278533935547,-0.048344630748033524,0.23568442463874817
1775721955629539600,10.16453955078125,-0.33195585012435913,-0.027127757668495178,0.24039024114608765
1775721955639552500,10.174552490234374,-0.3374677896499634,0.005804093088954687,0.24385713040828705
1775721955649565700,10.184565673828125,-0.3306138813495636,0.03634149581193924,0.24638821184635162
1775721955659579400,10.194579345703126,-0.3306815028190613,0.05628218129277229,0.25124260783195496
1775721955669592600,10.204592529296875,-0.32520684599876404,0.05742707476019859,0.2419135570526123
1775721955679605800,10.214605712890625,-0.3134908080101013,0.060501694679260254,0.22011558711528778
1775721955689618700,10.22461865234375,-0.2921903133392334,0.07494375109672546,0.19311939179897308
1775721955699632600,10.234632568359375,-0.2783818244934082,0.08717405050992966,0.17853112518787384
1775721955709645600,10.2446455078125,-0.2868943512439728,0.08675939589738846,0.18024113774299622
1775721955719658500,10.254658447265625,-0.3014189600944519,0.07802609354257584,0.18449847400188446
1775721955729671700,10.264671630859375,-0.31168997287750244,0.057610563933849335,0.1689690500497818
1775721955739685600,10.274685546875,-0.3096928894519806,0.04150456562638283,0.1350845843553543
1775721955749698600,10.284698486328125,-0.30742067098617554,0.024949025362730026,0.08517961204051971
1775721955759711500,10.29471142578125,-0.3073735237121582,0.005567071959376335,0.04098658263683319
1775721955769724700,10.304724609375,-0.2985747158527374,0.01630759984254837,0.005105546209961176
1775721955779739000,10.31473876953125,-0.2792651951313019,0.021636320278048515,-0.02430800348520279
1775721955789752000,10.324751953125,-0.265622079372406,0.02045094594359398,-0.03477289527654648
1775721955799765000,10.334764892578125,-0.24949824810028076,0.03645201772451401,-0.03688983991742134
1775721955809778000,10.34477783203125,-0.22423043847084045,0.0728457123041153,-0.03804884850978851
1775721955819792000,10.3547919921875,-0.1915891319513321,0.11178618669509888,-0.031375765800476074
1775721955829804800,10.3648046875,-0.15342603623867035,0.12817394733428955,-0.008855010382831097
1775721955839818000,10.37481787109375,-0.10226058959960938,0.1118844598531723,0.013293967582285404
1775721955849831000,10.384830810546875,-0.05811417102813721,0.07525640726089478,0.02804228663444519
1775721955859844900,10.394844970703126,-0.022968431934714317,0.0443568117916584,0.027710989117622375
1775721955869857800,10.40485791015625,0.00007669904152862728,0.018447184935212135,0.009194297716021538
1775721955879871000,10.41487109375,0.016896424815058708,0.007165501359850168,-0.019638948142528534
1775721955889884000,10.4248837890625,0.041852109134197235,0.01486336812376976,-0.04947114735841751
1775721955899897900,10.43489794921875,0.06657423079013824,0.010025203227996826,-0.06785468012094498
1775721955909911000,10.4449111328125,0.0835028812289238,-0.007908256724476814,-0.055329568684101105
1775721955919923700,10.454923828125,0.10499752312898636,-0.027840951457619667,-0.01486523263156414
1775721955929937000,10.46493701171875,0.1315910518169403,-0.036199815571308136,0.03205806761980057
1775721955939950800,10.474950927734374,0.15418636798858643,-0.022488264366984367,0.0719708651304245
1775721955949963800,10.4849638671875,0.18203744292259216,-0.0031140341889113188,0.10465583950281143
1775721955959977000,10.49497705078125,0.2062048316001892,-0.0026937874499708414,0.1293308287858963
1775721955969990000,10.504989990234375,0.21428805589675903,-0.0009480853332206607,0.1439497172832489
1775721955980003800,10.51500390625,0.21337220072746277,-0.007363373879343271,0.1445838063955307
1775721955990017000,10.52501708984375,0.20672334730625153,-0.01630067639052868,0.12552809715270996
1775721956000029700,10.53502978515625,0.19496336579322815,-0.023136211559176445,0.08892028778791428
1775721956010043000,10.54504296875,0.17321892082691193,-0.02112099714577198,0.06024975702166557
1775721956020057000,10.55505712890625,0.13466060161590576,-0.029756831005215645,0.04650598391890526
1775721956030069800,10.56506982421875,0.09091685712337494,-0.049919355660676956,0.025645442306995392
1775721956040083000,10.5750830078125,0.05030418187379837,-0.057684868574142456,0.006133526097983122
1775721956050095900,10.585095947265625,0.005936984904110432,-0.05834612995386124,-0.011444401927292347
1775721956060109800,10.59510986328125,-0.03358752280473709,-0.013259346596896648,-0.022400913760066032
1775721956070123000,10.605123046875,-0.060984790325164795,0.040765006095170975,-0.030640998855233192
1775721956080136000,10.615135986328125,-0.07980827987194061,0.08531302958726883,-0.029228990897536278
1775721956090148900,10.62514892578125,-0.09764187037944794,0.10570485889911652,-0.006444850005209446
1775721956100161800,10.635161865234375,-0.10216738283634186,0.10484518855810165,0.01582823134958744
1775721956110175700,10.64517578125,-0.0961233377456665,0.08595938235521317,0.0235213041305542
1775721956120189000,10.65518896484375,-0.08520863950252533,0.051311392337083817,0.010519752278923988
1775721956130201900,10.665201904296875,-0.07406757026910782,0.020552679896354675,-0.018917765468358994
1775721956140215000,10.675215087890624,-0.05945826694369316,0.013979997485876083,-0.0509212389588356
1775721956150229000,10.68522900390625,-0.042761579155921936,0.03027375042438507,-0.08042879402637482
1775721956160242000,10.695241943359376,-0.030370954424142838,0.03683764114975929,-0.10295487940311432
1775721956170254800,10.7052548828125,-0.015184279531240463,0.05037502199411392,-0.10607051104307175
1775721956180267800,10.715267822265625,-0.004599811974912882,0.043833501636981964,-0.0910303071141243
1775721956190282000,10.725281982421874,0.005106611177325249,0.03567836806178093,-0.06914311647415161
1775721956200295000,10.735294921875,0.02213433012366295,0.026263827458024025,-0.05125120282173157
1775721956210307800,10.745307861328126,0.03573882207274437,0.016865000128746033,-0.03951331973075867
1775721956220321000,10.755321044921875,0.04589105769991875,0.0070706927217543125,-0.036261335015296936
1775721956230335000,10.7653349609375,0.04952893778681755,0.0015941682504490018,-0.038540467619895935
1775721956240348000,10.775347900390624,0.061584800481796265,0.00019627496658358723,-0.032650355249643326
1775721956250361000,10.785361083984375,0.07377754896879196,-0.023438213393092155,-0.019605126231908798
1775721956260373800,10.795373779296876,0.08186743408441544,-0.06779875606298447,-0.009644904173910618
1775721956270388000,10.805387939453125,0.06981450319290161,-0.0891362652182579,0.007803861051797867
1775721956280401000,10.81540087890625,0.044085703790187836,-0.09336616843938828,0.013199958018958569
1775721956290413800,10.825413818359374,0.021556423977017403,-0.050869304686784744,0.010978348553180695
1775721956300427000,10.835427001953125,0.006308762356638908,0.013741112314164639,-0.0021997711155563593
1775721956310441000,10.84544091796875,0.002953445538878441,0.07264570891857147,-0.021253356710076332
1775721956320454000,10.855453857421875,0.011452125385403633,0.11153904348611832,-0.02676902897655964
1775721956330467000,10.865467041015625,0.03431163355708122,0.11524243652820587,-0.02197400853037834
1775721956340479700,10.875479736328124,0.06011233851313591,0.09411877393722534,0.00011211907985853031
1775721956350494000,10.885493896484375,0.08027353137731552,0.04704021289944649,0.030549386516213417
1775721956360507100,10.895507080078126,0.09302448481321335,-0.02406139485538006,0.05585287883877754
1775721956370519800,10.905519775390625,0.10732538998126984,-0.05642146244645119,0.06388923525810242
1775721956380533000,10.915532958984375,0.12956304848194122,-0.05505925789475441,0.04442419111728668
1775721956390546000,10.9255458984375,0.1449931412935257,-0.03790503740310669,0.03858361020684242
1775721956400559900,10.935559814453125,0.14857003092765808,-0.044977329671382904,0.08215159177780151
1775721956410573000,10.945572998046876,0.14959880709648132,-0.09393155574798584,0.15858004987239838
1775721956420586000,10.9555859375,0.14664509892463684,-0.14241333305835724,0.2259170114994049
1775721956430599000,10.965598876953125,0.1456243097782135,-0.21871556341648102,0.2534722089767456
1775721956440612900,10.97561279296875,0.14862142503261566,-0.26337650418281555,0.2505107820034027
1775721956450625800,10.985625732421875,0.1448964625597,-0.2495776116847992,0.21566465497016907
1775721956460639000,10.995638916015626,0.12390463054180145,-0.20497392117977142,0.1460227221250534
1775721956470652000,11.00565185546875,0.10281452536582947,-0.11823343485593796,0.06530257314443588
1775721956480665900,11.015665771484375,0.07432163506746292,-0.049666620790958405,-0.02051406353712082
1775721956490678800,11.0256787109375,0.04872972145676613,0.032220788300037384,-0.0935366079211235
1775721956500692000,11.03569189453125,0.04123026132583618,0.15826153755187988,-0.12462262064218521
1775721956510705000,11.045704833984376,0.048703890293836594,0.23599974811077118,-0.1160576269030571
1775721956520718800,11.05571875,0.05866730958223343,0.24332690238952637,-0.08897913992404938
1775721956530732000,11.06573193359375,0.05862016975879669,0.19349169731140137,-0.0503033846616745
1775721956540744700,11.07574462890625,0.06503812223672867,0.11486959457397461,-0.03351747989654541
1775721956550758000,11.0857578125,0.07551419734954834,0.055267248302698135,-0.042821500450372696
1775721956560771800,11.095771728515626,0.055093877017498016,0.05139394849538803,-0.04812145605683327
1775721956570784800,11.10578466796875,-0.0009864348685368896,0.06096641346812248,-0.06762298941612244
1775721956580798000,11.1157978515625,-0.05401529744267464,0.08360940963029861,-0.11621928215026855
1775721956590811100,11.12581103515625,-0.11636948585510254,0.11534017324447632,-0.18928390741348267
1775721956600824800,11.135824951171875,-0.18410725891590118,0.16840046644210815,-0.24999839067459106
1775721956610838000,11.145838134765626,-0.26260870695114136,0.21017134189605713,-0.28569912910461426
1775721956620850700,11.1558505859375,-0.3447456657886505,0.2653951942920685,-0.2985430061817169
1775721956630864000,11.16586376953125,-0.4157319664955139,0.33444643020629883,-0.29057803750038147
1775721956640878000,11.175878173828124,-0.47057098150253296,0.4010811150074005,-0.28705841302871704
1775721956650890800,11.185890869140625,-0.5080152750015259,0.43527209758758545,-0.29818856716156006
1775721956660904000,11.195904052734376,-0.5242381691932678,0.4260793924331665,-0.2940947413444519
1775721956670916900,11.205916748046874,-0.5097178220748901,0.4080021381378174,-0.27652665972709656
1775721956680930800,11.215930908203125,-0.46620577573776245,0.3682989180088043,-0.27303898334503174
1775721956690944000,11.225944091796874,-0.3993660509586334,0.31202954053878784,-0.2927735447883606
1775721956700957000,11.23595703125,-0.31898704171180725,0.2886224687099457,-0.32363852858543396
1775721956710969900,11.245969970703126,-0.22357450425624847,0.2805357873439789,-0.3709663450717926
1775721956720982800,11.255982666015624,-0.13957573473453522,0.2627914249897003,-0.4178915023803711
1775721956730996700,11.265996826171875,-0.0691676214337349,0.2324870377779007,-0.4352260231971741
1775721956741010000,11.276010009765624,-0.013965883292257786,0.19362272322177887,-0.42701736092567444
1775721956751022800,11.28602294921875,0.03640594333410263,0.1340336948633194,-0.4083840250968933
1775721956761036000,11.2960361328125,0.0759059488773346,0.0919690728187561,-0.38083362579345703
1775721956771050000,11.306050048828125,0.09824933856725693,0.07595708221197128,-0.36141544580459595
1775721956781062400,11.3160625,0.10020063817501068,0.07256767898797989,-0.36274436116218567
1775721956791075600,11.32607568359375,0.09061352163553238,0.0955243930220604,-0.3782956302165985
1775721956801088500,11.336088623046875,0.04806899279356003,0.12551264464855194,-0.39215391874313354
1775721956811102500,11.3461025390625,-0.010745322331786156,0.1276615560054779,-0.40199485421180725
1775721956821115400,11.356115478515624,-0.06285539269447327,0.16044293344020844,-0.40392643213272095
1775721956831128600,11.366128662109375,-0.11479795724153519,0.21710169315338135,-0.3935539424419403
1775721956841141500,11.3761416015625,-0.16542917490005493,0.23536564409732819,-0.38491520285606384
1775721956851155500,11.386155517578125,-0.2275945395231247,0.25160959362983704,-0.36946138739585876
1775721956861168400,11.39616845703125,-0.2941184341907501,0.2525712549686432,-0.3654458820819855
1775721956871181600,11.406181640625,-0.34758245944976807,0.21084699034690857,-0.39161863923072815
1775721956881194500,11.416194580078125,-0.38423821330070496,0.18230561912059784,-0.4392189085483551
1775721956891208400,11.42620849609375,-0.39222344756126404,0.13333329558372498,-0.5139586329460144
1775721956901221600,11.4362216796875,-0.3933939039707184,0.11012597382068634,-0.5788915753364563
1775721956911234300,11.446234375,-0.39615321159362793,0.11426159739494324,-0.6198014616966248
1775721956921247500,11.45624755859375,-0.39306047558784485,0.10964766889810562,-0.6485353708267212
1775721956931261400,11.466261474609375,-0.3773193359375,0.10566091537475586,-0.6615385413169861
1775721956941274400,11.4762744140625,-0.3495372235774994,0.0908161923289299,-0.6643774509429932
1775721956951287600,11.48628759765625,-0.3168647587299347,0.0645422413945198,-0.6688745021820068
1775721956961300500,11.496300537109375,-0.2805139422416687,0.04507692903280258,-0.6741123795509338
1775721956971313400,11.5063134765625,-0.2385220229625702,0.06930317729711533,-0.6570175290107727
1775721956981327600,11.51632763671875,-0.20548418164253235,0.07355118542909622,-0.6383684873580933
1775721956991340300,11.52634033203125,-0.17169718444347382,0.04980217665433884,-0.6033809781074524
1775721957001353500,11.536353515625,-0.13263820111751556,0.008648348972201347,-0.5641368627548218
1775721957011366400,11.546366455078125,-0.08566749840974808,-0.022491194307804108,-0.542900562286377
1775721957021380400,11.55638037109375,-0.020433103665709496,-0.06984086334705353,-0.5498431324958801
1775721957031393500,11.5663935546875,0.05164668336510658,-0.07548410445451736,-0.5381662845611572
1775721957041406500,11.576406494140626,0.11428423225879669,-0.07423268258571625,-0.5255247950553894
1775721957051419400,11.58641943359375,0.174444779753685,-0.08865077048540115,-0.5202786326408386
1775721957061433600,11.59643359375,0.23318159580230713,-0.10280361026525497,-0.5261980295181274
1775721957071446500,11.606446533203124,0.2778606414794922,-0.14247192442417145,-0.534389078617096
1775721957081459500,11.61645947265625,0.3017111122608185,-0.1723826825618744,-0.5161302089691162
1775721957091472400,11.626472412109376,0.3030831813812256,-0.1930924952030182,-0.49254685640335083
1775721957101485600,11.636485595703125,0.2958598732948303,-0.22388049960136414,-0.49073031544685364
1775721957111499500,11.64649951171875,0.27629923820495605,-0.20883683860301971,-0.4863496720790863
1775721957121512400,11.656512451171874,0.24737383425235748,-0.16136811673641205,-0.4906653165817261
1775721957131525600,11.666525634765625,0.2252674698829651,-0.11257101595401764,-0.5035907030105591
1775721957141538300,11.676538330078126,0.20740725100040436,-0.0676882341504097,-0.5053590536117554
1775721957151552500,11.686552490234375,0.1858939677476883,-0.03575986251235008,-0.492130845785141
1775721957161565400,11.6965654296875,0.16084827482700348,-0.031805068254470825,-0.4638078808784485
1775721957171578400,11.706578369140624,0.1419459581375122,-0.019686618819832802,-0.41587284207344055
1775721957181591600,11.716591552734375,0.12023959308862686,-0.02249891683459282,-0.3792397379875183
1775721957191605500,11.72660546875,0.08992163091897964,-0.028445223346352577,-0.3738148808479309
1775721957201618400,11.736618408203125,0.05632106214761734,-0.034396056085824966,-0.3843258321285248
1775721957211631600,11.746631591796875,0.04295092821121216,-0.023007581010460854,-0.38036251068115234
1775721957221644300,11.756644287109374,0.04608014225959778,0.016017848625779152,-0.35408565402030945
1775721957231658500,11.766658447265625,0.050385408103466034,0.05925480276346207,-0.3290671110153198
1775721957241671700,11.776671630859376,0.06487193703651428,0.1051567792892456,-0.31431612372398376
1775721957251684400,11.786684326171875,0.08387013524770737,0.13019582629203796,-0.3061450123786926
1775721957261697500,11.796697509765625,0.08527921140193939,0.1291702389717102,-0.29313281178474426
1775721957271711500,11.80671142578125,0.08322964608669281,0.11715938150882721,-0.27219370007514954
1775721957281724400,11.816724365234375,0.08624221384525299,0.08906169980764389,-0.245428666472435
1775721957291737600,11.826737548828126,0.08971364051103592,0.0422784797847271,-0.20756037533283234
1775721957301750500,11.83675048828125,0.09693426638841629,-0.017133712768554688,-0.16929368674755096
1775721957311763500,11.846763427734375,0.09986667335033417,-0.050931625068187714,-0.13556848466396332
1775721957321777700,11.856777587890624,0.09615902602672577,-0.05180780217051506,-0.10821249336004257
1775721957331790300,11.866790283203125,0.08937355130910873,-0.059664130210876465,-0.09863975644111633
1775721957341803500,11.876803466796876,0.07387502491474152,-0.04760666564106941,-0.09644025564193726
1775721957351816400,11.88681640625,0.05596952512860298,-0.006714894436299801,-0.08256705105304718
1775721957361830400,11.896830322265625,0.04664979502558708,0.03157790005207062,-0.06312437355518341
1775721957371843600,11.906843505859374,0.04268301650881767,0.04932733625173569,-0.043102994561195374
1775721957381856500,11.9168564453125,0.030724622309207916,0.03389245271682739,-0.024217454716563225
1775721957391869400,11.926869384765626,0.018676748499274254,-0.011976768262684345,-0.013411146588623524
1775721957401883600,11.936883544921875,0.0015182681381702423,-0.04234772175550461,0.002915362361818552
1775721957411896600,11.946896484375,-0.010093380697071552,-0.05751762166619301,0.021372400224208832
1775721957421909500,11.956909423828124,-0.017524398863315582,-0.0633760392665863,0.023330889642238617
1775721957431922400,11.96692236328125,-0.019761454313993454,-0.05537644028663635,0.010120011866092682
1775721957441936400,11.976936279296876,-0.0224392618983984,-0.04130003601312637,-0.0059244679287076
1775721957451949600,11.986949462890625,-0.03159600868821144,-0.01787194050848484,-0.01829724758863449
1775721957461962500,11.99696240234375,-0.03911704197525978,-0.016456205397844315,-0.022462697699666023
1775721957471975700,12.0069755859375,-0.036457609385252,-0.019540945068001747,-0.004785700235515833
1775721957481989400,12.0169892578125,-0.01942935772240162,-0.025187378749251366,0.012684635818004608
1775721957492002600,12.02700244140625,0.0023672839161008596,-0.041243575513362885,0.018741197884082794
1775721957502015500,12.037015380859375,0.02075561136007309,-0.042216695845127106,0.023087475448846817
1775721957512028400,12.0470283203125,0.029386917129158974,-0.039809197187423706,0.019478892907500267
1775721957522041600,12.05704150390625,0.031033549457788467,-0.04422365501523018,0.00917166005820036
1775721957532055300,12.06705517578125,0.029018601402640343,-0.023988423869013786,0.0163589995354414
1775721957542068500,12.077068359375,0.033845849335193634,0.0008013451588340104,0.02905402146279812
1775721957552081700,12.08708154296875,0.044809017330408096,0.00908350944519043,0.031009314581751823
1775721957562094300,12.09709423828125,0.046061236411333084,0.0029702235478907824,0.03314570337533951
1775721957572108500,12.107108642578124,0.030701719224452972,-0.007133277133107185,0.03771249204874039
1775721957582121500,12.11712158203125,0.010999654419720173,-0.023263510316610336,0.029273467138409615
1775721957592134400,12.127134521484376,-0.006691458635032177,-0.01906876638531685,0.01606258936226368
1775721957602147600,12.137147705078124,-0.01629508286714554,0.0010908307740464807,0.007818774320185184
1775721957612161300,12.147161376953125,-0.026278741657733917,-0.00013502225920092314,0.0008088020258583128
1775721957622174500,12.157174560546874,-0.03086071088910103,-0.01230247225612402,0.0027305390685796738
1775721957632187400,12.1671875,-0.024470988661050797,-0.015206383541226387,0.010268350131809711
1775721957642200600,12.17720068359375,-0.025558089837431908,-0.03357234224677086,0.006335127633064985
1775721957652214500,12.187214599609375,-0.02966175600886345,-0.048819202929735184,-0.011665178462862968
1775721957662227500,12.1972275390625,-0.03611086681485176,-0.03393000364303589,-0.02466193586587906
1775721957672240400,12.207240478515626,-0.04488438367843628,-0.019344935193657875,-0.0360964834690094
1775721957682253600,12.217253662109375,-0.050391267985105515,0.008283229544758797,-0.02563425712287426
1775721957692266500,12.2272666015625,-0.04893718287348747,0.025539182126522064,-0.009661681950092316
