time,seconds_elapsed,z,y,x
1775711414657701400,0.052701416015625,-0.5241168130844831,-0.6377589743554591,-0.20536708976626394
1775711414667714300,0.06271435546875,-0.9501733571723103,-0.8247294066876173,-0.11172522173374891
1775711414677727500,0.0727275390625,-1.2633363663993775,-0.9481658167421817,-0.029117081151902674
1775711414687740400,0.082740478515625,-1.5096872084610162,-1.2677274409651755,0.24422522820979356
1775711414697753300,0.09275341796875,-2.260811134581268,-1.6609195340663194,0.6211188051998615
1775711414707766300,0.102766357421875,-2.653994752115011,-1.7999217620432375,1.2726564217999576
1775711414717780200,0.1127802734375,-2.620415138596296,-1.502422916546464,1.52380297370553
1775711414727793400,0.12279345703125,-2.946681228893995,-0.5896212586522102,0.8287950486913322
1775711414737806300,0.132806396484375,-2.7574942895561456,-0.6240507669985293,0.8689496566861867
1775711414747819500,0.142819580078125,-3.7146813248828052,-1.3027519925951956,0.6615159897789359
1775711414757832200,0.152832275390625,-0.5257017441883682,-0.7884048783749341,-0.5752738766089082
1775711414767845400,0.162845458984375,-0.541864358960092,-0.45958676550686356,-1.09042237033993
1775711414777858300,0.1728583984375,-0.18572949236035347,-0.31542204020023346,-1.3064175293654203
1775711414787872300,0.182872314453125,-0.19928981567919254,-0.3437883029848337,-1.3763494359865784
1775711414797885400,0.192885498046875,-2.931400949914753,-2.262501864147186,-0.6988789212286471
1775711414807898400,0.2028984375,-4.071378793801367,-3.1498505163550377,-0.21074556793421506
1775711414817911300,0.212911376953125,-4.479581993551552,-2.6633172917336223,-0.3127449299454689
1775711414827924200,0.22292431640625,-4.334186849667132,-1.7547814745903014,-0.9124494834557175
1775711414837937400,0.2329375,-4.532212052237988,-1.7586878343790768,-1.026974565041065
1775711414847951400,0.242951416015625,-2.719230902135372,0.5403735358804465,-3.3536066637933253
1775711414857964300,0.25296435546875,-1.938834996562451,1.5394190605103968,-4.248118631759286
1775711414867977500,0.2629775390625,-1.9631110674239693,1.6207769087702035,-4.1339790423601865
1775711414877990100,0.272990234375,-0.47498541016876694,-3.073171181300282,3.493269986027479
1775711414888003300,0.28300341796875,-0.734892483896017,-3.0974212409377095,3.396460886135697
1775711414898016500,0.2930166015625,-1.0409574976861475,-6.915284415614605,5.192581502330303
1775711414908029400,0.303029541015625,2.4253531697452066,-0.7633475940078497,-1.1558072811812161
1775711414918043400,0.31304345703125,1.701003122651577,0.6081488489896059,-1.0441659383386372
1775711414928056300,0.323056396484375,0.15258125599622727,-0.4870908585041761,-1.4675409882575272
1775711414938069200,0.3330693359375,-0.1113011876353994,-0.5171317765027285,-1.502538067358732
1775711414948082400,0.34308251953125,2.8478315630853173,-0.5849953524172306,-2.224050845199823
1775711414958095400,0.353095458984375,2.885971616387367,-0.8628998551279305,-2.617258135870099
1775711414968108300,0.3631083984375,2.6858091095268724,-0.8399100246846676,-2.5609675088495014
1775711414978122200,0.373122314453125,2.2866930332042275,0.010917115333676338,-2.4920582232743502
1775711414988135400,0.383135498046875,1.544926425755024,0.7750941459029912,-2.56861597777605
1775711414998148400,0.3931484375,0.8462181849181651,0.8812059116691351,-2.3301064968645573
1775711415008161300,0.403161376953125,-0.15565218787416815,1.757837355029583,-1.947968881741166
1775711415018174500,0.413174560546875,-1.177379207650572,2.716616335722804,-1.7585224146842955
1775711415028187400,0.4231875,-1.5572959318540989,2.885689876836538,-1.1850626017600296
1775711415038200300,0.433200439453125,-1.6777894203245638,2.8490608126193284,-1.1961936521053314
1775711415048214500,0.443214599609375,-2.035060597477853,1.459589152470231,-1.3511749549806118
1775711415058227200,0.453227294921875,-1.1798213401056825,2.1064204910755158,-0.6613374183416366
1775711415068240400,0.463240478515625,-0.6389698114499449,2.525202952507138,-0.6400789417356252
1775711415078253300,0.47325341796875,-0.7803527970835566,2.4078023154854775,-0.7333978614240885
1775711415088266500,0.4832666015625,-0.6299474238216877,2.1996803740531203,-1.0581126306265591
1775711415098279200,0.493279052734375,0.8185384430930018,2.3922306523442267,0.28859190094172954
1775711415108293400,0.50329345703125,1.3717656153276563,2.425647768777609,0.6869517520695925
1775711415118306300,0.513306396484375,1.2964330187067388,2.3617384834468362,0.6480459750920534
1775711415128319200,0.5233193359375,2.7736320621475574,1.8823259044855831,0.6285808116436005
1775711415138332400,0.53333251953125,2.7061177380621433,1.884564038801193,0.6636462798058986
1775711415148345300,0.543345458984375,1.4735489965006707,2.213528866663575,0.7478782221972942
1775711415158358300,0.553358154296875,0.40490035881251096,2.982140664809942,1.1394546967953443
1775711415168371500,0.563371337890625,-0.8236883732020854,2.930450225061178,0.7268547233909368
1775711415178385200,0.57338525390625,-2.1944603013172745,2.4866730231046676,0.1075099421262741
1775711415188398300,0.5833984375,-2.190639281724393,2.516141109651327,0.1428682557553053
1775711415198411500,0.59341162109375,-3.2789126573368903,2.2295231391310693,0.0559141949236393
1775711415208424400,0.603424560546875,-3.0593492844358083,2.2837696931034324,-0.04022738097012043
1775711415218437400,0.613437255859375,-2.62623609983474,2.237607661387324,0.09641571666002273
1775711415228450300,0.6234501953125,-1.888814681982994,2.212824517786503,0.46552959955930706
1775711415238464300,0.63346435546875,-1.8780843213930725,2.147226548716426,0.38156712175905705
1775711415248477400,0.6434775390625,-0.5436377983734011,2.3088936129659414,1.6387591401845216
1775711415258490400,0.653490478515625,-0.24257863004654645,2.2019459808975457,2.3945675708591936
1775711415268503600,0.663503662109375,-0.13550591029375791,2.092339358752966,2.785018840819597
1775711415278516200,0.67351611328125,-0.21788784090429544,2.0527806708246468,2.8309663530021902
1775711415288529400,0.683529296875,-0.6969426924690604,1.896606943294406,2.6567209622085093
1775711415298542300,0.693542236328125,-1.0268719814494252,1.5730249775141476,2.2710890752285717
1775711415308556300,0.703556396484375,-1.291704821141064,1.1674030264288187,1.50603000112772
1775711415318569500,0.713569580078125,-1.4020748288735747,1.0672913778603077,0.9692349082559346
1775711415328582400,0.72358251953125,-1.3141855330184102,0.913397870221734,0.7044733802348375
1775711415338595300,0.73359521484375,-0.9795864986613392,0.7335954298228025,0.535998974058032
1775711415348608300,0.743608154296875,-0.4725236962303519,0.7353384740978479,0.41876667934060097
1775711415358621400,0.753621337890625,-0.13612462671399117,0.630828882831335,0.4527800081014633
1775711415368634400,0.76363427734375,-0.00537701686322689,0.5326964253813028,0.7738473607122898
1775711415378648300,0.7736484375,0.16062632302492855,0.5266624059140682,1.1436825436234475
1775711415388661500,0.78366162109375,0.4141501254558563,0.536926025775075,1.288232468855381
1775711415398674200,0.793674072265625,0.640939065696299,0.5171832144290208,1.1567892779558897
1775711415408687400,0.803687255859375,0.7630386741891503,0.535314498925209,0.6887766294091939
1775711415418700500,0.813700439453125,0.8123413420185446,0.40679742460548873,0.15945289533138274
1775711415428713200,0.823713134765625,0.8684086816772818,0.30173195302188394,-0.2321218257009983
1775711415438727400,0.8337275390625,0.8732637204930186,0.21561843466758726,-0.25480185954272744
1775711415448740400,0.843740234375,0.5634802707016467,0.09682605102658272,0.008042436680197716
1775711415458753300,0.853753173828125,0.13572978217750786,0.16502221989631652,0.30556700114011764
1775711415468766500,0.863766357421875,-0.0813157626837492,0.43120238254368304,0.46037587005794045
1775711415478779400,0.873779296875,-0.16322802995592356,0.6468775158345699,0.49579848109483715
1775711415488792300,0.883792236328125,-0.3512766129136085,0.7675421230882405,0.44794075137674805
1775711415498805200,0.89380517578125,-0.7374874688252806,0.7922755823284388,0.4542734615296125
1775711415508819500,0.9038193359375,-1.0281190589010716,0.8111562238872051,0.458220737850666
1775711415518832400,0.913832275390625,-1.0532461936339734,0.7696995933830738,0.4333201053500175
1775711415528845300,0.92384521484375,-0.8382394611239433,0.6251204420566558,0.32256723577976226
1775711415538858500,0.9338583984375,-0.6826207371279597,0.5324012418270111,0.11148995167315005
1775711415548871200,0.94387109375,-0.5211436424925923,0.44879123072624205,-0.014341244563460349
1775711415558884400,0.95388427734375,-0.4168970860764384,0.33814766674935814,-0.09178864138126373
1775711415568898600,0.963898681640625,-0.28208120387345553,0.2593687290668487,0.017921441137790678
1775711415578911200,0.9739111328125,0.05113163682222366,0.22917817346453664,0.27087153533399105
1775711415588924400,0.98392431640625,0.33340164126604793,0.18080606448352335,0.19205051207542417
1775711415598937300,0.993937255859375,0.4713260108783841,0.15778759246766566,0.06368775153458119
1775711415608950300,1.0039501953125,0.455995755277574,0.051209378233551976,-0.022104279780387877
1775711415618963500,1.01396337890625,0.3532280392423272,-0.038135961648821826,-0.05264437947273254
1775711415628976600,1.0239765625,0.2673588510379195,-0.05593757579922676,-0.15245032309293746
1775711415638990300,1.033990234375,0.365919763033092,-0.0487421113371849,-0.1999181767106056
1775711415649003500,1.04400341796875,0.5363508562356233,-0.07455050633251667,-0.15526187338232994
1775711415659016400,1.054016357421875,0.6743649499580263,-0.10927812084257602,-0.21466098781228063
1775711415669029400,1.064029296875,0.742537153430283,-0.18386486753225326,-0.21205928088128564
1775711415679042600,1.07404248046875,0.8373483575031161,-0.1797451572537422,-0.13602701155841349
1775711415689055500,1.084055419921875,0.8368903846025466,-0.12558511252105237,-0.20741817707717417
1775711415699068700,1.094068603515625,0.8555883630707859,-0.2358949144989252,-0.14754910704791546
1775711415709082400,1.104082275390625,0.7385632813632488,-0.26584523160457607,-0.09539221883118153
1775711415719095600,1.114095458984375,0.5511114952549337,-0.2834434321373701,-0.05951192715466022
1775711415729108500,1.1241083984375,0.35102965241521594,-0.28826398416161536,-0.09164075734317302
1775711415739121400,1.134121337890625,0.3705722650140524,-0.2887526444613933,-0.10104980620145797
1775711415749134600,1.144134521484375,0.2020873374432325,-0.24610884999930857,-0.1113525890290737
1775711415759147500,1.1541474609375,0.13902882372289896,-0.2159785001516342,-0.019394436299800873
1775711415769160400,1.164160400390625,0.2643842191413045,-0.24160569336116314,-0.00561316370666027
1775711415779174700,1.174174560546875,0.4584507472142577,-0.2555155607700348,-0.008425883039832115
1775711415789187300,1.184187255859375,0.4007946770593524,-0.24211364288330076,-0.10736848782896995
1775711415799200500,1.194200439453125,0.2519523153305054,-0.2727706469535828,-0.18943068496584892
1775711415809213400,1.20421337890625,0.29057752180099483,-0.2477507719874382,-0.07324000825583935
1775711415819226600,1.2142265625,0.3854465935409069,-0.23580256004035471,0.08601473415493964
1775711415829239300,1.2242392578125,0.4617585565879941,-0.13310615567564962,0.018082769179344177
1775711415839253500,1.23425341796875,0.4647647526666522,-0.07260521748363971,-0.058248190829157824
1775711415849266400,1.244266357421875,0.4306555623158812,-0.06722820062041282,-0.052445642030239104
1775711415859279400,1.254279296875,0.20419950729161498,-0.012331658306717872,-0.07653612719178199
1775711415869292500,1.26429248046875,0.03315349706113338,-0.03001169190406799,0.023739772027730942
1775711415879305500,1.274305419921875,0.05590922648757696,-0.02188333050608635,0.022809797701239583
1775711415889318400,1.284318359375,-0.11287439176887273,-0.2511380763381719,0.37776188425719737
1775711415899331600,1.29433154296875,-0.17285335191339254,-0.39291152259409423,0.503601848322153
1775711415909345300,1.30434521484375,-0.34700434242188927,-0.5027952081143856,0.6400467930316924
1775711415919358500,1.3143583984375,-0.3721145260199904,-0.6487304502248764,0.8776964422434568
1775711415929371400,1.324371337890625,-0.290724529056251,-0.6314619200378656,0.8681471081316471
1775711415939384600,1.334384521484375,-0.19941227301508188,-0.6215326466977595,0.8833487689167261
1775711415949397500,1.3443974609375,-0.032168285416066644,-0.719767395478487,0.9205027337908744
1775711415959410400,1.354410400390625,0.2827643638320267,-0.8278671201914548,0.8936112197339534
1775711415969424400,1.36442431640625,0.3674810210004449,-0.7642612017214298,0.8798679410636424
1775711415979437600,1.3744375,0.22733313011974096,-0.7993839530289173,0.8253717962443828
1775711415989450500,1.384450439453125,0.2577022571593523,-0.8960217880070209,0.9193120627015828
1775711415999463700,1.394463623046875,0.14130465970039366,-0.7960147688567638,0.9961796138048171
1775711416009476400,1.404476318359375,-0.34494740989208217,-0.7755635169804096,0.9413479534208774
1775711416019489500,1.414489501953125,-0.8891536558032035,-0.6309709216505288,0.737975252342224
1775711416029502500,1.42450244140625,-1.2623977703750133,-0.501074960193038,0.729892483651638
1775711416039516400,1.434516357421875,-1.4698364057183264,-0.3039659956842661,0.8930015634030103
1775711416049529600,1.444529541015625,-1.3795873949944972,-0.10875964992642402,1.0045791933596133
1775711416059542500,1.45454248046875,-1.2414883994676171,-0.18839549669921396,0.6412585069090128
1775711416069555500,1.464555419921875,-1.2238945828489958,-0.0008919804036617279,0.5272141945779323
1775711416079568400,1.474568359375,-1.2215253694996238,-0.0009141922354698181,0.526420413851738
1775711416089581600,1.48458154296875,-0.9002959581948816,0.1037766008168459,0.8984270955830812
1775711416099594200,1.49459423828125,-0.6373674908198416,0.12243161692619323,0.9987877504765987
1775711416109608400,1.5046083984375,-0.4216039485931396,0.16270108347237108,1.1718190893054008
1775711416119621600,1.51462158203125,-0.4884741295561194,0.3204951056808233,1.1013947229921817
1775711416129634300,1.52463427734375,-0.49621086128801106,0.4614204106748104,0.9396808969914913
1775711416139647500,1.5346474609375,-0.4786866027742624,0.579129090732336,0.8760825773060321
1775711416149660700,1.54466064453125,-0.42284518082588907,0.682282591214776,0.7441571558475494
1775711416159673300,1.55467333984375,-0.2952751780979335,0.8482616734445094,0.6026917526274919
1775711416169687600,1.5646875,-0.29851912845522166,0.9207932411700487,0.5123083018690348
1775711416179700500,1.574700439453125,-0.3561776828281581,1.0071399837583304,0.3481003209650516
1775711416189713400,1.58471337890625,-0.48509120911955833,1.0628273841887712,0.16708265955746174
1775711416199726600,1.5947265625,-0.3372605086512863,1.0985679751336574,0.13504092313051222
1775711416209739500,1.604739501953125,-0.3678790804073214,1.35114105271101,0.08126081762611866
1775711416219752400,1.61475244140625,-0.6946572118803859,1.3374392750948667,0.1822159312814474
1775711416229765400,1.624765380859375,-0.5260479272775351,1.2439467524051666,0.4552279857754707
1775711416239779600,1.634779541015625,-0.5227230206385255,1.2442471966564654,0.45451486907005306
1775711416249792500,1.64479248046875,0.05088730667233467,1.5207494313538075,0.5668547155708075
1775711416259805400,1.654805419921875,0.24691139855384825,1.493064136570692,0.5971177518874407
1775711416269818600,1.664818603515625,0.4199659721277654,1.4233850356668234,0.5022270528376103
1775711416279831300,1.674831298828125,0.6691539373114704,1.3721937776118516,0.31733459582328793
1775711416289844500,1.684844482421875,0.5643053233489393,1.4149422014921902,0.11605156050026416
1775711416299857400,1.694857421875,0.19995763193815946,1.3645254349410534,-0.03395721465945244
1775711416309871400,1.704871337890625,0.220604114125669,1.3125246140688658,0.11677812120914459
1775711416319884500,1.714884521484375,0.02748874929770827,1.3603478569954632,0.32965573273599147
1775711416329897500,1.7248974609375,0.03235357885509729,1.3478168767243623,0.45954526445269583
1775711416339910400,1.734910400390625,0.11376768734678626,1.2528127804279328,0.5147445891052485
1775711416349923300,1.74492333984375,-0.00909311477690935,1.1047995629996061,0.25312778885066506
1775711416359936500,1.7549365234375,-0.06933598655462264,1.127942538177967,-0.1800333265453577
1775711416369950500,1.764950439453125,-0.12784092862382532,1.1981325112134218,-0.47415305099785326
1775711416379963400,1.77496337890625,-0.12934884896874427,1.301453184956312,-0.5743482861965894
1775711416389976600,1.7849765625,-0.12680588648766278,1.313736327946186,-0.561629674398899
1775711416399989200,1.7949892578125,0.15805369605794548,1.2249497909903526,-0.5450584788262843
1775711416410002400,1.80500244140625,0.35375513185635205,1.1440624828517436,-0.5604664758384228
1775711416420015600,1.815015625,0.4698069846175611,1.1091963366538287,-0.49714054335355756
1775711416430028500,1.825028564453125,0.6795068428911268,1.1712100174963473,-0.47380292238593097
1775711416440042500,1.83504248046875,0.8259072182953358,1.1359703618109225,-0.3936234702557325
1775711416450055400,1.845055419921875,0.665748366651684,1.0776485212236642,-0.28774200611412526
1775711416460068400,1.855068359375,0.3168482736110687,1.1176654743134975,-0.2521475456416607
1775711416470081500,1.86508154296875,-0.18338541345223783,1.064808328872919,-0.3494523200958967
1775711416480094500,1.875094482421875,-0.362817266973108,0.9069523473441601,-0.36424189294874665
1775711416490107600,1.885107666015625,-0.36284780824184415,0.740664637556672,-0.37339141408801074
1775711416500120300,1.895120361328125,-0.3868833483457565,0.6135983465671538,-0.6146200908303261
1775711416510134500,1.905134521484375,-0.5890764842510223,0.6149667123109102,-0.9862088394105434
1775711416520147500,1.9151474609375,-0.9334966553986072,0.7512339623659848,-1.5483417871564626
1775711416530160400,1.925160400390625,-1.1949267009094358,0.7793786913543939,-2.0198060374617577
1775711416540173600,1.935173583984375,-1.5796530173517762,0.7692027497768401,-2.2939269299805165
1775711416550186500,1.9451865234375,-1.906962917613983,0.8196814756482839,-2.3715818320691584
1775711416560199400,1.955199462890625,-1.892698391548544,0.8011059545159339,-2.3283120146632195
1775711416570212400,1.96521240234375,-1.5563104279480873,0.7146247718930244,-2.197204339328408
1775711416580226300,1.975226318359375,-1.2174654265843332,0.709714788019657,-2.220468895059824
1775711416590239500,1.985239501953125,-0.59057286028862,0.7708627919435501,-2.171906231942773
1775711416600252400,1.99525244140625,0.01819748160019517,0.8829004406273364,-2.0565058288276195
1775711416610265600,2.005265625,0.3602934475839138,1.0024100326269865,-1.732269783052802
1775711416620278300,2.0152783203125,0.3977928648948669,0.96004914675951,-1.1638263369858264
1775711416630291500,2.02529150390625,0.14378288638219236,0.7352192316323518,-0.6662818890064954
1775711416640305400,2.035305419921875,0.12289105113148689,0.7149006662249565,-0.2002314804434776
1775711416650318300,2.045318359375,-0.05404927783459425,0.5861597200214862,-0.12285422625243662
1775711416660331500,2.05533154296875,-0.2777531115412712,0.4077466881543398,-0.45097851163744923
1775711416670344700,2.0653447265625,-0.18714871150851248,0.32213936575651164,-0.9583119477033615
1775711416680357400,2.075357421875,0.046589609478414055,0.0891407572209835,-1.4175602750360965
1775711416690370600,2.08537060546875,0.11855360644906758,-0.2288981874793768,-1.6499305225402117
1775711416700383500,2.095383544921875,0.3112158206820488,-0.4965981070399284,-1.5717694244951008
1775711416710397400,2.1053974609375,0.802679779703915,-0.7644277904599904,-0.8693564839214086
1775711416720410600,2.11541064453125,1.4674467341028152,-0.8662742999970913,0.04829670565724373
1775711416730423600,2.125423583984375,1.7948128945969044,-1.197449789646268,1.0486831235021352
1775711416740436500,2.1354365234375,1.7709093103095888,-1.242927930751443,1.0128075080007315
1775711416750449400,2.145449462890625,1.6422747470900416,-1.6113023934602737,2.0934534574747086
1775711416760462600,2.155462646484375,1.3217360945284367,-1.536722076511383,2.369575752943754
1775711416770475300,2.165475341796875,1.1490811877965927,-1.5864111133098602,2.187822178477049
1775711416780489500,2.175489501953125,1.1001483761928974,-1.66158998067379,1.646009549704194
1775711416790502700,2.185502685546875,1.2726152130067347,-1.6800304772496222,1.0283476069599389
1775711416800515300,2.195515380859375,1.4421955345988273,-1.7104723772644996,0.5907990702599286
1775711416810528500,2.205528564453125,1.629988243099302,-1.6576865434944628,0.3202911075413227
1775711416820541400,2.21554150390625,1.8003225979290902,-1.5805787538945675,0.2613099262624979
1775711416830554400,2.225554443359375,1.8650407154247164,-1.5208762726038694,0.35722763027250765
1775711416840568600,2.235568603515625,1.7680229412183164,-1.4070435571968554,0.4335211808800697
1775711416850581500,2.24558154296875,1.6648270628988742,-1.249082361727953,0.41775545647144313
1775711416860594400,2.255594482421875,1.4815315196871757,-1.1133844359934328,0.21182254951596258
1775711416870607400,2.265607421875,1.0801090661183,-1.071033486998081,-0.14965397037267683
1775711416880620500,2.27562060546875,0.754958974238485,-0.9620061260461806,-0.4906617027282715
1775711416890633500,2.285633544921875,0.3788651693239808,-0.856132845211029,-0.9037117579877376
1775711416900646400,2.295646484375,0.005072773219645023,-0.791922531107068,-1.2599983080178498
1775711416910660600,2.30566064453125,-0.23756328610256314,-0.7235211950540542,-1.340049749854207
1775711416920673300,2.31567333984375,-0.18349296547994018,-0.5389519786447287,-1.135260752236843
1775711416930686500,2.3256865234375,-0.2655075240828097,-0.3920394159346819,-0.8071008110165595
1775711416940699600,2.33569970703125,-0.24160540110021828,-0.44561786138713355,-0.5445055211186409
1775711416950712300,2.34571240234375,0.1654150186061859,-0.4199503361672163,-0.26887422403693195
1775711416960725500,2.3557255859375,0.5162088164389134,-0.4061947825372219,-0.07232756958603859
1775711416970738400,2.365738525390625,0.5822329019665717,-0.34720132629871364,-0.1529407369583845
1775711416980752400,2.37575244140625,0.5442974313259125,-0.15441139403283596,-0.0499403812110424
1775711416990765600,2.385765625,0.27768179987072944,0.4133797256052494,0.7338619718044996
1775711417000778500,2.395778564453125,0.46437911434993145,-0.6973854678004979,0.043591888967156406
1775711417010791400,2.40579150390625,0.37152795830368995,-0.9004390199273824,-0.854422534161806
1775711417020804400,2.415804443359375,0.22430808321014045,0.014638181683421134,-0.31432723070085045
1775711417030817500,2.425817626953125,0.09752046303153038,0.11091653569936752,-0.20263211184442043
1775711417040830500,2.43583056640625,-0.15229352509602903,0.014423662149906157,-0.5695160437345504
1775711417050844400,2.445844482421875,-0.3235889800429344,-0.06973053883016109,-0.7111597261309623
1775711417060857600,2.455857666015625,-0.34501521443128585,0.04476210179030895,-0.631209406581521
1775711417070870300,2.465870361328125,-0.345949280411005,0.050611996862292286,-0.5386462736964226
1775711417080883500,2.475883544921875,-0.32005393778458235,0.05446224254965782,-0.5408768092274665
1775711417090896400,2.485896484375,-0.6094762982010841,-0.025087679505348202,-0.37154432491660117
1775711417100909600,2.49590966796875,-0.6312262115858495,-0.043162849900126456,-0.2560375388175249
1775711417110923500,2.505923583984375,-0.6113105278909206,0.042183775734901424,-0.2552005034714937
1775711417120936400,2.5159365234375,-0.7245711424984037,0.1990694509267807,-0.28035248038470745
1775711417130949400,2.525949462890625,-0.8954032177172601,0.23883681316971778,-0.23575346020162105
1775711417140962300,2.53596240234375,-1.0094739796638488,0.19116262332499026,-0.14729659359157085
1775711417150975500,2.5459755859375,-1.0443630683459342,0.20156360583007335,-0.12913257586956023
1775711417160988700,2.55598876953125,-1.0566882969118654,0.018858429726958274,-0.18634967008531092
1775711417171001300,2.56600146484375,-1.0303135002054273,-0.011207038190960883,-0.14207272146344185
1775711417181015600,2.576015625,-1.0861794720731675,0.032924949002265926,0.01455868670642376
1775711417191028500,2.586028564453125,-1.1150536843799055,-0.031025837382674216,0.15194003548324106
1775711417201041400,2.59604150390625,-1.0262357293725013,-0.10250117405354976,0.16270342155992984
1775711417211054600,2.6060546875,-0.895646817214787,-0.1080021095573902,0.04214870442152023
1775711417221067500,2.616067626953125,-0.6492611961007118,-0.16291034230887888,-0.05067921687960624
1775711417231080400,2.62608056640625,-0.4148291937611997,-0.2229635367333889,-0.08062018163502216
1775711417241093400,2.63609326171875,-0.42607860978916284,-0.23857903901636598,-0.09268179082870483
1775711417251107300,2.646107421875,0.09008402942046523,-0.17466390846669672,-0.14348317278325556
1775711417261120500,2.65612060546875,0.30051907010078427,-0.19826807141602037,-0.15049392832815647
1775711417271133400,2.666133544921875,0.5007946819469332,-0.2038140151053667,-0.16202712973356245
1775711417281146600,2.676146728515625,0.5980065174207091,-0.27046061644554137,-0.04914367787539959
1775711417291159300,2.6861591796875,0.6711208534702658,-0.3159633074700832,0.06826864958405494
1775711417301172500,2.69617236328125,0.7326891286328434,-0.29203765748143196,0.1543576180189848
1775711417311185400,2.706185302734375,0.807769504058361,-0.226879833394289,0.3111778267592192
1775711417321199400,2.716199462890625,0.7802642420172691,-0.21112112324833868,0.4766214869379997
1775711417331212500,2.726212646484375,0.7123650102674961,-0.25493688409924503,0.5309194788366556
1775711417341225500,2.7362255859375,0.5814905591666698,-0.26168635835945603,0.46864276314377784
1775711417351238400,2.74623828125,0.43350598331093787,-0.22392741332948207,0.26427345224320886
1775711417361251300,2.756251220703125,0.30886370459795,-0.19199030632078645,-0.0006219312906265258
1775711417371264500,2.766264404296875,0.2110442586198449,-0.1642857223153114,-0.153982354965806
1775711417381277400,2.77627734375,0.10252850045189262,-0.11982874095141886,-0.1916454384058714
1775711417391291400,2.78629150390625,0.036836861748993394,-0.11195113944411277,-0.15768647018074988
1775711417401304600,2.7963046875,-0.08437076634019612,-0.12607318829894065,-0.17867197506427765
1775711417411317500,2.8063173828125,-0.23345804274082183,-0.08730418944358825,-0.20639993994534014
1775711417421330400,2.816330322265625,-0.27944924793466924,-0.028631635722517965,-0.20003800369799135
1775711417431343600,2.826343505859375,-0.37048970129713416,0.03363689666390419,-0.1843389147847891
1775711417441356500,2.8363564453125,-0.4681425585366785,0.09660159462094306,-0.12487491842508315
1775711417451369500,2.846369384765625,-0.43537864531502124,0.15617781918346882,-0.022266776865720747
1775711417461383700,2.8563837890625,-0.373895418087393,0.1655839454323053,0.02826806310713291
1775711417471396400,2.866396240234375,-0.3619603578828275,0.14654256035387514,0.005599719703197479
1775711417481409500,2.876409423828125,-0.38038478010669347,0.14947744476199148,0.0033148236364126202
1775711417491422500,2.88642236328125,-0.3246304519198835,0.20213351467251778,0.03226911544203758
1775711417501435400,2.896435302734375,-0.2944355124033987,0.21215455794930457,0.10788345161378383
1775711417511448300,2.9064482421875,-0.21958251599296927,0.2389274140626192,0.1305547176271677
1775711417521462500,2.916462646484375,-0.1455633400581777,0.249056593888998,0.04662555757462978
1775711417531475500,2.926475341796875,-0.13742811052799225,0.2221738476604223,-0.029032033216953277
1775711417541488400,2.93648828125,-0.14919906621202825,0.18848259046077728,-0.005750526350736617
1775711417551501600,2.94650146484375,-0.09582651859521865,0.21344459775984287,-0.012620412120223044
1775711417561514500,2.956514404296875,-0.10769231295585632,0.21116087073683737,-0.08168927217125892
1775711417571527400,2.96652734375,-0.10992036426886916,0.17576573222875594,-0.1339016899675131
1775711417581540600,2.97654052734375,-0.15710092537775636,0.16731588379144668,-0.17309855884611605
1775711417591554300,2.98655419921875,-0.23476386464238166,0.16460136413574217,-0.16339432643353938
1775711417601567500,2.9965673828125,-0.21384952529892323,0.15003975481986997,-0.10127133999764919
1775711417611580200,3.006580078125,-0.1476817935168743,0.08963467821776866,0.10553893431425095
1775711417621593000,3.016593017578125,-0.03816591839566827,0.033577859953045845,0.2513882517069578
1775711417631606000,3.02660595703125,0.05507569827288389,0.0075718965590000145,0.2719762817054987
1775711417641619200,3.036619140625,0.12141089557632803,0.009142506876587866,0.19074878182709215
1775711417651632000,3.046632080078125,0.08945055382251739,0.00034369887113571166,0.06527414394319057
1775711417661646000,3.05664599609375,0.09160963155254721,0.0032388357907533645,0.06741407858133315
1775711417671659000,3.066658935546875,0.05339958175420761,-0.1035100588351488,0.03170037564337253
1775711417681672200,3.076672119140625,0.05523600340113043,-0.14391045828461646,0.023367431584000585
1775711417691685000,3.08668505859375,0.060296793922036886,-0.14226327559947965,0.013717559707164763
1775711417701698000,3.096697998046875,0.15666604109182952,-0.0825140325576067,0.04331541011333465
1775711417711711200,3.106711181640625,0.18434402935132382,-0.06182604931592941,0.05928337909579277
1775711417721724200,3.11672412109375,0.19020809907913208,-0.001762333497405052,0.12402560811936855
1775711417731738000,3.126738037109375,0.15192892956733703,0.037729134413599964,0.15815233412683008
1775711417741751300,3.136751220703125,0.15592223698720334,0.04110474832653999,0.16029285328686235
1775711417751764000,3.146763916015625,0.23218027788996695,0.13608254113793372,0.030469372543692586
1775711417761777200,3.156777099609375,0.2851554967522621,0.13492226518690587,-0.005589782831072807
1775711417771790000,3.1667900390625,0.29357714200839397,0.16446049436032772,-0.0663753831833601
1775711417781803000,3.176802978515625,0.26066505248770117,0.1968202106952667,-0.14753975469768046
1775711417791816000,3.18681591796875,0.17816577910780906,0.22721301087141035,-0.14610592250227927
1775711417801830100,3.196830078125,0.08507014678120613,0.3144388743817806,-0.10424772545993327
1775711417811843000,3.206843017578125,-0.08437339668869971,0.35552082635462284,-0.06899871742427349
1775711417821856000,3.21685595703125,-0.24419293337538836,0.3501888176769018,-0.01015840592086315
1775711417831869200,3.226869140625,-0.35390564624294635,0.3615665362596512,0.07229600540399551
1775711417841882000,3.236882080078125,-0.3853250129878521,0.4088122715592384,0.09315291547179222
1775711417851895000,3.24689501953125,-0.3664906947888434,0.39554304014146324,0.11844517763853073
1775711417861908200,3.256908203125,-0.3278023599542677,0.40249008280038834,0.14216858305335045
1775711417871922000,3.266921875,-0.27235914354324336,0.4234218116700649,0.12858312529325486
1775711417881935000,3.27693505859375,-0.15200053349882364,0.3790788120746612,0.15246259805262088
1775711417891948000,3.286947998046875,-0.07141951483041048,0.2945002482026815,0.19820494305193423
1775711417901961200,3.296961181640625,-0.023862521624565123,0.23001403976678847,0.24110826523303985
1775711417911974100,3.30697412109375,-0.03629530221819877,0.141774030777812,0.2137526407957077
1775711417921987000,3.316987060546875,-0.10496376477479934,0.06556289775669574,0.1102677164018154
1775711417932001000,3.3270009765625,-0.17072846871390937,-0.011100070685148239,0.028871874219179153
1775711417942014000,3.337013916015625,-0.2545746266581118,-0.0668149436444044,-0.00940554172694683
1775711417952027100,3.347027099609375,-0.28865225282683965,-0.06090542733967304,-0.11764087551832199
1775711417962040000,3.3570400390625,-0.31614334021210666,-0.10114975944459438,-0.20278759466707705
1775711417972053000,3.367052978515625,-0.2998259732700884,-0.14451953009366988,-0.2348182251781225
1775711417982066200,3.377066162109375,-0.1758126401104033,-0.10856558865904807,-0.21762860544621943
1775711417992079000,3.3870791015625,-0.06211845639124512,-0.16073358279168604,-0.2026841342926025
1775711418002093000,3.397093017578125,0.015012567953765392,-0.20435469785332677,-0.16332243024110793
1775711418012106200,3.407106201171875,0.046747722649574275,-0.2137298444420099,-0.16646715800762177
1775711418022119200,3.417119140625,0.04890329324826598,-0.23273382011950014,-0.1740022296875715
1775711418032132000,3.427132080078125,0.008061725902557373,-0.2267190898746252,-0.24412790531516074
1775711418042145000,3.43714501953125,0.04832110944613814,-0.2297381454348564,-0.2985673515111208
1775711418052158200,3.447158203125,0.12677797556743026,-0.21516016950607297,-0.2705512173384428
1775711418062171000,3.4571708984375,0.21651026894077657,-0.15575637890100477,-0.15419336736798286
1775711418072185000,3.46718505859375,0.17091887671947478,-0.10992518657445907,0.06278992591202259
1775711418082198000,3.477197998046875,0.16706819264069198,-0.10845452950000763,0.06519932514131069
1775711418092211000,3.4872109375,0.11772490053996443,0.0012684125006198882,0.36081308754384517
1775711418102224100,3.49722412109375,0.13682707589492202,0.04900397714376449,0.26716742011904715
1775711418112237300,3.5072373046875,0.1609120080985129,0.0960118120342493,0.07319967624545097
1775711418122250000,3.51725,0.16145312923789024,0.12915420317947865,-0.08056056040227413
1775711418132263200,3.52726318359375,0.09425532375574111,0.13694354188144206,-0.22434768456816673
1775711418142277000,3.537277099609375,0.0564846882879734,0.1715495758384466,-0.3273918794572353
1775711418152290000,3.5472900390625,-0.023044190979003905,0.1990378867447376,-0.40852001061439513
1775711418162303200,3.55730322265625,-0.08233224624991417,0.2560737791746855,-0.5079208805650473
1775711418172316200,3.567316162109375,-0.09856821851879358,0.31782617873251434,-0.6075403617024422
1775711418182329000,3.5773291015625,-0.18962591527700423,0.4108072447687387,-0.6228671101719141
1775711418192342000,3.587342041015625,-0.27419176579788324,0.4874146836310625,-0.4112222553104162
1775711418202355200,3.597355224609375,-0.3367991747498512,0.5801093339413405,-0.3242074042022228
1775711418212369200,3.607369140625,-0.39077261086925863,0.6446463957816362,-0.38779987866878507
1775711418222382000,3.617382080078125,-0.2965546965144574,0.6439531528204679,-0.4851180971264839
1775711418232395300,3.627395263671875,-0.18037863285169004,0.6642471683084964,-0.5981207914501429
1775711418242408000,3.637407958984375,-0.1773803278185427,0.6729208886295557,-0.590132715305686
1775711418252421000,3.647421142578125,0.005852233159542084,0.7781751607835292,-0.7671393875062466
1775711418262434000,3.65743408203125,-0.012379150710254907,0.7277063717842102,-0.8436883741796016
1775711418272447200,3.667447265625,-0.054593029322475194,0.7025497186958789,-0.9379127182751893
1775711418282461200,3.677461181640625,-0.10198372605070471,0.6514432163149118,-1.0045862076222896
1775711418292474000,3.68747412109375,-0.17906243568658828,0.6259323429614305,-0.9902221667051315
1775711418302487000,3.697487060546875,-0.25397709915637967,0.5866080483108759,-0.9560743979096412
1775711418312500000,3.7075,-0.2910299417436123,0.577073911768198,-1.008220180210471
1775711418322513200,3.71751318359375,-0.38940716773495077,0.5600280844211578,-0.992986955243349
1775711418332526000,3.727526123046875,-0.5544798026442528,0.5046726924240589,-0.9221358879506587
1775711418342540000,3.7375400390625,-0.6349836644232273,0.48335517910718917,-0.7953963446974753
1775711418352553200,3.74755322265625,-0.7584662517070769,0.38323067105710507,-0.3997445834845304
1775711418362566000,3.75756591796875,-0.7340661160744726,0.31706337766647336,-0.13225216919481753
1775711418372579000,3.7675791015625,-0.5269897381722927,0.3168096951663494,-0.28130642010867596
1775711418382592300,3.77759228515625,-0.21882614466771483,0.3260375422388315,-0.6460393114447593
1775711418392605200,3.787605224609375,0.08321268234625458,0.3558066575586796,-0.998904654854536
1775711418402618000,3.7976181640625,0.30394086124300956,0.3515121752351522,-1.0980343066483735
1775711418412632000,3.807632080078125,0.311205153157562,0.3404430842101574,-1.111094279229641
1775711418422645000,3.81764501953125,0.35724794240817426,0.2788432448655367,-1.106497014567256
1775711418432658200,3.827658203125,0.3648131169654429,0.4283715430319309,-1.2190630710393189
1775711418442671000,3.837671142578125,0.25594942214265465,0.5156470909029245,-1.1791869877249002
1775711418452684300,3.847684326171875,-0.0022936638951301575,0.5128402167886495,-1.0066904864251613
1775711418462697000,3.857697021484375,-0.17244433272108434,0.5385702858507633,-1.0042764110207556
1775711418472710100,3.867710205078125,-0.20723858272656798,0.6054296531587838,-1.078188034927845
1775711418482724000,3.87772412109375,-0.22399814047813416,0.6649415803134441,-1.0930401516228914
1775711418492737000,3.887737060546875,-0.16116437542438505,0.6686994715422392,-1.1132388900429009
1775711418502750200,3.897750244140625,-0.1714510839000344,0.6198094761669636,-1.066190138620138
1775711418512763100,3.90776318359375,-0.08427885027304291,0.41050972312688827,-0.9255360517829656
1775711418522776000,3.917776123046875,-0.020587883868068455,0.2185457202911377,-0.7401993581324815
1775711418532789000,3.9277890625,-0.07758242137432098,0.15762392633855343,-0.6489993302941321
1775711418542802200,3.93780224609375,-0.036207477804273365,0.22365327256321907,-0.7544868266820907
1775711418552816000,3.947816162109375,0.056066170614957805,0.26043548151552676,-0.8923767095029354
1775711418562829000,3.9578291015625,0.11158625165447592,0.12777005534470082,-0.8714110783636569
1775711418572842200,3.96784228515625,0.04782645779699087,0.03012099749743938,-0.819694335129857
1775711418582855000,3.97785498046875,-0.026518589091300962,0.020609072786569593,-0.7780366290956735
1775711418592868000,3.9878681640625,-0.08461451196819543,0.13067980531156062,-0.5878185931444168
1775711418602881300,3.99788134765625,-0.0789537097275257,0.12334931629300117,-0.4396002085328102
1775711418612894000,4.00789404296875,-0.010039894107729196,0.011704466319084167,-0.19452303966879844
1775711418622908200,4.017908203125,0.02188800668120384,-0.019219664254784583,0.0066512745827436446
1775711418632921000,4.027921142578125,0.040128450640290976,-0.06967617829442024,0.3833586813509464
1775711418642934000,4.03793408203125,0.08680719970688223,-0.09757423904538154,0.6407645859122276
1775711418652947200,4.047947265625,0.026913872019201517,-0.09625263505280017,0.6343336760818958
1775711418662960000,4.057960205078125,-0.1988791890516877,-0.03688333123922348,0.6428717873245477
1775711418672973000,4.06797314453125,-0.5274845359519124,0.07281973701715469,0.5613847597271203
1775711418682986000,4.077986083984375,-0.7343944712460041,0.17998188861906528,0.3917155908077955
1775711418693000200,4.088000244140625,-0.7705204082466661,0.17195289594233035,0.23740824167132377
1775711418703013000,4.09801318359375,-0.8599519651077687,0.19337503867745398,0.15531214226484297
1775711418713026000,4.108026123046875,-1.0088228222787379,0.19250410106182098,0.15410978073775766
1775711418723039200,4.118039306640625,-1.0765735854685305,0.07163140401542187,0.10517185456752777
1775711418733052000,4.128052001953125,-1.0428057559013366,0.09804361012279987,0.0979676222771406
1775711418743065000,4.138065185546875,-1.005791345628351,0.20366320845782757,0.2204711353957653
1775711418753078000,4.148078125,-0.8796959454976022,0.24025018709897994,0.18409516915678978
1775711418763092000,4.158092041015625,-0.6963103859148919,0.2132154651790857,0.09614040684998035
1775711418773105200,4.168105224609375,-0.4866485215641558,0.027655484166741368,-0.09917407545745373
1775711418783118000,4.1781181640625,-0.31324761877059937,-0.07822539545297623,-0.40144261957406996
1775711418793131000,4.188131103515625,-0.17458382896780966,-0.23129998792409895,-0.5616986479818821
1775711418803144200,4.198144287109375,-0.12931830770000816,-0.37287294317185876,-0.45687692202627656
1775711418813157000,4.2081572265625,-0.2340541089378297,-0.21526129179298875,-0.08829320048093796
1775711418823170300,4.21817041015625,-0.3636801674127578,0.04107026153504848,0.14765373646616936
1775711418833184000,4.22818408203125,-0.48520212214812636,-0.01945639562010765,0.3009755816966295
1775711418843197200,4.238197265625,-0.43509822093844414,-0.07974456784427165,0.21067337948083875
1775711418853210000,4.248210205078125,-0.1842073973596096,-0.014893617749214171,-0.005211597168445587
1775711418863223000,4.25822314453125,0.0243254629611969,-0.04479191240668297,0.01373860249519348
1775711418873236200,4.268236328125,0.28395605783462524,-0.05081657952368259,0.12123743870556354
1775711418883249200,4.278249267578125,0.5305994531020521,0.05842530096173286,0.16459727248251438
1775711418893262000,4.288261962890625,0.6872362680993974,0.008306640574336051,0.1836883419215679
1775711418903276300,4.2982763671875,0.7456953252002596,0.02939385226666927,0.3372457494735718
1775711418913289000,4.3082890625,0.486550175756216,0.07304127081334591,0.39164311009347436
1775711418923302100,4.31830224609375,0.17199454312697052,-0.06228431447744369,0.36665129217803477
1775711418933315000,4.328315185546875,-0.1865735419690609,0.008365677285194396,0.26741058122515676
1775711418943328300,4.338328369140625,-0.4936718443296849,0.02057049434185028,0.29328444267213344
1775711418953341000,4.3483408203125,-0.5955845509707928,-0.03818681505322456,0.3223684983372688
1775711418963354000,4.35835400390625,-0.5236088635623455,-0.03857201497852802,0.3891694134563207
1775711418973368000,4.3683681640625,-0.23071795025244354,-0.17845862457454204,0.48162265622615813
1775711418983381000,4.378381103515625,0.19430311330780387,-0.16495032370388507,0.34247079064548014
1775711418993394200,4.388394287109375,0.4366306912027299,-0.00552256281375885,0.22781506841778754
1775711419003407000,4.398406982421875,0.47599254138469693,0.07275660865306854,0.243480255061388
1775711419013420000,4.408419921875,0.4827086978971958,0.060030982592701905,0.31894144649803635
1775711419023433200,4.41843310546875,0.5257891302108765,0.13632979389727115,0.6392541813492775
1775711419033446100,4.428446044921875,0.6161128136061131,0.21416882038116453,0.8984867168158293
1775711419043460000,4.438460205078125,0.6916741044163703,0.24927345151007174,0.8494763099312782
1775711419053473000,4.44847314453125,0.6219875508584082,0.33071488640010355,0.748354023015499
1775711419063486200,4.458486328125,0.3754045074760914,0.2937666732311249,0.8090951997041702
1775711419073499100,4.4684990234375,0.14387538697123528,0.13839783234298228,0.6204173789322376
1775711419083512000,4.478511962890625,0.17090236397609113,0.15448971996605396,0.62983110396564
1775711419093525200,4.488525146484375,0.04009001832604408,0.19161036709249019,0.28922727623581884
1775711419103538000,4.498537841796875,0.009466916525363921,0.09406769222915172,0.17338555909395217
1775711419113552100,4.50855224609375,-0.1565536667585373,0.11901508648097514,0.27851883521676063
1775711419123565300,4.5185654296875,-0.38548064194098114,0.035032150414586065,0.47767245729565616
1775711419133578000,4.528577880859375,-0.5925460600577295,-0.1383364575445652,0.7315788293033838
1775711419143591200,4.538591064453125,-0.7781492956899106,-0.15364040966033934,0.9168301827579736
1775711419153604000,4.54860400390625,-0.7519777664706111,-0.2218389166176319,1.0636024602144956
1775711419163617000,4.558616943359375,-0.5512440355934203,-0.1687444552898407,1.1962982815235852
1775711419173630000,4.5686298828125,-0.43009369064942,-0.11913257538080214,1.1432026511520146
1775711419183644200,4.57864404296875,-0.41652664532884953,-0.10546820716559886,1.1534919899761675
1775711419193657000,4.588656982421875,-0.29025004341229793,-0.27478432486355303,0.6991045466780662
1775711419203670000,4.598669921875,-0.36382615175470706,-0.2634136205434799,0.5619026461213826
1775711419213683200,4.60868310546875,-0.3776325587891042,-0.29579379514455795,0.33233985725343224
1775711419223696000,4.61869580078125,-0.19200828036889434,-0.348482013759017,0.0916980404883623
1775711419233709000,4.628708984375,0.0950572147231549,-0.526050996017456,-0.04339081343710422
1775711419243722200,4.63872216796875,0.2297394606091082,-0.5907458787679671,-0.03512801200449466
1775711419253736000,4.64873583984375,0.2550878368772566,-0.45322950543463225,-0.06418167253136635
1775711419263749000,4.6587490234375,0.3327696269728243,-0.4209335019856691,-0.29053835883438583
1775711419273762000,4.668761962890625,0.21523023906759917,-0.41400399498343465,-0.5247738156884908
1775711419283775000,4.67877490234375,-0.06154087569899857,-0.4728080661296844,-0.5593354259818792
1775711419293788200,4.6887880859375,-0.3163350633919239,-0.5226911641955375,-0.4487655117630958
1775711419303801000,4.698801025390625,-0.3924327991664409,-0.48403906971812244,-0.4057137210220098
1775711419313814300,4.708814208984375,-0.2582768421769142,-0.4523714273005724,-0.49531566601395605
1775711419323828000,4.718827880859375,0.2030207458358258,-0.5395908610701561,-0.6663987933844328
1775711419333841200,4.728841064453125,0.6028828182201832,-0.47289925154447554,-0.8174497710734605
1775711419343854000,4.73885400390625,0.573882349185273,-0.3528267649650573,-0.7121358776867389
1775711419353867000,4.748866943359375,0.39227848538756366,-0.31808336836397644,-0.4818278234094381
1775711419363880200,4.758880126953125,0.2943908695440739,-0.21092180128395557,-0.4219400486797094
1775711419373893000,4.76889306640625,0.2205366749126464,-0.1670177776277065,-0.4564133961677551
1775711419383906000,4.778906005859375,0.04928681267313659,-0.2002192054837942,-0.4605880515038967
1775711419393920300,4.788920166015625,-0.2743359965741634,-0.2895218752682209,-0.45280748063027854
1775711419403933000,4.798932861328125,-0.5475367785733193,-0.336635508620739,-0.3485276064664125
1775711419413946000,4.808946044921875,-0.5368764144796878,-0.33599078097641466,-0.3489583990991115
1775711419423959000,4.818958984375,-0.8396891484756022,-0.3145359050154686,-0.16845803956389427
1775711419433972200,4.82897216796875,-0.6325029535233974,-0.3422814055532217,-0.15170505768358705
1775711419443985000,4.83898486328125,-0.47915005556754764,-0.26862814032137394,-0.025732991671562195
1775711419453998000,4.848998046875,-0.3220843476336449,-0.19602175379395484,0.024880174234509465
1775711419464012000,4.859011962890625,-0.2978092996854335,-0.14818857399523258,0.10501052652597427
1775711419474025000,4.86902490234375,-0.3423954603869468,-0.039730537363886834,0.11973521744906902
1775711419484038100,4.8790380859375,-0.24777298381924628,0.10969371590614319,0.24122166247963903
1775711419494051000,4.889051025390625,-0.19862521429061888,0.28129765228033066,0.3523363510996103
1775711419504064000,4.89906396484375,-0.1545967605371028,0.37117490708231926,0.19464871187508104
1775711419514077200,4.9090771484375,0.0017955781798809766,0.3510077328443527,0.061897360986471174
1775711419524090000,4.919090087890625,0.08883804794736205,0.29596681362390515,-0.006990297278761863
1775711419534104000,4.92910400390625,-0.022135843962430953,0.21243571297824382,0.028438743498921393
1775711419544117200,4.9391171875,-0.14762684845924376,0.17785130633115767,0.015634206983447075
1775711419554130200,4.949130126953125,-0.134561542115733,0.1515682795614004,-0.0001204115092754364
1775711419564143000,4.95914306640625,0.040475729708001014,0.09203940127193927,-0.11022387726008892
1775711419574156000,4.969156005859375,0.2556885061841458,0.17157412575781344,-0.11105798999667167
1775711419584169200,4.979169189453125,0.1279179393827915,0.308160524764657,0.07077507944703101
1775711419594182000,4.989181884765625,0.2664823604643345,0.2818669766008854,-0.03212590757906437
1775711419604196000,4.999196044921875,0.8099802389103918,0.03731003221869469,-0.24482991610467433
1775711419614209500,5.00920947265625,1.1788859589517116,-0.2266974625647068,-0.0919160671532154
1775711419624222200,5.01922216796875,1.1807903312683106,-0.4764607434183359,0.10047697474956511
1775711419634235400,5.0292353515625,1.1046610313117504,-0.7960469175606966,0.381313439258933
1775711419644248300,5.039248291015625,0.9783902015488595,-0.9752005386620759,0.7185983516991138
1775711419654261200,5.04926123046875,0.966591042683646,-0.9682324532151222,0.8445657415360212
1775711419664274400,5.0592744140625,0.713198465416953,-0.9935545259982347,1.0557622681081293
1775711419674288400,5.069288330078125,0.3119768681824207,-1.0057312860041856,1.2371417485654352
1775711419684301300,5.07930126953125,-0.08043496126122772,-1.0565753380566836,1.2605828299075363
1775711419694314200,5.089314208984375,-0.018775939075276256,-1.0738099659740925,1.2397767732441425
1775711419704327400,5.099327392578125,-0.5214637412924319,-1.4316922607630491,1.3168009762138126
1775711419714340400,5.10934033203125,-0.435345985154435,-1.5112421828180551,1.3264181148648262
1775711419724353300,5.119353271484375,-0.5514740814896301,-1.4489841718256473,1.4458511344969271
1775711419734366500,5.129366455078125,-0.7647311573207378,-1.3558598979264498,1.6170108342349527
1775711419744380200,5.139380126953125,-1.0084604187071322,-1.200592179325223,1.7544395292848347
1775711419754393300,5.149393310546875,-1.3009493270874022,-1.1620751094043253,1.9226175828635692
1775711419764406500,5.159406494140625,-1.497377908116579,-1.3388438811957835,2.056525702571869
1775711419774419200,5.169419189453125,-1.6439947027504442,-1.4355372457534075,2.1263924350023267
1775711419784432400,5.179432373046875,-1.872872431963682,-1.5012304918915031,2.2977309984385967
1775711419794445300,5.1894453125,-2.024926449215412,-1.5539052665024995,2.501291331043839
1775711419804458500,5.19945849609375,-2.074621331232786,-1.467282045060396,2.6691356226235627
1775711419814472400,5.209472412109375,-1.898400840973854,-1.4200924238622188,2.620982709351182
1775711419824485400,5.2194853515625,-1.6777847441494464,-1.485769887909293,2.406170914891362
1775711419834498300,5.229498291015625,-1.4030828368723391,-1.4541706345528362,2.0039257467627523
1775711419844511200,5.23951123046875,-0.8825065459389239,-1.4636907425701617,1.6686451598823069
1775711419854524400,5.2495244140625,-0.308330693699792,-1.565627853000164,1.4867711739063263
1775711419864537300,5.259537353515625,0.18252748144865036,-1.5412585508972405,1.227614041763544
1775711419874550300,5.26955029296875,0.5531529379546642,-1.3060124556958674,0.9439660269647836
1775711419884564500,5.279564453125,0.6854279035031795,-0.9452122276335954,0.6575374415367842
1775711419894577200,5.2895771484375,0.6806326320506632,-0.591219926020503,0.3414928855240345
1775711419904590300,5.29959033203125,0.5268577823556959,-0.3644891457080841,0.21379355732798574
1775711419914603300,5.309603271484375,0.13981412888169287,-0.36510114012658595,0.3365688731253147
1775711419924616400,5.319616455078125,-0.12686243898048996,-0.38496144037246705,0.6563631370604038
1775711419934629400,5.32962939453125,-0.23140169473290442,-0.31891572753489017,0.8968617459625006
1775711419944642300,5.339642333984375,-0.11503858406543731,-0.3735241005569696,0.9158125301480293
1775711419954656300,5.34965625,-0.0441150360584259,-0.34338439835906026,0.7321388012737036
1775711419964669400,5.35966943359375,0.10184351386241615,-0.24695991387069224,0.6423854651123285
1775711419974682400,5.369682373046875,0.2167291723884642,-0.1455389362692833,0.588344078323245
1775711419984695600,5.379695556640625,0.30166590204834937,-0.12424246574044227,0.40554771680533885
1775711419994708200,5.389708251953125,0.5658521874647587,-0.1486263808906078,0.09900982480645179
1775711420004721400,5.399721435546875,0.7514673327304422,-0.20394260992109775,-0.2124228534966707
1775711420014734300,5.409734375,0.7877695030808448,-0.24783961931467055,-0.3462725210160017
1775711420024748300,5.419748291015625,0.6818645119331777,-0.27153847481012344,-0.23862930789887904
1775711420034761500,5.429761474609375,0.5588870976924896,-0.18527824146151542,-0.05464227529168129
1775711420044774400,5.4397744140625,0.45919221323132514,-0.06431143639087676,0.04816986440718174
1775711420054787300,5.449787353515625,0.43330366567187006,-0.20778174969255922,0.0012584756284952164
1775711420064800300,5.45980029296875,0.5443732730410993,-0.36283261067271233,-0.17635785290300846
1775711420074813400,5.4698134765625,0.43359716872572895,-0.4243792585253715,-0.30131460439264773
1775711420084826000,5.479826171875,0.4506009104967117,-0.43610009145736695,-0.3125011843174696
1775711420094840300,5.48984033203125,0.004905453828722238,-0.42895664944350714,-0.07386778476536274
1775711420104853500,5.499853515625,0.057643137608096,-0.31023440842926503,0.02892681927680969
1775711420114866200,5.5098662109375,0.360963455799967,-0.29877602582573887,-0.03763151925802231
1775711420124879400,5.51987939453125,0.6076663992349058,-0.2731996860206127,-0.14144611399769783
1775711420134892500,5.529892578125,0.6690519382417202,-0.2511106038093567,-0.17811960187852383
1775711420144905200,5.5399052734375,0.6509621547996998,-0.1983592568308115,-0.12918693640530107
1775711420154918400,5.54991845703125,0.6460476408816873,-0.19423837750852108,-0.1254652855336666
1775711420164932400,5.559932373046875,0.18050620475411414,-0.17754735494852064,0.18355682449638844
1775711420174945300,5.5699453125,0.016806100307032466,0.009328969359397888,0.01438917535841465
1775711420184958500,5.57995849609375,-0.308480404368788,0.15512567978203295,-0.15811550924777984
1775711420194971400,5.589971435546875,-0.5472002400953322,0.1700947008550167,-0.2618704827547073
1775711420204984300,5.599984375,-0.6654011606492102,0.2603337747067213,-0.26144787342846393
1775711420214997200,5.609997314453125,-0.6643290013730525,0.21411329080164432,-0.1478606572151184
1775711420225010400,5.620010498046875,-0.5953134058792143,0.20057342574894427,0.018964228188991544
1775711420235024400,5.6300244140625,-0.4808252222381532,0.23091303443312644,0.10549100351929663
1775711420245037300,5.640037353515625,-0.39276232338175177,0.10732640225291251,-0.14099486309885978
1775711420255050500,5.650050537109375,-0.33199908099174497,0.07970598939955234,-0.5525730922400951
1775711420265063200,5.660063232421875,-0.19087679212093353,0.11444763243496417,-0.8381441840559244
1775711420275076400,5.670076416015625,-0.18442250141501426,0.2441694063693285,-0.9834855519264936
1775711420285089300,5.68008935546875,-0.24958624378629027,0.3958031523823738,-1.0073357985913753
1775711420295102500,5.6901025390625,-0.16576017878204583,0.3800257375359535,-0.977608184325695
1775711420305116400,5.700116455078125,-0.03945508142337203,0.17617840468287466,-0.7533195364683866
1775711420315129300,5.71012939453125,0.00039762101545929906,0.23448387865722178,-0.24473230094909668
1775711420325142300,5.720142333984375,0.12942834394574165,0.34123686493635175,0.22862463123500346
1775711420335155200,5.7301552734375,0.19368834241032598,0.21986673976182936,0.47035190514922137
1775711420345168400,5.74016845703125,0.3385819665133953,0.19827800828814504,0.4352291538417339
1775711420355181600,5.750181640625,0.5414028789281845,0.21180326029360294,0.15184651198089122
1775711420365194200,5.7601943359375,0.7519733825564384,0.22292612733244896,-0.16707330720722674
1775711420375208400,5.77020849609375,0.6502290912847966,0.18799685277044773,-0.4127291527420282
1775711420385221000,5.78022119140625,0.5224807363152504,0.16705694059431553,-0.6728449007838964
1775711420395234300,5.790234375,0.36957901619300243,0.2742839741259813,-0.7975023770660161
1775711420405247500,5.80024755859375,0.17147994466833769,0.26692016735970975,-0.7559697587162256
1775711420415260400,5.810260498046875,0.16167641659975052,0.29246786559224125,-0.7341583244025707
1775711420425273300,5.8202734375,-0.1864846946418285,0.6037947454333304,-0.20348785189092158
1775711420435286300,5.830286376953125,-0.12974632385373114,0.5078694426387548,-0.07517360666692256
1775711420445300200,5.84030029296875,0.0641455783046782,0.4361842626094818,-0.17659809139966964
1775711420455313400,5.8503134765625,0.07216404958739876,0.4664414537072181,-0.15311843161284922
1775711420465326300,5.860326416015625,0.5009082983892411,0.3750847740024328,-0.5008095872551203
1775711420475339500,5.870339599609375,0.5767547628164291,0.3965706296235323,-0.5368628974109888
1775711420485352200,5.880352294921875,0.6278571735441685,0.40411388460993763,-0.48594285751283167
1775711420495365400,5.890365478515625,0.597926072595641,0.4067816425144672,-0.5820744965344667
1775711420505378300,5.90037841796875,0.6986264077723026,0.36885727778971195,-0.8917799126535654
1775711420515392300,5.910392333984375,0.7637514986336231,0.36647418204545973,-1.0802864685118199
1775711420525405400,5.920405517578125,0.8150783657670021,0.3945908539831638,-1.1050111599236727
1775711420535418400,5.93041845703125,0.8502480249561369,0.53044484706223,-0.9467904367357491
1775711420545431300,5.940431396484375,0.5558101744651794,0.5235825600773095,-0.6271826352834701
1775711420555444200,5.9504443359375,0.5562051651321351,0.5164484704136848,-0.39247605378627776
1775711420565457400,5.96045751953125,0.5364147152520716,0.5239402874737977,-0.22932547298073766
1775711420575470300,5.97047021484375,0.45159700886197385,0.5335796379566192,-0.17942600830197333
1775711420585484300,5.980484375,0.5611597918648272,0.6575871258974075,-0.06754384244084358
1775711420595497500,5.99049755859375,0.49622174800820645,0.6133136844068765,0.004005143988132477
1775711420605510100,6.00051025390625,0.5280407085299491,0.5252963782578707,-0.025436639073491096
1775711420615523600,6.010523681640625,0.6290495251338929,0.439408485352993,-0.08818798654079436
1775711420625536800,6.020536865234375,0.5973392856836318,0.38418285721540446,-0.2957745059221983
1775711420635549400,6.030549560546875,0.4127882625181228,0.3387164065480232,-0.3764028708636761
1775711420645562600,6.040562744140625,0.38105690721459684,0.4135936606168747,-0.5124503406882286
1775711420655576800,6.050576904296875,0.3525660682022571,0.5296791233867406,-0.7204156302541493
1775711420665589500,6.060589599609375,0.18045717798061667,0.3727881874978542,-0.8476841658174991
1775711420675602700,6.070602783203125,0.01138882449865341,0.2708469854146242,-0.8812818995147943
1775711420685615600,6.08061572265625,-0.29427520727515216,0.41472880212664603,-0.8874725708484649
1775711420695628500,6.090628662109375,-0.5784113343844189,0.6704132897228002,-0.6485901649713516
1775711420705641500,6.100641357421875,-0.9649415949761867,0.8314467322438955,-0.38408465753793714
1775711420715654700,6.110654541015625,-0.9288964681267737,0.7144897473365068,-0.22715689677000045
1775711420725668600,6.120668701171875,-0.5720340909700841,0.7101350592583417,-0.2830038716763258
1775711420735681500,6.130681640625,-0.42836913187913594,0.6995248179167509,-0.5539905578225851
1775711420745694700,6.14069482421875,-0.4763070506939664,0.5955307749569416,-1.0678507653087377
1775711420755707400,6.150707275390625,-0.03523497951030731,0.4826256957888603,-1.4814420878380536
1775711420765720600,6.160720458984375,0.20258827270269392,0.46138533936142917,-1.473655087223649
1775711420775733800,6.170733642578125,0.031395803206227715,0.5480564915984869,-1.2123445764392613
1775711420785746700,6.18074658203125,-0.1750560495894402,0.7715595420360565,-0.745329122236371
1775711420795760600,6.1907607421875,-0.6878512581925839,0.8561240773826837,-0.12608254064917562
1775711420805773600,6.200773681640625,-1.0993606598813086,0.7610241194963455,0.2964560584455728
1775711420815786500,6.210786376953125,-1.231481384716183,0.8425783671110868,0.4143979627370834
1775711420825799700,6.220799560546875,-1.2547756049335002,0.8087643603146075,0.36196284210085866
1775711420835812600,6.2308125,-0.9426104476373642,0.7333996149897575,0.01545709685087204
1775711420845825800,6.24082568359375,-0.4320669634837657,0.8295867835909128,-0.34817280167937276
1775711420855838500,6.25083837890625,-0.0774083069164306,0.7889198421597481,-0.511406969115138
1775711420865852700,6.260852783203125,0.4500175211181864,0.7796621844708919,-0.717314741629362
1775711420875865600,6.270865478515625,0.7001601932108402,0.6862070711821318,-0.8755506623864173
1775711420885878500,6.28087841796875,0.7940998751461505,0.4539858767598867,-1.029645245555043
1775711420895891700,6.2908916015625,0.8409738545238972,0.32530805892050263,-1.0337661248773335
1775711420905904600,6.300904541015625,0.5485621030330657,0.25907062290310856,-1.0221253714442253
1775711420915917600,6.31091748046875,0.2788508436501026,0.17492460522949693,-0.9972995577454566
1775711420925930500,6.320930419921875,0.020559936415217816,0.23655893136560915,-0.9165829299986362
1775711420935944400,6.3309443359375,-0.21343119028899818,0.20921850449740886,-0.9475643437176943
1775711420945957600,6.34095751953125,-0.1287643636116758,0.17660042948722837,-1.000562943455577
1775711420955970600,6.350970458984375,-0.0838122922072187,0.20561200443804262,-0.9887859964221716
1775711420965983700,6.360983642578125,-0.0783048904299736,0.19544775329828262,-0.998444051605463
1775711420975996400,6.370996337890625,0.08288407144639641,0.2567027247279882,-0.3839081319272518
1775711420986009600,6.381009521484375,0.058681321549415584,0.33301147290468214,0.04228898967504501
1775711420996022800,6.391022705078125,0.18375610992815344,0.3483990116506815,0.38904783290326594
1775711421006036500,6.401036376953125,0.25857140467669815,0.35140579225122925,0.6368932974368333
1775711421016049700,6.411049560546875,0.20016952112317085,0.3593681494325399,0.7158242108106613
1775711421026062600,6.4210625,0.19084643351528793,0.3586754909932613,0.6920557972103357
1775711421036075500,6.431075439453125,-0.061519759845733636,0.28741058220267296,0.60993164075315
1775711421046088700,6.441088623046875,-0.32284079202413557,0.1961854199230671,0.5018249017775058
1775711421056101600,6.4511015625,-0.4590624493718147,0.21143676506876943,0.434516621658206
1775711421066114600,6.461114501953125,-0.7941407916784285,0.27895371950268744,0.3335100700765848
1775711421076128500,6.47112841796875,-1.0802689328551291,0.3011334026068449,0.2906090859830379
1775711421086141700,6.4811416015625,-1.1896060904085635,0.2677583717495203,0.24400983189344405
1775711421096154600,6.491154541015625,-1.1799568030536174,0.22797113576233385,0.11573474963605403
1775711421106167600,6.50116748046875,-0.8903367281079292,0.21397125198245048,-0.0131757079154253
1775711421116180700,6.5111806640625,-0.5145885217607021,0.16885200731754302,-0.0570335543423891
1775711421126193400,6.521193359375,-0.19933486039731652,0.13801263241767883,-0.10041969160437583
1775711421136206600,6.53120654296875,0.06797525612805039,0.06931494376659393,-0.041886254093050954
1775711421146220800,6.541220703125,0.24678981800079344,0.0027197803527116773,-0.023526421537995338
1775711421156233500,6.5512333984375,0.3241056973934173,0.07926525989472866,-0.09241758693456649
1775711421166246700,6.56124658203125,0.30909517526626584,0.08904138849973678,-0.11531915457248687
1775711421176259600,6.571259521484375,0.13656769430637358,0.05381342325210571,-0.14868950925469399
1775711421186272500,6.5812724609375,-0.10755202770233153,0.006266074657440186,-0.17538637752234934
1775711421196285400,6.591285400390625,-0.3111667573759332,-0.003896422916650772,-0.1279348905175924
1775711421206298600,6.601298583984375,-0.48939796640276906,0.04902794254124164,-0.0953144774198532
1775711421216312600,6.6113125,-0.6167769766032696,0.06254384219646454,-0.010585106900334358
1775711421226325500,6.621325439453125,-0.5330372381756082,0.15017945555150508,0.028899346747994423
1775711421236338700,6.631338623046875,-0.3655775619992986,0.19129238718450067,0.07982347829937934
1775711421246351400,6.641351318359375,-0.2210030868479982,0.22758885844647883,0.10206862785518168
1775711421256364500,6.651364501953125,-0.01926938514802605,0.21194471459090708,0.08470131346881389
1775711421266377700,6.661377685546875,0.14079963278770447,0.18035890523791312,0.09471417343914508
1775711421276390700,6.671390625,0.07831658086776733,0.18129414026141166,-0.05008768072724342
1775711421286404600,6.681404541015625,-0.07129296584129333,0.1761719749420881,-0.2189718367487192
1775711421296417800,6.691417724609375,-0.1193301072468981,0.21948504696786403,-0.47823067570030686
1775711421306430500,6.701430419921875,-0.15172087630722672,0.31316227857470513,-0.7632119849294423
1775711421316443600,6.711443603515625,-0.14086630481574683,0.43620881252884863,-1.0165525397479533
1775711421326456600,6.72145654296875,-0.1804991904914379,0.4461223037779331,-1.1826502799212932
1775711421336469800,6.7314697265625,-0.24205756531450895,0.5524579414278269,-1.3608230732917785
1775711421346482400,6.741482421875,-0.19292028064727781,0.6882242562234401,-1.4980676439464091
1775711421356495600,6.75149560546875,-0.0015256386647000907,0.8044792303413152,-1.7205384287267922
1775711421366509600,6.761509521484375,0.20838665678314863,0.9874421805977821,-2.0208523316442966
1775711421376522500,6.7715224609375,0.4546387877106666,1.1808803476393221,-2.294613158679008
1775711421386535700,6.78153564453125,0.559574495434761,1.4009393951028584,-2.447972997832298
1775711421396548600,6.791548583984375,0.5639748492855579,1.666638496235013,-2.612106744456291
1775711421406561500,6.8015615234375,0.5034907526304945,1.739653463563323,-3.1673300589442253
1775711421416574700,6.81157470703125,0.4814167949231341,1.7453332627654075,-3.159881496503949
1775711421426587600,6.821587646484375,0.6918973187129944,1.9604495931297539,-4.535431014284491
1775711421436601600,6.8316015625,0.6019943449478596,2.0304747309923172,-4.1970162210315465
1775711421446614500,6.841614501953125,0.16259287385754287,2.1780197463870046,-3.58239613020122
1775711421456627700,6.851627685546875,-0.22985380770377814,2.1046119803488255,-3.4515655182421203
1775711421466640600,6.861640625,-0.36868710885457695,2.021608118447661,-3.371022493496537
1775711421476653600,6.871653564453125,-0.5060486569523811,2.1492168457508085,-3.1756156567305323
1775711421486666800,6.881666748046875,-0.6213163005333393,2.1689678404033184,-2.5489871481984854
1775711421496679400,6.891679443359375,-0.6987737072885036,1.8890099122941493,-1.3134867370992898
1775711421506693600,6.901693603515625,-0.7935106770813465,1.4738812971949578,-0.17813538396954534
1775711421516706800,6.911706787109375,-0.8503389181099832,1.2206173147439956,0.6598229221254587
1775711421526719500,6.921719482421875,-0.8120400209844112,1.0921417414784431,0.9714128368169068
1775711421536732700,6.931732666015625,-0.4261151424072683,0.9359446330726147,0.9784189161866903
1775711421546745600,6.94174560546875,-0.2586450909674167,0.7409592365890741,1.0986199975818396
1775711421556758500,6.951758544921875,-0.030913024657964704,0.43818098938465116,1.2988485554158686
1775711421566771500,6.961771484375,0.3511923686962575,0.4839601592630148,1.6073633004456758
1775711421576785700,6.97178564453125,0.6505787084400654,0.40983460034430025,1.8063602706581352
1775711421586798600,6.981798583984375,0.9896119258522986,0.24755145002305506,1.7312223198264836
1775711421596811500,6.9918115234375,1.1556008718889206,0.23250293397307395,1.3295154963582754
1775711421606824700,7.00182470703125,1.1844858247853816,0.1316267307728529,0.9452397001624107
1775711421616837000,7.011837158203125,0.8670248261034488,0.16103461156487464,0.5265957704186439
1775711421626850000,7.02185009765625,0.4783877659581601,0.2015478237390518,0.2769225059360266
1775711421636863000,7.031863037109375,0.028465046983957288,0.046236850517988204,-0.020550620597600936
1775711421646877000,7.041876953125,-0.441300071253255,-0.11213000314235687,-0.5063742356449366
1775711421656889900,7.051889892578125,-0.6316589039146899,-0.3655032911866903,-0.4773047930270433
1775711421666903000,7.061903076171875,-0.7053332119345664,-0.37866438605487346,0.2175777520418167
1775711421676916200,7.071916259765625,-0.8246528343200683,-0.2922615293651819,0.8247779220044612
1775711421686929000,7.081928955078125,-0.6330408597923814,-0.27540041093528267,1.1770657577872277
1775711421696942000,7.091942138671875,-0.25302082134485243,-0.09301964448094367,1.4294213932216167
1775711421706955000,7.101955078125,-0.02041150438785553,0.013097966504096984,1.3895108231157063
1775711421716969000,7.111968994140625,0.19183555415049194,-0.2410012977272272,1.3158639876246452
1775711421726982100,7.121982177734375,0.20769363301768898,-0.23887246900498865,1.3147960661321878
1775711421736995000,7.1319951171875,0.21652342068329453,-0.5126385567367077,0.5145920288920403
1775711421747008000,7.142008056640625,0.1132232052065432,-0.9820493816435336,-0.06655658496916293
1775711421757021000,7.15202099609375,-0.25499431337490674,-1.1084025559276343,-0.49765609166026115
1775711421767034000,7.1620341796875,-0.7346890702784061,-0.9792769943207502,-0.527205426749587
1775711421777047000,7.172047119140625,-1.204837707940489,-0.936130511033535,-0.10566928269565105
1775711421787060000,7.18206005859375,-1.562707727769762,-0.8643342718452215,0.43762803167700765
1775711421797074200,7.19207421875,-1.4642847629405558,-0.8174819197773933,0.7585568525999784
1775711421807086800,7.2020869140625,-1.1768519689060748,-0.7584943087577819,0.9186188197404146
1775711421817100000,7.21210009765625,-0.8826983421839774,-0.7175994037896394,1.04632399315536
1775711421827113000,7.222113037109375,-0.5219933911897242,-0.7122802545934915,0.8509545657902956
1775711421837126100,7.232126220703125,-0.2747286491535604,-0.768397278612852,0.35161972726285456
1775711421847139000,7.24213916015625,0.10009002125859259,-0.8148959949374198,-0.06971534126102924
1775711421857152000,7.252152099609375,0.19520473832264543,-0.7894646165609359,-0.594045504835248
1775711421867166000,7.262166015625,0.012194295662641524,-0.7718418661087751,-0.8292565287232398
1775711421877179000,7.272178955078125,-0.19870470926761627,-0.712374362617731,-0.7386334239900112
1775711421887192000,7.282192138671875,-0.2219509986899793,-0.7217068391084671,-0.7420967161864042
1775711421897205000,7.292205078125,-0.30092589733600617,-0.3822399064540863,-0.2992062339365482
1775711421907218000,7.302218017578125,-0.40990532749295233,-0.26900632598400115,-0.09598726211488247
1775711421917231000,7.312231201171875,-0.267532307908684,-0.2576104872226715,-0.07400631645321845
1775711421927244000,7.322244140625,0.0015491291381418703,-0.3154623722106218,0.017300678890943527
1775711421937258000,7.332258056640625,0.28756840311288834,-0.3164817783862352,-0.07435469149947166
1775711421947271200,7.342271240234375,0.3825720610179007,-0.5219920760154724,-0.27969723134636876
1775711421957284000,7.3522841796875,0.4170341564595699,-0.5876818150222302,-0.30399697534441944
1775711421967297000,7.362297119140625,0.333767990360409,-0.49818157683908937,0.0006733692169189453
1775711421977310000,7.37231005859375,0.1796424275316298,-0.4041121310442686,0.3561959491372108
1775711421987323100,7.3823232421875,0.05458280018940568,-0.22147066782712935,0.5471101506590843
1775711421997335800,7.392335693359375,-0.09031798430681229,-0.13863164109885692,0.7233107671737671
1775711422007350000,7.40235009765625,-0.016028759258985517,-0.17249299416840075,0.9962532635629177
1775711422017363000,7.412363037109375,0.18004910863637924,-0.0936503435999155,1.209572189116478
1775711422027375900,7.4223759765625,0.37257907479181884,-0.0178857853025198,1.1524550481438636
1775711422037389000,7.43238916015625,0.37770781598240133,0.13171499357819558,1.023793012395501
1775711422047402000,7.442402099609375,-0.012228051801770924,0.20621640007197856,0.7525450449645519
1775711422057415000,7.452414794921875,-0.5440753130078315,0.24612404756844042,0.4815273791581392
1775711422067428000,7.462427978515625,-1.1385748452208935,0.09886778598725796,0.5203302802830935
1775711422077442000,7.472442138671875,-1.5424796171247959,-0.16760931378006935,0.23678923299014568
1775711422087455000,7.482455078125,-1.5466075107097625,-0.14327800559997558,0.2590694538593292
1775711422097468000,7.492468017578125,-0.9133912943504751,-0.3725269062131643,-0.08140870166420935
1775711422107481000,7.502481201171875,-0.17142375750169156,-0.4604354912906885,-0.016034604477882384
1775711422117494000,7.512493896484375,0.3595347381711006,-0.4928904846936464,0.08308160331249237
1775711422127507000,7.5225068359375,1.0443535698652266,-0.6057739365518092,0.04210603432357311
1775711422137520000,7.53252001953125,1.5479636014938354,-0.5194949985027313,-0.034443536871671676
1775711422147534000,7.5425341796875,1.5801638894833623,-0.5732388636499643,-0.07898702747523784
1775711422157547000,7.552547119140625,1.544119639416784,-0.6648650079458952,0.10650748708546161
1775711422167560200,7.562560302734375,1.231328239981085,-0.34609073470830914,0.5615110164552927
1775711422177572900,7.57257275390625,0.5899789860486984,-0.06426701272726058,0.8532721950829029
1775711422187586000,7.5825859375,-0.11372925503253936,0.0626934798002243,0.9324223041653632
1775711422197599000,7.592598876953125,-0.6809962046660483,0.15263035583496093,0.9403507590770721
1775711422207612200,7.602612060546875,-1.0367794813491404,0.10907704531252384,0.8523048113554715
1775711422217624800,7.612624755859375,-1.0653637707985937,0.09779460379779338,0.9297387641698122
1775711422227639000,7.62263916015625,-0.8437962184682488,-0.14042144712507723,1.0253817428916692
1775711422237652000,7.63265185546875,-0.5486521194040775,-0.5047872587144374,0.8366758650690317
1775711422247665000,7.642664794921875,-0.3164285868942737,-0.7441945652484894,0.5757043769806623
1775711422257678000,7.652677978515625,-0.18445041233524678,-0.8171084102898836,0.36965807277858254
1775711422267691000,7.66269091796875,-0.15092472096085546,-0.6484826129436493,0.18149053961634634
1775711422277704000,7.672703857421875,-0.4253085021995008,-0.45869303153753277,0.14442425302565096
1775711422287717000,7.682717041015625,-0.751262750069052,-0.24543314269483088,0.3171148155927658
1775711422297730800,7.692730712890625,-1.0358875009454787,-0.07798924860954284,0.35711014137268066
1775711422307744000,7.702743896484375,-1.2803868699215353,0.09031564621925353,0.2009995422065258
1775711422317757200,7.712757080078125,-1.403779733095318,0.18069383628070354,-0.0031973347365856167
1775711422327770000,7.72277001953125,-1.1861902906157076,0.2707195596426725,0.03985153339505195
1775711422337783000,7.732782958984375,-1.0280885176323353,0.3661445116996765,0.1003249990582466
1775711422347796000,7.7427958984375,-0.7813967531785369,0.3731751409888267,0.07148118188977241
1775711422357809200,7.75280908203125,-0.39756957753300665,0.37828912300169465,-0.04973229141831398
1775711422367823000,7.762822998046875,0.4163340453661978,0.3195587016135454,-0.10044073439240456
1775711422377836000,7.7728359375,1.2876795111477375,0.3955623293638229,-0.05513911889791488
1775711422387849200,7.78284912109375,1.886901980229467,0.5234504581302404,-0.0597001432031393
1775711422397862000,7.79286181640625,2.229658602079004,0.520329111239314,-0.3267833921700716
1775711422407875000,7.802875,2.2650410272359847,0.3611123627513647,-0.5562590872764587
1775711422417888000,7.812887939453125,2.266809936604649,0.3736684774637222,-0.5454635524958372
1775711422427901000,7.82290087890625,1.2343209920562803,0.0767845489948988,-0.5344605124443769
1775711422437914000,7.8329140625,0.6516857928991318,-0.029425416448712348,-0.16379764653742312
1775711422447928000,7.842927978515625,-0.05507116822823882,-0.10919979490935802,0.12114976042211055
1775711422457941000,7.85294091796875,-0.5179296488821507,-0.3258376357525587,0.18553952274620533
1775711422467954000,7.862953857421875,-0.5190693204365671,-0.5526619395673275,0.15594401042759418
1775711422477967000,7.872967041015625,-0.3254886761844158,-0.8216109824061393,0.2528653385221958
1775711422487980000,7.88297998046875,-0.3472844745375216,-0.7990817552119494,0.2784451854586601
1775711422497993000,7.892992919921875,-0.21596797875761983,-1.1037784032583235,0.10750818856060504
1775711422508006100,7.903006103515625,-0.22058687072992322,-1.2935183003038166,0.053029579398036
1775711422518019800,7.913019775390625,-0.19800781304463744,-1.1862702239841223,0.14622691853344438
1775711422528033000,7.923032958984375,-0.03047930941581726,-1.1309124938994646,0.4466477889567613
1775711422538046200,7.933046142578125,0.23465981974601743,-1.2239181098550558,0.9077882136464118
1775711422548059000,7.943058837890625,0.41225495935901996,-1.3310866911977528,1.0092980385750532
1775711422558072000,7.953072021484375,0.677552932344377,-1.5536474923491477,1.0807593467205763
1775711422568085000,7.9630849609375,0.8392552140377462,-1.5680366677075623,1.0723650278627872
1775711422578098200,7.97309814453125,1.1467217651888728,-1.5138111565232275,1.1320710162848233
1775711422588112100,7.983112060546875,1.5079343734443187,-1.4232055874466896,1.1889905888587236
1775711422598125000,7.993125,1.5908508493229745,-1.2233604759722947,1.0611427921026944
1775711422608138000,8.003137939453126,1.2219000480309128,-1.182738542726636,1.003770215064287
1775711422618152000,8.01315185546875,0.684728669192642,-1.3208639878690243,1.178407820045948
1775711422628164900,8.023164794921875,0.2716086174368858,-1.4130699778795242,1.3663766157656907
1775711422638177800,8.033177734375,-0.002186111867427826,-1.4043302065849304,1.7197218516469002
1775711422648190700,8.043190673828125,-0.10375497350692749,-1.3440753521084785,2.1741215699046847
1775711422658204700,8.05320458984375,0.11104308468848466,-1.351487674191594,2.3487129976570604
1775711422668217900,8.0632177734375,0.44872225714325903,-1.4247083932250737,2.3407021251589057
1775711422678230800,8.073230712890625,0.6078546883486211,-1.481874049514532,2.232291434800625
1775711422688244000,8.083243896484374,0.5857376952171325,-1.332647364643216,1.8810744431197641
1775711422698256600,8.093256591796875,0.44542336172834035,-1.2974749289751053,1.702771301367879
1775711422708269800,8.103269775390626,0.28157719987407326,-1.1857786410748958,1.5593226153761148
1775711422718283000,8.113282958984374,0.11600655231475829,-0.9969207875609397,1.4057815744370221
1775711422728295700,8.123295654296875,0.051133828779309984,-0.913065861788392,1.2380769835889338
1775711422738310000,8.133309814453124,0.08266644664034246,-0.7970897046118974,1.0256325027823447
1775711422748323000,8.143322998046875,0.11780205742940306,-0.6583885054081678,0.9472609768569469
1775711422758335700,8.153335693359375,0.20197218663096428,-0.625752310219407,1.1254513058841227
1775711422768349000,8.163348876953124,0.22491335562691092,-0.5355915623009204,1.0807751288115977
1775711422778361900,8.17336181640625,0.2591429574869573,-0.4742962588608265,0.8418512218803167
1775711422788374800,8.183374755859376,0.1382088856421411,-0.5851788922905922,0.804002260479331
1775711422798389000,8.193388916015625,-0.05116670813560485,-0.6609767683357,0.6627063686072826
1775711422808402000,8.20340185546875,-0.3024177433289587,-0.6010036534100771,0.5604711520135403
1775711422818414800,8.213414794921874,-0.6212286953151226,-0.5455652593046426,0.5511871908396482
1775711422828427800,8.223427734375,-0.7553975117862224,-0.3431260396838188,0.5792080011874436
1775711422838441000,8.23344091796875,-0.8226901559449732,-0.19874387223422527,0.5705903949677944
1775711422848454000,8.243453857421875,-0.8921184969581664,-0.23971885670125484,0.49836570123434065
1775711422858466800,8.253466796875,-0.7767487812422216,-0.2523024439424276,0.34537352634966373
1775711422868479700,8.263479736328126,-0.5063210441529751,-0.3352741571396589,0.12594985418021679
1775711422878493700,8.27349365234375,-0.25573884813189507,-0.5084036956459284,-0.027084990802407262
1775711422888507000,8.2835068359375,-0.05126037776842713,-0.577258620685339,-0.07465981192588805
1775711422898519800,8.293519775390624,0.10907295365929603,-0.5581494310677051,-0.11481354313790798
1775711422908532700,8.30353271484375,0.1314567810334265,-0.4536369171917438,-0.27632454004287715
1775711422918546000,8.3135458984375,-0.10215455257296562,-0.31838848879039283,-0.42093993172645566
1775711422928558800,8.323558837890625,-0.5254990612231195,-0.17736498411893845,-0.466339162376523
1775711422938572000,8.333572021484375,-1.0136863366618751,-0.19721067131757736,-0.36250820102393627
1775711422948585700,8.343585693359374,-1.208168313667923,-0.2850245638489723,-0.10443944863975048
1775711422958599000,8.353598876953125,-1.0435399884600192,-0.19031798919439313,0.02906885809600353
1775711422968611800,8.36361181640625,-0.7383329797387123,-0.1477560277968645,0.13004676810503005
1775711422978624800,8.373624755859375,-0.3917196824610233,-0.19295009126365184,-0.0009369885891675948
1775711422988638000,8.383637939453125,-0.18130466165542602,-0.18785598299503325,-0.3049287032365799
1775711422998651000,8.39365087890625,-0.16137348813042043,-0.19199907414913175,-0.31161797174215317
1775711423008663800,8.403663818359375,-0.4561036726314574,-0.10626491050124168,-0.5266612368702888
1775711423018678000,8.413677978515626,-0.4782430237252265,0.00878770208954811,-0.5410094956964254
1775711423028690700,8.423690673828125,-0.3663432491421699,0.0437578931838274,-0.5914303539007901
1775711423038703900,8.433703857421875,-0.30101357561945913,0.0315016382008791,-0.6090612876594066
1775711423048716800,8.443716796875,-0.22998846693411468,-0.0007335749715566634,-0.519337177592516
1775711423058730000,8.45372998046875,-0.18199571265950798,0.010973813956975937,-0.4131833262503147
1775711423068742700,8.46374267578125,-0.23562450005970895,0.14415478843450547,-0.310116919529438
1775711423078755800,8.473755859375,-0.3213818984527141,0.1863894175738096,-0.2970066780656576
1775711423088769000,8.48376904296875,-0.3194365365386009,0.1845598640590906,-0.2989192336887121
1775711423098782700,8.49378271484375,-0.4659738361954689,0.30578911945819853,-0.6654618047952652
1775711423108796000,8.5037958984375,-0.3411759285293519,0.3348381038099527,-0.7592623705208301
1775711423118808800,8.513808837890625,-0.3284206379830837,0.3216518745005131,-0.839374018111825
1775711423128821800,8.52382177734375,-0.22090959987826644,0.2583943310767412,-0.7521066535472869
1775711423138835000,8.5338349609375,-0.12709259447455407,0.23079145388007163,-0.42919571889638897
1775711423148847900,8.543847900390626,-0.03290376008376479,0.34173721567392346,-0.12652969989478588
1775711423158860800,8.55386083984375,0.1636252125799656,0.3132850281715393,0.04068038543462753
1775711423168874800,8.563874755859375,0.22138065145611763,0.32883331043720243,0.00961421604156494
1775711423178888000,8.573887939453124,0.1782768382668495,0.3786497730076313,-0.09524141218364238
1775711423188900900,8.58390087890625,0.07013575863018631,0.32669396032094955,-0.07242109308838844
1775711423198913800,8.593913818359376,-0.03889394040927291,0.31877602680325506,0.18320201970934866
1775711423208927000,8.603927001953124,-0.004202785452082753,0.3886339914053678,0.48411447304189203
1775711423218940000,8.61393994140625,0.11500935797095298,0.3575567160964012,0.638734541389346
1775711423228952800,8.623952880859376,0.17417685560211538,0.3297545169353485,0.6277186418563128
1775711423238965800,8.6339658203125,0.17806641038656235,0.34824469787180423,0.6432300992429256
1775711423248979700,8.643979736328125,0.2291292197562754,0.36472996872663493,0.4480734378457069
1775711423258993000,8.653992919921874,0.3757587277412414,0.34208266811072824,0.12784662771224975
1775711423269005800,8.664005859375,0.501076713758707,0.28248773884773254,-0.2743348275303841
1775711423279018800,8.674018798828126,0.48275429060459135,0.29386253482103347,-0.4920493576943874
1775711423289031700,8.68403173828125,0.2716705036919564,0.2500941202431917,-0.5950292551755905
1775711423299044900,8.694044921875,0.09976736517548561,0.23048224180042742,-0.5566010325819254
1775711423309058000,8.70405810546875,0.02191357951387763,0.3506540971010923,-0.29558219822049137
1775711423319071700,8.71407177734375,0.003993380485102534,0.4433762199401855,-0.1815273644953966
1775711423329085000,8.7240849609375,0.037224692022800446,0.3837029647439718,-0.3426414710372686
1775711423339097900,8.734097900390625,0.046558337557315824,0.3491740876764059,-0.47809623566567894
1775711423349110800,8.74411083984375,0.0537877042889595,0.36688393189013,-0.28247487936615945
1775711423359124000,8.7541240234375,0.21323241631388662,0.45959144168198107,-0.07584288423061371
1775711423369137000,8.764136962890625,0.28494521500244735,0.3369774539262056,-0.04890694651007652
1775711423379149800,8.77414990234375,0.3133985715486109,0.34584640455842014,-0.1842331163227558
1775711423389163800,8.784163818359374,0.3256931857805699,0.34925299813151356,-0.3575619767934084
1775711423399177000,8.794177001953125,0.29423998983129857,0.15643267072737216,-0.3548725915789604
1775711423409190000,8.80418994140625,0.20553645498380063,0.1899503249257803,-0.35516309895813464
1775711423419202800,8.814202880859375,0.20635610080361366,0.20140695396363734,-0.3446031264990568
1775711423429216000,8.824216064453125,-0.04946458039283752,0.21937574137449264,-0.5480605832517147
1775711423439228700,8.834228759765624,-0.12333163450583814,0.20002689778208732,-0.6887924115002155
1775711423449241900,8.844241943359375,-0.098233579736948,0.2122445743203163,-0.6690595370262861
1775711423459254800,8.8542548828125,0.051704322143644094,0.15531506487429142,-0.3878250131100416
1775711423469268700,8.864268798828125,0.21888927303180097,0.16131401302814483,-0.062189621931314464
1775711423479282000,8.874281982421875,0.4080560463644564,0.25649697302281854,0.07652619031965732
1775711423489294800,8.884294921875,0.5460591803014279,0.22140403233170508,0.034171149671077726
1775711423499307800,8.894307861328125,0.5103261881411075,0.06296469795703888,-0.10307517454922199
1775711423509320700,8.90432080078125,0.5270857458926737,0.07873977471590042,-0.4830091421484947
1775711423519334000,8.914333984375,0.5339256749153137,0.07222294016778469,-0.8716337812036276
1775711423529346800,8.924346923828125,0.5444705959357321,-0.13000351348519323,-1.0262731387734412
1775711423539360800,8.93436083984375,0.513196336749941,-0.08439853112995624,-1.0677128181427717
1775711423549374000,8.9443740234375,0.28538214511498805,0.12133388481736182,-0.9391711939036845
1775711423559386600,8.95438671875,0.11897943064570426,0.3428483917862177,-0.8586644095152616
1775711423569399800,8.96439990234375,-0.1613888318300247,0.49268882464170455,-0.877164527323842
1775711423579413000,8.9744130859375,-0.413166813506931,0.5459691639304161,-0.32205694817006586
1775711423589426000,8.984426025390626,-0.529309121030569,0.7717068415522574,0.423639838334918
1775711423599438800,8.99443896484375,-0.47707960596904153,0.8119429903507233,0.694666271969676
1775711423609453000,9.004453125,-0.40556335276588795,0.786278972262144,0.6017775603920221
1775711423619465200,9.01446533203125,-0.4019287956558168,0.9190104494065046,0.024716508105397224
1775711423629478000,9.024477783203125,-0.3067348758757114,0.8327227435290813,-0.6256564486294984
1775711423639491000,9.034490966796875,-0.19484701092615722,0.8349088553965092,-0.9730003982692956
1775711423649504000,9.04450390625,-0.2940801230944693,0.9489040678888558,-1.2733762605071066
1775711423659517000,9.054516845703125,-0.3246867121517658,0.9387006537824869,-1.181229307207465
1775711423669529900,9.06452978515625,-0.46005511367097496,0.9661661683350801,-0.4697282202929258
1775711423679543000,9.07454296875,-0.769092859661579,1.099191659989953,0.13442892871201037
1775711423689557000,9.084556884765625,-0.8052573751069605,1.0200140783786773,0.27568507309556006
1775711423699570000,9.09456982421875,-0.6930233270682394,0.854234318113327,0.10758651449382305
1775711423709583000,9.1045830078125,-0.45466114567294713,0.7434341022700071,-0.49552024867534633
1775711423719596000,9.114595947265625,-0.21623203652128575,0.5712701939254999,-1.0839122577935456
1775711423729609000,9.12460888671875,0.0034720600247383116,0.3879121068716049,-1.6015560754716396
1775711423739622100,9.1346220703125,0.0038438159465789793,0.4150912056982517,-1.5743009887993336
1775711423749635000,9.144635009765626,0.5691618234694004,0.3773497963249683,-1.8778192407160996
1775711423759649000,9.15464892578125,0.5629087544240057,0.3902145385950804,-1.8635913933992385
1775711423769662000,9.164661865234375,0.4401720170713961,0.5343009379684924,-1.0544225439369679
1775711423779675000,9.1746748046875,0.4075191630087793,0.562696426847577,-0.9635486793130635
1775711423789688000,9.18468798828125,0.20147870402559637,0.5204781643211841,-1.0494757351845503
1775711423799701000,9.194700927734376,-0.05083469970226288,0.4337964906901121,-1.1527315269976854
1775711423809714200,9.204714111328125,-0.21929843835458157,0.36653555684387684,-1.2361620898783205
1775711423819726800,9.214726806640625,-0.3122306237477809,0.31315175718069077,-1.2521423338204622
1775711423829740000,9.224739990234376,-0.1599871483385563,0.21371055521965027,-1.1885083582997322
1775711423839754000,9.23475390625,-0.05265022469162941,0.21237024652659892,-1.1810469363778828
1775711423849767000,9.244766845703126,-0.0602057546377182,0.2694669292330742,-1.0808014322966337
1775711423859780000,9.254780029296874,-0.03374678677916527,0.3409662313014269,-0.9059604136973619
1775711423869793000,9.26479296875,-0.0028114041589200494,0.3998883758693933,-0.6563537847101688
1775711423879806000,9.274805908203126,0.06168707923665642,0.38961657270193095,-0.44528351486623285
1775711423889819000,9.28481884765625,0.16863807230591774,0.22944939162135122,-0.3072884181052446
1775711423899832000,9.29483203125,0.25891857414655384,0.06721826374828815,-0.17448504476845264
1775711423909846000,9.304845947265624,0.3276281724311411,-0.0010644143611192702,-0.1715332092255354
1775711423919859000,9.31485888671875,0.35831542550921436,0.020682138022780416,-0.07269581837654113
1775711423929872100,9.3248720703125,0.30378771650791164,0.07825345250368118,0.25265374159812926
1775711423939884800,9.334884765625,0.24349077645540235,0.2297778929233551,0.7013479416906834
1775711423949898000,9.34489794921875,0.12089549340009689,0.19484978740513323,1.0440443577855825
1775711423959911200,9.3549111328125,0.05177453783564269,0.061302902224659915,1.1006646551519632
1775711423969924000,9.364924072265625,0.05582279031313955,0.06849953573048115,0.9349830945640801
1775711423979938000,9.37493798828125,0.10477547566108406,-0.03172960173785686,0.8320598957061767
1775711423989951000,9.384950927734375,0.14423779054284094,-0.06446048947274685,0.7708464253306389
1775711423999964000,9.3949638671875,0.13596665967330335,0.029834581771492955,0.6507476352661847
1775711424009977000,9.40497705078125,0.18082988375052808,0.08808101903498172,0.5062339503914117
1775711424019990000,9.414989990234375,0.11669278101325034,0.1243459261149168,0.388139485886693
1775711424030003000,9.4250029296875,-0.047736587556451555,0.11456044515967369,0.27932430638074873
1775711424040016000,9.435015869140624,-0.06954743734821676,0.09521101704537868,0.16841829207539558
1775711424050029000,9.445029052734375,-0.10337255006060003,0.09253449131250381,0.008477320966124535
1775711424060043000,9.45504296875,-0.12787687672004103,0.0448427658110857,0.04273556439876556
1775711424070056000,9.465055908203125,-0.22064766100645064,0.062000821360945695,0.0813286221653223
1775711424080069000,9.475069091796875,-0.2896631834350526,0.19435294379889964,0.05567804808020591
1775711424090082000,9.48508203125,-0.28439686040468515,0.19843933632969854,0.05886836855411529
1775711424100095000,9.495094970703125,-0.27312618239298464,0.23319617693424224,0.24941782841682433
1775711424110108000,9.50510791015625,-0.2987222498118877,0.27821663739979263,0.24128069919049738
1775711424120121000,9.51512109375,-0.41528395179137584,0.24335166024565696,0.16245967593193053
1775711424130135000,9.525135009765625,-0.5707387173973023,0.1945335610628128,0.05694938319027423
1775711424140148000,9.53514794921875,-0.7183424041766673,0.20054829130768775,0.019798925447463988
1775711424150161200,9.5451611328125,-0.7979074507355689,0.1853092211216688,0.02414893735051155
1775711424160174000,9.555174072265626,-0.7759388530988246,0.1966290720373392,0.06713584616184234
1775711424170187000,9.56518701171875,-0.6678069066166877,0.2419371172726154,-0.031982699716091155
1775711424180200200,9.5752001953125,-0.49681189592108127,0.2528039637237787,-0.1318219610840082
1775711424190212900,9.585212890625,-0.3336754897713661,0.188669637465477,-0.2963707182496786
1775711424200226000,9.59522607421875,-0.10773447159714997,0.17608663474619388,-0.4481780672639608
1775711424210240000,9.605239990234375,0.08020809370279312,0.18917115724682806,-0.5254466003835201
1775711424220253000,9.6152529296875,0.24647782944217322,0.22680267650485036,-0.6132371120393276
1775711424230266000,9.62526611328125,0.39234395183920856,0.29668109937310216,-0.683739219763875
1775711424240279000,9.635279052734376,0.3859704712845385,0.2972211975991726,-0.6821037275165319
1775711424250292000,9.6452919921875,0.6395008495867252,0.5199088400006294,-0.8031734084397554
1775711424260305000,9.655304931640625,0.617287994865328,0.6480079811692238,-0.7643734299242496
1775711424270318000,9.665318115234374,0.6167489195525646,0.646480040949583,-0.7658394108235835
1775711424280332000,9.67533203125,0.4882302377976477,0.969801309967041,-0.7621580919623374
1775711424290345000,9.685344970703126,0.41969972240701314,1.2056494627147911,-0.7606774980157613
1775711424300358100,9.695358154296875,0.317725202576071,1.3660790941238403,-0.7916220868557691
1775711424310370800,9.705370849609375,0.2806371425449848,1.5100994425237177,-0.8814023110240697
1775711424320384000,9.715384033203126,0.25484569868445395,1.7108213368326424,-1.0433721576124428
1775711424330397200,9.725397216796875,0.30434177019409836,1.8967121572345493,-1.186264963287115
1775711424340410000,9.73541015625,0.4003938411734998,2.0717419764041898,-1.3380956931769847
1775711424350424000,9.745424072265624,0.44794827709607776,2.149222106447816,-1.5586925007790327
1775711424360437000,9.75543701171875,0.4863116908252239,2.15507024795413,-1.6956658532768487
1775711424370450000,9.765449951171876,0.3755857092618942,2.0489187346994875,-1.8445891712874174
1775711424380463000,9.775463134765625,0.3419397525086999,1.76907011218369,-2.0575123755216596
1775711424390476000,9.78547607421875,0.29792145482301713,1.5879396380513906,-2.2054285623162984
1775711424400489200,9.7954892578125,0.12047346859574318,1.3983552238285542,-2.177816332769394
1775711424410502000,9.805501953125,-0.25960370686650275,1.2556290068924427,-2.0672610315978526
1775711424420515000,9.81551513671875,-0.27382980061769485,1.2457277906030415,-2.074741158220172
1775711424430529000,9.825529052734375,-1.0337713855743407,1.342988725915551,-1.831346243354678
1775711424440542000,9.8355419921875,-1.2649205668509005,1.4223387414842843,-1.6808932315587997
1775711424450555100,9.84555517578125,-1.2582827362716198,1.4566396550148724,-1.3105249646842478
1775711424460568000,9.855568115234375,-1.00462727028504,1.4726666607081889,-0.6943523837149143
1775711424470581000,9.8655810546875,-0.7858302055813372,1.3768728753387927,0.09373451475203037
1775711424480594000,9.875593994140624,-0.44190892386659975,1.140503329065442,0.7826064212292433
1775711424490607000,9.885607177734375,-0.23866847086548804,0.9534136542677879,0.972738532462716
1775711424500621000,9.89562109375,-0.10377002494558692,0.8857400479674339,0.7611223191738128
1775711424510634000,9.905634033203125,0.10738616961613297,0.8019593564748764,0.4295733200371265
1775711424520647200,9.915647216796875,0.1576595821738243,0.7744108398139476,-0.08245382680296898
1775711424530659800,9.925659912109374,0.18910919792652128,0.7374170339375734,-0.5719441476643086
1775711424540673000,9.935673095703125,0.15268632380589842,0.5595458538621664,-0.9540174653798341
1775711424550686200,9.945686279296876,0.07915361621379852,0.37981063348054883,-1.039127359649539
1775711424560699000,9.955698974609374,0.06155366211533546,0.05990647943019867,-0.9275637582182884
1775711424570712000,9.965712158203125,0.2530373340882361,-0.24819968479871748,-0.8145522960662841
1775711424580726000,9.97572607421875,0.399027375125885,-0.15645955873429773,-0.6008464170217513
1775711424590739000,9.985739013671875,0.3737783675789833,-0.17530395993590353,-0.6122989544063806
1775711424600752000,9.995752197265626,0.030527094080299137,0.13507365635633467,-0.18048750005364417
1775711424610765000,10.00576513671875,-0.33329905767440793,0.3429401617228985,-0.16991057645976543
1775711424620778800,10.01577880859375,-0.5974139583550393,0.22841771048605441,-0.3223451174616814
1775711424630792000,10.0257919921875,-0.6668551588498055,0.21478198384344577,-0.7680079870343208
1775711424640805000,10.03580517578125,-0.7477401289008557,0.3305301774829626,-1.2343722838521003
1775711424650817800,10.04581787109375,-0.5583072519779205,-0.006662965020537376,-1.1390782646983861
1775711424660832000,10.05583203125,-0.37320553612709045,-0.18413608568906784,-0.7548322791188955
1775711424670844700,10.0658447265625,-0.4793418518126011,-0.21452947038710116,-0.28771979428231714
1775711424680857900,10.07585791015625,-0.7248796239256858,-0.24138766669631004,0.043939679491519924
1775711424690871000,10.08587109375,-1.0567150387883186,-0.010587444987893104,0.13970716137588024
1775711424700884000,10.095884033203125,-1.212013152527809,0.1155529633283615,0.16535656641721724
1775711424710897000,10.10589697265625,-1.1333759614035486,0.16479484088122845,-0.05205401236414909
1775711424720909800,10.115909912109375,-0.8813656322754919,0.2861047603011131,-0.32687282401919365
1775711424730923800,10.125923828125,-0.4599427393376827,0.0628980624616146,-0.20357085399925706
1775711424740937000,10.13593701171875,-0.5103846403300761,0.0329652810126543,-0.21473113043904304
1775711424750950000,10.145949951171875,0.3574810205116868,-0.5388572860985994,0.2616828512281179
1775711424760963000,10.155963134765624,0.7092392794623971,-0.8083832520425319,0.510066075900197
1775711424770975700,10.165975830078125,0.8351882568597793,-0.7765490208864212,0.6064636723816395
1775711424780989000,10.175989013671876,0.7530187999561428,-0.6066507193863392,0.6095727443128824
1775711424791001900,10.186001953125,0.7113222232162952,-0.53027708927989,0.7158820784777402
1775711424801015800,10.196015869140625,0.6905692119143902,-0.3250917858213186,0.7549269716650248
1775711424811029000,10.206029052734374,0.5816811133027077,-0.0740875649958849,0.797446847486496
1775711424821042000,10.2160419921875,0.3724573481082916,-0.17830957149267196,1.15977267768085
1775711424831054800,10.226054931640626,0.09467734856009483,-0.38771395395100117,1.5137684864252805
1775711424841067800,10.23606787109375,-0.05902326685488224,-0.614051351031661,1.5626462068408726
1775711424851081000,10.2460810546875,0.1806193097397685,-0.9878513459205627,1.500039236280322
1775711424861094000,10.256093994140626,0.41190117748528715,-1.1284253532588482,1.3379314425259827
1775711424871106800,10.26610693359375,0.5567164756551385,-1.1052297711104153,1.1450228523164987
1775711424881121000,10.27612109375,0.6230591256126761,-1.0736012916594744,0.8750596639990806
1775711424891133700,10.2861337890625,0.5608005300983786,-1.016170846953988,0.6995318321794272
1775711424901147000,10.29614697265625,0.4090761831924319,-0.9329138870745897,0.6816612444460391
1775711424911160000,10.30616015625,0.21932810284048318,-1.0546879168748855,0.8105021438926457
1775711424921172700,10.3161728515625,0.15567454583644866,-1.098430612489581,1.0568184991627931
1775711424931186000,10.32618603515625,0.0749064801633358,-1.0818389586508272,1.238002164787054
1775711424941198800,10.33619873046875,-0.06350216583460569,-1.1412637920439244,1.3617892879754303
1775711424951212800,10.346212890625,-0.20935206774920223,-1.0139332971602677,1.4061778802782297
1775711424961226000,10.35622607421875,-0.2253115611642599,-0.8777578170418738,1.2292524566203356
1775711424971239000,10.366239013671875,-0.16886749714761973,-0.7570692443907261,0.8795242421925067
1775711424981251800,10.376251953125,-0.13282821551710366,-0.6803273654937744,0.42689796334803104
1775711424991264800,10.3862646484375,0.014976327596604824,-0.5811398460328578,0.06649404112696647
1775711425001278000,10.39627783203125,0.0384206238090992,-0.44785365761518475,-0.07375088038742542
1775711425011291000,10.406290771484375,-0.13233663260787726,-0.39214112274348734,-0.13279694359600544
1775711425021303800,10.4163037109375,-0.2071253316104412,-0.3098293347597122,-0.13535948756039143
1775711425031318000,10.426318115234375,-0.2036357359290123,-0.29579905584156513,-0.12440963900089264
1775711425041330700,10.43633056640625,-0.21691315065324304,-0.17962006956934928,-0.18994857136011123
1775711425051344000,10.44634375,-0.36278906379193065,-0.1956920834481716,-0.32831250143349167
1775711425061356800,10.456356689453125,-0.6393173097133636,-0.265772750890255,-0.3370452584654093
1775711425071370000,10.466369873046874,-0.9363184348210691,-0.2625292389243841,-0.3008072393923998
1775711425081383000,10.4763828125,-1.0037409889698028,-0.2644780349045992,-0.2777554496288299
1775711425091395800,10.486395751953125,-1.0058823849126697,-0.2599661104381084,-0.2729991950124502
1775711425101409800,10.496409912109375,-0.4024830685377121,-0.4005219975978136,-0.41297932811081406
1775711425111422700,10.506422607421875,-0.12719605484902857,-0.4323334324002266,-0.5359902062296867
1775711425121436000,10.516435791015626,0.190362997379899,-0.4955623342514038,-0.5568360103815794
1775711425131449000,10.526448974609375,0.5124480026006698,-0.5356979452848434,-0.4599631976038217
1775711425141461800,10.536461669921875,0.7091931022331118,-0.5313619619071484,-0.37047231177091594
1775711425151475000,10.546474853515624,0.7207286417260765,-0.6206313139438628,-0.3230851221740246
1775711425161488000,10.55648779296875,0.5863979126915335,-0.5775485435426235,-0.202101365968585
1775711425171500800,10.566500732421876,0.37523031995296474,-0.4243593847811222,0.009103928431868552
1775711425181515000,10.576514892578125,-0.005222118562459945,-0.34739012686908244,0.14902970099449156
1775711425191528000,10.58652783203125,-0.33438509934544564,-0.2698702493369579,0.20038345613479613
1775711425201540900,10.596540771484374,-0.6545803452968597,-0.2000707369238138,0.2651905670881271
1775711425211553800,10.6065537109375,-0.9903836408771574,-0.22544190954566,0.27498832300305365
1775711425221567000,10.61656689453125,-1.062339308410883,-0.25141630875766274,0.1682698235154152
1775711425231580000,10.626579833984374,-1.02498835965991,-0.24130408006608484,0.27518881401121614
1775711425241592800,10.6365927734375,-1.0156279722489416,-0.25415245572328565,0.26081892787516114
1775711425251607000,10.64660693359375,-0.9866253112569451,-0.4276800536364317,0.7020809321403503
1775711425261619700,10.65661962890625,-0.9207717599906027,-0.4614011214524507,0.839855079627037
1775711425271633000,10.6666328125,-0.7081811487115919,-0.5141968920946121,0.9132938253253697
1775711425281645800,10.676645751953124,-0.4137402294807136,-0.5175117157310247,1.0735247192919253
1775711425291658800,10.68665869140625,-0.20542714939042925,-0.4727601353347301,1.1578063460439443
1775711425301672000,10.696671875,-0.13773936843425036,-0.4152700693964958,1.164918223875761
1775711425311684900,10.706684814453125,-0.10478037103191018,-0.44743513994216916,1.1589812350422144
1775711425321698000,10.716697998046875,0.004712707735598087,-0.4498474617809057,1.0941577574759722
1775711425331712000,10.7267119140625,0.19886676796153185,-0.4388572812110185,1.1618237649917602
1775711425341725000,10.736724853515625,0.45253217082023617,-0.4800853636562824,1.2466285388350486
1775711425351737900,10.74673779296875,0.7901181120336055,-0.5295289012610912,1.1412187838584185
1775711425361750800,10.756750732421875,1.117425820338726,-0.38706805726289745,0.9103139327317475
1775711425371764000,10.766763916015625,1.1689552243068813,-0.16482582054138184,0.8932564149469137
1775711425381777000,10.77677685546875,1.0861693890705704,-0.12655366529226303,0.9557774607896804
1775711425391789800,10.786789794921875,1.08628220179528,-0.010483400091528892,0.9117997873753309
1775711425401804000,10.796803955078126,0.9489587206855415,0.08333002511560916,0.8166156583368778
1775711425411817000,10.80681689453125,0.8561296303406357,0.04782499649226665,0.5996534078449011
1775711425421830000,10.816829833984375,0.8508782856836915,0.05655833804607391,0.608935615453124
1775711425431842800,10.8268427734375,1.3482310104832052,0.10417992092072963,0.08601414963304996
1775711425441856000,10.83685595703125,1.2381842433556913,0.16871581371724603,0.03704173667132854
1775711425451868700,10.84686865234375,0.979422832532227,0.23427228173315523,-0.003382628175616264
1775711425461881900,10.8568818359375,0.6905126594215631,0.31147710196673867,-0.0728413643270731
1775711425471895000,10.86689501953125,0.4666390221059322,0.21387188326120377,-0.1744388675391674
1775711425481908700,10.87690869140625,0.3207809368848801,0.15868600261211394,-0.284937470087409
1775711425491922000,10.886921875,0.16065584138035774,0.22740239596366882,-0.2506681207388639
1775711425501935000,10.89693505859375,-0.16553557624593376,0.08735387380421161,-0.13137889349162576
1775711425511947800,10.90694775390625,-0.24176848270744083,-0.004673252508044242,-0.08845160591304302
1775711425521961000,10.9169609375,-0.16363690301775932,-0.008932078996300696,0.04505962343215942
1775711425531974000,10.926973876953125,-0.14866583611816167,-0.05438391661643981,0.1269645841807127
1775711425541986800,10.93698681640625,-0.1012707554757595,-0.12855974441766738,0.08785013288855552
1775711425552001000,10.9470009765625,-0.07422229729145764,-0.2421381928026676,-0.02774608505964279
1775711425562014000,10.957013916015624,-0.01266162091344595,-0.3713146078139543,-0.05518061995208263
1775711425572027000,10.96702685546875,0.0535763996258378,-0.4839689270913601,-0.06506196249723434
1775711425582039800,10.977039794921875,0.05071648015007376,-0.6053308689594269,-0.0669242492377758
1775711425592053000,10.987052978515624,-0.07343202369660139,-0.7202057868957519,0.07670680758357047
1775711425602066000,10.99706591796875,-0.2966901594623923,-0.7927174808770417,0.22442133432626724
1775711425612078800,11.007078857421876,-0.4472681128121912,-0.8882353719145059,0.31672318592667575
1775711425622091500,11.017091552734374,-0.595503886950016,-1.0014508322060107,0.51060149795115
1775711425632105500,11.02710546875,-0.754913527661562,-1.2420038016438484,0.8216407930225134
1775711425642118400,11.037118408203124,-0.7760556844115257,-1.6368495071709155,1.202296645155549
1775711425652131600,11.047131591796875,-0.6199380709826946,-2.002654411652684,1.688964309811592
1775711425662144500,11.05714453125,-0.48003041859865186,-2.265823702046275,2.022261613920331
1775711425672157400,11.067157470703124,-0.24920038627386093,-2.3245950399667024,2.1151228529691695
1775711425682170400,11.07717041015625,-0.13627923275381326,-2.3666525589734313,2.1484300792872904
1775711425692183600,11.08718359375,-0.3177650961950421,-2.5097820960134265,2.1589900517463683
1775711425702197500,11.097197509765625,-0.6060892861112952,-2.507712888523936,2.0182991400301455
1775711425712210400,11.10721044921875,-0.8314496548533439,-2.2721809621185063,1.906284287700057
1775711425722223600,11.1172236328125,-1.0887933078333736,-2.070288854986429,1.966572459924221
1775711425732236300,11.127236328125,-1.201407733491808,-1.8171154734283685,1.8652829997479914
1775711425742249500,11.13724951171875,-1.2336544909715652,-1.8513889144301414,1.8461159424632787
1775711425752262400,11.147262451171875,-0.8170131332218646,-1.282709906041622,2.0702929466396567
1775711425762275600,11.157275634765625,-0.42657822987437244,-1.2551426846802234,2.2262141607135533
1775711425772288500,11.16728857421875,0.2878162403941154,-1.2887632147312162,2.1651310387194154
1775711425782302500,11.177302490234375,0.9668984281323849,-1.2988520625472069,1.9614409422546624
1775711425792315400,11.1873154296875,0.9781482825517653,-1.3231722648113966,1.937671944132447
1775711425802328600,11.19732861328125,1.353356390672922,-1.2285440160900354,1.0130354715377092
1775711425812341500,11.207341552734375,1.1431555971398948,-1.1394780776709317,0.5473971509069204
1775711425822354400,11.2173544921875,1.1587535637661814,-1.1591092453360556,0.5265168599635363
1775711425832367400,11.227367431640625,1.0148097877338529,-0.8218383614212275,0.5090314721554517
1775711425842380500,11.237380615234375,0.8131132031738758,-0.7925374481350183,0.6815320651084185
1775711425852394500,11.24739453125,0.575621082611382,-0.6369575948446988,0.8026023305535316
1775711425862407400,11.257407470703125,0.2762076356649399,-0.43602001195847984,0.8088292422443628
1775711425872420600,11.267420654296876,0.057253626833856104,-0.42881285705864425,0.6410545087695121
1775711425882433500,11.27743359375,-0.04225421062260866,-0.3129915981829166,0.23152269076406953
1775711425892446500,11.287446533203125,-0.06724690532088279,-0.21717910811305044,-0.08667349032461642
1775711425902459400,11.29745947265625,-0.048832127708196636,-0.30154373697340486,-0.19844693511426448
1775711425912472600,11.30747265625,0.07741714781001209,-0.2820534390836954,-0.34110184037983415
1775711425922485500,11.317485595703126,0.056685763818025585,-0.21604864277839658,-0.3140764708101749
1775711425932499500,11.32749951171875,-0.08532996676117181,-0.1560042161822319,-0.29928689795732494
1775711425942512600,11.3375126953125,-0.33637948803305623,-0.05016892926990985,-0.3735428052574396
1775711425952525300,11.347525390625,-0.5736626420199871,0.14409341363608835,-0.28348376414775844
1775711425962538500,11.35753857421875,-0.6569254471182823,0.2986754880607128,-0.04909165542721748
1775711425972551700,11.3675517578125,-0.6653422700688243,0.3191717481225729,0.25715046849548817
1775711425982564400,11.377564453125,-0.5761082816064358,0.2248848601847887,0.4974783970057964
1775711425992577500,11.38757763671875,-0.47803135373592376,0.09417407521307468,0.46509120814204213
1775711426002591500,11.397591552734376,-0.4549938847586512,0.06673778675496578,0.17266601264774797
1775711426012604400,11.4076044921875,-0.5260685316741466,0.16946809338927268,-0.18260054668486117
1775711426022617600,11.41761767578125,-0.6816216430880129,0.30270342840254305,-0.44078152727186676
1775711426032630500,11.427630615234374,-0.7387853996813297,0.38415246207714077,-0.4758931726634502
1775711426042643500,11.4376435546875,-0.6720467361435294,0.5159662398546934,-0.5626490805745125
1775711426052656400,11.447656494140626,-0.6139549049198627,0.6626900019943713,-0.6410773051232099
1775711426062669600,11.457669677734375,-0.6784834911927581,0.6393395215451717,-0.4232166444867849
1775711426072682500,11.4676826171875,-0.7043897936046123,0.6429553739547729,-0.41363749975860115
1775711426082696400,11.477696533203124,-0.41434813224598765,0.8217576974004507,0.45052083099782464
1775711426092709600,11.487709716796875,-0.4198667495369911,0.8396382220059633,0.4661275654524564
1775711426102722300,11.497722412109376,-0.20954189123287795,0.9476490993916988,0.34831250241100786
1775711426112735500,11.507735595703124,0.006281272226572036,0.9323048152655362,-0.011478840869665146
1775711426122748400,11.51774853515625,0.1860802054941654,0.9640759180575609,-0.4663923538684845
1775711426132761600,11.52776171875,0.09569909282326698,0.7505588395833969,-0.7094616900414228
1775711426142774500,11.5377744140625,0.017824410504102706,0.6234107155293226,-0.8215992919683456
1775711426152788500,11.54778857421875,-0.050019876188039776,0.7482277662873268,-0.584028553211689
1775711426162801400,11.557801513671874,-0.08162979706898331,0.8057125715285539,-0.19519056366682053
1775711426172814300,11.567814453125,-0.056319999245554205,0.9133896869152783,-0.10256254885196685
1775711426182827500,11.57782763671875,-0.071797115971148,0.9858920285463333,-0.12578092735409735
1775711426192840700,11.5878408203125,-0.13927052352428435,0.8459230013638734,-0.0637736762523651
1775711426202853400,11.597853271484375,-0.06023235038369894,0.7757832972109318,0.013804653468728065
1775711426212866600,11.607866455078126,0.05746551601886749,0.8605851484447717,0.0218681329369545
1775711426222879500,11.61787939453125,0.12461699814125894,0.8556295718640089,-0.07885726361572742
1775711426232893400,11.6278935546875,0.37113515959382054,0.8768190748870373,-0.32514147018194195
1775711426242906600,11.63790673828125,0.37750527914762494,0.913172244772315,-0.29447277567386626
1775711426252919600,11.64791943359375,0.5562485658824443,0.7036474508047104,-1.072242278265953
1775711426262932500,11.657932373046876,0.545674564898014,0.6478484066933393,-1.36027946793437
1775711426272945400,11.6679453125,0.34862083770781754,0.5899678801327943,-1.4550883339196443
1775711426282958600,11.67795849609375,0.2937526447057724,0.5545861856281757,-1.4572697696119545
1775711426292971300,11.68797119140625,0.37346769419461484,0.6356868442565202,-1.1111907253414393
1775711426302984400,11.697984375,0.3667886548221111,0.6386848570287227,-1.1065928761571646
1775711426312998700,11.70799853515625,0.3325345030426979,0.6258744752943516,-0.2532242349624634
1775711426323011300,11.71801123046875,0.3182806445017457,0.6927309199929237,-0.3431657871723175
1775711426333024500,11.7280244140625,0.34007118215784427,0.6692430768996477,-0.42667350694239137
1775711426343037400,11.738037353515624,0.43015404253453016,0.7437590964406728,-0.6353536667793989
1775711426353050400,11.74805029296875,0.4674374790072441,0.7215519408077001,-0.7913017688602209
1775711426363063600,11.7580634765625,0.4670258294664323,0.599907090345025,-0.803522952529788
1775711426373076500,11.768076416015624,0.49864378752335903,0.4610357952713966,-0.835196440166235
1775711426383090400,11.77809033203125,0.44084290207028387,0.5112497327268123,-0.7346031455606221
1775711426393103400,11.788103271484376,0.4436325327888131,0.7048533194631338,-0.5717272900432347
1775711426403116500,11.798116455078125,0.5253858101069927,0.751599288547039,-0.3293202171713114
1775711426413129500,11.80812939453125,0.4570695219889283,0.6891501388967037,0.08014847247004508
1775711426423142400,11.818142333984374,0.4607096320569515,0.7173872223436832,0.10621756422817706
1775711426433155600,11.828155517578125,0.10358546215891837,0.5141735112190247,0.24746903243660925
1775711426443168500,11.83816845703125,-0.08268032903522253,0.5921212587743997,0.0018424129962921142
1775711426453181400,11.848181396484375,-0.22248072165250776,0.637236996307969,-0.13053542840480803
1775711426463195600,11.858195556640625,-0.4271685969829559,0.5901426521778106,-0.2581979317218065
1775711426473208300,11.868208251953124,-0.30941666230559345,0.5493453623652458,-0.33337796812951564
1775711426483221500,11.878221435546875,-0.40544907873645425,0.4165495878130197,-0.44939387279450893
1775711426493234400,11.888234375,-0.3552376254990697,0.34719723464548585,-0.59872284899652
1775711426503247600,11.89824755859375,-0.2696402399733662,0.33268472516834735,-0.6048398705720901
1775711426513260300,11.90826025390625,-0.4048258322715759,0.26754560578167436,-0.4796493103265762
1775711426523273500,11.9182734375,-0.24534137275815007,0.3872258781731128,-0.519014521509409
1775711426533287400,11.928287353515625,-0.2520705348826945,0.4218225597798824,-0.6279238090395927
1775711426543300400,11.93830029296875,-0.1441813841804862,0.58518298394382,-0.8082914821058511
1775711426553313500,11.9483134765625,-0.05467354721277952,0.6323305195659399,-0.8537205233722924
1775711426563326500,11.958326416015625,-0.18529826133623717,0.4825947161287069,-0.7814923225075006
1775711426573339400,11.96833935546875,-0.2130817557968199,0.5409247400224209,-0.8040437615334988
1775711426583352600,11.9783525390625,-0.3724551561512053,0.45569326519966125,-0.7037047339498996
1775711426593365500,11.988365478515625,-0.4684285358712077,0.45990942158997056,-0.46970016324222086
1775711426603378400,11.99837841796875,-0.3538835805416107,0.5652379280239344,-0.25308219614326954
1775711426613392600,12.008392578125,-0.12388590738773345,0.3092465664356947,-0.40549627887904643
1775711426623405600,12.018405517578126,0.2620478851482272,0.25558628791868687,-0.797008456069231
1775711426633418500,12.02841845703125,0.4949285663925111,0.3624941724985838,-1.2973627007722854
1775711426643431400,12.038431396484375,0.508131892967224,0.37147944298684593,-1.6789403439253567
1775711426653444600,12.048444580078124,0.4756488425135612,0.356210562184453,-1.7031828047782183
1775711426663457300,12.058457275390625,0.24849925226718186,0.4155938945233822,-1.615404568082094
1775711426673470500,12.068470458984375,-0.02400631400942802,0.44026948609650135,-1.4255933593660592
1775711426683484700,12.078484619140625,-0.3709633101582527,0.3670762395918369,-1.2022814475864172
1775711426693497300,12.088497314453125,-0.7090262212336063,0.3632552199989557,-1.1206050348967314
1775711426703510500,12.098510498046876,-0.8599624865017831,0.3811053494662046,-1.0266139150351286
1775711426713523500,12.1085234375,-0.8504499772690236,0.27380817330777646,-1.0304267513215541
1775711426723536400,12.118536376953125,-0.6197206288397312,0.23989304422438143,-1.2343863123774528
1775711426733549300,12.12854931640625,-0.43917949890270824,0.18562135581076145,-1.408624104386568
1775711426743562500,12.1385625,-0.23350831162333488,0.17820844920575618,-1.5355571243852375
1775711426753575700,12.14857568359375,-0.04419949947148561,0.27874329162240025,-1.4797656790584326
1775711426763589400,12.15858935546875,0.05380158668383956,0.344433030629158,-1.056850647866726
1775711426773602600,12.1686025390625,0.028324615599960086,0.37475510365664955,-0.36493864304125306
1775711426783615500,12.178615478515624,-0.038284868600219485,0.3625724984318018,0.2376414659053087
1775711426793628400,12.18862841796875,-0.07173720247745513,0.35821722583174703,0.6216665022104978
1775711426803641600,12.1986416015625,-0.18332608448043464,0.33037527918219567,0.8140227192342281
1775711426813654500,12.208654541015624,-0.229415343221277,0.3917588454276323,0.9708739076346159
1775711426823667500,12.21866748046875,-0.30691987705379725,0.35322365532815453,1.1546212862670422
1775711426833680400,12.228680419921876,-0.29375965896844863,0.2629004103243351,1.20919517249763
1775711426843694300,12.2386943359375,-0.13013225443139673,0.1861281362891197,1.1046142695605754
1775711426853707500,12.24870751953125,0.05057853298410773,0.10727321076095103,0.745836487236619
1775711426863720400,12.258720458984374,0.2621780873991549,0.01191430967748165,0.40803836457729337
1775711426873733600,12.268733642578125,0.42218744756951926,-0.11310849278569221,0.15664192956387996
1775711426883746300,12.278746337890626,0.5475460578583181,-0.12950725440084934,-0.03056640317738056
1775711426893759500,12.288759521484375,0.4908496265158057,-0.14155775767862797,-0.06412146677672863
1775711426903772400,12.2987724609375,0.44395022043585775,-0.06995616427958011,-0.15857318988740443
1775711426913786400,12.308786376953124,0.48917920908555385,0.10700608425736427,-0.18791560422778128
1775711426923799600,12.318799560546875,0.45646234987601636,0.1904763946264982,-0.007469605228304863
1775711426933812500,12.3288125,0.4074620259940624,0.235292856952548,0.12283727511763572
1775711426943825400,12.338825439453124,0.4110647266611457,0.1110258412927389,0.2695429170787334
1775711426953838600,12.348838623046875,0.46665202771797776,-0.009972527959942816,0.3524678685247898
1775711426963851500,12.3588515625,0.3685995036363601,-0.007873509854078293,0.284625919920206
1775711426973864400,12.368864501953125,0.2794679526351392,-0.055962125718593596,0.17738544238507747
1775711426983878400,12.37887841796875,0.19998817320689558,-0.01613105058968067,0.08624912743270396
1775711426993891600,12.3888916015625,0.11831059147343038,0.11327683508992195,0.0755336721509695
1775711427003904500,12.398904541015625,-0.025103899987787007,0.12224223183393478,0.1308031394302845
1775711427013917400,12.40891748046875,-0.22767726738229394,0.12722878807485102,0.09180208538472652
1775711427023930600,12.4189306640625,-0.25526889253258706,0.1381488260179758,0.002039396873116493
1775711427033943300,12.428943359375,-0.2316892795026302,0.07624035911560058,-0.06889291896224022
1775711427043956500,12.43895654296875,-0.26806875287294385,0.05184709161520004,-0.034518355673551555
1775711427053969400,12.448969482421875,-0.3199263658821583,0.05521452222168445,-0.06860007349550723
1775711427063983400,12.4589833984375,-0.31981311476603147,0.06721767922639846,-0.0544850389033556
1775711427073996500,12.46899658203125,-0.19310615860819816,0.21368483625650406,-0.29189795674979685
