time,seconds_elapsed,z,y,x
1775719676074324700,0.06232470703125,-0.8641255975306034,-0.42475276801288125,-0.6750022249482571
1775719676084337700,0.072337646484375,-0.8607651811867952,-0.626916093301773,-0.8502887222927064
1775719676094352000,0.082351806640625,-0.7648831330120563,-0.9109908090800046,-0.9690529027525335
1775719676104364800,0.09236474609375,-0.6474702210307121,-1.174017476132512,-1.0466246566023676
1775719676114377700,0.102377685546875,-0.5116156434297562,-1.387819801288843,-1.0236669017978013
1775719676124391000,0.112390869140625,-0.5033703776538372,-1.5995628558278083,-1.0809035774968563
1775719676134404900,0.12240478515625,-0.5431459232032299,-1.67667765969038,-1.1523894355617463
1775719676144417800,0.132417724609375,-0.6013724867224693,-1.6347972508162258,-1.233785423874855
1775719676154431000,0.142430908203125,-0.5247516038566827,-1.586741368177533,-1.44054952095747
1775719676164443600,0.152443603515625,-0.5847229652166366,-1.3435019361346958,-1.650585333187133
1775719676174457300,0.162457275390625,-0.9613988078027963,-0.8247837672233581,-1.7852467554807663
1775719676184470500,0.172470458984375,-1.0985410871267318,-0.7729559648305178,-1.7398580462247133
1775719676194483500,0.1824833984375,-0.873428847926855,-1.260807286313176,-1.7830784715309738
1775719676204496400,0.192496337890625,-0.8854781821608543,-1.9372125099271535,-1.7763655298888683
1775719676214510300,0.20251025390625,-1.326865858632326,-2.4667156922250983,-1.5862357567429541
1775719676224523300,0.212523193359375,-2.3431349052637813,-2.0683739612758156,-1.8925674586452543
1775719676234536400,0.222536376953125,-2.4281588748157024,-1.5342922190159558,-2.247756861088425
1775719676244550400,0.23255029296875,-2.3811013555645943,-1.2820429665654898,-2.1879126332394776
1775719676254563300,0.242563232421875,-2.5600813736647368,-1.0058645569950342,-2.1265866424001754
1775719676264576500,0.252576416015625,-3.0470874764949083,-0.589839869838953,-1.7768924763724208
1775719676274589200,0.262589111328125,-3.3488229366481304,-0.2517722825884819,-1.2375883232891558
1775719676284603400,0.272603271484375,-3.205221690443158,0.0866091929167509,-0.9239671950310469
1775719676294616600,0.282616455078125,-3.0828385888338086,0.5468482848525047,-0.8613995335675776
1775719676304629200,0.292629150390625,-2.9809394723266363,0.6661386811435223,-0.7113659892927855
1775719676314642400,0.302642333984375,-3.0440362722307444,0.6355535732656717,-0.5122143399752677
1775719676324656400,0.312656494140625,-3.469076625013351,0.6347288128793239,-0.3784731012664735
1775719676334669300,0.32266943359375,-3.7625557134747503,0.6782207486033439,-0.41667547921501097
1775719676344682500,0.3326826171875,-3.6654987763017415,1.1976251462131737,-0.5569341369938104
1775719676354695400,0.3426953125,-3.327750630263984,2.0064561420232057,-0.7075977958656847
1775719676364709400,0.35270947265625,-2.448991819486022,2.669389889645576,-0.7551930752553045
1775719676374722600,0.36272265625,-0.5153355407357215,2.143961993962526,0.1721665386930108
1775719676384735200,0.3727353515625,1.5985326359972356,1.5331313585430382,1.6410536808624863
1775719676394748400,0.38274853515625,1.5648767423719168,1.3290560621529817,3.1044527470096943
1775719676404762600,0.3927626953125,1.5082219582140446,0.5405623364508152,3.165893888661265
1775719676414775300,0.402775390625,1.255365387520194,0.7880348760187625,2.734274449749291
1775719676424788500,0.41278857421875,1.2375664037182927,1.6138193447172642,2.1969673157021403
1775719676434801400,0.422801513671875,1.4427639821365474,1.928410779312253,1.6289698598369955
1775719676444815400,0.4328154296875,1.4828747509896754,2.2472505190014838,1.3411208862170576
1775719676454828500,0.44282861328125,1.272622227269411,2.4907892262518403,1.4004098182708025
1775719676464841500,0.452841552734375,0.8946066605120897,2.684964475396275,1.3133295007109642
1775719676474855400,0.46285546875,0.4891229488536715,2.948522472846508,1.2180137081168592
1775719676484868400,0.472868408203125,0.19213351418375968,3.3233003728568553,1.271963763360679
1775719676494881300,0.48288134765625,-0.03848769769594073,3.7957927971661087,1.4760042806982994
1775719676504894500,0.49289453125,-0.14084756358265876,4.225364363637566,1.7640799026809633
1775719676514908400,0.502908447265625,-0.0950491044819355,4.490008987280726,2.222008087325841
1775719676524921300,0.51292138671875,0.013563099797815083,4.708633618026972,2.4884689666107294
1775719676534934300,0.522934326171875,0.30835049437880513,4.845259764522313,2.5236188981860876
1775719676544947500,0.532947509765625,0.6600140607833862,5.107753347611427,2.5091595802009103
1775719676554961400,0.54296142578125,0.8175340152908116,5.414474779483676,2.3580391905374825
1775719676564974300,0.552974365234375,0.7946867351233958,5.543379976338148,2.00416335491091
1775719676574987500,0.562987548828125,0.8539180917710065,5.4924663661807775,1.8056977150961755
1775719676585000400,0.57300048828125,0.8267015835434198,5.4759425168812275,1.7156719917342065
1775719676595014400,0.583014404296875,0.6847714854210615,5.486273356759548,1.4213434468366204
1775719676605027300,0.59302734375,0.7224801615685225,5.436365708774328,1.1487810358062387
1775719676615040300,0.603040283203125,0.9628630351364612,5.485794048810005,1.0496735958442092
1775719676625053400,0.613053466796875,0.9505483279645442,5.579708011782169,0.6989625078588724
1775719676635067400,0.6230673828125,0.7521545843422413,5.406698884785175,0.5539321056336164
1775719676645080300,0.633080322265625,0.6169055714190006,5.1045671187907455,0.7532970323756337
1775719676655093500,0.643093505859375,0.4870037647426128,5.060402982893586,0.6863672301799059
1775719676665106200,0.653106201171875,0.4358920016646385,5.024357856044173,0.6131866970263421
1775719676675120400,0.663120361328125,0.15738186121098696,4.726350476503372,0.5769181366845965
1775719676685133600,0.673133544921875,-0.1654676255762577,4.3405426484346386,0.4745099016115069
1775719676695146200,0.683146240234375,-0.43692251375615593,3.896219503033161,0.3532935056939721
1775719676705159400,0.693159423828125,-0.3288197933685034,3.469851116517186,0.2414002339169383
1775719676715173400,0.70317333984375,0.05515599696747958,3.3014176268726585,-0.18806714152768253
1775719676725186300,0.713186279296875,0.3080179014235735,2.8773966802656648,-0.7766149257294833
1775719676735199500,0.723199462890625,0.5972983691513538,2.378999414849281,-1.1396266923613845
1775719676745212400,0.73321240234375,0.6375234120339155,2.2316636582911014,-1.605901849590987
1775719676755226400,0.743226318359375,0.2794826387476176,2.2300720051854848,-1.966538557654619
1775719676765239600,0.753239501953125,-0.031821956196427345,2.157200245720148,-1.9629795499987899
1775719676775252200,0.763252197265625,-0.17883622571527957,1.9877607939034698,-1.8394908252350985
1775719676785265400,0.773265380859375,-0.4552016822904348,1.782837356251478,-1.4609236159443855
1775719676795279600,0.783279541015625,-0.998923359555006,1.5291273835986852,-1.0981113174073398
1775719676805292300,0.793292236328125,-1.2044248893558978,1.1903519403398035,-0.8109760450147092
1775719676815305500,0.803305419921875,-1.1804091499309985,0.8494102589577436,-0.44153219950869677
1775719676825319200,0.813319091796875,-0.9008511078596114,0.6940443406790494,-0.011516104140132665
1775719676835332400,0.823332275390625,-0.5301590889234096,0.5676911663949489,0.45164691241830585
1775719676845345500,0.833345458984375,-0.36652496238462623,0.126005383759737,0.6847805455103516
1775719676855358500,0.8433583984375,0.009229089181497693,-0.2892038953602314,0.36184301511347294
1775719676865372400,0.853372314453125,0.4236872576732188,-0.43926527749001976,0.044560149477422234
1775719676875385300,0.86338525390625,0.45622751820683477,-0.7241495560854673,-0.12128858437091111
1775719676885398300,0.873398193359375,0.40926067291386425,-1.1147615695655346,-0.30725334679186345
1775719676895411500,0.883411376953125,0.20426884620077906,-1.2726339177072048,-0.4924374802291393
1775719676905425400,0.89342529296875,-0.08989362141489982,-1.3816302989989517,-0.6098059685468673
1775719676915438300,0.903438232421875,-0.2326215188514441,-1.6422791310042142,-0.6601932167425751
1775719676925451500,0.913451416015625,-0.2782446944504976,-1.9394488906770944,-0.6349836644232273
1775719676935464400,0.92346435546875,-0.19422018426470458,-2.093155351310968,-0.49636868219822644
1775719676945478400,0.933478515625,-0.07469831730537116,-2.002757287505269,-0.36263387323021884
1775719676955491300,0.9434912109375,-0.10490757760815322,-1.92897542745769,-0.0560249618217349
1775719676965504500,0.95350439453125,-0.11808160502314567,-2.0443121176868675,0.22535744613260028
1775719676975517400,0.963517333984375,-0.0160029672306031,-2.0156974330991506,0.17333090629726647
1775719676985531400,0.973531494140625,0.05034421277157962,-1.7852035008609295,0.06947568728625773
1775719676995544300,0.98354443359375,-0.07099011043719947,-1.5652683720380067,-0.02785246804356575
1775719677005557200,0.99355712890625,-0.23516433520205318,-1.4850065023213623,-0.05766834511458874
1775719677015570400,1.0035703125,-0.5118542014259845,-1.4392629882782697,0.019513386504352092
1775719677025584400,1.01358447265625,-0.7182336831051855,-1.3591039944142103,-0.1081485322907567
1775719677035597300,1.023597412109375,-0.6179770731080323,-1.3609931691616772,-0.3459282376229763
1775719677045610500,1.033610595703125,-0.29930552959255874,-1.4565408708155154,-0.2918681461334228
1775719677055623200,1.043623046875,0.04791855652723461,-1.4285855269193648,0.051149172478914255
1775719677065637400,1.053637451171875,0.4706050396600738,-1.3240613226056097,0.44606735872030256
1775719677075650600,1.063650634765625,0.707305388790369,-1.0809791269510984,0.5020382522672414
1775719677085663200,1.073663330078125,0.6440203728377819,-0.845772779238224,0.41744829021841284
1775719677095676400,1.083676513671875,0.46577922693882134,-0.6782470520883798,0.3852767899319529
1775719677105690400,1.0936904296875,0.27416005548536776,-0.5694008929222821,0.27917262295037504
1775719677115703300,1.103703369140625,0.14787468574047088,-0.44654140597283837,0.15310791021883488
1775719677125716500,1.113716552734375,0.14359890811741352,-0.3538660448849201,-0.04160597584694624
1775719677135729400,1.1237294921875,0.35970658760666846,-0.19208499886691568,-0.23866408695131539
1775719677145743400,1.133743408203125,0.45910278138220306,-0.056232759353518486,-0.32176030331104993
1775719677155756500,1.143756591796875,0.41101416551768777,-0.011741875720024109,-0.4013470502451062
1775719677165769700,1.153769775390625,0.1642851560597308,0.08352408638298511,-0.40928953368216753
1775719677175783000,1.163782958984375,-0.20616087049245832,0.05236205540001392,-0.4504647168964147
1775719677185796900,1.173796875,-0.33203820742573587,-0.12357903339564799,-0.5117518370300531
1775719677195809800,1.183809814453125,-0.32501462893188,-0.1513683730751276,-0.6649927259787917
1775719677205822700,1.19382275390625,-0.2086106017321348,-0.10805588557124138,-0.9386486313343048
1775719677215836700,1.203836669921875,-0.015480477726459503,-0.21794307822287082,-1.0017220503628252
1775719677225849900,1.213849853515625,0.08664072056617587,-0.31074118890762326,-1.0031874467402695
1775719677235862800,1.22386279296875,0.16885902158021926,-0.21063070938289163,-1.0963397776901722
1775719677245875700,1.233875732421875,0.12954645390007644,-0.24361352605223655,-1.209892799372971
1775719677255890000,1.243889892578125,-0.050640053912997245,-0.30650983494818207,-1.3927408910781145
1775719677265902800,1.25390283203125,-0.32107148079667236,-0.31285072840750217,-1.411749542930722
1775719677275915800,1.263915771484375,-0.39855858857035636,-0.5728694458156823,-1.0604673770591615
1775719677285928700,1.2739287109375,-0.4059919899741187,-0.6364461381912231,-0.8012912479549645
1775719677295942700,1.283942626953125,-0.4625619819253683,-0.686439710894227,-0.36543344082087276
1775719677305955800,1.293955810546875,-0.4230377807885408,-0.8982511544942855,0.09633622168302536
1775719677315968800,1.30396875,-0.3007932473996654,-1.0981167242348193,0.3580085515171289
1775719677325982000,1.31398193359375,-0.18684355454947799,-1.2501146273851393,0.6144321670427918
1775719677335996000,1.323995849609375,0.045836453023552895,-1.581847750917077,0.9599562077790498
1775719677346008800,1.3340087890625,0.33038934424016625,-1.8507430177420376,1.3921382490098475
1775719677356021800,1.344021728515625,0.353892348369956,-2.058438842716813,1.6612798918113112
1775719677366034700,1.35403466796875,0.010394516231678426,-2.3115426661700007,1.707215421295166
1775719677376049000,1.364048828125,-0.2293634669035673,-2.5892799956202506,1.61349142793715
1775719677386061800,1.374061767578125,-0.2921130242725834,-2.8188714260607957,1.3147715162128208
1775719677396074800,1.38407470703125,-0.348825128108263,-2.957505405247211,1.0747262040361762
1775719677406088000,1.394087890625,-0.38861061052978035,-3.2911709581464526,1.1757196038752793
1775719677416102000,1.404101806640625,-0.40803606302235274,-3.6404812394231554,1.402715757125616
1775719677426114800,1.41411474609375,-0.23321550268922,-3.945416956922412,1.4519807232931254
1775719677436128000,1.4241279296875,0.13559212727248668,-3.9298330188214776,1.139617778402567
1775719677446140700,1.434140625,0.4759943314829841,-3.810397076579928,0.862591227570176
1775719677456155000,1.44415478515625,0.6392687943965196,-3.7533144223988053,0.8881374644979834
1775719677466167800,1.454167724609375,0.6308429113566875,-3.799075472098589,1.0855009882897138
1775719677476180700,1.4641806640625,0.468629319140315,-3.8922687195807693,1.2837673061400652
1775719677486194000,1.47419384765625,0.20601064836680888,-3.775622700318694,1.270802026104927
1775719677496207600,1.48420751953125,-0.04101407436840236,-3.6394670939445493,1.2009463995903729
1775719677506220800,1.494220703125,-0.3555646289637312,-3.4657618013769387,1.0754355213493108
1775719677516234000,1.50423388671875,-0.502962381374836,-3.260242735919356,0.9673489483788609
1775719677526247000,1.514246826171875,-0.6758160255491733,-2.9796149457246064,0.7695701217845082
1775719677536260900,1.5242607421875,-0.9344289678126573,-2.8538299267172813,0.6612579233646393
1775719677546273800,1.534273681640625,-0.8749111954391002,-2.7868384574621916,0.5190960623130202
1775719677556286700,1.54428662109375,-0.6014747780531644,-2.597410695105791,0.25559914740025996
1775719677566300000,1.5542998046875,-0.35579029094576836,-2.4410294623047113,0.08937515049874782
1775719677576313900,1.56431396484375,-0.24256429099394006,-2.2750211539804934,0.05805588312745094
1775719677586326800,1.574326904296875,-0.10508885245919226,-2.121211232972145,0.23920360065549612
1775719677596339700,1.584339599609375,-0.03977030311869457,-1.935014707621932,0.35761049211025236
1775719677606353000,1.594352783203125,-0.023135394660104065,-1.718534103167057,0.41777562247663735
1775719677616366800,1.604366943359375,-0.08823297645999117,-1.6039660592228173,0.45249709950685496
1775719677626379800,1.6143798828125,-0.15943009897768495,-1.3562106110602616,0.39379181255996226
1775719677636392700,1.624392822265625,-0.14902855021702124,-1.1104530587166548,0.25388649826347826
1775719677646406000,1.634406005859375,-0.20510054778456688,-0.9326999520629644,0.028021394869685173
1775719677656419800,1.644419921875,-0.20621698459386825,-0.9332406348109245,-0.004142798893153667
1775719677666432800,1.654432861328125,-0.04518997181355953,-1.1033534558445215,0.012697569009661673
1775719677676445700,1.66444580078125,0.25571312916874883,-1.2008207273840903,0.046047173164784905
1775719677686459000,1.674458984375,0.600796732661128,-1.186596971720457,0.1575759955435991
1775719677696472800,1.684472900390625,0.7603653633266687,-1.1290566368997097,0.11844810024797915
1775719677706485800,1.69448583984375,0.7392132697045802,-1.196899170026183,-0.07999182060360908
1775719677716499000,1.7044990234375,0.5800631567120552,-1.2793600110918282,-0.27460136951208114
1775719677726511600,1.71451171875,0.431200628978014,-1.323042500951886,-0.34089988806694743
1775719677736525800,1.72452587890625,0.3413794882774353,-1.362996910199523,-0.27035043406933545
1775719677746538800,1.734538818359375,0.23846505724787712,-1.4418430678993464,-0.08568097215592861
1775719677756551700,1.7445517578125,0.07053367190659046,-1.5441308914631604,-0.013235036887228489
1775719677766564900,1.75456494140625,-0.05901683711409569,-1.6314678141325711,-0.10903042969182133
1775719677776578800,1.764578857421875,-0.14045007043136282,-1.7150731490582227,-0.43587139726802704
1775719677786591700,1.774591796875,-0.007056384784914552,-1.7244827824383973,-0.7784455021575093
1775719677796605000,1.78460498046875,0.12352995182322338,-1.6767098083943128,-1.0410836082838475
1775719677806617900,1.794617919921875,0.3896031286984682,-1.7026117268919945,-1.246503889542073
1775719677816631800,1.8046318359375,0.8138572995394467,-1.508879545339942,-1.3922738580882548
1775719677826645000,1.81464501953125,1.0279618225127458,-1.2671078477621078,-1.2958962814815342
1775719677836657700,1.82465771484375,1.064728249374032,-1.1311077242106198,-0.8998609277784824
1775719677846672000,1.834671875,0.9846177708268165,-0.979545874390006,-0.43679654928892847
1775719677856684800,1.844684814453125,0.7833037558436393,-0.8263660679787397,-0.08214505311474203
1775719677866697700,1.85469775390625,0.3861772459030151,-0.7583446711540222,0.1553494055353105
1775719677876711000,1.8647109375,-0.07705112750921397,-0.7041302658855915,0.27291648516505956
1775719677886723800,1.874723876953125,-0.2887526444613933,-0.5380126519680023,0.2859542459145188
1775719677896737800,1.88473779296875,-0.34329496650993824,-0.3608417291164398,0.2069254251241684
1775719677906751000,1.8947509765625,-0.33705457428302615,-0.20287059677541255,0.006851034938544035
1775719677916764000,1.904763916015625,-0.24950488564576953,-0.11412906800508499,-0.10326645933762192
1775719677926777900,1.91477783203125,-0.09355265537910162,0.06689034696817397,-0.19678323968574404
1775719677936790800,1.924790771484375,0.02190386183746159,0.29537293938398357,-0.20654913915768264
1775719677946803700,1.9348037109375,-0.0006237579215317965,0.49196986271739,-0.10680749294534325
1775719677956817000,1.94481689453125,-0.28751459056641904,0.574714781421423,0.17734218776524066
1775719677966830800,1.954830810546875,-0.798075208517909,0.4469266058981418,0.6478790940925478
1775719677976843800,1.96484375,-1.4110527928382157,0.22445056042075157,0.9878881707996129
1775719677986856700,1.974856689453125,-1.955158500984311,0.09507190083563327,0.9613428398318589
1775719677996870000,1.984869873046875,-2.2260089935302734,-0.1088654483884573,0.7799171821452677
1775719678006883800,1.9948837890625,-2.1640812374055383,-0.2911369092494249,0.5152870254188776
1775719678016896800,2.004896728515625,-1.6781722821623086,-0.5706576149851084,0.061430474127084016
1775719678026910000,2.014909912109375,-1.0334784670423716,-0.6780389622956514,-0.6092920276753604
1775719678036923000,2.0249228515625,-0.1839152094800025,-0.7035685403496027,-1.2883435280144213
1775719678046936800,2.034936767578125,0.770987879627943,-0.775079532855749,-1.658705511278659
1775719678056949800,2.04494970703125,1.3821341568678616,-0.7666045499771833,-1.7626102685198186
1775719678066962700,2.054962646484375,1.5524346094280481,-0.8894429941385984,-1.4151882852077484
1775719678076975900,2.064975830078125,1.2865958075642585,-1.017970589852333,-0.930002091281116
1775719678086989800,2.07498974609375,0.8573013044685125,-0.8348357901602983,-0.6366553970277309
1775719678097002800,2.085002685546875,0.4577309450397268,-0.5845809263974427,-0.4904211719706654
1775719678107016000,2.095015869140625,-0.06998531730882823,-0.4646352810680866,-0.46424496657624836
1775719678117028600,2.105028564453125,-0.37484570454955096,-0.32200024954676626,-0.5760413538500666
1775719678127042800,2.115042724609375,-0.402652506820485,-0.12803016758561134,-0.7505417423181235
1775719678137056000,2.125055908203125,-0.212989255207777,0.017509353205561635,-0.8063008928105234
1775719678147068700,2.135068603515625,0.20913904605302958,0.14281681782901287,-0.7629888436980545
1775719678157081900,2.145081787109375,0.6726058313310146,0.16779285365343094,-0.7330211370661854
1775719678167095300,2.15509521484375,1.029798390290141,0.1434475169479847,-0.5522841922961175
1775719678177108200,2.165108154296875,1.274692603802681,0.12666238636374472,-0.2968925501666963
1775719678187121400,2.175121337890625,1.3570564142346382,0.24839666867554186,-0.2354454171657562
1775719678197134600,2.185134521484375,1.0472668269634247,0.39310032316446303,-0.21743220609128475
1775719678207148300,2.195148193359375,0.49925300546288487,0.479692564946413,-0.18903584042936564
1775719678217161500,2.205161376953125,-0.02036883428990841,0.6233575240373611,-0.2713055428370833
1775719678227174400,2.21517431640625,-0.496214660680294,0.6576970160126686,-0.4213670710973441
1775719678237187300,2.225187255859375,-0.6595335837900638,0.6857961522936821,-0.6037352703310549
1775719678247201500,2.235201416015625,-0.4465244548380375,0.8783955304235219,-0.8024354495540261
1775719678257214200,2.245214111328125,-0.14882449727859348,1.0905214468002318,-0.9102301999710499
1775719678267227400,2.255227294921875,0.08562193544507027,1.2612754883468151,-0.9140132256411015
1775719678277240600,2.265240478515625,0.37787937315702436,1.3394967921465635,-0.8827139781445265
1775719678287254300,2.275254150390625,0.6132463182590902,1.4418261167645454,-0.7136060963697731
1775719678297267500,2.285267333984375,0.6358937650054692,1.4551058695763348,-0.4209456308148801
1775719678307280400,2.2952802734375,0.5216150593966246,1.2146025844991206,-0.07661942156106233
1775719678317293300,2.305293212890625,0.393657957047224,1.1393518209427596,0.11280790240392088
1775719678327307500,2.3153076171875,0.4961544914582744,1.145887360191345,0.03581380231156945
1775719678337320400,2.325320556640625,0.7208680501967668,1.2001888592213392,-0.2033009510166943
1775719678347333400,2.33533349609375,0.7392419112771749,1.3904396283984184,-0.4749427400708198
1775719678357346300,2.34534619140625,0.6246849732488393,1.4477654436856506,-0.6270854585193097
1775719678367360300,2.3553603515625,0.4927877184389159,1.4014572814971207,-0.6419606638289987
1775719678377373400,2.36537353515625,0.44164362399391827,1.4433306761085987,-0.5319644578449427
1775719678387386400,2.375386474609375,0.5251864150773734,1.5321318261116743,-0.36552974080219863
1775719678397399600,2.385399658203125,0.6021773733645677,1.6390432178229093,-0.288943490858376
1775719678407413500,2.39541357421875,0.6865688171666116,1.772138267582655,-0.29706366894990205
1775719678417426400,2.405426513671875,0.5527413614790886,1.8613567662149666,-0.3765219671986997
1775719678427439400,2.415439453125,0.3313491657156497,1.8006249418765305,-0.428523372592777
1775719678437452300,2.425452392578125,-0.08375906418263912,1.6660066280722616,-0.34564795937687154
1775719678447466500,2.435466552734375,-0.4819762189041823,1.4933856236100196,-0.22828020171150565
1775719678457479400,2.4454794921875,-0.7180295388352126,1.4324819498360155,-0.2621073602505028
1775719678467492400,2.455492431640625,-0.7448135739296674,1.4638427182614802,-0.3885105111561715
1775719678477505500,2.465505615234375,-0.5266781149398535,1.6207716480731964,-0.7318254975408315
1775719678487519500,2.47551953125,-0.24115312728807328,1.724265340295434,-1.1617302414894104
1775719678497532400,2.485532470703125,-0.060354807719588274,1.8181424783885478,-1.3429657834313808
1775719678507545300,2.49554541015625,0.03863338977694511,1.8524328705251216,-1.194945551740378
1775719678517558300,2.505558349609375,0.04021700570657849,1.7417559888005256,-0.7895109399206935
1775719678527572500,2.515572509765625,-0.10513736777603626,1.6942969030112027,-0.3885968742653727
1775719678537585400,2.52558544921875,-0.2578280754961073,1.7224813794881104,-0.07046893610730767
1775719678547598300,2.535598388671875,-0.31836744600236416,1.7915981703341006,0.09866597980484366
1775719678557611500,2.545611572265625,-0.1617747624076903,1.9177526071757076,0.09081409726068378
1775719678567625200,2.555625244140625,0.04710851878598332,2.107152312481403,-0.020173311717808246
1775719678577638400,2.565638427734375,0.017686901729553936,2.167629285275936,-0.20109350410029292
1775719678587651600,2.575651611328125,-0.13390154383704064,1.997003838545084,-0.2635331552699208
1775719678597664300,2.585664306640625,-0.35212124704420567,1.9469985754042862,-0.3695340080074966
1775719678607678500,2.595678466796875,-0.45936917723342774,1.892690062111616,-0.47512584155276416
1775719678617691400,2.60569140625,-0.4576414766579866,1.9094132333755491,-0.5113331732265651
1775719678627704300,2.615704345703125,-0.4226081571996212,1.989112793034315,-0.40774055067449805
1775719678637717500,2.625717529296875,-0.41527182296216486,1.956288381797075,-0.18359598746299743
1775719678647731200,2.635731201171875,-0.505587323050946,1.8930086265414952,-0.020917700344324112
1775719678657744400,2.645744384765625,-0.6845540432780981,1.822120149847865,0.027522651567310093
1775719678667757600,2.655757568359375,-0.9115208243034779,1.6228127985119818,0.06847776229009032
1775719678677770500,2.6657705078125,-1.0459949073314667,1.3874381084948777,0.06930763724297284
1775719678687784400,2.675784423828125,-0.9672545480936765,1.1643933232188224,0.09082724900320172
1775719678697797400,2.68579736328125,-0.6522678305707872,0.9709837977498769,0.16824249711707234
1775719678707810300,2.695810302734375,-0.192150611449033,0.7202163082897662,0.32040143604800103
1775719678717823500,2.705823486328125,0.22559286232367157,0.4187000438451767,0.5548303696475922
1775719678727837400,2.71583740234375,0.6052794310331344,0.16833528996706007,0.7357398945055902
1775719678737850400,2.725850341796875,0.8549819216102361,0.04664952297210693,0.8366792260698974
1775719678747863300,2.73586328125,0.8653168531417846,-0.03597439970076084,0.7918272540390491
1775719678757876500,2.74587646484375,0.733691291412711,-0.10451485196352005,0.6856891847878694
1775719678767890400,2.755890380859375,0.48688393775522704,-0.14722645096480846,0.6869625657245516
1775719678777903400,2.7659033203125,0.24832769509255884,-0.15959785676002503,0.7750307252779602
1775719678787916500,2.77591650390625,0.05232347695529461,-0.13938742790222167,0.8631050223112106
1775719678797929200,2.78592919921875,-0.08576163617670536,-0.18374387150108812,0.9912979792430996
1775719678807943400,2.795943359375,-0.0801337132923305,-0.3178910606622696,1.083388380049914
1775719678817956400,2.805956298828125,-0.0032546178817749022,-0.37314533037245273,1.1094453429788351
1775719678827969300,2.81596923828125,0.11568331170976161,-0.43981472806632516,1.0586028983615339
1775719678837982500,2.825982421875,0.34795594405829905,-0.5385831453323364,0.9245251211747526
1775719678847995400,2.835995361328125,0.49689212155044077,-0.56576808937788,0.9061967066712677
1775719678858009300,2.84600927734375,0.5615064864106476,-0.6045616381525993,1.0411819540917873
1775719678868022500,2.8560224609375,0.4948990480370819,-0.6194663618177175,1.0910045541420579
1775719678878035200,2.86603515625,0.27131241096928715,-0.6500532232612372,0.9463656354524195
1775719678888048400,2.87604833984375,0.052662499651312825,-0.6621095717579126,0.6791799490243197
1775719678898062600,2.8860625,-0.06561784281432628,-0.5243845241099596,0.3370560721203685
1775719678908075300,2.8960751953125,-0.1823136925674975,-0.33609073421955105,0.11291048599556087
1775719678918088400,2.90608837890625,-0.3307617942817509,-0.24288462725579738,0.07877981446534395
1775719678928101400,2.916101318359375,-0.42512861558794973,-0.14575754745602607,0.039830052215605975
1775719678938115300,2.926115234375,-0.3924795609176159,-0.08909224190413952,-0.05758256652727723
1775719678948128500,2.93612841796875,-0.24945041551217434,-0.006154430976510048,-0.21156053757891058
1775719678958141400,2.946141357421875,-0.12729308548271656,0.004222586131095886,-0.39136239345595236
1775719678968154400,2.956154296875,-0.005689151552319526,0.02701660174131393,-0.3749424429222941
1775719678978168600,2.96616845703125,0.041688247302919625,0.09713467858433723,-0.32387071959376335
1775719678988181200,2.97618115234375,0.04454524416923523,0.1779120966076851,-0.24482260958105323
1775719678998194400,2.9861943359375,-0.020687398719787597,0.22594985906779766,-0.14149886709824203
1775719679008207400,2.996207275390625,-0.11920374092087149,0.31141864977777,-0.08153612743616104
1775719679018221300,3.00622119140625,-0.15058277565538883,0.40551732166707516,-0.0528986464947462
1775719679028234500,3.016234375,-0.17867738189175725,0.45162323928177356,-0.04072817009910941
1775719679038247400,3.026247314453125,-0.16111644462943076,0.4708125083982944,-0.02030439075157046
1775719679048260400,3.03626025390625,-0.19080021975338457,0.484955600041151,0.04171045913472771
1775719679058274600,3.046274658203125,-0.20102920669242738,0.44179742631614205,0.009866144976019859
1775719679068287500,3.05628759765625,-0.04011865989863872,0.41292847470641136,-0.17953925941810012
1775719679078300400,3.066300537109375,0.10567176691368221,0.3384206384718418,-0.14846329928338528
1775719679088313300,3.076313232421875,0.16815233461558818,0.2987549830377102,0.05418313334733248
1775719679098327300,3.086327392578125,0.1593365754753351,0.23261691574156282,0.22566709660366177
1775719679108340500,3.096340576171875,0.17841595447659492,0.24705869807004927,0.18131752113699912
1775719679118353400,3.106353515625,0.29912615443766116,0.2808890714794397,0.22763693537190555
1775719679128366600,3.11636669921875,0.27318565749526025,0.1942722797781229,0.38143984211757775
1775719679138380300,3.12638037109375,0.13780125468932092,0.08597498666644096,0.489408341666311
1775719679148393500,3.1363935546875,0.04756722233891487,-0.016098317363858222,0.42716465146020055
1775719679158406400,3.146406494140625,0.11378595365583896,0.014555764096975326,0.20223317565470933
1775719679168419800,3.156419921875,0.20955387393161654,0.027587679627537727,0.074440762347728
1775719679178433800,3.166433837890625,0.22469898222386836,0.0022708675414323805,0.0645939065940678
1775719679188447000,3.176447021484375,0.23699206208586693,0.0002297171026468277,0.09287029913812875
1775719679198460000,3.1864599609375,0.26460531454607844,0.02084288154244423,0.10475392141640186
1775719679208473000,3.19647314453125,0.22257366063296793,-0.054740474969148634,0.1920230395466089
1775719679218487000,3.206487060546875,0.1477344735521823,-0.1245762277394533,0.4270155983783304
1775719679228500000,3.2165,0.05170037662088871,-0.24592121847271917,0.7271779639959335
1775719679238513000,3.226512939453125,-0.010883213064074516,-0.3501543308854103,0.894002703269571
1775719679248525800,3.23652587890625,0.011648936739563942,-0.4522252968281507,0.9495978953719139
1775719679258540000,3.2465400390625,-0.0021638269703835246,-0.5705524010449647,0.9568278466254472
1775719679268553000,3.256552978515625,-0.05588160782828927,-0.5894903257489204,0.9101968822233378
1775719679278566000,3.26656591796875,-0.09238010446839034,-0.5839999116390944,0.7656121779389679
1775719679288579000,3.2765791015625,-0.16405827023498712,-0.6369914971143007,0.5844540851473808
1775719679298593000,3.286593017578125,-0.16181977059319613,-0.5468237349331379,0.42182168299704786
1775719679308606000,3.29660595703125,-0.2850808240808546,-0.41464930714964865,0.2699197875671088
1775719679318619100,3.306619140625,-0.4614051400404423,-0.3604056757867336,0.1490712020486593
1775719679328631800,3.3166318359375,-0.5098001184403896,-0.322666604501009,0.11668021379262208
1775719679338646000,3.32664599609375,-0.4185207417555153,-0.22545009285211562,0.16510799848362803
1775719679348659000,3.336658935546875,-0.3149444858163595,-0.10188274989426135,0.3528963230699301
1775719679358672000,3.346671875,-0.3066035045810044,-0.001648351728916168,0.49140769878998397
1775719679368685000,3.35668505859375,-0.32058994435742494,0.16474223391115664,0.4549506301388144
1775719679378698800,3.36669873046875,-0.425222285220772,0.35149522410035133,0.27313787283077834
1775719679388712000,3.3767119140625,-0.5274222843706607,0.49589492720663547,0.05001768423095345
1775719679398725000,3.38672509765625,-0.5533967566478997,0.6239309400111437,-0.044388153911381956
1775719679408737800,3.39673779296875,-0.5712620106190442,0.8205524132639169,0.05875760165601968
1775719679418752000,3.406751953125,-0.6303297011375427,0.9432651852190495,0.18609803341180084
1775719679428765200,3.41676513671875,-0.7075842787969857,1.0863052904099226,0.15223200416713953
1775719679438777900,3.42677783203125,-0.7432149065613746,1.1258534569442271,-0.03625233985930681
1775719679448791000,3.436791015625,-0.5915484273225069,1.1541653591930865,-0.10653656704947352
1775719679458804700,3.4468046875,-0.2960591680824756,1.248697746324539,-0.19382906605526803
1775719679468818000,3.45681787109375,-0.040136853142455214,1.324618371966481,-0.35619726431146265
1775719679478831000,3.4668310546875,0.1313040016245097,1.4440747724741696,-0.391481489790976
1775719679488844000,3.476843994140625,0.12796006149146705,1.6588772145837545,-0.41639235142469405
1775719679498857000,3.48685693359375,-0.038299627777934074,1.965813165989518,-0.596771276537329
1775719679508871000,3.496870849609375,-0.22424477218296376,2.273018581986427,-0.7599933151438831
1775719679518883800,3.5068837890625,-0.33324173799660056,2.558832834908366,-0.7837738575734198
1775719679528897000,3.51689697265625,-0.41949199794046577,2.805849447402358,-0.838523538762331
1775719679538910000,3.526909912109375,-0.5374345598191023,2.9614433292180298,-0.6739563691571354
1775719679548924000,3.536923828125,-0.5517687901198863,3.1164298927903173,-0.3559507422044873
1775719679558936800,3.546936767578125,-0.42749417567551135,3.335939489677548,-0.043104397711157795
1775719679568950000,3.556949951171875,-0.3464075455725193,3.4776381171315904,0.20356062486618756
1775719679578963000,3.566962890625,-0.3119078945994377,3.475153314578533,0.34776071374714373
1775719679588977000,3.576976806640625,-0.309480959713459,3.4463445687234397,0.5038336112514138
1775719679598990000,3.586989990234375,-0.2000403417855501,3.3834920989692208,0.6762538324445486
1775719679609002800,3.597002685546875,0.06771335378885268,3.3060207367539403,0.7886994774073361
1775719679619016000,3.607015869140625,0.25615619676113127,3.248638807365298,0.7207324411183595
1775719679629030000,3.61702978515625,0.3142822225153446,3.171746706342697,0.48209816478341816
1775719679639042800,3.627042724609375,0.35576924815773964,3.176651429519057,0.27465163839459417
1775719679649056000,3.637055908203125,0.42550387864112854,3.165108875763416,0.1388166422769427
1775719679659069200,3.647069091796875,0.3915723829448223,3.058894818666577,0.06659399437010288
1775719679669083000,3.657082763671875,0.276875177929271,2.851997450593114,0.008394611118733882
1775719679679096000,3.667095947265625,0.12739890221105887,2.686967631912231,-0.08516805419772863
1775719679689108700,3.677108642578125,0.05581952064381912,2.587518831166625,-0.06250497149080038
1775719679699122000,3.687121826171875,0.050258361119031904,2.45494459041059,-0.050449499776959415
1775719679709136100,3.69713623046875,0.11784781453358009,2.269461766287684,-0.08773819694668054
1775719679719148800,3.707148681640625,0.17599954098463058,2.0860124938189983,-0.16546148809641598
1775719679729162000,3.717161865234375,0.23973929670108482,1.8893921896100043,-0.27315058618187904
1775719679739175000,3.7271748046875,0.17300795795321464,1.7065081498086452,-0.4651978833869099
1775719679749188900,3.73718896484375,0.05350830282568931,1.5687328332781791,-0.781610980451107
1775719679759202000,3.7472021484375,-0.00994858082877472,1.3821516925245523,-1.0760285188063978
1775719679769215000,3.757215087890625,0.06447857311870903,1.193374503031373,-1.327677175015211
1775719679779228000,3.767227783203125,0.23374445846676825,1.0663818617999552,-1.509047303122282
1775719679789242000,3.7772421875,0.3087047511765733,0.9369523488104343,-1.5260472455009817
1775719679799254800,3.7872548828125,0.2404126476516947,0.7038543715536594,-1.3550468279778956
1775719679809268000,3.79726806640625,0.24050500211026518,0.5050187293827534,-1.1493363316014409
1775719679819281000,3.807281005859375,0.11645544685972854,0.2962269258648157,-1.0408549140945076
1775719679829294000,3.817294189453125,0.06746672208402306,-0.03367722867429256,-1.0433230577737092
1775719679839308000,3.82730810546875,0.024147768306732178,-0.29002105696201325,-1.0360609578162432
1775719679849321000,3.837321044921875,-0.012689970225095748,-0.5690694690108299,-0.8935618276342749
1775719679859334000,3.847333984375,-0.02258943294882774,-0.8246879056334495,-0.7276271690681576
1775719679869346800,3.857346923828125,0.02113629326475784,-0.9724006788104772,-0.6418522350184619
1775719679879361000,3.867361083984375,0.17972177637815476,-1.0666998417079447,-0.59744537640661
1775719679889374000,3.8773740234375,0.2649006624971516,-1.186395311668515,-0.6332907429002225
1775719679899387000,3.887386962890625,0.3707902916789055,-1.3205126902133226,-0.6397814200937748
1775719679909400000,3.897400146484375,0.3827846808552742,-1.4749059640675781,-0.5725879985257983
1775719679919414000,3.9074140625,0.3039443683743477,-1.5427344686686992,-0.4273753716014325
1775719679929427000,3.917427001953125,0.12309914092421531,-1.6645938386648893,-0.3354604734919965
1775719679939440000,3.927440185546875,-0.09735563699179328,-1.7765011389672756,-0.2962855241842568
1775719679949452800,3.937452880859375,-0.2068424230158329,-1.8994921433418988,-0.32654066945537924
1775719679959467000,3.947467041015625,-0.18230653217434883,-2.0857319233119487,-0.4907666244074702
1775719679969480000,3.95747998046875,-0.12625322104096412,-2.2159517098963257,-0.6806868464559316
1775719679979492900,3.967492919921875,-0.1977180363178253,-2.2651620232671497,-0.8222774834908545
1775719679989506000,3.977506103515625,-0.3303285174310207,-2.3452052817970515,-0.9033375178478658
1775719679999519700,3.987519775390625,-0.4611532841712236,-2.432167525935173,-0.8344256019242108
1775719680009533000,3.997532958984375,-0.5373579874515533,-2.3897563711851832,-0.7077871809579431
1775719680019546000,4.007546142578125,-0.6611404344648122,-2.2523206618726253,-0.8150706208519637
1775719680029558800,4.017558837890625,-0.6755401312172412,-2.1219705269068476,-0.9746265381664038
1775719680039573000,4.027572998046875,-0.7013654773473739,-1.8824597599983215,-1.0429835966862737
1775719680049586200,4.037586181640625,-0.6330167482644319,-1.5931740315735339,-1.0455006940737366
1775719680059598800,4.047598876953125,-0.5015063373476266,-1.416294785144925,-0.941132264843583
1775719680069612000,4.057612060546875,-0.3660901511639356,-1.2643500734865665,-0.805005592302978
1775719680079625700,4.067625732421875,-0.1874836425513029,-1.1903911033064127,-0.673828651124239
1775719680089639000,4.077638916015625,-0.055801382198929786,-1.15857908398211,-0.5488599169358611
1775719680099652000,4.087652099609375,-0.0050374279116280375,-1.1101268955022097,-0.4115083787754178
1775719680109665000,4.0976650390625,-0.03377250574231148,-1.0419704741209745,-0.3290773483261466
1775719680119679000,4.107678955078125,-0.09966273575723171,-0.88406889988482,-0.36669133192747827
1775719680129692000,4.11769189453125,-0.1350537643457763,-0.7498714418411254,-0.304437997110188
1775719680139704800,4.127704833984375,-0.14689619609713553,-0.6329390068531036,-0.15853139657229184
1775719680149718000,4.137718017578125,-0.07447802561819553,-0.5550187318265438,-0.085711951816082
1775719680159731000,4.14773095703125,0.0908007993876934,-0.442431632566452,-0.12578034283220768
1775719680169745400,4.157745361328125,0.24566169075369834,-0.389185780069232,-0.19647738860696554
1775719680179758600,4.167758544921875,0.4646779511660337,-0.39866730964183805,-0.28898236156404017
1775719680189771500,4.177771484375,0.654725306725502,-0.31028117018043994,-0.4235512832686305
1775719680199784400,4.187784423828125,0.7211749241888523,-0.13513620019853115,-0.26795857049673794
1775719680209798700,4.197798583984375,0.67856386295259,-0.1517781229197979,0.0470867453455925
1775719680219811300,4.207811279296875,0.5900239942342043,-0.056468906196951864,0.19964900438040495
1775719680229824500,4.217824462890625,0.41413258979916573,0.09329787690043449,0.1655371836811304
1775719680239837400,4.22783740234375,0.17577917623221873,0.077485390740633,0.11492314099222421
1775719680249851400,4.237851318359375,0.1125946980446577,0.15362696565687656,-0.19153262568116186
1775719680259864600,4.247864501953125,0.22911153796911238,0.2617757902085781,-0.3828361187815666
1775719680269877500,4.25787744140625,0.39432372747957706,0.21054829179644582,-0.38102643901109695
1775719680279890400,4.267890380859375,0.6420873589485884,0.15930968746840954,-0.39482700082659716
1775719680289904600,4.277904541015625,0.7400076349526643,0.10945581549704074,-0.35103988154828547
1775719680299917600,4.28791748046875,0.6735474960952997,0.018868951120972633,-0.19740531710684298
1775719680309930500,4.297930419921875,0.5608791482925415,-0.04611176283359527,-0.07087970886528491
1775719680319943400,4.307943359375,0.3708686176121235,-0.019766776743531226,-0.19236089319884775
1775719680329957400,4.317957275390625,0.18541268149614332,0.0010585691422224045,-0.4314613257408142
1775719680339970600,4.327970458984375,0.20524317112565038,0.087903324380517,-0.8366688508063554
1775719680349983500,4.3379833984375,0.1276765409755055,0.2736883463203907,-1.1371864596024155
1775719680359996700,4.34799658203125,-0.017862395293777807,0.22996143279671669,-0.9752548991978168
1775719680370010600,4.3580107421875,-0.013090952241420746,0.1193611234396696,-0.5846899397298694
1775719680380023600,4.3680234375,-0.03707680798470974,0.13379939863681792,-0.23364713557213543
1775719680390036500,4.378036376953125,-0.1840583442777395,0.07483516849279404,0.07814034751802683
1775719680400049400,4.38804931640625,-0.3640180210649967,0.02065291192829609,0.22366905465424058
1775719680410063600,4.398063720703125,-0.5017752174168825,-0.09994856696128844,0.21863953605443237
1775719680420076500,4.40807666015625,-0.5932160682737827,-0.2830529715150595,0.022988953660428524
1775719680430089500,4.41808935546875,-0.5576216078013181,-0.43918227538168425,-0.0713967184767127
1775719680440102700,4.4281025390625,-0.37113106794059275,-0.6686895346701145,0.023755846379697323
1775719680450115300,4.438115234375,-0.30491175210177895,-0.9977888025671243,0.2949564675375819
1775719680460129500,4.448129638671875,-0.27047345766080544,-1.368677293923497,0.6976715912654996
1775719680470142700,4.458142822265625,-0.3088099285840988,-1.7737708372205494,1.1184171694636345
1775719680480155400,4.4681552734375,-0.2957318175579421,-2.152808148241043,1.3637082733392714
1775719680490168600,4.47816845703125,-0.2573544666349888,-2.5213386782944203,1.4602338801145553
1775719680500182500,4.4881826171875,-0.17510463797152043,-2.9465497114688155,1.5592670857965945
1775719680510195500,4.498195556640625,-0.11777588180853053,-3.308981340125203,1.6898787943080067
1775719680520208600,4.508208740234375,-0.18135843766927717,-3.497895307740569,1.8852689722001552
1775719680530221600,4.5182216796875,-0.18449554838491602,-3.6456454903185365,2.0821847522243857
1775719680540235500,4.528235595703125,0.005509127943450585,-3.917327757513523,2.210865784934163
1775719680550248700,4.538248779296875,0.3432224857956171,-4.102195080086589,2.16326729067415
1775719680560261400,4.548261474609375,0.6260182676792144,-4.240728521507978,2.050062936298549
1775719680570274600,4.558274658203125,0.690820702457428,-4.436276812571287,2.0048712109193203
1775719680580288500,4.56828857421875,0.5489116471230984,-4.515809783491492,1.9684891072005033
1775719680590301400,4.578301513671875,0.1673000834341161,-4.636791201609372,2.0859902819871903
1775719680600314600,4.588314697265625,-0.3576870644778013,-4.724079608961939,2.2974983587265014
1775719680610327600,4.59832763671875,-0.8044336376339196,-4.816808746063709,2.4546248569369316
1775719680620341500,4.608341552734375,-1.1172674149066208,-4.855775313317776,2.468560443308949
1775719680630354700,4.618354736328125,-1.1739292133271693,-4.837620647946,2.2201099986195563
1775719680640367600,4.62836767578125,-0.8760954367876053,-4.8536757106900215,1.8416060638234018
1775719680650380500,4.638380615234375,-0.35147242774665355,-4.7976358435601,1.4816682978093623
1775719680660394500,4.64839453125,0.12617547049648128,-4.65408486623764,1.1664558087065815
1775719680670407400,4.658407470703125,0.37726153351962566,-4.480106601947546,0.9339543360382317
1775719680680420600,4.668420654296875,0.4051163396507501,-4.279019381457567,0.7766194557741284
1775719680690433500,4.67843359375,0.2294716034531593,-4.003398605769872,0.6881342398524284
1775719680700446700,4.68844677734375,-0.13227379650473595,-3.6533459816932674,0.6840425866246223
1775719680710460400,4.69846044921875,-0.5956342353314161,-3.2861183509320018,0.7445353415101766
1775719680720473600,4.7084736328125,-1.1073895794928073,-2.9850211886823175,0.7940136581674218
1775719680730486500,4.718486572265625,-1.4870967525988816,-2.6656407662451267,0.7479489493459462
1775719680740499500,4.72849951171875,-1.574578052175045,-2.2055366988658904,0.5569216428384185
1775719680750513700,4.738513671875,-1.4519862762510776,-1.7327029137730598,0.16950930218249557
1775719680760526300,4.7485263671875,-0.980133318889141,-1.2999831124037504,-0.13550912516415117
1775719680770539500,4.75853955078125,-0.5479565383553504,-0.9128688779115677,-0.2944011717423797
1775719680780552700,4.768552734375,-0.16996259890794754,-0.623618805322051,-0.38271278466284275
1775719680790566400,4.77856640625,0.06326282238708808,-0.3642570905178785,-0.31641689645648
1775719680800579600,4.78857958984375,0.24547110008504242,-0.17733517350256442,0.08670476224571466
1775719680810592500,4.798592529296875,0.3668552903175354,0.0932365021020174,0.6002414368659258
1775719680820605400,4.80860546875,0.3769359548270702,0.5102531229048967,1.1471660018250345
1775719680830619600,4.81861962890625,0.2666869065931067,0.9465537053704262,1.6604039857596158
1775719680840632300,4.82863232421875,0.06956157547142357,1.386083771276474,2.0222756424456834
1775719680850645500,4.8386455078125,-0.07227730070352553,1.620151470348239,2.23614226500988
1775719680860658400,4.848658447265625,-0.060558878924325106,1.5634931790590285,2.2250655752003192
1775719680870671600,4.858671630859375,0.008895181052014232,1.490768134588003,2.105441124649346
1775719680880685600,4.868685546875,0.13650916905216873,1.4472954880863427,1.806105419114232
1775719680890698500,4.878698486328125,0.3854675997963175,1.3802216012448072,1.3178563304856419
1775719680900711400,4.88871142578125,0.4544914516618475,1.1837947737812995,0.7843976885601878
1775719680910724600,4.898724609375,0.44724338022973387,1.134919391453266,0.1696443267390132
1775719680920738600,4.908738525390625,0.26792145335674283,1.1175140831440686,-0.4507674992352724
1775719680930751500,4.91875146484375,-0.025503822558186947,1.0351590405404567,-0.8748416373342275
1775719680940764400,4.928764404296875,-0.3483586796402931,0.8969546849429607,-1.181287467135489
1775719680950777600,4.938777587890625,-0.5857587380051612,0.8252695049136877,-1.623647788031399
1775719680960791600,4.94879150390625,-0.6708791536688804,0.7306336574077605,-2.0303364915654063
1775719680970804500,4.958804443359375,-0.7741910595834255,0.600446019527316,-2.280312830647826
1775719680980817700,4.968817626953125,-0.8475847970962523,0.40847207981944084,-2.35788999132514
1775719680990830300,4.978830322265625,-0.6749860044658184,0.11026946996748446,-2.228788102854788
1775719681000844500,4.988844482421875,-0.3706418231189251,-0.16480477775335312,-1.9873174340501427
1775719681010857500,4.998857421875,0.08487024029493331,-0.3581447451174259,-1.9474252763837574
1775719681020870400,5.008870361328125,0.4858756374955177,-0.37694647622108457,-2.155379752294719
1775719681030883600,5.018883544921875,0.8040975375473499,-0.2596007842570543,-2.245124320627749
1775719681040897500,5.0288974609375,1.1191478218257427,-0.11981529694795608,-2.092049728156626
1775719681050910500,5.038910400390625,1.3513970732986926,-0.0801958187431097,-1.909055505979061
1775719681060923600,5.048923583984375,1.3353636378645897,-0.22187632601857185,-1.9267168348759411
1775719681070936300,5.058936279296875,1.2700333798199892,-0.272669524666667,-2.110420666627586
1775719681080949500,5.068949462890625,0.9361369407743215,-0.1679062509000301,-2.5124527765274047
1775719681090963700,5.078963623046875,0.645900195235014,-0.06788637226819992,-2.975036678023636
1775719681100976400,5.088976318359375,0.3677537369946018,-0.010264204382896422,-3.448295702791214
1775719681110989600,5.098989501953125,0.23870003504753112,0.17073416780233383,-3.6354546434327957
1775719681121002500,5.10900244140625,0.046331579596735534,0.3283838131040335,-3.1944413532316682
1775719681131016400,5.119016357421875,0.04147299711704254,0.31391864989995955,-2.2389278040751814
1775719681141029600,5.129029541015625,0.08091127353608608,0.3290162657886743,-1.2454907669767736
1775719681151042600,5.13904248046875,-0.06390344011187553,0.38679333197474475,-0.8121513724043965
1775719681161055500,5.149055419921875,-0.11929799507558345,0.3164250797629356,-0.74285980951339
1775719681171069000,5.15906884765625,-0.23571312819123266,0.24214228445589542,-0.8447391984067857
1775719681181081900,5.169081787109375,-0.12011333004646002,0.313082199075818,-1.0464332987487315
1775719681191094800,5.1790947265625,0.2064847686845809,0.543845011383295,-1.2698549545131623
1775719681201107700,5.189107666015625,0.5100818579912185,0.7728682865470647,-1.4427385554343461
1775719681211122000,5.199121826171875,0.7250222472667693,1.0598954223901034,-1.598556309133768
1775719681221134800,5.209134765625,0.8443260144960135,1.4096499403029679,-1.634270158202201
1775719681231147800,5.219147705078125,1.052861285969615,1.6561428211838005,-1.3256233112253248
1775719681241161000,5.229160888671875,1.1941583468854426,1.8124498197048902,-0.7049820604093372
1775719681251173600,5.239173583984375,1.1989204467207193,1.9398779297441242,-0.02783215590789914
1775719681261187800,5.249187744140625,1.0343050540596246,1.9078426230579613,0.4590878760740161
1775719681271200800,5.25920068359375,0.6780822169154882,1.823539368996024,0.563902441636473
1775719681281213700,5.269213623046875,0.029411972445249557,1.7368033348292111,0.18424612193480133
1775719681291227000,5.279226806640625,-0.6993781029224395,1.63122757563591,-0.41822132041752336
1775719681301240800,5.28924072265625,-1.0610035297624767,1.6687153025090693,-1.0688652030482888
1775719681311253800,5.299253662109375,-1.0125747952233999,1.7545698776662348,-1.5697092770949006
1775719681321267000,5.309266845703125,-0.5952114798747002,1.8985989938944576,-1.7623276521861553
1775719681331280000,5.31927978515625,-0.18374438295774162,2.097421776583791,-1.548215822689235
1775719681341293800,5.3292939453125,0.10714286237955092,2.1144401314020156,-0.9526607900738716
1775719681351307000,5.33930712890625,0.36236031698584553,2.233029101425409,-0.11906126371026038
1775719681361319700,5.349319580078125,0.23241174855828284,2.1330349417567254,0.670116206472367
1775719681371332900,5.359332763671875,-0.2433918461255729,1.5531336976081132,1.1885400686122476
1775719681381346800,5.369346923828125,-1.0964753867685795,1.1629244197100401,1.0508936391584573
1775719681391359700,5.37935986328125,-1.5811118378579616,1.1332950051218271,0.428688353896141
1775719681401373000,5.389373046875,-1.3447889072053134,1.317505325090885,-0.51267611226812
1775719681411385900,5.3993857421875,-0.7789595891594886,1.518098040062189,-1.2302873526260256
1775719681421398800,5.409398681640625,-0.014606032979488372,1.7897008122801779,-1.8238729848645627
1775719681431413000,5.4194130859375,0.4952480076052248,1.9814742609798908,-2.089970583795011
1775719681441426000,5.429426025390625,0.8371898059405386,2.0373060383170842,-1.6856489016532896
1775719681451438800,5.43943896484375,0.9248596138261258,1.8886077612340448,-0.6934957668855786
1775719681461451800,5.44945166015625,0.7754765693493187,1.8415157551914452,0.334618469709903
1775719681471465700,5.4594658203125,0.4728351002670824,1.9703215833246708,1.1096066710203885
1775719681481479000,5.46947900390625,0.029071634574979542,2.003883661186695,1.6297255005098878
1775719681491491800,5.479491943359375,-0.42849619232490654,1.9047668688744306,1.7610849586486816
1775719681501505000,5.489505126953125,-0.7993553114563227,1.8797458248645067,1.4317190026395021
1775719681511518700,5.499518798828125,-0.9615694881945848,1.8639830230653285,1.0095965831302105
1775719681521532000,5.509531982421875,-0.952370867216587,1.8487778551489114,0.48171004224866626
1775719681531544800,5.519544921875,-0.779914844057709,1.7375374943226576,0.04976926242783666
1775719681541557800,5.529557861328125,-0.686176676043868,1.5918243705302475,-0.21644451022818684
1775719681551571000,5.539571044921875,-0.43101226679906246,1.4490291800111532,-0.12285904855802654
1775719681561584600,5.549584716796875,-0.1248638125091791,1.0880728846043348,0.3765370186373591
1775719681571597800,5.559597900390625,0.13175474106669424,0.7022545351415872,0.9957850615292787
1775719681581611000,5.569611083984375,0.3259761674404144,0.38516953016519545,1.5686553841277957
1775719681591623700,5.579623779296875,0.4463397459208965,0.24449615410566328,1.9822630732700228
1775719681601638000,5.589637939453125,0.3816561152167618,0.08825579107999801,2.180372446992993
1775719681611650800,5.59965087890625,0.10414426508545875,0.0029600188493728637,2.1594361880786717
1775719681621663700,5.609663818359375,-0.20945216712281106,0.04451835616230965,1.9235779523283243
1775719681631677000,5.619677001953125,-0.5075713364750146,0.1161497601777315,1.5253531257569788
1775719681641690600,5.629690673828125,-0.6786304984480143,0.20291969661414622,1.1891605385981499
1775719681651703800,5.639703857421875,-0.8274851351365446,0.2560194186389446,0.9763250126473605
1775719681661716700,5.649716796875,-0.8955125233106315,0.2507838560730219,0.9081870037056505
1775719681671730000,5.65972998046875,-0.8261737602770328,0.217547356903553,1.0495496772035955
1775719681681744000,5.669743896484375,-0.5577975488901138,0.11766893256902694,1.3772719576589763
1775719681691756800,5.6797568359375,-0.18356851493418216,0.09348784651458263,1.572206500738114
1775719681701769700,5.689769775390625,0.23483999861851332,0.000789104551076889,1.7511488171763716
1775719681711783000,5.699782958984375,0.6783949361264705,-0.11254618272781372,1.8475157262586057
1775719681721795800,5.7097958984375,0.8622732476621866,-0.09503682952225208,1.7394744537346063
1775719681731809800,5.719809814453125,0.8055800311900675,-0.15864625512361524,1.611298740198463
1775719681741822700,5.72982275390625,0.569934561407566,-0.13989830003380774,1.3890515350408852
1775719681751836000,5.7398359375,0.224697813180089,-0.08165770798921584,1.0113454726241529
1775719681761848800,5.749848876953125,-0.10653788222372532,-0.03340250338613987,0.7176672083288431
1775719681771862800,5.75986279296875,-0.4066087701655924,0.007233458384871483,0.5893859885916114
1775719681781876000,5.7698759765625,-0.5548404526501893,-0.06095861883163452,0.646340340217948
1775719681791888600,5.779888671875,-0.5592312349550426,-0.2176736136317253,0.5811848542183637
1775719681801901800,5.78990185546875,-0.42817733563408256,-0.3255582342892885,0.1969882607385516
1775719681811915800,5.799915771484375,-0.2252231522284448,-0.40913375859856604,-0.15281331118643282
1775719681821928700,5.8099287109375,-0.05303425557315349,-0.3377764953494072,-0.3571490120783448
1775719681831942000,5.81994189453125,-0.04172609509527683,-0.3170236301779747,-0.41844256195276974
1775719681841954800,5.829954833984375,-0.052259179547429084,-0.3676432258248329,-0.5019312847614288
1775719681851967700,5.8399677734375,0.03826104933321476,-0.3365338018119335,-0.7155611759603023
1775719681861982000,5.84998193359375,-0.03198927558735013,-0.24638006815612315,-0.8088022081069648
1775719681871994600,5.85999462890625,-0.20532193545028565,-0.20653145737051962,-0.6778533765956759
1775719681882007800,5.8700078125,-0.35886253799796103,-0.15694704999029635,-0.5395910072006285
1775719681892020700,5.880020751953125,-0.3595895370982587,-0.1178185701727867,-0.5411021424159407
1775719681902034700,5.89003466796875,-0.1830335312746465,-0.09823884043395519,-0.7043573526397348
1775719681912047900,5.9000478515625,-0.09114084499701856,-0.019206220251321793,-0.8860815548814832
1775719681922060800,5.910060791015625,0.013996961170434951,0.05896656823158264,-0.8538821436747908
1775719681932073700,5.92007373046875,0.033625206226110455,0.09509411266744136,-0.6283199687503278
1775719681942088000,5.930087890625,0.06202493288889527,0.10069792402386665,-0.35917803368791934
1775719681952100900,5.940100830078125,0.044548020648211235,0.12338088047504424,-0.2986293108314276
1775719681962113800,5.95011376953125,0.018051789519190786,0.16616145305931568,-0.20458485334739088
1775719681972126700,5.960126708984375,0.0032820904105901718,0.11877426346242427,0.035161037491261954
1775719681982140700,5.970140625,0.17537483321502803,-0.054742813056707376,0.32283860006704923
1775719681992153900,5.98015380859375,0.493287521187216,-0.119343587782979,0.49786535049676894
1775719682002166800,5.990166748046875,0.6135160751111806,-0.08305237721800804,0.49061508710756896
1775719682012180000,6.000179931640625,0.6082406189262867,-0.0513303742647171,0.4731318912565708
1775719682022192600,6.010192626953125,0.588671264450997,-0.02903320226073265,0.4452326614618301
1775719682032206800,6.020206787109375,0.5973778641283511,-0.005871522381901741,0.41389819652140136
1775719682042219800,6.0302197265625,0.5767771207787096,0.014113865548372267,0.4021647963687777
1775719682052232700,6.040232666015625,0.4921691846817732,-0.01134966153204441,0.3744711721487343
1775719682062246000,6.050245849609375,0.3268598184071481,-0.023732173243165015,0.31371698984801766
1775719682072259800,6.060259765625,0.19735460983291267,-0.015346622213721274,0.236197404576838
1775719682082272800,6.070272705078125,0.16522227251306176,0.050478725871443746,0.14761252767294644
1775719682092286000,6.080285888671875,0.21116730047762391,0.13707622835040092,0.08405950843393802
1775719682102298600,6.090298583984375,0.18575579584538934,0.12315817763507365,0.06371230145394802
1775719682112311800,6.100311767578125,0.17247253590226172,0.12194997088909149,0.08981865648254751
1775719682122326000,6.110325927734375,0.09340674410238861,0.13033961357176302,0.11820289331525563
1775719682132338700,6.120338623046875,-0.019345774852484465,0.20302315698862075,0.015771131236106156
1775719682142352000,6.130351806640625,-0.19677578703165052,0.24473697712421416,-0.01825067309215665
1775719682152364800,6.14036474609375,-0.44622532576099033,0.2151642611593008,0.04050765921622514
1775719682162378800,6.150378662109375,-0.5665327901400625,0.22567454925775526,-0.09072174280211329
1775719682172392200,6.16039208984375,-0.5829974565982818,0.33468788168430325,-0.3721184715427458
1775719682182405000,6.170405029296875,-0.6411110612623393,0.34991350786685943,-0.41402196903154254
1775719682192418000,6.18041796875,-0.7662520832777023,0.29760113682746886,-0.30824922596141696
1775719682202432300,6.190432373046875,-0.7351958507567644,0.2134165407091379,-0.24152882873266934
1775719682212445200,6.200445068359375,-0.6362742887556553,0.1936357354402542,-0.15253434811457992
1775719682222458000,6.2104580078125,-0.638566052954644,0.13181903847455978,-0.018003858724236488
1775719682232471300,6.22047119140625,-0.63846624584198,0.0647282004982233,0.10098740848973393
1775719682242484000,6.23048388671875,-0.4784516249746084,0.07359189043343067,0.0766306736074388
1775719682252498200,6.240498291015625,-0.26692893518805505,0.1343710610449314,0.02543152450695634
1775719682262511400,6.250511474609375,-0.35516119926199313,0.15273440073132513,0.04858560560122132
1775719682272524000,6.26052392578125,-0.5064788650631904,0.07673895628750324,0.1294564009964466
1775719682282537200,6.270537109375,-0.665185179810971,0.08414660219550132,0.02403290975540876
1775719682292551200,6.28055126953125,-0.6225519067429006,0.15597908174097538,-0.16218158964291213
1775719682302564000,6.290564208984375,-0.6331527957342564,0.17436638682484626,-0.16413243144974113
1775719682312577300,6.300577392578125,-0.7334972301453352,0.09787643686234951,-0.0923845614477992
1775719682322590200,6.310590087890625,-0.8102887934029102,0.04122925148904323,-0.15575813246667383
1775719682332604200,6.320604248046875,-0.899177037167549,0.08395838614702224,-0.3032435266286135
1775719682342617300,6.330617431640625,-0.8046271143794059,0.09920388607382774,-0.28368060189411043
1775719682352630000,6.340630126953125,-0.8014052297234535,0.060489832276105875,-0.2461854223668575
1775719682362643200,6.350643310546875,-0.8278015076093376,0.05141337637305259,-0.27487448736503717
1775719682372656000,6.36065625,-0.8259259229958057,0.0013666121780872343,-0.41210006105825303
1775719682382670000,6.370670166015625,-0.6967137060187757,-0.006471826362609863,-0.583345100992173
1775719682392683300,6.380683349609375,-0.5817576856702565,0.06386427714526653,-0.7154160684011877
1775719682402696200,6.3906962890625,-0.6269092251695693,0.03904197057783603,-0.7774373480282724
1775719682412709000,6.400709228515625,-0.6717921768605709,-0.03870937762260437,-0.8288492630966007
1775719682422723300,6.410723388671875,-0.606965338293463,-0.013563830450177191,-0.8722130423963069
1775719682432736300,6.420736328125,-0.3831635971702635,0.07521335415542126,-0.8396475743561983
1775719682442749200,6.430749267578125,-0.19052374089956284,0.07036474508047104,-0.728322165594995
1775719682452762000,6.44076220703125,0.008913812687247991,0.05349661238789558,-0.6055988722458482
1775719682462776000,6.450776123046875,0.2635486450999975,0.037168577921390535,-0.5351539015360176
1775719682472789200,6.460789306640625,0.5935889932394027,0.04250058659911155,-0.4297901776582002
1775719682482802200,6.47080224609375,0.8738486077088862,-0.0059808279752731315,-0.3166809542201459
1775719682492815400,6.4808154296875,0.9829063637990504,0.030085341662168502,-0.20847923043742775
1775719682502828000,6.490828125,0.9408417574644088,-0.0022498247534036633,-0.07635463314503431
1775719682512842200,6.50084228515625,0.9591273557394743,-0.04916822779476642,0.09903466698676347
1775719682522855200,6.510855224609375,0.987059172629565,-0.10599953756332396,0.253241770619154
1775719682532868000,6.5208681640625,1.073997597500682,-0.13138941488564013,0.3627038697265088
1775719682542881300,6.53088134765625,1.1371312222838401,-0.14839841735363005,0.43032033901214595
1775719682552895200,6.540895263671875,1.3184803076028824,-0.19665245291292666,0.4567433587744832
1775719682562908200,6.550908203125,1.5868268545038997,-0.18197803087234496,0.3982539065353572
1775719682572921300,6.56092138671875,1.7964657763704657,-0.04452127877175808,0.26045345556363464
1775719682582934000,6.57093408203125,1.873707275352627,0.09492927749454974,0.09572714987397193
1775719682592947200,6.580947265625,1.7837620698809622,0.27332418918311596,-0.06310381416678429
1775719682602961400,6.59096142578125,1.551750864947587,0.43257776255011554,-0.1307384036310017
1775719682612974000,6.60097412109375,1.2200989899583161,0.5578817200422287,-0.09982859384343028
1775719682622987300,6.6109873046875,0.9960054262816905,0.6171954942762852,-0.0576033170543611
1775719682633000200,6.621000244140625,0.8969014934509992,0.6462181751430034,-0.030154022984206674
1775719682643014100,6.63101416015625,0.8658248026639223,0.56000528806746,0.09470905887261033
1775719682653027300,6.64102734375,1.0118502072758973,0.46380525998473165,0.20019728591293096
1775719682663040300,6.651040283203125,1.2861084624387322,0.339082317250967,0.345399975965172
1775719682673053200,6.66105322265625,1.5850579451352358,0.2796305958509445,0.40252047793865203
1775719682683067100,6.671067138671875,1.8147808930009603,0.25505963369607926,0.41829292434900994
1775719682693080000,6.681080078125,2.0290448443196714,0.15226795226335524,0.4160723256900906
1775719682703093200,6.69109326171875,2.2667622980706392,0.14944821866750715,0.3339979997240007
1775719682713106200,6.701106201171875,2.3108804028689858,0.1125777469098568,0.2732828342594206
1775719682723119400,6.711119384765625,2.1923909476973114,0.12463877158164978,0.2312983804889023
1775719682733133000,6.721133056640625,1.9379186123698948,0.21663900988698004,0.15912746276929973
1775719682743146200,6.731146240234375,1.5108680888086556,0.2971709287166595,0.11225742891430854
1775719682753159200,6.7411591796875,1.1264140134364367,0.2728460502773523,0.21721125681698322
1775719682763172000,6.751172119140625,0.8035147692233323,0.21438041730523108,0.35806408109664917
1775719682773186300,6.761186279296875,0.6288830094605684,0.16140987461805342,0.5112886034324765
1775719682783199200,6.77119921875,0.48652679488062855,0.07321721190214156,0.6408544561527669
1775719682793212200,6.781212158203125,0.4512317557461559,-0.04641688326001167,0.7063882739454508
1775719682803225300,6.791225341796875,0.45039333216063676,-0.10585749874413013,0.6969687036931514
1775719682813239000,6.801239013671875,0.43856326670050616,-0.3675134619653225,0.8262110235475003
1775719682823252200,6.811252197265625,0.3886276347298175,-0.7024532725840806,1.1545520204231143
1775719682833265400,6.821265380859375,0.4392530755955726,-0.8821317943423986,1.6101172753289341
1775719682843278000,6.831278076171875,0.5094155030369758,-0.890575797560811,1.7985116029843686
1775719682853291300,6.841291259765625,0.6998375371277332,-0.7379150465875863,1.3784958003655075
1775719682863305200,6.85130517578125,0.9573906681399792,-0.30650282068550583,0.3689377956800163
1775719682873318100,6.861318115234375,0.992927334010601,0.31456396206617354,-0.5767765362568199
1775719682883331300,6.871331298828125,0.6854040111709385,0.9627899699002503,-1.1623887053981423
1775719682893344300,6.88134423828125,-0.04352751849405467,1.3614303915351629,-1.243098465012759
1775719682903358200,6.891358154296875,-1.0874468616604804,1.4805565371751785,-0.7209772096596658
1775719682913371100,6.90137109375,-2.0687176601469517,1.3100614388257263,0.27703327283412216
1775719682923384000,6.911384033203125,-2.898469278910756,0.9084323567688465,1.3097859828852116
1775719682933397200,6.921397216796875,-3.3291502679288385,0.5225748443394899,1.9777467648893594
1775719682943410200,6.93141015625,-3.202508339831233,0.17676760274767875,2.192889106477797
1775719682953424100,6.941424072265625,-2.647771932077408,-0.06120119541585445,2.022174374028295
1775719682963437000,6.95143701171875,-1.8736971923500298,-0.17742986604869365,1.3214574237175285
1775719682973450200,6.9614501953125,-1.0854103873968124,-0.20761165382266045,0.483085495320335
1775719682983463200,6.971463134765625,-0.6123012194287032,-0.08043722628355025,-0.40859044550210233
1775719682993477000,6.98147705078125,-0.5384819499801844,0.01217091478705406,-1.235965690523386
1775719683003490300,6.991490234375,-0.8022749252300709,0.02835048069357872,-1.9131264086797832
1775719683013503000,7.0015029296875,-1.421217482369393,0.10934183372855186,-2.3305030949667094
1775719683023516200,7.01151611328125,-2.1168349175840615,0.06411795964539051,-2.3048998671546577
1775719683033529300,7.021529296875,-2.693791924974322,-0.09695406132042407,-2.0593536194741726
1775719683043543000,7.03154296875,-3.094206955066323,-0.16165829642117022,-1.807234277013689
1775719683053556200,7.04155615234375,-3.1415327698647975,-0.17705109586417675,-1.7067983649268745
1775719683063569400,7.0515693359375,-2.973026799505949,-0.15906535731852053,-1.79001411601305
1775719683073582000,7.06158203125,-2.614000010856986,-0.10981120480597019,-2.0279927049182356
1775719683083596300,7.07159619140625,-2.174086936982721,0.12803367471694946,-2.3551699187114834
1775719683093609200,7.081609130859375,-1.838127281796932,0.3305529738366604,-2.5139485680431126
1775719683103622100,7.0916220703125,-1.613873705253005,0.46771863403618336,-2.3888383795574306
1775719683113635300,7.10163525390625,-1.5473200428932905,0.6016518881857394,-2.1109619338974355
1775719683123649000,7.11164892578125,-1.7008534850478172,0.6894301248818635,-1.762926494862139
1775719683133662200,7.121662109375,-1.971320531234145,0.6924293066978454,-1.3160035422258078
1775719683143675100,7.131675048828125,-2.1650532973080874,0.6093091249406337,-0.8623047387789934
1775719683153688300,7.141688232421875,-2.2327369866110383,0.39547757368981834,-0.31851934862844644
1775719683163701200,7.151701171875,-2.119095117601007,-0.007876432463526725,0.46537418980188666
1775719683173715500,7.161715576171875,-1.882385087326914,-0.2777016736149788,1.2214667711801825
1775719683183728000,7.17172802734375,-1.4523410810381174,-0.4751069907218218,1.7544107415817678
1775719683193741300,7.1817412109375,-0.9521353048950433,-0.9120499627441168,1.9802453037068246
1775719683203754200,7.191754150390625,-0.1843720864020288,-1.1961159106940031,1.6611657639123498
1775719683213768200,7.201768310546875,0.6659101330846547,-1.1889204462319611,0.9606915363162756
1775719683223781400,7.211781494140625,1.2384307654626667,-1.015096495720744,0.26902590746730565
1775719683233794300,7.221794189453125,1.3892290835648775,-0.759687902456522,-0.093115067679435
1775719683243807200,7.23180712890625,1.147783695331961,-0.5009177238047122,0.12250395151004194
1775719683253820200,7.241820068359375,0.5980426116473972,-0.32609307181835173,0.627091449868679
1775719683263834000,7.251834228515625,0.026057985842227935,-0.2934451861917972,1.0947921098567546
1775719683273847300,7.261847412109375,-0.5476860508508979,-0.3776367965728044,1.4517473529286682
1775719683283860200,7.271860107421875,-0.9011945144698024,-0.5153092372506857,1.5891092663526534
1775719683293873400,7.281873291015625,-0.7611093135617673,-0.655282940608263,1.4806129435375333
1775719683303887400,7.291887451171875,-0.18186404910385606,-0.6699795744806528,1.2022308864429592
1775719683313900300,7.301900390625,0.5682375482313334,-0.5964022970944642,0.7738309940993785
1775719683323913200,7.311913330078125,1.2313485521167515,-0.5478904873818159,0.37125454818978904
1775719683333926100,7.321926025390625,1.4760067649163304,-0.45997371899783607,0.08109992797598242
1775719683343939300,7.331939208984375,1.328486737832427,-0.4856488430023193,0.03300181363075971
1775719683353953300,7.341953369140625,0.9329588952600956,-0.6122954472750425,0.03640490007251501
1775719683363966200,7.35196630859375,0.5572796624958515,-0.6610697073161602,-0.014772621718049049
1775719683373979400,7.3619794921875,0.3112824561774731,-0.5620131207585335,-0.05822495608404278
1775719683383992300,7.371992431640625,0.12358838574588298,-0.36967911556661126,-0.052957975466549394
1775719683394006300,7.38200634765625,0.10036357750296591,-0.2309545354872942,0.014856792870163917
1775719683404019500,7.39201953125,0.21516016950607297,-0.1073053594648838,0.010596505077183247
1775719683414032100,7.4020322265625,0.515144402077794,0.02164309200942516,-0.0008962181873619555
1775719683424045300,7.41204541015625,0.8524230309076607,0.07209960604906082,0.0665273588746786
1775719683434058200,7.422058349609375,1.0646588373996317,0.1051525653451681,0.23426219873055815
1775719683444072200,7.432072265625,1.0409873083025216,0.032176176461577416,0.427878060426563
1775719683454085400,7.44208544921875,0.8569061676710844,-0.005641805279254913,0.46968467341214415
1775719683464098300,7.452098388671875,0.6914326968759298,0.1344365274965763,0.31234497084245083
1775719683474111200,7.462111328125,0.4654164215084165,0.36702246357798574,0.12613207887932656
1775719683484125400,7.47212548828125,0.20729498908892272,0.6343120487719773,-0.0961494669392705
1775719683494138400,7.482138427734375,0.003017301994562149,1.0140770895451308,-0.20919234714284538
1775719683504151300,7.4921513671875,-0.15415128179192542,1.4037538680016994,-0.15306334042474626
1775719683514164200,7.502164306640625,-0.29219387095645066,1.8119658355802297,0.028143559944629668
1775719683524177400,7.512177490234375,-0.4284196199573576,2.2190485068678854,0.18494477172344922
1775719683534191400,7.52219140625,-0.38153497305512424,2.4934488008499143,0.34746436114907264
1775719683544204300,7.532204345703125,-0.13644604068808258,2.720769363749027,0.4597875487759709
1775719683554217200,7.54221728515625,0.2765402286201715,3.0206244169831273,0.5157774392843246
1775719683564230100,7.552230224609375,0.6048685121446847,3.323324922776222,0.6505968286186457
1775719683574244400,7.562244384765625,0.6852133839696646,3.5716181310772894,0.8844219511061906
1775719683584257300,7.57225732421875,0.7428612708181143,3.8211294829964637,1.1100079452976583
1775719683594270200,7.582270263671875,0.7955091574221849,4.004346700274944,1.1919253271363675
1775719683604283400,7.592283447265625,0.8683832549750804,4.226239392906427,1.0432375714473425
1775719683614296300,7.60229638671875,0.947044046170637,4.5223406465649605,0.7713987985163927
1775719683624310300,7.612310302734375,1.0051607926398516,4.782280453518033,0.5596592511087656
1775719683634323500,7.622323486328125,0.8146937503635883,5.003078921172023,0.29536855546981095
1775719683644336000,7.632336181640625,0.5871779571533203,5.062948575723171,0.17519494660347698
1775719683654349300,7.642349365234375,0.39595282651875163,5.049678759783506,0.165711371204257
1775719683664363300,7.65236328125,0.23182138144969938,5.079270764970779,0.17668138576894998
1775719683674376200,7.662376220703125,0.1760357996081002,4.9837423525393,0.23789982458055017
1775719683684389400,7.672389404296875,0.04481759483721107,4.808010522580147,0.2465573244191706
1775719683694402300,7.68240234375,0.054580315971374506,4.590841935861111,0.3351392787136137
1775719683704415200,7.692415283203125,0.02132511210143566,4.369771081006527,0.3490114444606006
1775719683714429400,7.702429443359375,-0.031108254969120022,4.10540001360774,0.36416210571080443
1775719683724442400,7.7124423828125,-0.06949616381870583,3.7405630773752927,0.37660467704609035
1775719683734455300,7.722455322265625,-0.16064358468698337,3.508383968529105,0.2758325187422335
1775719683744468200,7.73246826171875,-0.2074088247269392,3.190758865326643,0.07357552382051945
1775719683754482200,7.742482177734375,-0.2761801631361246,2.801976989883184,-0.31981559898406264
1775719683764495400,7.752495361328125,-0.1914396867007017,2.372709374794364,-0.7407735047586261
1775719683774508300,7.76250830078125,-0.10701953739398158,2.1038176151007413,-1.2134389475472271
1775719683784521200,7.772521240234375,-0.2569862178444862,1.966279614457488,-1.6890207161739468
1775719683794534100,7.7825341796875,-0.4757710075885057,1.8268144451439379,-2.0534420573428274
1775719683804548400,7.79254833984375,-0.6798328599750996,1.5755097800672053,-2.1735326641008257
1775719683814561300,7.802561279296875,-0.7530746217966079,1.2160761641830204,-1.9471385683968663
1775719683824574200,7.81257421875,-0.8317413312762976,0.7958271373301744,-1.4783911758348345
1775719683834587400,7.82258740234375,-0.9502361932754516,0.1347077456533909,-1.0024021415814757
1775719683844601300,7.832601318359375,-0.9521177692383527,-0.4852583823800087,-0.868126649865508
1775719683854614300,7.8426142578125,-0.8195306690007448,-0.7938029380261897,-1.0944677002079783
1775719683864627500,7.85262744140625,-0.4888718967020511,-0.9829156430840492,-1.5019338178552686
1775719683874640100,7.86264013671875,-0.17800795819759369,-1.143418339729309,-1.866308981794864
1775719683884653300,7.8726533203125,-0.06786416043639183,-1.1338239974319935,-2.086577726486325
1775719683894667300,7.882667236328125,-0.013126028121379203,-1.2040607322186232,-1.9717510316058993
1775719683904680200,7.89268017578125,-0.057929621832701374,-1.3248112641900778,-1.5889356633514164
1775719683914693400,7.902693359375,-0.17106266910433768,-1.4895587587982415,-1.2281821970403193
1775719683924706300,7.912706298828125,-0.24514848053455351,-1.6389993786811827,-0.8728083779409527
1775719683934720300,7.92272021484375,-0.20410452248454092,-1.7662866189450024,-0.5872372861251235
1775719683944733400,7.9327333984375,-0.13054595893197693,-1.8241934489905833,-0.39207244142144915
1775719683954746400,7.942746337890625,-0.08936173389474861,-1.9146973112583159,-0.2760889777213335
1775719683964759300,7.95275927734375,-0.029053094271291047,-2.0939906330913303,-0.3724973878577351
1775719683974772200,7.962772216796875,0.03266306492937729,-2.151232861748338,-0.7727291703373194
1775719683984786200,7.9727861328125,0.19327099378108978,-2.036840174371004,-1.1441820175781845
1775719683994799400,7.98279931640625,0.4711176288247108,-2.0488819098204374,-1.3299176474183798
1775719684004812300,7.992812255859375,0.6329249783277511,-1.9646990672677753,-1.3477920345440506
1775719684014825500,8.002825439453124,0.6893056217193603,-1.973676154449582,-1.2137693485453724
1775719684024839200,8.012839111328125,0.5661398452997207,-1.8498977990895509,-0.9767568281933665
1775719684034852400,8.022852294921876,0.1903530422414653,-1.847086833322048,-0.532800470277667
1775719684044865300,8.032865234375,0.14561145351622254,-2.049731220126152,-0.2381517535150051
1775719684054878200,8.042878173828125,0.5023252525150775,-1.8640017277657985,-0.3856856629937887
1775719684064891400,8.052891357421874,1.0392343271553515,-1.6053770950645208,-0.5705266820818186
1775719684074905000,8.062905029296875,1.5942366923689841,-1.3588514809578656,-0.5754737830951809
1775719684084918300,8.072918212890626,1.851187838900089,-1.0343120683223008,-0.4618924121007323
1775719684094931500,8.082931396484375,1.7407213850557803,-0.9883049349069595,-0.19556056602299213
1775719684104944000,8.092944091796875,1.4748212083935737,-1.043541668960452,0.1449637667298317
1775719684114958300,8.102958251953124,1.207589490866661,-0.9445376893728971,0.47028965356796976
1775719684124971300,8.11297119140625,0.9509761979877949,-1.007321185544133,0.9059849636167288
1775719684134984200,8.122984130859376,0.755001205945015,-1.1398650311619043,1.2171268422797321
1775719684144997400,8.132997314453124,0.4121569423446432,-1.2120891403734684,1.2047297175213694
1775719684155010300,8.14301025390625,0.17521624511983244,-1.2632570175528526,1.1105036198601126
1775719684165024300,8.153024169921874,0.1279015727698803,-1.222919746467471,1.0287947662055492
1775719684175036700,8.16303662109375,0.08871871415032073,-1.194661620232463,0.8004588887840509
1775719684185049900,8.1730498046875,-0.0022305537973530587,-1.24403384616673,0.4195534458041191
1775719684195062800,8.183062744140624,-0.1197135536065325,-1.5594143853127955,0.25095541324764487
1775719684205075700,8.19307568359375,-0.3680523911476135,-1.8535060527145861,0.2735486455887556
1775719684215090000,8.20308984375,-0.5544330408930778,-2.1087375358462332,0.5058461201176047
1775719684225102600,8.2131025390625,-0.7422422621369361,-2.3420798432528973,0.6635220689043402
1775719684235115800,8.22311572265625,-0.7268599840879439,-2.624322082906961,0.9122451930552721
1775719684245129000,8.23312890625,-0.5130056364834308,-2.8975585938066244,1.0605033251553773
1775719684255142700,8.243142578125,-0.23802197138918563,-3.0323271297365424,1.1062351487606763
1775719684265155800,8.25315576171875,-0.06863456028699874,-3.3817589915663,1.2450289946839213
1775719684275168800,8.263168701171875,-0.05493338545905426,-3.7063311374276875,1.4098840413197875
1775719684285181700,8.273181640625,-0.4259574676275253,-3.9047628749728203,1.5363269397139547
1775719684295195000,8.28319482421875,-0.9093442109167575,-4.186389028555155,1.59929865193367
1775719684305208600,8.29320849609375,-1.128954930090904,-4.562093395760655,1.4758993590191005
1775719684315221800,8.3032216796875,-0.8643418706297874,-4.7963002110421655,1.1703837958052754
1775719684325235000,8.31323486328125,-0.4567956734836101,-5.071980607962608,0.9807999661043286
1775719684335248000,8.323247802734375,-0.03543488599658012,-5.288229157227278,0.9839408944785595
1775719684345261800,8.33326171875,0.24042671270966529,-5.322724132025241,1.2821017110154032
1775719684355274800,8.343274658203125,0.342847807264328,-5.5042444822579615,1.8916013900920747
1775719684365287700,8.35328759765625,0.22099371623145414,-5.638562351810932,2.3942878771349787
1775719684375300900,8.36330078125,-0.02780921342372894,-5.735782955113053,2.5963714151859283
1775719684385313800,8.373313720703125,-0.09685410807728767,-5.793575218868256,2.404921499352157
1775719684395327700,8.38332763671875,-0.17587094616889953,-5.773978537994623,2.061001386681199
1775719684405340700,8.393340576171875,-0.3368389222383499,-5.650578952819108,1.70248956181705
1775719684415353900,8.403353759765626,-0.37831075031161304,-5.538344320258497,1.4080524419784546
1775719684425366800,8.41336669921875,-0.3805494691491127,-5.3636225441247225,1.1667132905989885
1775719684435380700,8.423380615234375,-0.3313970234453678,-5.203109326085448,0.9961047950029372
1775719684445394000,8.433393798828124,-0.25427871245145794,-4.934315766069293,0.6502139667809009
1775719684455406600,8.443406494140625,-0.17252046669721602,-4.628540090614557,0.14031696383729575
1775719684465419800,8.453419677734376,-0.11558102037906647,-4.361365071710944,-0.4336318016476929
1775719684475433000,8.463432861328124,0.07891746937036513,-4.039266622486711,-1.0252043404981492
1775719684485446700,8.47344677734375,0.27414661148190494,-3.8149820662826297,-1.3362844059713184
1775719684495459800,8.4834599609375,0.47630584511756896,-3.5904081717431544,-1.3315453947506843
1775719684505472800,8.49347265625,0.6652092913389206,-3.151184395307302,-1.156696192844957
1775719684515485700,8.503485595703125,0.7665700631856918,-2.59448457852602,-0.8768591146364808
1775719684525499000,8.513498779296874,0.48460605595111844,-2.300073177650571,-0.4822733752198517
1775719684535512600,8.5235126953125,-0.010273556733131408,-2.0715245342612265,-0.2281875549919903
1775719684545525800,8.53352587890625,-0.48181554844975466,-1.748724658769369,-0.315347367528826
1775719684555539000,8.5435390625,-0.7324842537105083,-1.4091308848649262,-0.4878530750483274
1775719684565551900,8.5535517578125,-0.7377040341854095,-1.022105497699976,-0.5631792419284581
1775719684575565800,8.56356591796875,-0.32703415206074715,-0.8564981713920831,-0.47011356634870166
1775719684585578800,8.573578857421875,0.3545885139405727,-0.7349252171218394,-0.39679523215964435
1775719684595591700,8.583591796875,0.9222282424092292,-0.39362989999651904,-0.46378509397953743
1775719684605604900,8.59360498046875,1.2158300804674624,-0.10359773711860179,-0.4501769859962165
1775719684615617800,8.60361767578125,1.0917676474690436,0.0657131198823452,-0.3945077057443559
1775719684625631700,8.6136318359375,0.6941536462724208,0.04078676841855049,-0.19210721069872377
1775719684635644700,8.623644775390625,0.15770749470246956,0.06572247223258018,-0.0013024609006941318
1775719684645657900,8.633657958984376,-0.18271805385099724,0.011539046624302864,0.25686902120560406
1775719684655670800,8.6436708984375,-0.20545591882718725,-0.039996494823694224,0.49498336531966924
1775719684665684700,8.653684814453126,0.005868590639298781,-0.03128594962358475,0.2849322093904018
1775719684675698000,8.663697998046874,0.1517208397746086,0.05202361722588539,-0.40168548841923474
1775719684685710600,8.673710693359375,0.11013679263168014,0.24758301420509815,-1.1293116345740855
1775719684695723800,8.683723876953126,0.18109540281891823,0.3868757495611906,-1.5989834485046566
1775719684705737000,8.693737060546875,0.32556232594251633,0.5242500840753317,-1.6339843269981442
1775719684715750700,8.703750732421875,0.24872341641187667,0.6336649830400943,-1.3609607281967997
1775719684725763800,8.713763916015624,0.0752203684180975,0.7097159570634365,-0.7425522048689425
1775719684735776800,8.72377685546875,-0.32162615553736684,0.6137585055649281,-0.16197773763388396
1775719684745789700,8.733789794921876,-0.72821022965312,0.4205839578956365,0.09289850231930613
1775719684755803000,8.743802978515625,-0.7732710221290587,0.5236486110508441,-0.0006409282520413399
1775719684765816600,8.753816650390625,-0.5032616565823554,0.617210691845417,-0.2309127421721816
1775719684775829800,8.763829833984374,-0.06808686327636242,0.7381435946464538,-0.5898018759161233
1775719684785842700,8.7738427734375,0.1290256083637476,0.9109966542989015,-0.9391672483809291
1775719684795856000,8.78385595703125,0.13796411710083484,1.1273948411673307,-1.242317982159555
1775719684805869800,8.793869873046875,0.10044833317697048,1.2980091819822788,-1.3590358976140617
1775719684815882800,8.8038828125,0.014438859719038008,1.428302033802867,-1.2949155998811126
1775719684825895700,8.813895751953124,0.04483637260291725,1.6554034009933472,-1.0594418334037066
1775719684835908900,8.823908935546875,0.00580083176586777,1.886186671566963,-0.7614648490011692
1775719684845921800,8.833921875,-0.13988133063269778,2.080629047214985,-0.31162118661254645
1775719684855935700,8.843935791015625,-0.3951397565701976,2.0020868408977983,0.4000603714354336
1775719684865948700,8.85394873046875,-0.5395628040194511,1.822574907878041,0.9157679603539407
1775719684875961900,8.8639619140625,-0.48481820086445654,1.6927590259194374,0.9355025883935392
1775719684885974800,8.873974853515625,-0.3059516165435314,1.5197399620503187,0.5566309893287718
1775719684895988700,8.88398876953125,0.054290356581471855,1.4324936402738093,0.058078241089731454
1775719684906002000,8.894001953125,0.5379921937018632,1.4480179571419953,-0.3761830906331539
1775719684916014600,8.9040146484375,1.0395844557672738,1.492243467837572,-0.801643130132556
1775719684926027800,8.91402783203125,1.4242968898147343,1.5648919399410486,-1.1531567666724323
1775719684936041000,8.924041015625,1.660370083490014,1.5407944405168295,-1.2964384255342185
1775719684946054700,8.9340546875,1.6704209373831749,1.438669114038348,-1.230234745655954
1775719684956067800,8.94406787109375,1.5319178911000488,1.3852619334995746,-0.9351898691825569
1775719684966080800,8.954080810546875,1.2103303140074013,1.4618126737385988,-0.605118102991581
1775719684976093700,8.96409375,0.899400909051299,1.5558300970852375,-0.24868293827101587
1775719684986107000,8.97410693359375,0.6211205587655305,1.680517383983731,0.11874956741258501
1775719684996120600,8.98412060546875,0.3685451796332374,1.7883534893244504,0.36016032272353765
1775719685006133800,8.9941337890625,0.11980656565222889,1.779254821589589,0.41535570185333487
1775719685016146700,9.004146728515625,-0.045074821001291274,1.6018413221538066,0.2726796076692641
1775719685026159900,9.014159912109376,-0.009720014503598213,1.5921347516536712,-0.05686521203815937
1775719685036172800,9.0241728515625,0.2814608069527894,1.61037651078701,-0.36652445092797276
1775719685046186800,9.034186767578126,0.5731682095665485,1.761184911891818,-0.7102334781315177
1775719685056199700,9.04419970703125,0.6746703626453876,1.9158008885860442,-0.888919189460203
1775719685066212900,9.054212890625,0.6828057383060455,1.9694646742343902,-0.7065703525140881
1775719685076225800,9.064225830078126,0.5849813238918781,1.995386466476321,-0.3831311562053859
1775719685086239700,9.07423974609375,0.4438941063344478,2.1117659437566996,-0.12855536050349473
1775719685096252700,9.084252685546875,0.02031856540739536,2.2582746018409727,-0.018436697183549403
1775719685106265900,9.094265869140624,-0.5868466793723404,2.050857593807578,0.06810586023777723
1775719685116278800,9.10427880859375,-0.7862592446483672,1.9008079021155833,0.12309198053106665
1775719685126291700,9.114291748046876,-0.7265105861283838,2.090449599483609,0.008179214802384377
1775719685136306000,9.124305908203125,-0.5647767402529716,2.216376657310128,-0.38240941780209536
1775719685146318600,9.134318603515625,-0.3034375878959894,2.258555756869912,-0.8102931773170828
1775719685156331800,9.144331787109374,-0.12266659472584723,2.3308424099236724,-1.1330905685909092
1775719685166345000,9.154344970703125,-0.02607625215128064,2.3534441178321837,-1.1433235741179435
1775719685176358400,9.1643583984375,-0.1488644274301827,2.352420035481453,-1.0016851524185388
1775719685186371300,9.174371337890625,-0.1888691055603325,2.330043368500471,-0.7767216009743512
1775719685196384500,9.184384521484375,-0.30085692375302314,2.1802450212210416,-0.33767763808481394
1775719685206397200,9.194397216796874,-0.4344926562607288,2.0197966851115225,0.1509869725421071
1775719685216410400,9.204410400390625,-0.5829601933278143,1.8927783249169587,0.5926861991807818
1775719685226424600,9.214424560546876,-0.7325764620386064,1.7768325628787278,0.9541884380325675
1775719685236437200,9.224437255859375,-0.7587006449848414,1.8211095115005969,1.1892861377391963
1775719685246450400,9.234450439453125,-0.7206821722358465,1.7821207324147224,1.2424591441959143
1775719685256463400,9.24446337890625,-0.5779011563725769,1.7568460059046744,1.0730732491973787
1775719685266476300,9.254476318359375,-0.3166699944347143,1.852385524252057,0.8154299556836485
1775719685276490500,9.264490478515626,-0.1697200223237276,1.819949235549569,0.5397201865382493
1775719685286503400,9.27450341796875,-0.1458744518339634,1.6401543939352035,0.22468736485131083
1775719685296516400,9.284516357421875,-0.061132952485233545,1.5252882438272237,-0.03130867291204631
1775719685306529300,9.294529296875,-0.02019406224489212,1.3284598498255014,-0.02152399567440152
1775719685316542500,9.30454248046875,-0.028259587539732456,1.1436275985658169,0.1366117526438087
1775719685326556400,9.314556396484376,-0.031119799276441335,0.9629331777632236,0.3718960609637201
1775719685336569300,9.3245693359375,-0.13044351233765483,0.7071902379781008,0.6562163490008562
1775719685346582500,9.33458251953125,-0.2712080738119781,0.49523617103695866,0.92629724541381
1775719685356595500,9.344595458984376,-0.26319968553185463,0.2579647074878216,0.966010539381951
1775719685366609400,9.354609375,-0.12013035424649715,0.06780395468175411,0.7719174155630171
1775719685376622300,9.364622314453126,-0.10121303393915294,-0.03786532801389694,0.5148422407934442
1775719685386635300,9.37463525390625,-0.057318654894083734,-0.2112730989396572,0.45186366044152526
1775719685396648400,9.3846484375,-0.010294599521160125,-0.3040174336105585,0.31147958618476984
1775719685406661600,9.39466162109375,0.0846278098411858,-0.27751579565405843,-0.03225713274329901
1775719685416675300,9.40467529296875,-0.0030137948632240293,-0.4465256238818168,-0.18540040653645992
1775719685426688500,9.4146884765625,-0.17496508337035774,-0.582120673763752,-0.03170406543780118
1775719685436701200,9.424701171875,-0.32495529996007677,-0.6568044510871172,0.2572156061535701
1775719685446714400,9.43471435546875,-0.498370669670403,-0.6853092455595732,0.5504550771728157
1775719685456727600,9.4447275390625,-0.5941434122517705,-0.7612053212821484,0.7848390756521374
1775719685466741200,9.4547412109375,-0.7322562901735306,-0.8871206886708736,0.9072678430341183
1775719685476754400,9.46475439453125,-0.7794006109252571,-0.9077876291245222,0.9053167820315807
1775719685486767400,9.474767333984374,-0.6413321566671133,-0.8141986603230238,0.6896789850763976
1775719685496780300,9.4847802734375,-0.5313664919517934,-0.6999450891554355,0.2751606473626569
1775719685506794500,9.49479443359375,-0.39161914469599723,-0.6341968979597091,-0.29241043631657954
1775719685516807400,9.504807373046875,-0.24498013823032377,-0.5757359411627054,-0.7337317695535719
1775719685526820400,9.5148203125,-0.2059384599134326,-0.5439876347243785,-1.0295369628749786
1775719685536833300,9.524833251953124,-0.14255612106621265,-0.629157734748721,-1.0436539702285081
1775719685546846500,9.534846435546875,-0.1579863299101591,-0.7126122630268334,-0.8573180364076047
1775719685556860400,9.5448603515625,-0.21610534140169618,-0.6885042422086,-0.6048306643523276
1775719685566873300,9.554873291015625,-0.3262169904589653,-0.6473410416930914,-0.2882643494877964
1775719685576886500,9.564886474609375,-0.5074881882362068,-0.5652116245388984,-0.0261900877892971
1775719685586899500,9.5748994140625,-0.6563134526997805,-0.4516816914707422,0.1512421894121915
1775719685596912400,9.584912353515625,-0.6732309774920344,-0.29923136837780473,0.18363697706051169
1775719685606926300,9.59492626953125,-0.5383914221525192,-0.07445639830827712,0.0918222513899207
1775719685616939300,9.604939208984375,-0.42800534006804225,0.08870061223804951,-0.045290509578585623
1775719685626952400,9.614952392578125,-0.2189746132276952,0.2286538573294878,-0.16359204096272587
1775719685636965600,9.624965576171874,-0.05318769256919622,0.31967969764471055,-0.26626886384412646
1775719685646979300,9.634979248046875,0.1639548829257488,0.3442810549378395,-0.23128245226740834
1775719685656992500,9.644992431640626,0.27397081652358174,0.3137251731544733,0.010888766022026538
1775719685667005200,9.655005126953125,0.28816783031076193,0.2745335649728775,0.30522834377028046
1775719685677018400,9.665018310546875,0.3301096139833331,0.23315233779251573,0.5822470035571604
1775719685687031600,9.675031494140624,0.3505567742064595,0.3214110514819622,0.7451673558034002
1775719685697045200,9.685045166015625,0.3388961470291018,0.4048614881068468,0.8898734945103526
1775719685707058400,9.695058349609376,0.26687515917420385,0.44638007793128487,0.9272714242082088
1775719685717071400,9.7050712890625,0.2426309447556734,0.5369517447382212,0.8137997971985489
1775719685727084300,9.715084228515625,0.18421324257850646,0.5636182178676128,0.6566933188628405
1775719685737097500,9.725097412109376,0.17264321629405022,0.6234329273611307,0.3325396176092326
1775719685747111400,9.735111328125,0.2544417940586805,0.6299713892191648,0.0631774639248848
1775719685757124400,9.745124267578126,0.2156390390641987,0.6228250245958566,0.0011233049415051936
1775719685767137300,9.75513720703125,0.10098433974981308,0.5681757350414991,0.11534903825409709
1775719685777150500,9.765150390625,-0.041189504000544545,0.4129337354034185,0.257824495299533
1775719685787163400,9.775163330078126,-0.11667787570506334,0.332950098106265,0.29479681999646123
1775719685797177300,9.78517724609375,-0.0684209175363183,0.25788579703271386,0.3372792133517563
1775719685807190500,9.7951904296875,-0.028816929161548613,0.20700550462305545,0.32057781552821396
1775719685817203200,9.805203125,-0.019358195942640304,0.07945990568399429,0.35192419010214504
1775719685827216400,9.81521630859375,-0.04513137349411845,-0.042566053050756454,0.3991927217554301
1775719685837230300,9.825230224609374,0.02653261761665344,-0.09962883348762988,0.3973809961583465
1775719685847243300,9.8352431640625,0.09275134893357753,-0.14116612801253794,0.18360760483555494
1775719685857256400,9.84525634765625,0.19106676173508166,-0.173527597913146,-0.08216609590277076
1775719685867269600,9.85526953125,0.28869813779518005,-0.204967861315608,-0.24349289534725246
1775719685877282300,9.8652822265625,0.3403575978837907,-0.18168167827427387,-0.2913610733941197
1775719685887296500,9.875296630859374,0.30914778223633765,-0.16246785923838614,-0.2431237697739154
1775719685897309200,9.88530908203125,0.2068038445711136,-0.17173954545259476,-0.11997311785817145
1775719685907322400,9.895322265625,0.059645636536926026,-0.17774316978156565,0.014192337612062692
1775719685917335600,9.90533544921875,-0.05520692343711853,-0.18908347896337507,0.1670095943212509
1775719685927348500,9.915348388671875,-0.11989289222881197,-0.17284955252110956,0.24485556200258432
1775719685937362400,9.925362548828126,-0.13285524965450166,-0.1043207906961441,0.21756167768985032
1775719685947375400,9.935375244140625,-0.103518096011132,-0.04468202229142189,0.12530410362258554
1775719685957388300,9.94538818359375,-0.04036065196096897,0.05175882880985737,0.045242067326977844
1775719685967401500,9.9554013671875,-0.001910655926913023,0.10445347716510295,-0.006336363414674997
1775719685977415400,9.96541552734375,0.01768470977246761,0.09727262575030327,0.008151011621206999
1775719685987428400,9.975428466796876,0.047048751422762866,0.07041676752865314,0.13331205351129174
1775719685997441300,9.985441162109375,0.03889057940840721,0.11312018322348594,0.2739502121269703
1775719686007454500,9.995454345703125,-0.009146014007925987,0.07663724947869777,0.36226986222341656
1775719686017467400,10.00546728515625,-0.029422639969736337,0.04019523226618767,0.38338410805314777
1775719686027481300,10.0154814453125,0.007925386171787977,0.09176292241811752,0.37915114665850996
1775719686037494500,10.02549462890625,0.08148921955451369,0.09417115260362624,0.39652167591527104
1775719686047507200,10.035507080078125,0.23086744172573087,0.10510872620344161,0.5139895329542458
1775719686057520400,10.045520263671875,0.2883136685222387,0.14479893155694007,0.5563781105462461
1775719686067533600,10.055533447265624,0.26394158994033934,0.18921032021343706,0.5673622267015278
1775719686077547300,10.06554736328125,0.2172584569595754,0.17379004824161529,0.515876004287973
1775719686087560400,10.075560546875,0.19599486578702927,0.23105098159909246,0.46583669274710116
1775719686097573600,10.08557373046875,0.2087409501135349,0.32788638497591016,0.47852775895074007
1775719686107586300,10.09558642578125,0.19107143791019915,0.3459726612865925,0.5812825424391777
1775719686117599500,10.105599609375,0.2074925574876368,0.3979857571184635,0.7399082662314176
1775719686127613200,10.11561328125,0.24226284209564328,0.45034313634335993,0.8834517178345471
1775719686137626400,10.12562646484375,0.15958689697459338,0.5063754046887159,0.8594328366044909
1775719686147639600,10.1356396484375,0.25733006284609433,0.4923462948143482,0.7829522389922291
1775719686157652500,10.145652587890625,0.24941446741595863,0.5683154357731341,0.6865650908395647
1775719686167666400,10.15566650390625,0.24469094602540134,0.6520744999557733,0.6253081466484814
1775719686177680100,10.16568017578125,0.3288829947978258,0.6727823569417,0.5448962009366601
1775719686187693000,10.175693115234376,0.3782097741551697,0.7333475925415754,0.4981438751772046
1775719686197706200,10.185706298828125,0.41519568898603315,0.7538543739974498,0.5310604216773063
1775719686207719200,10.19571923828125,0.4640858304917812,0.812092627954483,0.5804604854665696
1775719686217733000,10.205733154296874,0.5197334834337234,0.8666758665353059,0.6252507173728198
1775719686227746300,10.215746337890625,0.5778403660960495,0.9188882843315601,0.6312421398073434
1775719686237759200,10.22575927734375,0.5999795710593462,1.0391139156460762,0.6305785613320768
1775719686247772200,10.235772216796875,0.5999199498265981,1.1580670428067446,0.5771078140377998
1775719686257785000,10.24578515625,0.5974801554590463,1.3227923255831002,0.40251331754550335
1775719686267799000,10.255799072265624,0.5922796642065048,1.452216577875614,0.27818536547869444
1775719686277812200,10.265812255859375,0.5675315919190644,1.5737883631020784,0.22766586920544504
1775719686287825200,10.2758251953125,0.5890170091487467,1.723530596280098,0.13909224434792994
1775719686297838300,10.28583837890625,0.6396078170925379,1.9802116936981677,0.043918344442546366
1775719686307851000,10.29585107421875,0.5254962847441434,2.2104595422208306,-0.02563610716834664
1775719686317865200,10.305865234375,0.4646972403883934,2.379277647268772,0.006552928774803877
1775719686327878100,10.315878173828125,0.46564138937070965,2.4962533368766304,0.06025836160778999
1775719686337891000,10.32589111328125,0.5186318058021366,2.5892466778725383,0.15585209436044095
1775719686347904300,10.335904296875,0.6597763065047562,2.7815467807948586,0.15884835356697438
1775719686357918200,10.345918212890625,0.6956525065280497,2.9781279220372436,0.09200798322036861
1775719686367931100,10.35593115234375,0.5675023658245801,3.1343554255813357,0.08861556430310011
1775719686377944300,10.3659443359375,0.38163214981928467,3.2630157077640294,0.1594350674137473
1775719686387957000,10.37595703125,0.257312965580821,3.3366040910661217,0.14686097865328193
1775719686397970200,10.38597021484375,0.29104455479085445,3.3900486810058355,0.004423953922092915
1775719686407984400,10.395984375,0.311201353765279,3.3840848041653633,-0.17145327585712075
1775719686417997000,10.4059970703125,0.31105975333750246,3.368729998645186,-0.25267449212521315
1775719686428010200,10.41601025390625,0.23140797834321855,3.318559900331497,-0.24264132001921532
1775719686438023200,10.426023193359375,0.06464622130319475,3.21139073446691,-0.08293854157999157
1775719686448036000,10.4360361328125,-0.030111791277676818,2.9623090061366555,0.15239172477349638
1775719686458050300,10.44605029296875,-0.02930748915746808,2.764150240314007,0.1664493300899863
1775719686468063200,10.456063232421876,0.017921441137790678,2.5557033047109843,-0.02771671283468604
1775719686478076200,10.466076171875,0.01809095248579979,2.353691955113411,-0.29501681942269203
1775719686488089000,10.476089111328125,0.03584185936227441,2.2073048775821924,-0.6414024454243481
1775719686498102300,10.486102294921874,0.09277531433105468,2.1089508863359687,-0.968842694067955
1775719686508116200,10.4961162109375,-0.02511047585904598,2.016560187408328,-1.2803541366957127
1775719686518129200,10.506129150390626,-0.24239465178176758,1.7825696452260016,-1.4180489353358745
1775719686528142300,10.516142333984375,-0.5235226465836167,1.5226315918385982,-1.3621977226458488
1775719686538155000,10.526155029296875,-0.8091092282295227,1.2087930214375258,-1.1995024843923747
1775719686548168200,10.536168212890624,-1.0816910746127366,0.8947995527356862,-1.0785732348531485
1775719686558182100,10.54618212890625,-1.216140461590886,0.6322334889322518,-1.023989850141853
1775719686568195000,10.556195068359376,-1.2323450158081948,0.49688744537532326,-1.00371366257146
1775719686578208300,10.566208251953125,-1.1394066198699175,0.40588440141379833,-1.013466848692298
1775719686588221200,10.57622119140625,-0.8362981177978217,0.3921680107504129,-1.055258848630637
1775719686598235100,10.586235107421874,-0.31594328759536144,0.3966360960751772,-1.0974538764119148
1775719686608248300,10.596248291015625,0.08502864572703837,0.36732992209196086,-1.095950193850696
1775719686618261000,10.606260986328126,0.32245866083875296,0.340068990200758,-0.974630483689159
1775719686628274200,10.616274169921875,0.5078080678403377,0.18864801015555857,-0.7555154390774667
1775719686638287000,10.626287109375,0.5872387474298477,0.013301964643597602,-0.3551541849993169
1775719686648301000,10.636301025390624,0.5999127894334495,-0.19062427866458892,0.11655395706444978
1775719686658314200,10.646314208984375,0.49789413819983597,-0.41844460777938364,0.4220160365253687
1775719686668327200,10.6563271484375,0.14711027723923326,-0.5984843640655279,0.4313540659740567
1775719686678340000,10.666340087890624,-0.3062215925913304,-0.8055442292243242,0.3234232680872082
1775719686688353000,10.67635302734375,-0.5307487253796309,-0.7844991031080484,0.13098448734655976
1775719686698367200,10.6863671875,-0.4824175329308957,-0.6659761840581894,-0.22020985411107538
1775719686708380200,10.696380126953125,-0.29712592053115366,-0.6029565410435199,-0.707736181423068
1775719686718393000,10.70639306640625,-0.12809446499347685,-0.6358627853453159,-1.035811366969347
1775719686728406300,10.71640625,-0.017325228810310362,-0.8815151237487793,-0.9959436130918562
1775719686738419000,10.7264189453125,0.13586349155977367,-1.0580547629594803,-0.8773997973844408
1775719686748433200,10.73643310546875,0.13195932372808455,-1.205299334102869,-0.7737418545112014
1775719686758446300,10.7464462890625,-0.08346314997598528,-1.342740888634324,-0.7674224422313273
1775719686768459000,10.756458984375,-0.30094211781844493,-1.5198966139167547,-0.7214648470461368
1775719686778472200,10.76647216796875,-0.4449566209994256,-1.5751415312767028,-0.6328444604374468
1775719686788485000,10.776485107421875,-0.4743183245621621,-1.4886545034348964,-0.6441260251693427
1775719686798499000,10.7864990234375,-0.4907848907165229,-1.4564081843465566,-0.6914343043111264
1775719686808512300,10.79651220703125,-0.45144364493116734,-1.4196990406304597,-0.6984023897580802
1775719686818525200,10.806525146484375,-0.38278643442094323,-1.4194155475139618,-0.7578719390757381
1775719686828538000,10.8165380859375,-0.3692700963743031,-1.3072095565259456,-0.9284132146544753
1775719686838552300,10.82655224609375,-0.500508704612404,-1.2671475952506064,-1.0186937895603478
1775719686848565000,10.83656494140625,-0.6086359018541873,-1.1938672549843787,-1.1445721859395503
1775719686858578200,10.846578125,-0.5551223383314907,-1.0794634616911412,-1.078582441072911
1775719686868591000,10.856591064453125,-0.451071304487437,-0.9995587348490953,-0.7614550582595169
1775719686878604300,10.866604248046874,-0.26149711939767,-0.957035351896286,-0.33699630475714804
1775719686888618200,10.8766181640625,-0.10706804357767105,-0.8748416373342275,-0.03577098608314991
1775719686898631200,10.886631103515626,0.04704349072575569,-0.847650848069787,0.11229615348950028
1775719686908644000,10.89664404296875,0.08686126798167824,-0.8782692736953497,0.12469590859636663
1775719686918657000,10.906656982421875,0.1849387073088437,-0.8375660919070244,0.06781038442254066
1775719686928670200,10.916670166015624,0.23639818784594535,-0.7538058586806058,0.027359131568670272
1775719686938684200,10.92668408203125,0.22292539668008685,-0.6284551394373178,-0.06682473438605666
1775719686948697000,10.936697021484376,0.08460260233469306,-0.5505290191918611,-0.09677753570973872
1775719686958710300,10.946710205078125,-0.03416632736548781,-0.5747106897681952,-0.006014876375347375
1775719686968723000,10.956722900390625,-0.13248305534124374,-0.6201888308733702,0.10801073125526309
1775719686978736000,10.966736083984374,-0.11596790080480276,-0.5819593457221984,0.11259645161032676
1775719686988750300,10.976750244140625,-0.09089841454327106,-0.5734025297790766,0.10240224372372031
1775719686998763000,10.986762939453126,-0.09500760342776775,-0.679171765717864,0.10763371463641523
1775719687008776200,10.996776123046875,-0.04926343179754913,-0.6532517270416021,-0.042424160362035036
1775719687018789000,11.0067890625,-0.009334741513058542,-0.589802460438013,-0.1678108277015388
1775719687028802000,11.016802001953126,0.020633768836408852,-0.5745043535411357,-0.12330299293324351
1775719687038816300,11.026816162109375,-0.0007686462849378586,-0.6879431011945009,0.04097103894427419
1775719687048829200,11.0368291015625,-0.05583586899042129,-0.9071604371368884,0.23330022183060645
1775719687058842000,11.046842041015625,-0.14314473460912705,-1.0221417380571365,0.3044629854209721
1775719687068855000,11.05685498046875,-0.26731471963524817,-0.9690355862915515,0.2776977280922234
1775719687078869000,11.066868896484374,-0.5176315427184105,-0.8988900369197129,0.22551570543423294
1775719687088882200,11.076882080078125,-0.7082154163073748,-0.7947025172144174,0.17562924636751412
1775719687098895000,11.08689501953125,-0.7303700380355119,-0.7619459105163812,0.09513839020058512
1775719687108908300,11.096908203125,-0.6415706415981054,-0.8335691312253475,0.10707213523089885
1775719687118921000,11.1069208984375,-0.6809574800908565,-1.0918839673250913,0.2750938292041421
1775719687128935200,11.11693505859375,-0.9026257163167,-1.5157318954527377,0.5073473184607923
1775719687138948000,11.126947998046875,-1.1045645851999522,-1.9994173294275999,0.7676334546335041
1775719687148961000,11.1369609375,-1.1356640723407267,-2.533565707182884,1.0776638649232686
1775719687158974200,11.14697412109375,-0.9361552070833742,-3.048188131213188,1.400356626778841
1775719687168987100,11.156987060546875,-0.819242061317712,-3.5181875696629286,1.6442140445895492
1775719687179001000,11.1670009765625,-0.6914232714604586,-4.005432157424092,1.6335307380117474
1775719687189014300,11.17701416015625,-0.6278009863775224,-4.3067777414768935,1.2485096764065324
1775719687199027000,11.18702685546875,-0.8125380336344241,-4.567598422917723,0.8581305948995053
1775719687209040100,11.1970400390625,-1.0462971051484347,-4.8299809468477966,0.6688308428369462
1775719687219053300,11.20705322265625,-1.028643228905648,-4.944929514542221,0.46817353819683194
1775719687229067000,11.21706689453125,-0.831882201051712,-4.9688405514836305,0.30876112100631
1775719687239080200,11.227080078125,-0.5483930300764739,-4.75362017622292,0.17606909908950327
1775719687249093000,11.237093017578125,-0.45280733449980615,-4.444660610035061,0.12430866284444927
1775719687259106000,11.24710595703125,-0.5914290387265384,-4.236482554501295,0.30523280074968934
1775719687269119200,11.257119140625,-0.7558492010764777,-4.078831740155816,0.6857138808377087
1775719687279133200,11.26713330078125,-0.7536429232038557,-3.837956699156761,0.8024180600278079
1775719687289146000,11.27714599609375,-0.6647155164726078,-3.72178706523478,0.786903826162219
1775719687299159000,11.287158935546875,-0.6134766198836267,-3.5347640259325503,0.7478640475414693
1775719687309172200,11.297172119140624,-0.6353850848309696,-3.2725445836097,0.7496195129066705
1775719687319185200,11.30718505859375,-0.7394279353685677,-3.298447086629271,0.951209860613197
1775719687329199000,11.31719921875,-0.8854590390689671,-3.2594659063279625,1.1919418398797512
1775719687339212300,11.32721240234375,-0.917478417533636,-3.113484486988187,1.2867549436487258
1775719687349225000,11.337224853515625,-0.7488397607058286,-3.149218063670397,0.9988858040235936
1775719687359238100,11.347238037109374,-0.3655469841979444,-3.347062941238284,0.5375871200323105
1775719687369251300,11.357251220703125,-0.16259221627041698,-3.634768706995249,0.4330024177029729
1775719687379265000,11.36726513671875,0.03691094989851117,-3.8184272383004423,0.42935617015510796
1775719687389278200,11.3772783203125,0.21774960147738456,-3.8021956499457357,0.35876463058143854
1775719687399291100,11.387291015625,0.2227934408634901,-3.601790566501021,0.12390271239206194
1775719687409304000,11.397303955078126,0.07900573217570782,-3.2959196139782665,-0.21910189286917447
1775719687419318300,11.407318359375,-0.17154446127191184,-3.0944658982634543,-0.4477643718965351
1775719687429331000,11.4173310546875,-0.4058598514944315,-2.936127101653814,-0.8535445822834968
1775719687439344000,11.42734423828125,-0.48716202404424547,-2.634904267197847,-1.1819156820364296
1775719687449357000,11.437357177734375,-0.6168629013210535,-2.272479652804136,-1.3240718439996242
1775719687459370200,11.447370361328124,-0.7352987266093493,-1.9439660758405923,-1.2146798875190317
1775719687469384200,11.45738427734375,-0.7396136671990156,-1.6553110465347767,-0.9383106315515934
1775719687479397000,11.467397216796876,-0.5187677071414888,-1.4340508065879345,-0.7606916726715862
1775719687489410000,11.47741015625,-0.16218217416480182,-1.267316522076726,-0.7707869502283632
1775719687499423200,11.48742333984375,0.16286065794825552,-1.1001812555491923,-0.9130980104923248
1775719687509436200,11.497436279296876,0.23970716626346109,-0.8402548925995826,-1.0720590306535362
1775719687519450000,11.5074501953125,0.023425299251079557,-0.6658849986433982,-0.972403747550398
1775719687529463000,11.517463134765626,-0.37906244546175,-0.4169920708835125,-0.7514692324265837
1775719687539476200,11.527476318359374,-0.8026245423853396,-0.21567864042222498,-0.5331441691488027
1775719687549489200,11.5374892578125,-1.0539385598123072,-0.15476795238554478,-0.31201690793186426
1775719687559502000,11.547502197265626,-1.0110836068175733,-0.005064297652244568,-0.0810809310145676
1775719687569516300,11.557516357421875,-0.8976577186457813,0.167746091902256,0.16945552616864443
1775719687579529000,11.567529052734375,-0.6327215647101402,0.14534896665513514,0.2850552512481809
1775719687589542100,11.577542236328124,-0.3546002043783664,0.11991934184432029,0.203343474984169
1775719687599555300,11.587555419921875,-0.0027944530241191387,0.1597644454985857,0.08742255512624979
1775719687609568000,11.597568115234376,0.40276963039413094,0.19581600208878516,0.13433964299336074
1775719687619582200,11.607582275390625,0.5842829663641751,0.15431903957426546,0.428526149071753
1775719687629595100,11.61759521484375,0.6792531603910028,0.053338791477680204,0.7218541386246681
1775719687639608000,11.627608154296874,0.5288473487377167,0.07414075648784638,0.6411991779372096
1775719687649621200,11.637621337890625,0.22868849025145171,0.0842997469305992,0.4802824936635792
1775719687659634200,11.64763427734375,0.0009447335042059421,0.20994974138140676,0.40211701170429587
1775719687669648100,11.657648193359375,-0.3179633952461183,0.3301291954666376,0.2161545873709023
1775719687679661000,11.6676611328125,-0.7896709527879953,0.24035423199534414,0.02985357873290777
1775719687689674200,11.67767431640625,-1.1191238564282655,0.19207564651668071,-0.10159180412366986
1775719687699687200,11.687687255859375,-1.0323964439593254,0.21469079842865466,-0.2725448753736913
1775719687709700000,11.6977001953125,-0.6361572382472455,0.37006373097002504,-0.7522294031441211
1775719687719714000,11.707714111328125,-0.13669921173155308,0.3655032911866903,-1.1335391891412436
1775719687729727200,11.717727294921875,0.39737434722185133,0.3713625386089086,-1.2645130089633165
1775719687739740200,11.727740234375,0.8698153336048126,0.41201662055850025,-1.1350244592629373
1775719687749753300,11.73775341796875,1.0683160447329283,0.38047172773778437,-0.8411164778649807
1775719687759766000,11.74776611328125,0.9065585257209837,0.30944413483440875,-0.6120373808607459
1775719687769780200,11.7577802734375,0.49161666536554693,0.19396189865469932,-0.571188799252361
1775719687779793200,11.767793212890625,-0.08082198781743645,0.15608488020300865,-0.7623619439713657
1775719687789806000,11.77780615234375,-0.5773531671009957,0.22545710711479186,-0.9314793242268263
1775719687799819300,11.7878193359375,-0.9495995028071105,0.3368400912821293,-1.129511102668941
1775719687809832200,11.797832275390626,-0.8317880930274725,0.44112931779623027,-1.3231348554104565
1775719687819846100,11.80784619140625,-0.2888372540049255,0.5731763198077678,-1.3935698892481625
1775719687829859300,11.817859375,0.394408629284054,0.7792588643670082,-1.4606870307095348
1775719687839872000,11.8278720703125,0.8814160472884773,0.9972498733848333,-1.482897108951956
1775719687849885200,11.83788525390625,1.1674826675362884,1.2722551475226878,-1.3163723755382
1775719687859898000,11.847898193359375,1.2698999626986682,1.472006150972843,-0.8405417467169463
1775719687869912000,11.857912109375,1.1677771204382181,1.6402993553638456,-0.25207915658056734
1775719687879925200,11.86792529296875,0.7491415201313794,1.8275801688194273,0.1524424320474267
1775719687889938200,11.877938232421876,0.2598632345855236,1.934745827552676,0.2839586881831288
1775719687899951000,11.887951171875,-0.009908084421604872,2.1514304301470517,0.1932166332453489
1775719687909965000,11.897965087890626,-0.023108342256397008,2.3711919559687376,-0.0870823633864522
1775719687919978200,11.907978271484374,0.1993896227918565,2.451727381929755,-0.41462578014358875
1775719687929991200,11.9179912109375,0.6493276854656637,2.4865163712382317,-0.6850915111556649
1775719687940004000,11.928004150390626,1.2385521998852491,2.459567574036121,-0.84908599543944
1775719687950017300,11.938017333984375,1.8061562725186346,2.3352748394131657,-0.8988272008165716
1775719687960031000,11.948031005859375,2.234418509957194,2.1984125460743904,-0.8067885301969945
1775719687970044200,11.958044189453124,2.3826878941036758,2.0985119099080562,-0.6563404868371784
1775719687980057300,11.968057373046875,2.3070829102821646,2.073632904717326,-0.41811786004304885
1775719687990070000,11.978070068359376,2.0379310383476317,2.157966553917527,-0.11492007225230336
1775719688000083200,11.988083251953125,1.7170425494350492,2.33310392511487,0.1438465992681682
1775719688010097200,11.99809716796875,1.2418496339954435,2.4590450114667415,0.21967793919146059
1775719688020110000,12.008110107421874,0.5104021759867667,2.4101556006133555,-0.004727759174257516
1775719688030123300,12.018123291015625,-0.12463541058078408,2.171633844742179,-0.4239455432832241
1775719688040136200,12.02813623046875,-0.37768648093342777,2.0676661052674055,-0.9147847945354879
1775719688050149000,12.038149169921875,-0.04774491699337959,2.0066689079910516,-1.2805861918859183
1775719688060163300,12.048163330078125,0.5474534111388027,1.9998545518010853,-1.5916411229178309
1775719688070176000,12.058176025390624,1.1639240982718766,1.9385458043575285,-1.6758417933881282
1775719688080189200,12.068189208984375,1.6249511257149278,1.8537310936421154,-1.5451768933847545
1775719688090202000,12.0782021484375,1.8703369221366941,1.981809192022681,-1.2679855073794721
1775719688100215300,12.08821533203125,1.8209603122882545,2.1418770043820143,-0.8963799537949263
1775719688110229200,12.098229248046875,1.3905939421772957,2.2537655999839306,-0.40178083855248986
1775719688120242200,12.1082421875,0.6743290018618107,2.156940718001127,0.17793255487382412
1775719688130255000,12.118255126953125,-0.11014496680498123,2.1036030955672262,0.578672286875546
1775719688140268000,12.12826806640625,-0.7870093323633074,2.087942585098743,0.8113054230995476
1775719688150281200,12.13828125,-1.2317910351872443,2.0383248599708077,0.9645768533170223
1775719688160295200,12.148295166015625,-1.3576736693501472,1.9918056853801012,0.9036797554142773
1775719688170308000,12.15830810546875,-1.111224627611041,2.011679429629445,0.5749039473179728
1775719688180321000,12.168321044921875,-0.5627512257747351,2.0607821909725663,-0.03146137925572693
1775719688190334200,12.178334228515626,0.027120646637678145,2.0268635547578335,-0.5772594244029372
1775719688200347000,12.188346923828124,0.3543509057924151,1.8073574650019406,-0.7047836882930248
1775719688210361000,12.198361083984375,0.4492962576389313,1.530580505016446,-0.4566934552181512
1775719688220374000,12.2083740234375,0.2898702503144741,1.29841717826128,0.01460946704559028
1775719688230387000,12.218386962890625,0.014076017756015061,1.1075146671772003,0.5405657705169171
1775719688240400100,12.228400146484375,-0.3430048975221813,0.9698772978127003,0.9679360275518148
1775719688250413000,12.2384130859375,-0.6071808807402849,0.8633785785555839,1.295509766381979
1775719688260427000,12.248427001953125,-0.7356184600830078,0.7539718628972768,1.2234982770077882
1775719688270440200,12.258440185546876,-0.7367446876339614,0.7172872691005467,0.784946408484131
1775719688280452900,12.268452880859375,-0.7582083314232527,0.674690236389637,0.21879070802815256
1775719688290466000,12.278466064453125,-0.7268041622474789,0.6139239252597093,-0.17837123855203388
1775719688300479000,12.28847900390625,-0.6267215936429799,0.4898714291334152,-0.2793875078100711
1775719688310493000,12.298492919921875,-0.5094575886130333,0.2831009023100138,-0.13571677656546235
1775719688320506000,12.308506103515626,-0.3727279817432165,0.0840080705076456,0.17073709041178226
1775719688330519000,12.31851904296875,-0.27346330539286134,-0.17117606635093688,0.5909110062018037
1775719688340532000,12.328531982421875,-0.18096885382980107,-0.36280396910011764,0.9825245979398488
1775719688350545000,12.338544921875,-0.2942377978742122,-0.4063806604981422,1.3740864594906568
1775719688360559000,12.34855908203125,-0.5087871420055627,-0.47505438375174996,1.6855144616186617
1775719688370572000,12.358572021484376,-0.9009456542752683,-0.5782423710256814,1.6829244451254606
1775719688380585000,12.3685849609375,-1.1191127505123615,-0.6845715789347887,1.4805698350481689
1775719688390598100,12.37859814453125,-1.2052274379104375,-0.6289151581645012,1.1587938227113335
1775719688400610800,12.38861083984375,-1.282495386508107,-0.5220242247194051,0.8726612245552241
1775719688410625000,12.398625,-1.401539114561677,-0.40795653151273725,0.7235017597012221
1775719688420638200,12.40863818359375,-1.4889958642184733,-0.3737222534775734,0.7233251610253005
1775719688430651000,12.41865087890625,-1.4166886067681013,-0.36785832988023753,0.6675624303363263
1775719688440664000,12.4286640625,-1.167978488229215,-0.35022622707784173,0.5464999098062515
1775719688450677000,12.438677001953126,-0.7587500370845198,-0.33947336239516734,0.47213060525953765
1775719688460691000,12.44869091796875,-0.39195685221776366,-0.3033370501309633,0.4301058925438672
1775719688470704000,12.4587041015625,-0.15067673754915595,-0.32915479747653004,0.4904337391912937
1775719688480717000,12.468717041015625,0.0014719722487032412,-0.3386941947162151,0.6048997110005467
1775719688490730000,12.47872998046875,0.12993190955370665,-0.27371289623975753,0.6915110228091478
1775719688500743000,12.488742919921876,0.1949164229005575,-0.1846644934773445,0.7130757158201187
1775719688510756900,12.4987568359375,0.17798603862673043,-0.18180559691488743,0.639463001794368
1775719688520770000,12.50877001953125,0.127265174562484,-0.037326398831605906,0.40730961191132664
