time,seconds_elapsed,z,y,x
1775719676074324700,0.06232470703125,-0.15945973992347717,-0.7471832633018494,0.6548551917076111
1775719676084337700,0.072337646484375,-0.19692155718803406,-0.8610513806343079,0.7110560536384583
1775719676094352000,0.082351806640625,-0.2157338559627533,-0.9555701613426208,0.7146401405334473
1775719676104364800,0.09236474609375,-0.22085954248905182,-1.0287715196609497,0.6576140522956848
1775719676114377700,0.102377685546875,-0.19696246087551117,-1.0540739297866821,0.5544778108596802
1775719676124391000,0.112390869140625,-0.1659860759973526,-1.0465484857559204,0.43330642580986023
1775719676134404900,0.12240478515625,-0.167783722281456,-1.0633772611618042,0.3177100419998169
1775719676144417800,0.132417724609375,-0.18827080726623535,-1.086276650428772,0.23276756703853607
1775719676154431000,0.142430908203125,-0.2195967733860016,-1.1113228797912598,0.16242337226867676
1775719676164443600,0.152443603515625,-0.25669431686401367,-1.2014684677124023,0.04607598856091499
1775719676174457300,0.162457275390625,-0.2594808042049408,-1.3841331005096436,-0.10976074635982513
1775719676184470500,0.172470458984375,-0.21975286304950714,-1.4398987293243408,-0.21928083896636963
1775719676194483500,0.1824833984375,-0.21920691430568695,-1.4129672050476074,-0.22483831644058228
1775719676204496400,0.192496337890625,-0.27153444290161133,-1.357942819595337,-0.11951658874750137
1775719676214510300,0.20251025390625,-0.3504635989665985,-1.510148048400879,0.027754882350564003
1775719676224523300,0.212523193359375,-0.5071930289268494,-1.7749089002609253,0.1500837206840515
1775719676234536400,0.222536376953125,-0.6745409965515137,-1.9060109853744507,0.29387789964675903
1775719676244550400,0.23255029296875,-0.7901865243911743,-1.8525034189224243,0.503444492816925
1775719676254563300,0.242563232421875,-0.8402038812637329,-1.7396005392074585,0.7582507133483887
1775719676264576500,0.252576416015625,-0.8208252787590027,-1.6646336317062378,1.0373488664627075
1775719676274589200,0.262589111328125,-0.738977313041687,-1.5163589715957642,1.355000615119934
1775719676284603400,0.272603271484375,-0.6800470352172852,-1.3439387083053589,1.6721041202545166
1775719676294616600,0.282616455078125,-0.7058136463165283,-1.248443365097046,1.949497103691101
1775719676304629200,0.292629150390625,-0.7162396907806396,-1.254658818244934,2.2058374881744385
1775719676314642400,0.302642333984375,-0.6960532069206238,-1.5213303565979004,2.4261326789855957
1775719676324656400,0.312656494140625,-0.7390747666358948,-2.0762152671813965,2.622608184814453
1775719676334669300,0.32266943359375,-0.8732783794403076,-2.819929361343384,2.782381772994995
1775719676344682500,0.3326826171875,-1.0439947843551636,-3.667293071746826,2.9050755500793457
1775719676354695400,0.3426953125,-1.209296464920044,-4.537315845489502,2.9841976165771484
1775719676364709400,0.35270947265625,-1.4133224487304688,-5.2269768714904785,3.009669780731201
1775719676374722600,0.36272265625,-1.6262973546981812,-5.246583938598633,3.0698602199554443
1775719676384735200,0.3727353515625,-1.9123561382293701,-4.662703514099121,3.0522444248199463
1775719676394748400,0.38274853515625,-1.9955686330795288,-3.816129207611084,2.90553879737854
1775719676404762600,0.3927626953125,-1.8061647415161133,-3.009744882583618,2.6821138858795166
1775719676414775300,0.402775390625,-1.627623200416565,-2.4450151920318604,2.424187183380127
1775719676424788500,0.41278857421875,-1.6049176454544067,-2.0877270698547363,2.1732897758483887
1775719676434801400,0.422801513671875,-1.6524395942687988,-1.9034013748168945,1.9223802089691162
1775719676444815400,0.4328154296875,-1.698333740234375,-1.8456699848175049,1.687132477760315
1775719676454828500,0.44282861328125,-1.7308032512664795,-1.885023832321167,1.4907052516937256
1775719676464841500,0.452841552734375,-1.7891252040863037,-2.0348715782165527,1.3629754781723022
1775719676474855400,0.46285546875,-1.887374997138977,-2.178889036178589,1.3197643756866455
1775719676484868400,0.472868408203125,-2.00051212310791,-2.282701253890991,1.3371293544769287
1775719676494881300,0.48288134765625,-2.072903633117676,-2.3550400733947754,1.3864282369613647
1775719676504894500,0.49289453125,-2.09224271774292,-2.3465378284454346,1.4503086805343628
1775719676514908400,0.502908447265625,-2.040120840072632,-2.2515993118286133,1.4971104860305786
1775719676524921300,0.51292138671875,-1.9442087411880493,-2.116726875305176,1.5169202089309692
1775719676534934300,0.522934326171875,-1.8196589946746826,-1.923218011856079,1.5005366802215576
1775719676544947500,0.532947509765625,-1.6828527450561523,-1.7487274408340454,1.4429599046707153
1775719676554961400,0.54296142578125,-1.5445199012756348,-1.6672335863113403,1.361541986465454
1775719676564974300,0.552974365234375,-1.4398242235183716,-1.6226704120635986,1.2364591360092163
1775719676574987500,0.562987548828125,-1.333574652671814,-1.5759532451629639,1.0743404626846313
1775719676585000400,0.57300048828125,-1.2269091606140137,-1.5835360288619995,0.9027474522590637
1775719676595014400,0.583014404296875,-1.151419758796692,-1.5966635942459106,0.7287724614143372
1775719676605027300,0.59302734375,-1.0895814895629883,-1.5283433198928833,0.5573787093162537
1775719676615040300,0.603040283203125,-1.0038272142410278,-1.3809608221054077,0.37452951073646545
1775719676625053400,0.613053466796875,-0.9108572602272034,-1.180561900138855,0.20320701599121094
1775719676635067400,0.6230673828125,-0.8031308054924011,-0.9837359189987183,0.047534067183732986
1775719676645080300,0.633080322265625,-0.7009575366973877,-0.791529655456543,-0.10823549330234528
1775719676655093500,0.643093505859375,-0.6004916429519653,-0.6290389895439148,-0.2453310191631317
1775719676665106200,0.653106201171875,-0.4841824173927307,-0.5302909016609192,-0.3351017236709595
1775719676675120400,0.663120361328125,-0.3639279007911682,-0.602186381816864,-0.34095481038093567
1775719676685133600,0.673133544921875,-0.2803884446620941,-0.7921847701072693,-0.2615511417388916
1775719676695146200,0.683146240234375,-0.22832921147346497,-1.0449997186660767,-0.15200628340244293
1775719676705159400,0.693159423828125,-0.20568211376667023,-1.186316967010498,-0.054038405418395996
1775719676715173400,0.70317333984375,-0.21022705733776093,-1.1482681035995483,0.005472857505083084
1775719676725186300,0.713186279296875,-0.22090807557106018,-0.9527379274368286,0.0017448632279410958
1775719676735199500,0.723199462890625,-0.24639399349689484,-0.6323327422142029,-0.05406088009476662
1775719676745212400,0.73321240234375,-0.29893913865089417,-0.3641613721847534,-0.1274077445268631
1775719676755226400,0.743226318359375,-0.3634464740753174,-0.21093958616256714,-0.19264081120491028
1775719676765239600,0.753239501953125,-0.43325141072273254,-0.1275111883878708,-0.23183289170265198
1775719676775252200,0.763252197265625,-0.4864879846572876,-0.05067631974816322,-0.2365245819091797
1775719676785265400,0.773265380859375,-0.5225569605827332,-0.0743383839726448,-0.2192487269639969
1775719676795279600,0.783279541015625,-0.5424931645393372,-0.17462743818759918,-0.16413114964962006
1775719676805292300,0.793292236328125,-0.5533968210220337,-0.26257312297821045,-0.07071208208799362
1775719676815305500,0.803305419921875,-0.5284222364425659,-0.29480642080307007,0.023201629519462585
1775719676825319200,0.813319091796875,-0.4840012788772583,-0.23161600530147552,0.1232871487736702
1775719676835332400,0.823332275390625,-0.3942421078681946,-0.1255284547805786,0.18893566727638245
1775719676845345500,0.833345458984375,-0.25087544322013855,-0.00780054647475481,0.2001890242099762
1775719676855358500,0.8433583984375,-0.13488943874835968,0.1612747609615326,0.16475459933280945
1775719676865372400,0.853372314453125,-0.07576121389865875,0.3034314811229706,0.07485754787921906
1775719676875385300,0.86338525390625,-0.04971576854586601,0.42381995916366577,-0.014031047001481056
1775719676885398300,0.873398193359375,-0.06519140303134918,0.47761785984039307,-0.06746111810207367
1775719676895411500,0.883411376953125,-0.12584516406059265,0.4012274742126465,-0.09293025732040405
1775719676905425400,0.89342529296875,-0.20064255595207214,0.23186346888542175,-0.07913405448198318
1775719676915438300,0.903438232421875,-0.2599330544471741,0.09307096153497696,-0.04023964703083038
1775719676925451500,0.913451416015625,-0.30136582255363464,0.04516291990876198,0.013160093687474728
1775719676935464400,0.92346435546875,-0.3008342683315277,0.09119858592748642,0.07411240041255951
1775719676945478400,0.933478515625,-0.2693529427051544,0.16947241127490997,0.1187833696603775
1775719676955491300,0.9434912109375,-0.2049020528793335,0.23139329254627228,0.12224362045526505
1775719676965504500,0.95350439453125,-0.13505788147449493,0.28101980686187744,0.11079724878072739
1775719676975517400,0.963517333984375,-0.09536905586719513,0.3199365735054016,0.09239853173494339
1775719676985531400,0.973531494140625,-0.08730030059814453,0.32877668738365173,0.07132116705179214
1775719676995544300,0.98354443359375,-0.10239935666322708,0.3178686499595642,0.060135893523693085
1775719677005557200,0.99355712890625,-0.13506531715393066,0.31539613008499146,0.09852972626686096
1775719677015570400,1.0035703125,-0.16594520211219788,0.25337857007980347,0.18079239130020142
1775719677025584400,1.01358447265625,-0.2092825174331665,0.1543862521648407,0.2883841395378113
1775719677035597300,1.023597412109375,-0.26758256554603577,0.09517193585634232,0.3991788327693939
1775719677045610500,1.033610595703125,-0.31228742003440857,0.06602872163057327,0.482835978269577
1775719677055623200,1.043623046875,-0.3090263903141022,0.037600282579660416,0.49914199113845825
1775719677065637400,1.053637451171875,-0.27988189458847046,0.04635438695549965,0.4434424340724945
1775719677075650600,1.063650634765625,-0.2680816948413849,0.011783626861870289,0.3549077808856964
1775719677085663200,1.073663330078125,-0.28622546792030334,-0.031149310991168022,0.26599493622779846
1775719677095676400,1.083676513671875,-0.2927078604698181,-0.09093914180994034,0.20043137669563293
1775719677105690400,1.0936904296875,-0.2914162576198578,-0.10894400626420975,0.16724719107151031
1775719677115703300,1.103703369140625,-0.2710747718811035,-0.10004531592130661,0.15495644509792328
1775719677125716500,1.113716552734375,-0.235342875123024,-0.04088612273335457,0.1359841525554657
1775719677135729400,1.1237294921875,-0.21557796001434326,0.06699933111667633,0.09272962063550949
1775719677145743400,1.133743408203125,-0.20800179243087769,0.13428044319152832,0.032816819846630096
1775719677155756500,1.143756591796875,-0.21266525983810425,0.11147687584161758,-0.038319941610097885
1775719677165769700,1.153769775390625,-0.2172679305076599,-0.0035090420860797167,-0.0909939631819725
1775719677175783000,1.163782958984375,-0.20498596131801605,-0.13669878244400024,-0.08105850964784622
1775719677185796900,1.173796875,-0.1754133552312851,-0.22204303741455078,-0.03734532371163368
1775719677195809800,1.183809814453125,-0.13471439480781555,-0.26067298650741577,-0.010482816956937313
1775719677205822700,1.19382275390625,-0.10486699640750885,-0.2198277860879898,-0.003517331089824438
1775719677215836700,1.203836669921875,-0.08114702254533768,-0.13653317093849182,-0.0230481568723917
1775719677225849900,1.213849853515625,-0.052115414291620255,-0.06884726881980896,-0.06726620346307755
1775719677235862800,1.22386279296875,-0.04108673334121704,-0.03965476527810097,-0.11639060825109482
1775719677245875700,1.233875732421875,-0.05067814141511917,-0.04266825318336487,-0.15438657999038696
1775719677255890000,1.243889892578125,-0.08852405846118927,-0.10280242562294006,-0.16309911012649536
1775719677265902800,1.25390283203125,-0.1382392942905426,-0.16254226863384247,-0.13583023846149445
1775719677275915800,1.263915771484375,-0.17319168150424957,-0.18923993408679962,-0.08695857226848602
1775719677285928700,1.2739287109375,-0.19049663841724396,-0.20726589858531952,-0.025777574628591537
1775719677295942700,1.283942626953125,-0.172806054353714,-0.2255098819732666,0.030427107587456703
1775719677305955800,1.293955810546875,-0.13414405286312103,-0.23785251379013062,0.07997140288352966
1775719677315968800,1.30396875,-0.0864550992846489,-0.24209865927696228,0.108477883040905
1775719677325982000,1.31398193359375,-0.03897061198949814,-0.2094394862651825,0.11240509897470474
1775719677335996000,1.323995849609375,0.03690258041024208,-0.0882725790143013,0.09369506686925888
1775719677346008800,1.3340087890625,0.11665230244398117,0.04712318629026413,0.040996018797159195
1775719677356021800,1.344021728515625,0.16788458824157715,0.055092960596084595,-0.03362708538770676
1775719677366034700,1.35403466796875,0.21670109033584595,-0.019005177542567253,-0.07147565484046936
1775719677376049000,1.364048828125,0.2605854868888855,-0.04229239001870155,-0.034852661192417145
1775719677386061800,1.374061767578125,0.26596206426620483,-0.04184003546833992,0.040657889097929
1775719677396074800,1.38407470703125,0.2495569884777069,-0.05590871721506119,0.11569671332836151
1775719677406088000,1.394087890625,0.2409473955631256,-0.0754847303032875,0.19022764265537262
1775719677416102000,1.404101806640625,0.2609357237815857,-0.1150776743888855,0.26122963428497314
1775719677426114800,1.41411474609375,0.2802312672138214,-0.14063499867916107,0.2924366891384125
1775719677436128000,1.4241279296875,0.24833697080612183,-0.1706312596797943,0.2599477171897888
1775719677446140700,1.434140625,0.20728397369384766,-0.16561028361320496,0.18678776919841766
1775719677456155000,1.44415478515625,0.19047650694847107,-0.12295122444629669,0.09600300341844559
1775719677466167800,1.454167724609375,0.20548221468925476,-0.034228190779685974,0.011916251853108406
1775719677476180700,1.4641806640625,0.24142929911613464,0.06058460474014282,-0.05530752241611481
1775719677486194000,1.47419384765625,0.2637408375740051,0.1318243443965912,-0.0987064391374588
1775719677496207600,1.48420751953125,0.26465561985969543,0.1637689620256424,-0.12282535433769226
1775719677506220800,1.494220703125,0.2612725794315338,0.1464516818523407,-0.12328951060771942
1775719677516234000,1.50423388671875,0.2451023906469345,0.13311803340911865,-0.09433455765247345
1775719677526247000,1.514246826171875,0.21484096348285675,0.09853021055459976,-0.029039470478892326
1775719677536260900,1.5242607421875,0.19690270721912384,0.046258218586444855,0.07196490466594696
1775719677546273800,1.534273681640625,0.18369875848293304,0.008359482511878014,0.16482660174369812
1775719677556286700,1.54428662109375,0.1582445353269577,-0.007586194202303886,0.20333059132099152
1775719677566300000,1.5542998046875,0.12636582553386688,-0.0035034799948334694,0.20729759335517883
1775719677576313900,1.56431396484375,0.11537417024374008,0.030913617461919785,0.20391139388084412
1775719677586326800,1.574326904296875,0.13565225899219513,0.08353377133607864,0.17691871523857117
1775719677596339700,1.584339599609375,0.15925906598567963,0.12885677814483643,0.1394491046667099
1775719677606353000,1.594352783203125,0.17951372265815735,0.16239379346370697,0.10773119330406189
1775719677616366800,1.604366943359375,0.1988389492034912,0.17315375804901123,0.09289712458848953
1775719677626379800,1.6143798828125,0.20622709393501282,0.1565062552690506,0.09649951756000519
1775719677636392700,1.624392822265625,0.1952652633190155,0.09459441155195236,0.1083092987537384
1775719677646406000,1.634406005859375,0.17428545653820038,0.011222143657505512,0.1285891979932785
1775719677656419800,1.644419921875,0.16887818276882172,-0.037354178726673126,0.1433497667312622
1775719677666432800,1.654432861328125,0.1741425096988678,-0.0353090763092041,0.13403859734535217
1775719677676445700,1.66444580078125,0.20426499843597412,0.01921755075454712,0.08808469027280807
1775719677686459000,1.674458984375,0.25351205468177795,0.07173427939414978,-0.001742699882015586
1775719677696472800,1.684472900390625,0.2885350286960602,0.09370721876621246,-0.10230526328086853
1775719677706485800,1.69448583984375,0.28740832209587097,0.07687388360500336,-0.18463417887687683
1775719677716499000,1.7044990234375,0.26631155610084534,0.047696296125650406,-0.24418406188488007
1775719677726511600,1.71451171875,0.23709537088871002,0.022609315812587738,-0.2799864709377289
1775719677736525800,1.72452587890625,0.22285492718219757,0.007681765593588352,-0.2958003282546997
1775719677746538800,1.734538818359375,0.2356196790933609,-0.018204154446721077,-0.29654452204704285
1775719677756551700,1.7445517578125,0.25821182131767273,-0.044363588094711304,-0.2646012306213379
1775719677766564900,1.75456494140625,0.2678071856498718,-0.07569088041782379,-0.19190281629562378
1775719677776578800,1.764578857421875,0.2427324503660202,-0.1175062358379364,-0.09251204878091812
1775719677786591700,1.774591796875,0.18930916488170624,-0.16941803693771362,-0.000544354785233736
1775719677796605000,1.78460498046875,0.13095611333847046,-0.2383694052696228,0.05959514528512955
1775719677806617900,1.794617919921875,0.06958506256341934,-0.23008596897125244,0.08553282916545868
1775719677816631800,1.8046318359375,-0.007453265134245157,-0.1623750925064087,0.052649714052677155
1775719677826645000,1.81464501953125,-0.07606589794158936,-0.10045117884874344,-0.022296704351902008
1775719677836657700,1.82465771484375,-0.1173238605260849,-0.0697430670261383,-0.1094108298420906
1775719677846672000,1.834671875,-0.13035398721694946,-0.08053407818078995,-0.1938159018754959
1775719677856684800,1.844684814453125,-0.13163922727108002,-0.09398438036441803,-0.246711865067482
1775719677866697700,1.85469775390625,-0.10599363595247269,-0.10994523763656616,-0.23683510720729828
1775719677876711000,1.8647109375,-0.0701536163687706,-0.09960737824440002,-0.17200231552124023
1775719677886723800,1.874723876953125,-0.030316615477204323,-0.10307160764932632,-0.11004171520471573
1775719677896737800,1.88473779296875,-0.015372286550700665,-0.12906405329704285,-0.07691411674022675
1775719677906751000,1.8947509765625,-0.012055303901433945,-0.17205999791622162,-0.07633242011070251
1775719677916764000,1.904763916015625,-0.0032418384216725826,-0.16721251606941223,-0.10754812508821487
1775719677926777900,1.91477783203125,0.003744466695934534,-0.11892528831958771,-0.18802952766418457
1775719677936790800,1.924790771484375,0.020153800025582314,-0.024088794365525246,-0.312434583902359
1775719677946803700,1.9348037109375,0.0399697870016098,0.10721936821937561,-0.4477732479572296
1775719677956817000,1.94481689453125,0.07814992219209671,0.2512897253036499,-0.5433325171470642
1775719677966830800,1.954830810546875,0.15044590830802917,0.3623617887496948,-0.5546509027481079
1775719677976843800,1.96484375,0.22788023948669434,0.39063575863838196,-0.44799476861953735
1775719677986856700,1.974856689453125,0.28270718455314636,0.34206488728523254,-0.2472033053636551
1775719677996870000,1.984869873046875,0.3180294930934906,0.21381478011608124,0.005613494664430618
1775719678006883800,1.9948837890625,0.3123256266117096,0.058564890176057816,0.2566763162612915
1775719678016896800,2.004896728515625,0.27081334590911865,-0.0912533700466156,0.46048083901405334
1775719678026910000,2.014909912109375,0.20764710009098053,-0.2265464961528778,0.5847390294075012
1775719678036923000,2.0249228515625,0.12386991083621979,-0.2815120220184326,0.5747321844100952
1775719678046936800,2.034936767578125,0.04522054269909859,-0.2185659557580948,0.4301103353500366
1775719678056949800,2.04494970703125,-0.014074206352233887,-0.04168146103620529,0.21743907034397125
1775719678066962700,2.054962646484375,-0.026454925537109375,0.17348316311836243,0.028073063120245934
1775719678076975900,2.064975830078125,-0.006437274627387524,0.3385498821735382,-0.11586227267980576
1775719678086989800,2.07498974609375,0.01557791419327259,0.4050281345844269,-0.2067781537771225
1775719678097002800,2.085002685546875,0.021062694489955902,0.4105297029018402,-0.20720240473747253
1775719678107016000,2.095015869140625,0.000280249398201704,0.3424028158187866,-0.11877162754535675
1775719678117028600,2.105028564453125,-0.04696502909064293,0.20524203777313232,0.014738228172063828
1775719678127042800,2.115042724609375,-0.1170889213681221,0.0415409654378891,0.14981479942798615
1775719678137056000,2.125055908203125,-0.16171151399612427,-0.08336421847343445,0.24370241165161133
1775719678147068700,2.135068603515625,-0.18148832023143768,-0.12185953557491302,0.2724003493785858
1775719678157081900,2.145081787109375,-0.183536559343338,-0.08939346671104431,0.22855032980442047
1775719678167095300,2.15509521484375,-0.15029923617839813,-0.028516270220279694,0.10442652553319931
1775719678177108200,2.165108154296875,-0.0774783045053482,0.0809476375579834,-0.06119066849350929
1775719678187121400,2.175121337890625,-0.012166323140263557,0.22385282814502716,-0.22412042319774628
1775719678197134600,2.185134521484375,0.04713641479611397,0.3324735760688782,-0.33053794503211975
1775719678207148300,2.195148193359375,0.0986701026558876,0.40169069170951843,-0.3526929020881653
1775719678217161500,2.205161376953125,0.11581286787986755,0.3814551830291748,-0.3068007826805115
1775719678227174400,2.21517431640625,0.10879392921924591,0.26447340846061707,-0.20808933675289154
1775719678237187300,2.225187255859375,0.09101226925849915,0.11571961641311646,-0.104528047144413
1775719678247201500,2.235201416015625,0.04928971454501152,0.011907468549907207,-0.009868018329143524
1775719678257214200,2.245214111328125,0.004097465891391039,-0.08613600581884384,0.04026732221245766
1775719678267227400,2.255227294921875,-0.03609813377261162,-0.13406741619110107,0.05133888125419617
1775719678277240600,2.265240478515625,-0.062360361218452454,-0.11196529865264893,0.03239182382822037
1775719678287254300,2.275254150390625,-0.05917670950293541,-0.054647766053676605,-0.022344162687659264
1775719678297267500,2.285267333984375,-0.03990048170089722,0.017671702429652214,-0.06407776474952698
1775719678307280400,2.2952802734375,0.004858211614191532,0.09578629583120346,-0.07373610883951187
1775719678317293300,2.305293212890625,0.0651543065905571,0.130199134349823,-0.06679297983646393
1775719678327307500,2.3153076171875,0.10917291790246964,0.1812674105167389,-0.06425846368074417
1775719678337320400,2.325320556640625,0.11859066039323807,0.16521653532981873,-0.11882743239402771
1775719678347333400,2.33533349609375,0.09833789616823196,0.12315820902585983,-0.18596485257148743
1775719678357346300,2.34534619140625,0.07504109293222427,0.0977226197719574,-0.22147171199321747
1775719678367360300,2.3553603515625,0.05620386078953743,0.08720207214355469,-0.2392759770154953
1775719678377373400,2.36537353515625,0.043193522840738297,0.08389149606227875,-0.26661521196365356
1775719678387386400,2.375386474609375,0.05073217675089836,0.090361587703228,-0.31734123826026917
1775719678397399600,2.385399658203125,0.06652098894119263,0.12852148711681366,-0.38034844398498535
1775719678407413500,2.39541357421875,0.08705449104309082,0.1746433675289154,-0.45053085684776306
1775719678417426400,2.405426513671875,0.09413024038076401,0.22164282202720642,-0.5216929316520691
1775719678427439400,2.415439453125,0.09367804229259491,0.28078410029411316,-0.5588957667350769
1775719678437452300,2.425452392578125,0.11376573145389557,0.3305007815361023,-0.5381084680557251
1775719678447466500,2.435466552734375,0.1296670287847519,0.3535608649253845,-0.463675320148468
1775719678457479400,2.4454794921875,0.13662613928318024,0.33077725768089294,-0.36295056343078613
1775719678467492400,2.455492431640625,0.1322631537914276,0.28807514905929565,-0.2695730924606323
1775719678477505500,2.465505615234375,0.08129291981458664,0.22680938243865967,-0.2229592502117157
1775719678487519500,2.47551953125,-0.010817907750606537,0.13967806100845337,-0.22990788519382477
1775719678497532400,2.485532470703125,-0.1021004170179367,0.0738321989774704,-0.257371723651886
1775719678507545300,2.49554541015625,-0.15502502024173737,0.07394352555274963,-0.2879979908466339
1775719678517558300,2.505558349609375,-0.15271686017513275,0.12044285237789154,-0.30156412720680237
1775719678527572500,2.515572509765625,-0.1253335028886795,0.17223070561885834,-0.29690465331077576
1775719678537585400,2.52558544921875,-0.08547637611627579,0.19569501280784607,-0.2827736437320709
1775719678547598300,2.535598388671875,-0.03308297321200371,0.20540481805801392,-0.2753060758113861
1775719678557611500,2.545611572265625,0.013322610408067703,0.2332063615322113,-0.2942019999027252
1775719678567625200,2.555625244140625,0.02918926067650318,0.23052066564559937,-0.35238996148109436
1775719678577638400,2.565638427734375,0.03858515992760658,0.1988314539194107,-0.40074044466018677
1775719678587651600,2.575651611328125,0.05469249188899994,0.1612667590379715,-0.417720764875412
1775719678597664300,2.585664306640625,0.07445713877677917,0.13119888305664062,-0.4045623242855072
1775719678607678500,2.595678466796875,0.08950324356555939,0.12365993857383728,-0.3806471526622772
1775719678617691400,2.60569140625,0.10491735488176346,0.1485772728919983,-0.3693747818470001
1775719678627704300,2.615704345703125,0.12976334989070892,0.21219685673713684,-0.3652481138706207
1775719678637717500,2.625717529296875,0.15388067066669464,0.2676806151866913,-0.360675185918808
1775719678647731200,2.635731201171875,0.1689576655626297,0.28800082206726074,-0.33675888180732727
1775719678657744400,2.645744384765625,0.16878776252269745,0.24767445027828217,-0.26941579580307007
1775719678667757600,2.655757568359375,0.15980391204357147,0.16840997338294983,-0.1552967131137848
1775719678677770500,2.6657705078125,0.12735064327716827,0.06765033304691315,-0.01319762784987688
1775719678687784400,2.675784423828125,0.08220696449279785,-0.04427073150873184,0.11742168664932251
1775719678697797400,2.68579736328125,0.04527558013796806,-0.11250677704811096,0.1955479085445404
1775719678707810300,2.695810302734375,0.034684911370277405,-0.12981508672237396,0.21664902567863464
1775719678717823500,2.705823486328125,0.060439277440309525,-0.11391174793243408,0.17695008218288422
1775719678727837400,2.71583740234375,0.09730096161365509,-0.05040079727768898,0.09345589578151703
1775719678737850400,2.725850341796875,0.1419358104467392,0.01766081154346466,-0.006636083126068115
1775719678747863300,2.73586328125,0.17137828469276428,0.08788405358791351,-0.09112025797367096
1775719678757876500,2.74587646484375,0.15953174233436584,0.11594391614198685,-0.13690105080604553
1775719678767890400,2.755890380859375,0.1371287703514099,0.0982995256781578,-0.1443433314561844
1775719678777903400,2.7659033203125,0.11304552108049393,0.05702239274978638,-0.10990440100431442
1775719678787916500,2.77591650390625,0.0854649767279625,-0.00560959056019783,-0.05044333264231682
1775719678797929200,2.78592919921875,0.06222489848732948,-0.07789097726345062,0.01873653754591942
1775719678807943400,2.795943359375,0.05174456536769867,-0.1269962042570114,0.08403218537569046
1775719678817956400,2.805956298828125,0.05878596380352974,-0.14773184061050415,0.1329062581062317
1775719678827969300,2.81596923828125,0.06709673255681992,-0.12355206161737442,0.15681029856204987
1775719678837982500,2.825982421875,0.0619451105594635,-0.06932318210601807,0.1467672437429428
1775719678847995400,2.835995361328125,0.0670844241976738,-0.016114402562379837,0.1066683828830719
1775719678858009300,2.84600927734375,0.09350670874118805,0.029098883271217346,0.047675102949142456
1775719678868022500,2.8560224609375,0.11871020495891571,0.05119921267032623,-0.0023428224958479404
1775719678878035200,2.86603515625,0.13274772465229034,0.051266059279441833,-0.02422148920595646
1775719678888048400,2.87604833984375,0.12845070660114288,0.04752485454082489,-0.01887206919491291
1775719678898062600,2.8860625,0.10323882102966309,0.04787825420498848,-0.004023613873869181
1775719678908075300,2.8960751953125,0.06991509348154068,0.04366539418697357,0.025676393881440163
1775719678918088400,2.90608837890625,0.03587324172258377,0.01761249266564846,0.06310179829597473
1775719678928101400,2.916101318359375,0.007712893653661013,-0.0303814597427845,0.09794461727142334
1775719678938115300,2.926115234375,-0.013458438217639923,-0.057605091482400894,0.12488488852977753
1775719678948128500,2.93612841796875,-0.04210789129137993,-0.058093927800655365,0.13866208493709564
1775719678958141400,2.946141357421875,-0.07417554408311844,-0.05513355880975723,0.12849386036396027
1775719678968154400,2.956154296875,-0.08884969353675842,-0.04351392015814781,0.09922642260789871
1775719678978168600,2.96616845703125,-0.09892549365758896,-0.02046905644237995,0.06136133149266243
1775719678988181200,2.97618115234375,-0.10363981127738953,0.008452516980469227,0.038360610604286194
1775719678998194400,2.9861943359375,-0.0988762155175209,0.01993793249130249,0.02021089941263199
1775719679008207400,2.996207275390625,-0.08470874279737473,0.024209732189774513,0.01340845413506031
1775719679018221300,3.00622119140625,-0.07252132147550583,0.019641345366835594,0.016795994713902473
1775719679028234500,3.016234375,-0.07306470721960068,0.011173591017723083,0.021260404959321022
1775719679038247400,3.026247314453125,-0.07154430449008942,-0.0009576402371749282,0.026934802532196045
1775719679048260400,3.03626025390625,-0.0492282435297966,-0.023543674498796463,0.044122423976659775
1775719679058274600,3.046274658203125,-0.03460589051246643,-0.022423284128308296,0.07176070660352707
1775719679068287500,3.05628759765625,-0.049401480704545975,0.014313513413071632,0.08262131363153458
1775719679078300400,3.066300537109375,-0.058250367641448975,0.026623975485563278,0.0758206695318222
1775719679088313300,3.076313232421875,-0.03707309439778328,0.01812695525586605,0.059538476169109344
1775719679098327300,3.086327392578125,-0.00375535199418664,-0.0047197709791362286,0.054192978888750076
1775719679108340500,3.096340576171875,0.005778593942523003,-0.014281793497502804,0.045239608734846115
1775719679118353400,3.106353515625,0.010597850196063519,-0.013180842623114586,0.027182046324014664
1775719679128366600,3.11636669921875,0.04286416620016098,-0.025494853034615517,0.017180409282445908
1775719679138380300,3.12638037109375,0.09216034412384033,-0.035474516451358795,0.034449413418769836
1775719679148393500,3.1363935546875,0.12488119304180145,-0.04666447266936302,0.058734338730573654
1775719679158406400,3.146406494140625,0.12808550894260406,-0.042224183678627014,0.07254655659198761
1775719679168419800,3.156419921875,0.10935763269662857,-0.047889258712530136,0.07821349799633026
1775719679178433800,3.166433837890625,0.09643278270959854,-0.08402755856513977,0.0702224150300026
1775719679188447000,3.176447021484375,0.08550167828798294,-0.09840790927410126,0.05979157239198685
1775719679198460000,3.1864599609375,0.05670279264450073,-0.09420410543680191,0.04857566952705383
1775719679208473000,3.19647314453125,0.0243165772408247,-0.08771765232086182,0.04450051113963127
1775719679218487000,3.206487060546875,0.02317115105688572,-0.10547375679016113,0.043071992695331573
1775719679228500000,3.2165,0.05038055032491684,-0.11713448911905289,0.04733448475599289
1775719679238513000,3.226512939453125,0.08995644748210907,-0.09301850199699402,0.058128274977207184
1775719679248525800,3.23652587890625,0.12099873274564743,-0.03936116397380829,0.06551656126976013
1775719679258540000,3.2465400390625,0.14086298644542694,-0.0010878094471991062,0.0676414966583252
1775719679268553000,3.256552978515625,0.1570710986852646,0.012754291296005249,0.06614451855421066
1775719679278566000,3.26656591796875,0.16073161363601685,0.014570832252502441,0.07246153056621552
1775719679288579000,3.2765791015625,0.14838342368602753,0.025753241032361984,0.08541525900363922
1775719679298593000,3.286593017578125,0.11205096542835236,0.04195244982838631,0.09484657645225525
1775719679308606000,3.29660595703125,0.062437254935503006,0.021719204261898994,0.12513498961925507
1775719679318619100,3.306619140625,0.006040026433765888,-0.009805433452129364,0.17360267043113708
1775719679328631800,3.3166318359375,-0.04602460563182831,-0.029335692524909973,0.22135035693645477
1775719679338646000,3.32664599609375,-0.07381096482276917,-0.0020529390312731266,0.24938572943210602
1775719679348659000,3.336658935546875,-0.0730019211769104,0.038317177444696426,0.2571912705898285
1775719679358672000,3.346671875,-0.07287728786468506,0.07518278062343597,0.25931859016418457
1775719679368685000,3.35668505859375,-0.08531168848276138,0.0825672298669815,0.26561498641967773
1775719679378698800,3.36669873046875,-0.1197921633720398,0.06105527654290199,0.2811196446418762
1775719679388712000,3.3767119140625,-0.16601154208183289,0.06460955739021301,0.3180924654006958
1775719679398725000,3.38672509765625,-0.21175825595855713,0.0878341868519783,0.35883668065071106
1775719679408737800,3.39673779296875,-0.2383030652999878,0.10253448784351349,0.39457935094833374
1775719679418752000,3.406751953125,-0.2572953701019287,0.09475885331630707,0.43683040142059326
1775719679428765200,3.41676513671875,-0.2875574827194214,0.04223170503973961,0.4935247302055359
1775719679438777900,3.42677783203125,-0.33751705288887024,-0.03291977196931839,0.553215742111206
1775719679448791000,3.436791015625,-0.36657267808914185,-0.08711238205432892,0.5752776861190796
1775719679458804700,3.4468046875,-0.3811340630054474,-0.0821802094578743,0.5606910586357117
1775719679468818000,3.45681787109375,-0.3857886493206024,-0.015538801439106464,0.5205360054969788
1775719679478831000,3.4668310546875,-0.38880521059036255,0.08576464653015137,0.46461042761802673
1775719679488844000,3.476843994140625,-0.39207279682159424,0.14031298458576202,0.403679221868515
1775719679498857000,3.48685693359375,-0.4232728183269501,0.14873524010181427,0.3649488687515259
1775719679508871000,3.496870849609375,-0.4718925356864929,0.14148931205272675,0.3548746109008789
1775719679518883800,3.5068837890625,-0.5235991477966309,0.13414005935192108,0.35413825511932373
1775719679528897000,3.51689697265625,-0.5837584733963013,0.11453362554311752,0.37774285674095154
1775719679538910000,3.526909912109375,-0.6257535815238953,0.07506371289491653,0.41585615277290344
1775719679548924000,3.536923828125,-0.6349359750747681,0.033442795276641846,0.4474707841873169
1775719679558936800,3.546936767578125,-0.6068936586380005,-0.001080028829164803,0.4546021819114685
1775719679568950000,3.556949951171875,-0.5704447031021118,-0.02392417937517166,0.4458787739276886
1775719679578963000,3.566962890625,-0.5276210904121399,-0.03360210731625557,0.4395955801010132
1775719679588977000,3.576976806640625,-0.4690626561641693,-0.028513845056295395,0.43103283643722534
1775719679598990000,3.586989990234375,-0.38467082381248474,0.012376329861581326,0.4144362807273865
1775719679609002800,3.597002685546875,-0.28640103340148926,0.0796833485364914,0.36780866980552673
1775719679619016000,3.607015869140625,-0.20929504930973053,0.11808240413665771,0.30600202083587646
1775719679629030000,3.61702978515625,-0.16360250115394592,0.11828829348087311,0.24777507781982422
1775719679639042800,3.627042724609375,-0.13081499934196472,0.11031505465507507,0.18764382600784302
1775719679649056000,3.637055908203125,-0.08947118371725082,0.11498834192752838,0.1298498958349228
1775719679659069200,3.647069091796875,-0.044593993574380875,0.14755374193191528,0.08889420330524445
1775719679669083000,3.657082763671875,-0.007170312572270632,0.1924636960029602,0.08116747438907623
1775719679679096000,3.667095947265625,0.01565963588654995,0.21625131368637085,0.08951621502637863
1775719679689108700,3.677108642578125,0.04170697182416916,0.20796358585357666,0.095321886241436
1775719679699122000,3.687121826171875,0.08464299142360687,0.2017219364643097,0.09047786146402359
1775719679709136100,3.69713623046875,0.1432170271873474,0.2129630744457245,0.07862303406000137
1775719679719148800,3.707148681640625,0.2151183784008026,0.24276012182235718,0.053351499140262604
1775719679729162000,3.717161865234375,0.2853131890296936,0.28409579396247864,0.017293212935328484
1775719679739175000,3.7271748046875,0.3388379216194153,0.3143724799156189,-0.01955827698111534
1775719679749188900,3.73718896484375,0.3617451786994934,0.3494127690792084,-0.02646399661898613
1775719679759202000,3.7472021484375,0.3670293986797333,0.37861379981040955,-0.0246003158390522
1775719679769215000,3.757215087890625,0.35218459367752075,0.4058392345905304,-0.03330816328525543
1775719679779228000,3.767227783203125,0.31648704409599304,0.4387492537498474,-0.06098559871315956
1775719679789242000,3.7772421875,0.284439355134964,0.44245442748069763,-0.09933818131685257
1775719679799254800,3.7872548828125,0.26971369981765747,0.4623998999595642,-0.13389216363430023
1775719679809268000,3.79726806640625,0.26184573769569397,0.47426068782806396,-0.16072219610214233
1775719679819281000,3.807281005859375,0.2525899112224579,0.4811982214450836,-0.16565704345703125
1775719679829294000,3.817294189453125,0.22562088072299957,0.48694515228271484,-0.15417368710041046
1775719679839308000,3.82730810546875,0.18931160867214203,0.46456795930862427,-0.1359131932258606
1775719679849321000,3.837321044921875,0.164645254611969,0.42405351996421814,-0.12073838710784912
1775719679859334000,3.847333984375,0.15169855952262878,0.36397767066955566,-0.11301229149103165
1775719679869346800,3.857346923828125,0.13867969810962677,0.3211652934551239,-0.12485736608505249
1775719679879361000,3.867361083984375,0.12690161168575287,0.3000386953353882,-0.1706773191690445
1775719679889374000,3.8773740234375,0.12092259526252747,0.3217189610004425,-0.22450096905231476
1775719679899387000,3.887386962890625,0.11470092087984085,0.3711605370044708,-0.27029508352279663
1775719679909400000,3.897400146484375,0.10237450152635574,0.3980107009410858,-0.31761544942855835
1775719679919414000,3.9074140625,0.08181596547365189,0.3752712905406952,-0.3580414354801178
1775719679929427000,3.917427001953125,0.05600189417600632,0.3030741214752197,-0.37794962525367737
1775719679939440000,3.927440185546875,0.035903818905353546,0.22733648121356964,-0.37246590852737427
1775719679949452800,3.937452880859375,0.025928137823939323,0.18146221339702606,-0.37201616168022156
1775719679959467000,3.947467041015625,0.00945009384304285,0.1768999546766281,-0.3955744802951813
1775719679969480000,3.95747998046875,-0.023417524993419647,0.20115028321743011,-0.4272582232952118
1775719679979492900,3.967492919921875,-0.05889482423663139,0.2480597198009491,-0.44637012481689453
1775719679989506000,3.977506103515625,-0.08535148948431015,0.28123655915260315,-0.4382338523864746
1775719679999519700,3.987519775390625,-0.09668616950511932,0.3124898076057434,-0.41557809710502625
1775719680009533000,3.997532958984375,-0.09692928194999695,0.29903486371040344,-0.3880890905857086
1775719680019546000,4.007546142578125,-0.11697782576084137,0.2804470360279083,-0.337444543838501
1775719680029558800,4.017558837890625,-0.1488713175058365,0.2549125850200653,-0.27141615748405457
1775719680039573000,4.027572998046875,-0.1904885321855545,0.21426048874855042,-0.20519530773162842
1775719680049586200,4.037586181640625,-0.22897197306156158,0.17255869507789612,-0.14435119926929474
1775719680059598800,4.047598876953125,-0.2551737427711487,0.14425861835479736,-0.1022074818611145
1775719680069612000,4.057612060546875,-0.26176923513412476,0.13231928646564484,-0.07767659425735474
1775719680079625700,4.067625732421875,-0.2557787001132965,0.16078713536262512,-0.06233492121100426
1775719680089639000,4.077638916015625,-0.24377775192260742,0.20071037113666534,-0.054482508450746536
1775719680099652000,4.087652099609375,-0.22582058608531952,0.22326815128326416,-0.04458726942539215
1775719680109665000,4.0976650390625,-0.21679754555225372,0.22365431487560272,-0.01912219263613224
1775719680119679000,4.107678955078125,-0.2283700555562973,0.19830022752285004,0.023224730044603348
1775719680129692000,4.11769189453125,-0.2340766340494156,0.15454824268817902,0.07274653017520905
1775719680139704800,4.127704833984375,-0.2249680906534195,0.09585164487361908,0.12267201393842697
1775719680149718000,4.137718017578125,-0.21045558154582977,0.040237199515104294,0.1564650982618332
1775719680159731000,4.14773095703125,-0.19366195797920227,0.0030067414045333862,0.17176762223243713
1775719680169745400,4.157745361328125,-0.16971561312675476,0.0023857825435698032,0.17459996044635773
1775719680179758600,4.167758544921875,-0.1587875932455063,0.022825278341770172,0.15336976945400238
1775719680189771500,4.177771484375,-0.1620897501707077,0.05349515751004219,0.1201857402920723
1775719680199784400,4.187784423828125,-0.15180674195289612,0.049671925604343414,0.08158694952726364
1775719680209798700,4.197798583984375,-0.11163732409477234,0.013548308052122593,0.03734826669096947
1775719680219811300,4.207811279296875,-0.0866483524441719,-0.018537456169724464,0.01441019307821989
1775719680229824500,4.217824462890625,-0.0781959593296051,-0.054837554693222046,0.020959364250302315
1775719680239837400,4.22783740234375,-0.07180170714855194,-0.09388003498315811,0.06523042172193527
1775719680249851400,4.237851318359375,-0.09894955903291702,-0.11110687255859375,0.12052301317453384
1775719680259864600,4.247864501953125,-0.12259789556264877,-0.12772126495838165,0.15073630213737488
1775719680269877500,4.25787744140625,-0.12132149934768677,-0.1335482895374298,0.13750292360782623
1775719680279890400,4.267890380859375,-0.11953131854534149,-0.09731119126081467,0.08918227255344391
1775719680289904600,4.277904541015625,-0.11393734067678452,-0.048223190009593964,0.027414117008447647
1775719680299917600,4.28791748046875,-0.08523005992174149,-0.013555487617850304,-0.034159496426582336
1775719680309930500,4.297930419921875,-0.051183294504880905,0.006020260043442249,-0.07805535197257996
1775719680319943400,4.307943359375,-0.040843572467565536,0.011209696531295776,-0.09433259814977646
1775719680329957400,4.317957275390625,-0.039411451667547226,0.006679123267531395,-0.0966818705201149
1775719680339970600,4.327970458984375,-0.08157594501972198,-0.0006546890363097191,-0.0993729904294014
1775719680349983500,4.3379833984375,-0.14533410966396332,-0.056731775403022766,-0.10562977194786072
1775719680359996700,4.34799658203125,-0.18489164113998413,-0.10904824733734131,-0.114350825548172
1775719680370010600,4.3580107421875,-0.191003680229187,-0.11790517717599869,-0.1294286847114563
1775719680380023600,4.3680234375,-0.16445356607437134,-0.10157174617052078,-0.1439884454011917
1775719680390036500,4.378036376953125,-0.11342309415340424,-0.06512999534606934,-0.13578100502490997
1775719680400049400,4.38804931640625,-0.06629233807325363,-0.028489692136645317,-0.09681229293346405
1775719680410063600,4.398063720703125,-0.040864989161491394,-0.011573653668165207,-0.04264865815639496
1775719680420076500,4.40807666015625,-0.04817776381969452,-0.03362808749079704,0.020757479593157768
1775719680430089500,4.41808935546875,-0.07540340721607208,-0.0681484267115593,0.06556585431098938
1775719680440102700,4.4281025390625,-0.11007802933454514,-0.10816322267055511,0.07260166108608246
1775719680450115300,4.438115234375,-0.1294160932302475,-0.1326654702425003,0.06048329174518585
1775719680460129500,4.448129638671875,-0.12823523581027985,-0.12475775927305222,0.04354718700051308
1775719680470142700,4.458142822265625,-0.09331201016902924,-0.1225433349609375,0.02449803054332733
1775719680480155400,4.4681552734375,-0.056343868374824524,-0.09294550120830536,0.0181083083152771
1775719680490168600,4.47816845703125,-0.014271741732954979,-0.03227360174059868,0.02408023551106453
1775719680500182500,4.4881826171875,0.010740666650235653,0.06535308808088303,0.04731232300400734
1775719680510195500,4.498195556640625,0.01669158972799778,0.10779310017824173,0.08151847124099731
1775719680520208600,4.508208740234375,0.01638319529592991,0.05339990556240082,0.11999449133872986
1775719680530221600,4.5182216796875,0.015217279084026814,-0.042533550411462784,0.15989618003368378
1775719680540235500,4.528235595703125,0.020352918654680252,-0.13756020367145538,0.1624078005552292
1775719680550248700,4.538248779296875,0.009938571602106094,-0.1798086166381836,0.11021637916564941
1775719680560261400,4.548261474609375,-0.0018954504048451781,-0.14979983866214752,0.018314417451620102
1775719680570274600,4.558274658203125,-0.005665659438818693,-0.04646303877234459,-0.07097526639699936
1775719680580288500,4.56828857421875,-0.013109194114804268,0.08734802156686783,-0.13387726247310638
1775719680590301400,4.578301513671875,-0.011693396605551243,0.16488021612167358,-0.15636900067329407
1775719680600314600,4.588314697265625,0.00002611079253256321,0.18690375983715057,-0.12283553928136826
1775719680610327600,4.59832763671875,0.016097871586680412,0.13855798542499542,-0.045559436082839966
1775719680620341500,4.608341552734375,0.028033360838890076,0.04349670559167862,0.05299882963299751
1775719680630354700,4.618354736328125,0.033095382153987885,-0.04696546494960785,0.14670272171497345
1775719680640367600,4.62836767578125,0.024968745186924934,-0.06810909509658813,0.1957552284002304
1775719680650380500,4.638380615234375,0.004079482518136501,-0.010981866158545017,0.18087008595466614
1775719680660394500,4.64839453125,-0.021566757932305336,0.08529114723205566,0.11986610293388367
1775719680670407400,4.658407470703125,-0.05581905320286751,0.16432538628578186,0.027247300371527672
1775719680680420600,4.668420654296875,-0.09248412400484085,0.2099006026983261,-0.06694844365119934
1775719680690433500,4.67843359375,-0.12611530721187592,0.23060835897922516,-0.13938814401626587
1775719680700446700,4.68844677734375,-0.1544950306415558,0.2539200782775879,-0.16783417761325836
1775719680710460400,4.69846044921875,-0.15630455315113068,0.27247172594070435,-0.13897019624710083
1775719680720473600,4.7084736328125,-0.13559341430664062,0.2963253855705261,-0.033625926822423935
1775719680730486500,4.718486572265625,-0.12761524319648743,0.30638599395751953,0.12240645289421082
1775719680740499500,4.72849951171875,-0.12616676092147827,0.2326100468635559,0.26641741394996643
1775719680750513700,4.738513671875,-0.1457909792661667,0.16995348036289215,0.3851698338985443
1775719680760526300,4.7485263671875,-0.18131275475025177,0.1647680401802063,0.4546780586242676
1775719680770539500,4.75853955078125,-0.21276481449604034,0.1750611662864685,0.4711354076862335
1775719680780552700,4.768552734375,-0.2514001131057739,0.21606558561325073,0.4636812210083008
1775719680790566400,4.77856640625,-0.2911417484283447,0.26874274015426636,0.4444931745529175
1775719680800579600,4.78857958984375,-0.30067428946495056,0.3302420377731323,0.40893757343292236
1775719680810592500,4.798592529296875,-0.2793601155281067,0.3799874484539032,0.37178075313568115
1775719680820605400,4.80860546875,-0.2243645042181015,0.37924817204475403,0.3291105031967163
1775719680830619600,4.81861962890625,-0.15990746021270752,0.33300143480300903,0.28883159160614014
1775719680840632300,4.82863232421875,-0.08271069079637527,0.25301578640937805,0.2660788893699646
1775719680850645500,4.8386455078125,0.014232599176466465,0.20385806262493134,0.2678311765193939
1775719680860658400,4.848658447265625,0.11276796460151672,0.16700470447540283,0.2598728537559509
1775719680870671600,4.858671630859375,0.21869195997714996,0.09940405935049057,0.21196971833705902
1775719680880685600,4.868685546875,0.3206641376018524,0.027714427560567856,0.11651616543531418
1775719680890698500,4.878698486328125,0.4002854526042938,0.012767878361046314,-0.02322022244334221
1775719680900711400,4.88871142578125,0.46764132380485535,0.09638608247041702,-0.1609240174293518
1775719680910724600,4.898724609375,0.5121460556983948,0.22546103596687317,-0.28482502698898315
1775719680920738600,4.908738525390625,0.5125327110290527,0.30938202142715454,-0.3930462896823883
1775719680930751500,4.91875146484375,0.4990845322608948,0.3151293992996216,-0.46437665820121765
1775719680940764400,4.928764404296875,0.4829474091529846,0.3030426502227783,-0.5003551840782166
1775719680950777600,4.938777587890625,0.4455720782279968,0.3008785843849182,-0.48745962977409363
1775719680960791600,4.94879150390625,0.39025983214378357,0.2861771583557129,-0.44164207577705383
1775719680970804500,4.958804443359375,0.3207397758960724,0.20702479779720306,-0.3867567479610443
1775719680980817700,4.968817626953125,0.276125431060791,0.10938584804534912,-0.32437723875045776
1775719680990830300,4.978830322265625,0.2829172909259796,0.03994029015302658,-0.26944559812545776
1775719681000844500,4.988844482421875,0.3156227469444275,0.019674701616168022,-0.2570629417896271
1775719681010857500,4.998857421875,0.3445746600627899,0.021684320643544197,-0.2794138789176941
1775719681020870400,5.008870361328125,0.33895859122276306,0.019627029076218605,-0.332918643951416
1775719681030883600,5.018883544921875,0.3321039080619812,-0.0032812769059091806,-0.4206836521625519
1775719681040897500,5.0288974609375,0.3541274666786194,-0.004343612119555473,-0.5361011028289795
1775719681050910500,5.038910400390625,0.404499351978302,-0.024464119225740433,-0.6620616912841797
1775719681060923600,5.048923583984375,0.4500631093978882,-0.03559133782982826,-0.7646975517272949
1775719681070936300,5.058936279296875,0.470099538564682,-0.0624815970659256,-0.8427980542182922
1775719681080949500,5.068949462890625,0.46022161841392517,-0.08189311623573303,-0.8561567664146423
1775719681090963700,5.078963623046875,0.421915203332901,-0.0766606554389,-0.801240086555481
1775719681100976400,5.088976318359375,0.3253937363624573,-0.05334414914250374,-0.6935333609580994
1775719681110989600,5.098989501953125,0.18961049616336823,-0.06474661827087402,-0.5863121747970581
1775719681121002500,5.10900244140625,0.09176595509052277,-0.14022059738636017,-0.48982343077659607
1775719681131016400,5.119016357421875,0.08269984275102615,-0.19370125234127045,-0.39394858479499817
1775719681141029600,5.129029541015625,0.13698360323905945,-0.30539315938949585,-0.33783629536628723
1775719681151042600,5.13904248046875,0.19616006314754486,-0.3972916901111603,-0.28855961561203003
1775719681161055500,5.149055419921875,0.24882592260837555,-0.4167569875717163,-0.1901686042547226
1775719681171069000,5.15906884765625,0.30167901515960693,-0.4256898760795593,-0.0864872857928276
1775719681181081900,5.169081787109375,0.3252871632575989,-0.4218384027481079,-0.007271029520779848
1775719681191094800,5.1790947265625,0.3291492164134979,-0.4102526903152466,0.0379876047372818
1775719681201107700,5.189107666015625,0.30649903416633606,-0.3890664577484131,0.05669631063938141
1775719681211122000,5.199121826171875,0.2514471411705017,-0.41945362091064453,0.039107151329517365
1775719681221134800,5.209134765625,0.1882047951221466,-0.4703197479248047,-0.013362179510295391
1775719681231147800,5.219147705078125,0.15305133163928986,-0.5037269592285156,-0.10584790259599686
1775719681241161000,5.229160888671875,0.1682574599981308,-0.5199099183082581,-0.25536254048347473
1775719681251173600,5.239173583984375,0.23679021000862122,-0.4842230975627899,-0.4238051772117615
1775719681261187800,5.249187744140625,0.3515186607837677,-0.37277087569236755,-0.5485010743141174
1775719681271200800,5.25920068359375,0.4441252052783966,-0.25449585914611816,-0.6009999513626099
1775719681281213700,5.269213623046875,0.47872525453567505,-0.25120288133621216,-0.5499303936958313
1775719681291227000,5.279226806640625,0.4481797516345978,-0.3541393578052521,-0.4100887179374695
1775719681301240800,5.28924072265625,0.3472485840320587,-0.501296877861023,-0.23684343695640564
1775719681311253800,5.299253662109375,0.20307557284832,-0.6284023523330688,-0.0970161184668541
1775719681321267000,5.309266845703125,0.059081126004457474,-0.6938905715942383,-0.0413278192281723
1775719681331280000,5.31927978515625,-0.051004987210035324,-0.6886032223701477,-0.06221843510866165
1775719681341293800,5.3292939453125,-0.08698775619268417,-0.61467444896698,-0.1445189118385315
1775719681351307000,5.33930712890625,-0.041948117315769196,-0.5109495520591736,-0.28681498765945435
1775719681361319700,5.349319580078125,0.08175119012594223,-0.36303436756134033,-0.39386528730392456
1775719681371332900,5.359332763671875,0.23074613511562347,-0.20324622094631195,-0.38362225890159607
1775719681381346800,5.369346923828125,0.3392678201198578,-0.17340977489948273,-0.24932968616485596
1775719681391359700,5.37935986328125,0.3502628803253174,-0.23140235245227814,-0.059485919773578644
1775719681401373000,5.389373046875,0.26815521717071533,-0.3287869691848755,0.08780605345964432
1775719681411385900,5.3993857421875,0.1334036886692047,-0.4029594659805298,0.1660650074481964
1775719681421398800,5.409398681640625,-0.0486723855137825,-0.4564032256603241,0.1535572111606598
1775719681431413000,5.4194130859375,-0.24254335463047028,-0.4920819103717804,0.0514875091612339
1775719681441426000,5.429426025390625,-0.3667827546596527,-0.44100886583328247,-0.09652698785066605
1775719681451438800,5.43943896484375,-0.36982184648513794,-0.3128928244113922,-0.24818091094493866
1775719681461451800,5.44945166015625,-0.2925097346305847,-0.14967568218708038,-0.39210638403892517
1775719681471465700,5.4594658203125,-0.177911177277565,-0.019015971571207047,-0.5160235166549683
1775719681481479000,5.46947900390625,-0.053495753556489944,0.04636995866894722,-0.5890918970108032
1775719681491491800,5.479491943359375,0.06332894414663315,0.09266233444213867,-0.5748703479766846
1775719681501505000,5.489505126953125,0.12185456603765488,0.08683906495571136,-0.5057799816131592
1775719681511518700,5.499518798828125,0.11918072402477264,0.04355369880795479,-0.41577354073524475
1775719681521532000,5.509531982421875,0.06336672604084015,0.022046007215976715,-0.29665273427963257
1775719681531544800,5.519544921875,-0.04135223105549812,0.010931305587291718,-0.17592951655387878
1775719681541557800,5.529557861328125,-0.16746196150779724,-0.03925170376896858,-0.0726260393857956
1775719681551571000,5.539571044921875,-0.2759527266025543,-0.07772360742092133,-0.006894574034959078
1775719681561584600,5.549584716796875,-0.3337553143501282,-0.13194236159324646,0.00415035430341959
1775719681571597800,5.559597900390625,-0.3267636299133301,-0.17129960656166077,-0.03155744820833206
1775719681581611000,5.569611083984375,-0.2599489390850067,-0.1848369836807251,-0.11373301595449448
1775719681591623700,5.579623779296875,-0.16169238090515137,-0.13798058032989502,-0.21921885013580322
1775719681601638000,5.589637939453125,-0.055161938071250916,-0.04182368516921997,-0.3047875463962555
1775719681611650800,5.59965087890625,0.03575732186436653,0.05689622461795807,-0.33750253915786743
1775719681621663700,5.609663818359375,0.09033694863319397,0.09776296466588974,-0.31953099370002747
1775719681631677000,5.619677001953125,0.09249388426542282,0.09274754673242569,-0.25187239050865173
1775719681641690600,5.629690673828125,0.059802789241075516,0.036760181188583374,-0.14951327443122864
1775719681651703800,5.639703857421875,-1.327134668827057e-7,-0.06673482060432434,-0.0257695484906435
1775719681661716700,5.649716796875,-0.05497736483812332,-0.1748596876859665,0.115158811211586
1775719681671730000,5.65972998046875,-0.07806665450334549,-0.23969945311546326,0.2418632209300995
1775719681681744000,5.669743896484375,-0.0641188845038414,-0.26750925183296204,0.3180488049983978
1775719681691756800,5.6797568359375,-0.02377333864569664,-0.24940453469753265,0.34058013558387756
1775719681701769700,5.689769775390625,0.04524008557200432,-0.17470979690551758,0.2988055348396301
1775719681711783000,5.699782958984375,0.12537816166877747,-0.09110318869352341,0.1902862936258316
1775719681721795800,5.7097958984375,0.1906583607196808,-0.011180920526385307,0.061612460762262344
1775719681731809800,5.719809814453125,0.2427295595407486,0.06244811415672302,-0.04740317165851593
1775719681741822700,5.72982275390625,0.27562040090560913,0.11478854715824127,-0.11368925124406815
1775719681751836000,5.7398359375,0.2717657685279846,0.14772160351276398,-0.12740707397460938
1775719681761848800,5.749848876953125,0.2425098717212677,0.15533743798732758,-0.10344980657100677
1775719681771862800,5.75986279296875,0.21180842816829681,0.12972146272659302,-0.05401547998189926
1775719681781876000,5.7698759765625,0.20098242163658142,0.09567933529615402,0.0019370010122656822
1775719681791888600,5.779888671875,0.20208102464675903,0.05901997536420822,0.04442233592271805
1775719681801901800,5.78990185546875,0.1779644936323166,0.04011499136686325,0.06648928672075272
1775719681811915800,5.799915771484375,0.14035776257514954,0.051021117717027664,0.06515522301197052
1775719681821928700,5.8099287109375,0.10552122443914413,0.07068270444869995,0.04601109400391579
1775719681831942000,5.81994189453125,0.08842413127422333,0.07722529023885727,0.028364092111587524
1775719681841954800,5.829954833984375,0.06699713319540024,0.1161191537976265,0.004504299256950617
1775719681851967700,5.8399677734375,0.029116153717041016,0.15768975019454956,-0.02498563937842846
1775719681861982000,5.84998193359375,-0.0019237871747463942,0.18059320747852325,-0.0369672030210495
1775719681871994600,5.85999462890625,-0.0173990149050951,0.16680850088596344,-0.02272997424006462
1775719681882007800,5.8700078125,-0.033365730196237564,0.11326297372579575,0.010099876672029495
1775719681892020700,5.880020751953125,-0.05591271445155144,0.056212201714515686,0.04083825275301933
1775719681902034700,5.89003466796875,-0.10321071743965149,-0.003373626619577408,0.05295190587639809
1775719681912047900,5.9000478515625,-0.15616914629936218,-0.03678413853049278,0.06305251270532608
1775719681922060800,5.910060791015625,-0.19993366301059723,-0.03633726015686989,0.08511333167552948
1775719681932073700,5.92007373046875,-0.21669821441173553,-0.038259852677583694,0.11022347211837769
1775719681942088000,5.930087890625,-0.229122132062912,-0.07249718904495239,0.12949784100055695
1775719681952100900,5.940100830078125,-0.2677879333496094,-0.12587609887123108,0.1599787473678589
1775719681962113800,5.95011376953125,-0.2932296693325043,-0.19191662967205048,0.212980717420578
1775719681972126700,5.960126708984375,-0.2930777072906494,-0.25674811005592346,0.26084962487220764
1775719681982140700,5.970140625,-0.2737564742565155,-0.29016438126564026,0.2762379050254822
1775719681992153900,5.98015380859375,-0.2445863038301468,-0.28342804312705994,0.257918119430542
1775719682002166800,5.990166748046875,-0.21679462492465973,-0.2779318392276764,0.22839778661727905
1775719682012180000,6.000179931640625,-0.18843786418437958,-0.270177960395813,0.21124784648418427
1775719682022192600,6.010192626953125,-0.16044431924819946,-0.2636111378669739,0.18776355683803558
1775719682032206800,6.020206787109375,-0.12442727386951447,-0.24810175597667694,0.15645664930343628
1775719682042219800,6.0302197265625,-0.08046088367700577,-0.19411656260490417,0.12941890954971313
1775719682052232700,6.040232666015625,-0.04079417139291763,-0.12794187664985657,0.11829528212547302
1775719682062246000,6.050245849609375,-0.01929260976612568,-0.08959396928548813,0.11815173178911209
1775719682072259800,6.060259765625,0.003212523879483342,-0.1167740449309349,0.11888781189918518
1775719682082272800,6.070272705078125,0.015284632332623005,-0.14095208048820496,0.11106371134519577
1775719682092286000,6.080285888671875,0.021099597215652466,-0.14251813292503357,0.09653517603874207
1775719682102298600,6.090298583984375,0.030856352299451828,-0.12951578199863434,0.07900039106607437
1775719682112311800,6.100311767578125,0.05522579699754715,-0.12085001915693283,0.051584575325250626
1775719682122326000,6.110325927734375,0.0824480950832367,-0.10763701051473618,0.018373891711235046
1775719682132338700,6.120338623046875,0.08931877464056015,-0.07438796758651733,0.0024377289228141308
1775719682142352000,6.130351806640625,0.09791199862957001,-0.05963512137532234,0.005780794657766819
1775719682152364800,6.14036474609375,0.11221849173307419,-0.07680043578147888,0.02378089725971222
1775719682162378800,6.150378662109375,0.11173593252897263,-0.09307953715324402,0.04351119324564934
1775719682172392200,6.16039208984375,0.08682423830032349,-0.08774387091398239,0.06676684319972992
1775719682182405000,6.170405029296875,0.05970181152224541,-0.07173454761505127,0.09716255962848663
1775719682192418000,6.18041796875,0.045044928789138794,-0.08732250332832336,0.13056224584579468
1775719682202432300,6.190432373046875,0.02950751595199108,-0.08623513579368591,0.1537402719259262
1775719682212445200,6.200445068359375,0.016868850216269493,-0.09576433151960373,0.16163276135921478
1775719682222458000,6.2104580078125,0.02310490794479847,-0.11296702176332474,0.1672845333814621
1775719682232471300,6.22047119140625,0.04285958781838417,-0.12214978784322739,0.16472873091697693
1775719682242484000,6.23048388671875,0.05541559308767319,-0.08495980501174927,0.13615834712982178
1775719682252498200,6.240498291015625,0.06559505313634872,-0.04738244041800499,0.08218494802713394
1775719682262511400,6.250511474609375,0.09011957049369812,-0.0179611686617136,0.042377348989248276
1775719682272524000,6.26052392578125,0.11702089011669159,-0.006340445019304752,0.025732355192303658
1775719682282537200,6.270537109375,0.11867870390415192,-0.008933831006288528,0.03171594813466072
1775719682292551200,6.28055126953125,0.09422454237937927,-0.021532239392399788,0.025618627667427063
1775719682302564000,6.290564208984375,0.09120078384876251,-0.07434059679508209,0.005346912425011396
1775719682312577300,6.300577392578125,0.10451135784387589,-0.09794164448976517,0.013532915152609348
1775719682322590200,6.310590087890625,0.11090400815010071,-0.10903824120759964,0.031127888709306717
1775719682332604200,6.320604248046875,0.10122418403625488,-0.11490663886070251,0.04612962529063225
1775719682342617300,6.330617431640625,0.10975348949432373,-0.11043465882539749,0.04535970464348793
1775719682352630000,6.340630126953125,0.13304589688777924,-0.10283222049474716,0.04060199484229088
1775719682362643200,6.350643310546875,0.15761594474315643,-0.08092346042394638,0.05488506332039833
1775719682372656000,6.36065625,0.16724136471748352,-0.06527528166770935,0.06960821896791458
1775719682382670000,6.370670166015625,0.15164589881896973,-0.062468577176332474,0.0669272169470787
1775719682392683300,6.380683349609375,0.13702678680419922,-0.07791808247566223,0.06148703768849373
1775719682402696200,6.3906962890625,0.12273998558521271,-0.08362390846014023,0.08551621437072754
1775719682412709000,6.400709228515625,0.1034625992178917,-0.08498696237802505,0.12862907350063324
1775719682422723300,6.410723388671875,0.08113279193639755,-0.08560987561941147,0.17208866775035858
1775719682432736300,6.420736328125,0.06129126995801926,-0.08891426771879196,0.19166307151317596
1775719682442749200,6.430749267578125,0.04913047328591347,-0.09407120943069458,0.20296765863895416
1775719682452762000,6.44076220703125,0.044217437505722046,-0.07992888242006302,0.20976179838180542
1775719682462776000,6.450776123046875,0.04465952143073082,-0.04805351048707962,0.20218349993228912
1775719682472789200,6.460789306640625,0.040979161858558655,-0.014709397219121456,0.1641526073217392
1775719682482802200,6.47080224609375,0.03443896770477295,0.014557410962879658,0.10554788261651993
1775719682492815400,6.4808154296875,0.020825443789362907,0.008797073736786842,0.04979827627539635
1775719682502828000,6.490828125,0.003268288215622306,-0.005833267234265804,0.01995249278843403
1775719682512842200,6.50084228515625,-0.009585382416844368,-0.025953296571969986,0.0009914928814396262
1775719682522855200,6.510855224609375,-0.01574127934873104,-0.06184098869562149,-0.011626032181084156
1775719682532868000,6.5208681640625,-0.01306047011166811,-0.09317754209041595,-0.01520848274230957
1775719682542881300,6.53088134765625,0.008261596783995628,-0.117831751704216,-0.017504660412669182
1775719682552895200,6.540895263671875,0.04524962976574898,-0.10838807374238968,-0.03488248959183693
1775719682562908200,6.550908203125,0.08983626961708069,-0.06140165403485298,-0.08667058497667313
1775719682572921300,6.56092138671875,0.12812630832195282,0.01608145423233509,-0.1425776481628418
1775719682582934000,6.57093408203125,0.14815114438533783,0.09709668159484863,-0.19167116284370422
1775719682592947200,6.580947265625,0.13951212167739868,0.15347881615161896,-0.21355180442333221
1775719682602961400,6.59096142578125,0.11758925020694733,0.16447900235652924,-0.19155409932136536
1775719682612974000,6.60097412109375,0.08862270414829254,0.140243262052536,-0.12130295485258102
1775719682622987300,6.6109873046875,0.047849975526332855,0.09176627546548843,-0.021663442254066467
1775719682633000200,6.621000244140625,0.004557413049042225,0.039291106164455414,0.10015153884887695
1775719682643014100,6.63101416015625,-0.028217310085892677,-0.011832265183329582,0.22683598101139069
1775719682653027300,6.64102734375,-0.05059243366122246,-0.0525730699300766,0.33613818883895874
1775719682663040300,6.651040283203125,-0.055935535579919815,-0.09005226939916611,0.39976003766059875
1775719682673053200,6.66105322265625,-0.054213497787714005,-0.12282047420740128,0.41689333319664
1775719682683067100,6.671067138671875,-0.04896840080618858,-0.11879750341176987,0.3997955918312073
1775719682693080000,6.681080078125,-0.03600678965449333,-0.060163047164678574,0.34857335686683655
1775719682703093200,6.69109326171875,-0.029788043349981308,0.03350858390331268,0.2615034282207489
1775719682713106200,6.701106201171875,-0.024752531200647354,0.1284807324409485,0.16622869670391083
1775719682723119400,6.711119384765625,-0.030522268265485764,0.2162896692752838,0.09469432383775711
1775719682733133000,6.721133056640625,-0.055924300104379654,0.2440243661403656,0.052671242505311966
1775719682743146200,6.731146240234375,-0.08798183500766754,0.23121748864650726,0.05341213569045067
1775719682753159200,6.7411591796875,-0.11396155506372452,0.1993991732597351,0.08694233745336533
1775719682763172000,6.751172119140625,-0.13005584478378296,0.17405173182487488,0.143091082572937
1775719682773186300,6.761186279296875,-0.14033500850200653,0.14679399132728577,0.21349160373210907
1775719682783199200,6.77119921875,-0.13509230315685272,0.10210533440113068,0.27278342843055725
1775719682793212200,6.781212158203125,-0.12806156277656555,0.05517040565609932,0.2984849214553833
1775719682803225300,6.791225341796875,-0.13254313170909882,0.04663977026939392,0.3085452914237976
1775719682813239000,6.801239013671875,-0.1280011087656021,0.09238923341035843,0.3157028555870056
1775719682823252200,6.811252197265625,-0.07076578587293625,0.1427658647298813,0.307228684425354
1775719682833265400,6.821265380859375,0.07267884910106659,0.16174088418483734,0.26078319549560547
1775719682843278000,6.831278076171875,0.2733762562274933,0.1345665156841278,0.15641388297080994
1775719682853291300,6.841291259765625,0.4420066475868225,0.16932350397109985,-0.0008083021966740489
1775719682863305200,6.85130517578125,0.517578661441803,0.3404790163040161,-0.18353496491909027
1775719682873318100,6.861318115234375,0.5102760195732117,0.5836162567138672,-0.3470953404903412
1775719682883331300,6.871331298828125,0.42705273628234863,0.8136295080184937,-0.44346049427986145
1775719682893344300,6.88134423828125,0.29869720339775085,0.9048030376434326,-0.44696342945098877
1775719682903358200,6.891358154296875,0.16726914048194885,0.8290571570396423,-0.34641897678375244
1775719682913371100,6.90137109375,0.10585132241249084,0.5904541015625,-0.16551102697849274
1775719682923384000,6.911384033203125,0.12084411829710007,0.2805364429950714,0.0673443078994751
1775719682933397200,6.921397216796875,0.19555743038654327,-0.008047683164477348,0.3073444068431854
1775719682943410200,6.93141015625,0.3066155016422272,-0.19199220836162567,0.47789591550827026
1775719682953424100,6.941424072265625,0.44485238194465637,-0.24399909377098083,0.5347897410392761
1775719682963437000,6.95143701171875,0.5697988271713257,-0.14095766842365265,0.47037750482559204
1775719682973450200,6.9614501953125,0.6518460512161255,0.04473362863063812,0.2868849039077759
1775719682983463200,6.971463134765625,0.679229736328125,0.2146528959274292,0.031780168414115906
1775719682993477000,6.98147705078125,0.6436826586723328,0.3620898425579071,-0.21583828330039978
1775719683003490300,6.991490234375,0.5462032556533813,0.4280467629432678,-0.4035855531692505
1775719683013503000,7.0015029296875,0.4061715006828308,0.3876503109931946,-0.5060630440711975
1775719683023516200,7.01151611328125,0.2714565694332123,0.29188835620880127,-0.5259140133857727
1775719683033529300,7.021529296875,0.17800883948802948,0.1587308645248413,-0.4715040624141693
1775719683043543000,7.03154296875,0.11497367173433304,0.03252445533871651,-0.3806321918964386
1775719683053556200,7.04155615234375,0.07506535202264786,-0.05373721942305565,-0.2905799150466919
1775719683063569400,7.0515693359375,0.03910761699080467,-0.11726586520671844,-0.22545126080513
1775719683073582000,7.06158203125,-0.020048001781105995,-0.14939294755458832,-0.20019178092479706
1775719683083596300,7.07159619140625,-0.11728081107139587,-0.16743239760398865,-0.22011995315551758
1775719683093609200,7.081609130859375,-0.22255566716194153,-0.1757660210132599,-0.2722983658313751
1775719683103622100,7.0916220703125,-0.31639614701271057,-0.15998704731464386,-0.3316549062728882
1775719683113635300,7.10163525390625,-0.39418846368789673,-0.14709345996379852,-0.38475942611694336
1775719683123649000,7.11164892578125,-0.4542030692100525,-0.15798978507518768,-0.41198810935020447
1775719683133662200,7.121662109375,-0.48562633991241455,-0.16536973416805267,-0.3880402743816376
1775719683143675100,7.131675048828125,-0.5105817317962646,-0.15518102049827576,-0.3187224268913269
1775719683153688300,7.141688232421875,-0.5418941974639893,-0.14196904003620148,-0.22208409011363983
1775719683163701200,7.151701171875,-0.5440492630004883,-0.19987335801124573,-0.12830939888954163
1775719683173715500,7.161715576171875,-0.5006608963012695,-0.3573839068412781,-0.06470400840044022
1775719683183728000,7.17172802734375,-0.4115307927131653,-0.5772635340690613,-0.05768418684601784
1775719683193741300,7.1817412109375,-0.2879396080970764,-0.7712366580963135,-0.11399932950735092
1775719683203754200,7.191754150390625,-0.18306246399879456,-0.8026227951049805,-0.23941344022750854
1775719683213768200,7.201768310546875,-0.11554768681526184,-0.6290351152420044,-0.4117613732814789
1775719683223781400,7.211781494140625,-0.09272546321153641,-0.3339296877384186,-0.5806057453155518
1775719683233794300,7.221794189453125,-0.10172983258962631,-0.03376052901148796,-0.7065196633338928
1775719683243807200,7.23180712890625,-0.11429435759782791,0.11887961626052856,-0.7633219957351685
1775719683253820200,7.241820068359375,-0.10549914836883545,0.13850773870944977,-0.7250343561172485
1775719683263834000,7.251834228515625,-0.0806792825460434,0.05765470117330551,-0.5893705487251282
1775719683273847300,7.261847412109375,-0.03977911174297333,-0.1162191852927208,-0.3838798701763153
1775719683283860200,7.271860107421875,0.01940271630883217,-0.3054301142692566,-0.12885421514511108
1775719683293873400,7.281873291015625,0.07001391798257828,-0.397779256105423,0.09742013365030289
1775719683303887400,7.291887451171875,0.11735240370035172,-0.3969765603542328,0.23391246795654297
1775719683313900300,7.301900390625,0.13964253664016724,-0.2976376414299011,0.27209940552711487
1775719683323913200,7.311913330078125,0.13489332795143127,-0.1641720086336136,0.22804298996925354
1775719683333926100,7.321926025390625,0.10689949989318848,-0.060651738196611404,0.16263674199581146
1775719683343939300,7.331939208984375,0.08450417965650558,-0.004553579725325108,0.1344008445739746
1775719683353953300,7.341953369140625,0.06261508166790009,0.020508598536252975,0.16926930844783783
1775719683363966200,7.35196630859375,0.025119904428720474,0.02582160383462906,0.25721168518066406
1775719683373979400,7.3619794921875,-0.02265147678554058,-0.019161760807037354,0.3661964535713196
1775719683383992300,7.371992431640625,-0.07531016319990158,-0.08704227209091187,0.487398236989975
1775719683394006300,7.38200634765625,-0.12864446640014648,-0.17387408018112183,0.6010328531265259
1775719683404019500,7.39201953125,-0.19762618839740753,-0.2897551357746124,0.6738138794898987
1775719683414032100,7.4020322265625,-0.2703627049922943,-0.39949342608451843,0.6897404193878174
1775719683424045300,7.41204541015625,-0.3361760675907135,-0.47768011689186096,0.6450717449188232
1775719683434058200,7.422058349609375,-0.37258732318878174,-0.5207803845405579,0.5656446218490601
1775719683444072200,7.432072265625,-0.37620124220848083,-0.5291738510131836,0.4812770187854767
1775719683454085400,7.44208544921875,-0.37278032302856445,-0.4832889437675476,0.417772114276886
1775719683464098300,7.452098388671875,-0.3806944489479065,-0.4210311472415924,0.3766723573207855
1775719683474111200,7.462111328125,-0.40860041975975037,-0.37053000926971436,0.355924516916275
1775719683484125400,7.47212548828125,-0.45928943157196045,-0.34645745158195496,0.36441680788993835
1775719683494138400,7.482138427734375,-0.5215085744857788,-0.3231385350227356,0.3930915892124176
1775719683504151300,7.4921513671875,-0.578728437423706,-0.29414495825767517,0.4463561475276947
1775719683514164200,7.502164306640625,-0.6195254325866699,-0.29378435015678406,0.51276034116745
1775719683524177400,7.512177490234375,-0.6452089548110962,-0.3100064694881439,0.5953314304351807
1775719683534191400,7.52219140625,-0.6584256291389465,-0.29808229207992554,0.6662467122077942
1775719683544204300,7.532204345703125,-0.6557605862617493,-0.24564465880393982,0.6998254656791687
1775719683554217200,7.54221728515625,-0.6345109939575195,-0.13282892107963562,0.6912265419960022
1775719683564230100,7.552230224609375,-0.5971630811691284,-0.02297806739807129,0.6537383198738098
1775719683574244400,7.562244384765625,-0.5324686765670776,0.07149913907051086,0.6018272638320923
1775719683584257300,7.57225732421875,-0.4364210069179535,0.15788064897060394,0.5424224734306335
1775719683594270200,7.582270263671875,-0.3344692885875702,0.24502302706241608,0.4752401113510132
1775719683604283400,7.592283447265625,-0.2478390485048294,0.32870620489120483,0.40310707688331604
1775719683614296300,7.60229638671875,-0.18972063064575195,0.4251862168312073,0.32338592410087585
1775719683624310300,7.612310302734375,-0.14971035718917847,0.497271865606308,0.2436399757862091
1775719683634323500,7.622323486328125,-0.1333400309085846,0.5351577997207642,0.19432379305362701
1775719683644336000,7.632336181640625,-0.13556110858917236,0.5669572949409485,0.17782019078731537
1775719683654349300,7.642349365234375,-0.13202126324176788,0.5637435913085938,0.1698657125234604
1775719683664363300,7.65236328125,-0.12169937044382095,0.5723903179168701,0.16648243367671967
1775719683674376200,7.662376220703125,-0.09863266348838806,0.5852445363998413,0.1643526405096054
1775719683684389400,7.672389404296875,-0.06573677062988281,0.6038892865180969,0.16511030495166779
1775719683694402300,7.68240234375,-0.02377232164144516,0.6285724639892578,0.15472884476184845
1775719683704415200,7.692415283203125,0.019270751625299454,0.6292539238929749,0.12531103193759918
1775719683714429400,7.702429443359375,0.05951698124408722,0.6373085975646973,0.09553523361682892
1775719683724442400,7.7124423828125,0.1017664298415184,0.6265435218811035,0.06868204474449158
1775719683734455300,7.722455322265625,0.13549025356769562,0.599137544631958,0.038690872490406036
1775719683744468200,7.73246826171875,0.160360187292099,0.5666016936302185,0.011450729332864285
1775719683754482200,7.742482177734375,0.15982091426849365,0.5495970845222473,-0.013335108757019043
1775719683764495400,7.752495361328125,0.14215829968452454,0.5977845788002014,-0.03137136995792389
1775719683774508300,7.76250830078125,0.09056254476308823,0.6137667894363403,-0.0645252987742424
1775719683784521200,7.772521240234375,0.0025791600346565247,0.5942344069480896,-0.09405256062746048
1775719683794534100,7.7825341796875,-0.12162124365568161,0.5701196193695068,-0.10113804042339325
1775719683804548400,7.79254833984375,-0.24280865490436554,0.5904166102409363,-0.08577825874090195
1775719683814561300,7.802561279296875,-0.3272590935230255,0.6285444498062134,-0.06859894841909409
1775719683824574200,7.81257421875,-0.34755611419677734,0.6244639754295349,-0.05419604107737541
1775719683834587400,7.82258740234375,-0.3339013457298279,0.6055254936218262,-0.0203410554677248
1775719683844601300,7.832601318359375,-0.330833375453949,0.5608000755310059,0.028498122468590736
1775719683854614300,7.8426142578125,-0.3496139347553253,0.5056656002998352,0.054292626678943634
1775719683864627500,7.85262744140625,-0.39330121874809265,0.4777599275112152,0.04710528999567032
1775719683874640100,7.86264013671875,-0.4567638635635376,0.4740082025527954,0.014637967571616173
1775719683884653300,7.8726533203125,-0.5266446471214294,0.5037615895271301,-0.015243498608469963
1775719683894667300,7.882667236328125,-0.5712102651596069,0.5620059967041016,-0.027154698967933655
1775719683904680200,7.89268017578125,-0.5805931091308594,0.5877912640571594,-0.021637961268424988
1775719683914693400,7.902693359375,-0.5727059841156006,0.5736299157142639,0.0030356510542333126
1775719683924706300,7.912706298828125,-0.5528366565704346,0.5473077893257141,0.04888543114066124
1775719683934720300,7.92272021484375,-0.5137445330619812,0.5159927606582642,0.09709832817316055
1775719683944733400,7.9327333984375,-0.4600147008895874,0.4605044424533844,0.1263752579689026
1775719683954746400,7.942746337890625,-0.40856626629829407,0.3785753548145294,0.14084742963314056
1775719683964759300,7.95275927734375,-0.3781742751598358,0.27769961953163147,0.1491788625717163
1775719683974772200,7.962772216796875,-0.3900871276855469,0.18691635131835938,0.14994144439697266
1775719683984786200,7.9727861328125,-0.41398924589157104,0.17414328455924988,0.1420997679233551
1775719683994799400,7.98279931640625,-0.44202691316604614,0.2223917543888092,0.11882047355175018
1775719684004812300,7.992812255859375,-0.46741217374801636,0.2938275933265686,0.08920266479253769
1775719684014825500,8.002825439453124,-0.4643803834915161,0.3573858141899109,0.07332167774438858
1775719684024839200,8.012839111328125,-0.467151403427124,0.29379114508628845,0.10755528509616852
1775719684034852400,8.022852294921876,-0.44267940521240234,0.07350053638219833,0.17108359932899475
1775719684044865300,8.032865234375,-0.4083256721496582,-0.13997606933116913,0.2502567172050476
1775719684054878200,8.042878173828125,-0.3901894688606262,-0.25133413076400757,0.3018665611743927
1775719684064891400,8.052891357421874,-0.3701750338077545,-0.23328295350074768,0.298366904258728
1775719684074905000,8.062905029296875,-0.34096798300743103,-0.13966962695121765,0.23121918737888336
1775719684084918300,8.072918212890626,-0.315645307302475,-0.052542462944984436,0.11920344084501266
1775719684094931500,8.082931396484375,-0.2906765043735504,0.016581004485487938,0.02708195149898529
1775719684104944000,8.092944091796875,-0.2752804756164551,0.037489745765924454,-0.03680967912077904
1775719684114958300,8.102958251953124,-0.2540210783481598,-0.01805795729160309,-0.10000928491353989
1775719684124971300,8.11297119140625,-0.194231778383255,-0.10070756077766418,-0.15563233196735382
1775719684134984200,8.122984130859376,-0.10324691236019135,-0.17629414796829224,-0.19103781878948212
1775719684144997400,8.132997314453124,-0.013523949310183525,-0.21899926662445068,-0.19534894824028015
1775719684155010300,8.14301025390625,0.07533957809209824,-0.19387130439281464,-0.17284120619297028
1775719684165024300,8.153024169921874,0.1783818155527115,-0.14153780043125153,-0.15322409570217133
1775719684175036700,8.16303662109375,0.25081297755241394,-0.11669617891311646,-0.14258241653442383
1775719684185049900,8.1730498046875,0.26105788350105286,-0.13093984127044678,-0.12881574034690857
1775719684195062800,8.183062744140624,0.24608959257602692,-0.17323827743530273,-0.09539500623941422
1775719684205075700,8.19307568359375,0.23375889658927917,-0.23153406381607056,-0.040402330458164215
1775719684215090000,8.20308984375,0.24666595458984375,-0.2967380881309509,0.025994665920734406
1775719684225102600,8.2131025390625,0.27992352843284607,-0.35634708404541016,0.10078981518745422
1775719684235115800,8.22311572265625,0.3406052589416504,-0.38524842262268066,0.15670675039291382
1775719684245129000,8.23312890625,0.4051373600959778,-0.37097442150115967,0.15762446820735931
1775719684255142700,8.243142578125,0.4605969190597534,-0.3102702796459198,0.10087922215461731
1775719684265155800,8.25315576171875,0.515911340713501,-0.1896679848432541,0.02843564562499523
1775719684275168800,8.263168701171875,0.5518655180931091,-0.10416518151760101,-0.024237537756562233
1775719684285181700,8.273181640625,0.5576752424240112,-0.12826092541217804,-0.02584741823375225
1775719684295195000,8.28319482421875,0.5364907383918762,-0.24963565170764923,0.04325970634818077
1775719684305208600,8.29320849609375,0.5079248547554016,-0.39395925402641296,0.12269967049360275
1775719684315221800,8.3032216796875,0.4593704640865326,-0.46061059832572937,0.17686228454113007
1775719684325235000,8.31323486328125,0.4120285212993622,-0.44154074788093567,0.1871945559978485
1775719684335248000,8.323247802734375,0.36607903242111206,-0.3671029806137085,0.15823894739151
1775719684345261800,8.33326171875,0.3545385003089905,-0.29606980085372925,0.08280998468399048
1775719684355274800,8.343274658203125,0.3946055769920349,-0.23367251455783844,-0.0049248142167925835
1775719684365287700,8.35328759765625,0.4655543267726898,-0.21760140359401703,-0.07966429740190506
1775719684375300900,8.36330078125,0.5476157069206238,-0.21073199808597565,-0.1227397546172142
1775719684385313800,8.373313720703125,0.6049628853797913,-0.19896242022514343,-0.14892102777957916
1775719684395327700,8.38332763671875,0.6292659044265747,-0.216376394033432,-0.1654689460992813
1775719684405340700,8.393340576171875,0.6347914338111877,-0.2280050814151764,-0.15627411007881165
1775719684415353900,8.403353759765626,0.6449712514877319,-0.20791298151016235,-0.1083269864320755
1775719684425366800,8.41336669921875,0.6581373810768127,-0.16645580530166626,-0.05115717276930809
1775719684435380700,8.423380615234375,0.6667291522026062,-0.12099386751651764,-0.002199985319748521
1775719684445394000,8.433393798828124,0.6550208330154419,-0.09872078895568848,0.04050646349787712
1775719684455406600,8.443406494140625,0.6144822835922241,-0.10845135897397995,0.07537493109703064
1775719684465419800,8.453419677734376,0.5369086861610413,-0.12471421808004379,0.1122240275144577
1775719684475433000,8.463432861328124,0.42547062039375305,-0.12471605092287064,0.1382005661725998
1775719684485446700,8.47344677734375,0.3072845935821533,-0.10586699843406677,0.13335174322128296
1775719684495459800,8.4834599609375,0.21946141123771667,-0.07355096191167831,0.09182091057300568
1775719684505472800,8.49347265625,0.16169264912605286,-0.012556053698062897,0.008653589524328709
1775719684515485700,8.503485595703125,0.12554405629634857,0.06384051591157913,-0.08248500525951385
1775719684525499000,8.513498779296874,0.12828338146209717,0.12659123539924622,-0.12127421051263809
1775719684535512600,8.5235126953125,0.15056969225406647,0.14964458346366882,-0.0813002660870552
1775719684545525800,8.53352587890625,0.148904949426651,0.10496098548173904,0.01903405785560608
1775719684555539000,8.5435390625,0.12690094113349915,0.01835673674941063,0.14172586798667908
1775719684565551900,8.5535517578125,0.10758210718631744,-0.04956186190247536,0.2568165063858032
1775719684575565800,8.56356591796875,0.1233045905828476,-0.06848609447479248,0.3056464195251465
1775719684585578800,8.573578857421875,0.1502147763967514,-0.06265456974506378,0.24408158659934998
1775719684595591700,8.583591796875,0.1653086394071579,-0.024247178807854652,0.10976456850767136
1775719684605604900,8.59360498046875,0.17506779730319977,0.01220270711928606,-0.05683053657412529
1775719684615617800,8.60361767578125,0.19009236991405487,0.0654928907752037,-0.17733633518218994
1775719684625631700,8.6136318359375,0.21161071956157684,0.08829940110445023,-0.21398915350437164
1775719684635644700,8.623644775390625,0.23376677930355072,0.055827025324106216,-0.17487980425357819
1775719684645657900,8.633657958984376,0.2757807970046997,-0.03109375759959221,-0.11727269738912582
1775719684655670800,8.6436708984375,0.35693538188934326,-0.11710801720619202,-0.08322207629680634
1775719684665684700,8.653684814453126,0.41495662927627563,-0.15076158940792084,-0.07998207956552505
1775719684675698000,8.663697998046874,0.4001105725765228,-0.22104808688163757,-0.09936622530221939
1775719684685710600,8.673710693359375,0.33044466376304626,-0.3389259874820709,-0.14288653433322906
1775719684695723800,8.683723876953126,0.23217537999153137,-0.3916565477848053,-0.18611811101436615
1775719684705737000,8.693737060546875,0.14354059100151062,-0.3821386694908142,-0.24468475580215454
1775719684715750700,8.703750732421875,0.09628860652446747,-0.36347588896751404,-0.2961878180503845
1775719684725763800,8.713763916015624,0.10088149458169937,-0.3828442692756653,-0.3194608986377716
1775719684735776800,8.72377685546875,0.13804905116558075,-0.44960469007492065,-0.28112155199050903
1775719684745789700,8.733789794921876,0.18796734511852264,-0.49881163239479065,-0.17299295961856842
1775719684755803000,8.743802978515625,0.22753220796585083,-0.5132032632827759,-0.07112648338079453
1775719684765816600,8.753816650390625,0.26857686042785645,-0.4641244113445282,-0.029287423938512802
1775719684775829800,8.763829833984374,0.2745363116264343,-0.37921470403671265,-0.04191063717007637
1775719684785842700,8.7738427734375,0.24051307141780853,-0.31792712211608887,-0.09214557707309723
1775719684795856000,8.78385595703125,0.17452198266983032,-0.29173728823661804,-0.15759387612342834
1775719684805869800,8.793869873046875,0.10634986311197281,-0.2419053018093109,-0.21641351282596588
1775719684815882800,8.8038828125,0.05723615363240242,-0.15503065288066864,-0.2552112638950348
1775719684825895700,8.813895751953124,0.021874433383345604,-0.050390247255563736,-0.29385530948638916
1775719684835908900,8.823908935546875,0.008267899043858051,0.04941941052675247,-0.3143019378185272
1775719684845921800,8.833921875,0.017830511555075645,0.13425838947296143,-0.2842617630958557
1775719684855935700,8.843935791015625,0.07615803182125092,0.1338302046060562,-0.2151799350976944
1775719684865948700,8.85394873046875,0.15826967358589172,0.07757917791604996,-0.11778466403484344
1775719684875961900,8.8639619140625,0.21849334239959717,0.009675133042037487,0.00672399066388607
1775719684885974800,8.873974853515625,0.23976987600326538,-0.050843339413404465,0.12697957456111908
1775719684895988700,8.88398876953125,0.2301425039768219,-0.12169747799634933,0.19872459769248962
1775719684906002000,8.894001953125,0.1845792829990387,-0.18201488256454468,0.19692829251289368
1775719684916014600,8.9040146484375,0.1200035810470581,-0.22920942306518555,0.1258881837129593
1775719684926027800,8.91402783203125,0.04872966185212135,-0.23761408030986786,0.0012708912836387753
1775719684936041000,8.924041015625,-0.014300174079835415,-0.1985483467578888,-0.1509995460510254
1775719684946054700,8.9340546875,-0.05292266607284546,-0.12043942511081696,-0.29175427556037903
1775719684956067800,8.94406787109375,-0.06605683267116547,-0.05021321028470993,-0.40772658586502075
1775719684966080800,8.954080810546875,-0.05175326392054558,-0.024377884343266487,-0.49789801239967346
1775719684976093700,8.96409375,-0.0187845416367054,-0.023761086165905,-0.553492546081543
1775719684986107000,8.97410693359375,0.02351391315460205,-0.05271630361676216,-0.5823289752006531
1775719684996120600,8.98412060546875,0.07184381783008575,-0.10004714131355286,-0.5833370089530945
1775719685006133800,8.9941337890625,0.12543220818042755,-0.14998885989189148,-0.5553149580955505
1775719685016146700,9.004146728515625,0.17465254664421082,-0.19851970672607422,-0.5036771297454834
1775719685026159900,9.014159912109376,0.20843473076820374,-0.1910277009010315,-0.4593522548675537
1775719685036172800,9.0241728515625,0.2305961698293686,-0.1395871639251709,-0.4589158892631531
1775719685046186800,9.034186767578126,0.23300953209400177,-0.07348991185426712,-0.500175952911377
1775719685056199700,9.04419970703125,0.2230057567358017,0.014227865263819695,-0.5394890308380127
1775719685066212900,9.054212890625,0.22593364119529724,0.08929039537906647,-0.5726320743560791
1775719685076225800,9.064225830078126,0.2483244687318802,0.12212701886892319,-0.603856086730957
1775719685086239700,9.07423974609375,0.2634238302707672,0.09142743051052094,-0.612667977809906
1775719685096252700,9.084252685546875,0.2763643264770508,-0.042045701295137405,-0.5647780895233154
1775719685106265900,9.094265869140624,0.3008723258972168,-0.17642082273960114,-0.4531324803829193
1775719685116278800,9.10427880859375,0.3372204601764679,-0.24697747826576233,-0.3331266939640045
1775719685126291700,9.114291748046876,0.3676675856113434,-0.27822062373161316,-0.24062687158584595
1775719685136306000,9.124305908203125,0.3675399422645569,-0.23262722790241241,-0.17385375499725342
1775719685146318600,9.134318603515625,0.32586467266082764,-0.13343273103237152,-0.148537740111351
1775719685156331800,9.144331787109374,0.25659409165382385,-0.014952214434742928,-0.1542993038892746
1775719685166345000,9.154344970703125,0.1761421263217926,0.04280722141265869,-0.18752597272396088
1775719685176358400,9.1643583984375,0.09253359586000443,0.045979201793670654,-0.22530141472816467
1775719685186371300,9.174371337890625,0.026956981047987938,0.04103957116603851,-0.25081929564476013
1775719685196384500,9.184384521484375,-0.001831567264162004,0.03874265402555466,-0.25747397541999817
1775719685206397200,9.194397216796874,0.010942284017801285,0.05718930438160896,-0.23307116329669952
1775719685216410400,9.204410400390625,0.053028225898742676,0.04596016928553581,-0.19147750735282898
1775719685226424600,9.214424560546876,0.11421728134155273,0.016235563904047012,-0.14100873470306396
1775719685236437200,9.224437255859375,0.18226756155490875,-0.013763343915343285,-0.09904548525810242
1775719685246450400,9.234450439453125,0.2502460777759552,-0.023136340081691742,-0.056139566004276276
1775719685256463400,9.24446337890625,0.29772597551345825,-0.00045339763164520264,-0.037892915308475494
1775719685266476300,9.254476318359375,0.3130439519882202,0.03775151073932648,-0.05232085660099983
1775719685276490500,9.264490478515626,0.29264989495277405,0.05308442935347557,-0.08515908569097519
1775719685286503400,9.27450341796875,0.24442964792251587,0.05412759259343147,-0.12302763760089874
1775719685296516400,9.284516357421875,0.18825355172157288,0.07080470770597458,-0.1521339863538742
1775719685306529300,9.294529296875,0.14564618468284607,0.07593661546707153,-0.18861450254917145
1775719685316542500,9.30454248046875,0.1156703382730484,0.07517214864492416,-0.23005200922489166
1775719685326556400,9.314556396484376,0.1019020602107048,0.08262261003255844,-0.2666321396827698
1775719685336569300,9.3245693359375,0.11337984353303909,0.09632986783981323,-0.28703564405441284
1775719685346582500,9.33458251953125,0.15630413591861725,0.1128380075097084,-0.2841911315917969
1775719685356595500,9.344595458984376,0.1994151622056961,0.15912216901779175,-0.28068074584007263
1775719685366609400,9.354609375,0.21142522990703583,0.19813615083694458,-0.2939792573451996
1775719685376622300,9.364622314453126,0.20069654285907745,0.21773046255111694,-0.30591368675231934
1775719685386635300,9.37463525390625,0.19783951342105865,0.221393883228302,-0.3275468349456787
1775719685396648400,9.3846484375,0.16684946417808533,0.20994022488594055,-0.366508424282074
1775719685406661600,9.39466162109375,0.08343126624822617,0.1772158294916153,-0.41335636377334595
1775719685416675300,9.40467529296875,-0.005396561697125435,0.14630696177482605,-0.4376235604286194
1775719685426688500,9.4146884765625,-0.06133492663502693,0.13466203212738037,-0.431491881608963
1775719685436701200,9.424701171875,-0.0820874348282814,0.12237218022346497,-0.41174745559692383
1775719685446714400,9.43471435546875,-0.07208939641714096,0.11705677956342697,-0.37126606702804565
1775719685456727600,9.4447275390625,-0.05197928473353386,0.14072120189666748,-0.3063476085662842
1775719685466741200,9.4547412109375,-0.022053876891732216,0.13913023471832275,-0.2291896939277649
1775719685476754400,9.46475439453125,0.011359999887645245,0.11757506430149078,-0.16314691305160522
1775719685486767400,9.474767333984374,0.018179023638367653,0.07759276032447815,-0.12681500613689423
1775719685496780300,9.4847802734375,-0.01915000192821026,0.054258279502391815,-0.1059502437710762
1775719685506794500,9.49479443359375,-0.10123155266046524,0.05615924298763275,-0.09496523439884186
1775719685516807400,9.504807373046875,-0.19841906428337097,0.05367676541209221,-0.10745374113321304
1775719685526820400,9.5148203125,-0.294504314661026,0.07200517505407333,-0.12494591623544693
1775719685536833300,9.524833251953124,-0.370309442281723,0.1324198842048645,-0.1390322893857956
1775719685546846500,9.534846435546875,-0.4022274315357208,0.20669516921043396,-0.1561684012413025
1775719685556860400,9.5448603515625,-0.39747005701065063,0.28490400314331055,-0.15597829222679138
1775719685566873300,9.554873291015625,-0.37634265422821045,0.3357807695865631,-0.13397525250911713
1775719685576886500,9.564886474609375,-0.34265515208244324,0.3303373456001282,-0.09079532325267792
1775719685586899500,9.5748994140625,-0.30511122941970825,0.2918405532836914,-0.026431245729327202
1775719685596912400,9.584912353515625,-0.287954717874527,0.2372545450925827,0.03667231276631355
1775719685606926300,9.59492626953125,-0.29063066840171814,0.17559784650802612,0.0834970772266388
1775719685616939300,9.604939208984375,-0.29892003536224365,0.13962891697883606,0.12651178240776062
1775719685626952400,9.614952392578125,-0.3055497109889984,0.1259002983570099,0.15513969957828522
1775719685636965600,9.624965576171874,-0.3229655921459198,0.12780828773975372,0.16821375489234924
1775719685646979300,9.634979248046875,-0.33056652545928955,0.1528145670890808,0.1652400642633438
1775719685656992500,9.644992431640626,-0.30646470189094543,0.16110630333423615,0.1522396206855774
1775719685667005200,9.655005126953125,-0.24818728864192963,0.1648493856191635,0.13710354268550873
1775719685677018400,9.665018310546875,-0.17634527385234833,0.1802341192960739,0.12324346601963043
1775719685687031600,9.675031494140624,-0.09831385314464569,0.18998554348945618,0.10803255438804626
1775719685697045200,9.685045166015625,-0.01380357425659895,0.19263552129268646,0.0906672403216362
1775719685707058400,9.695058349609376,0.0698268711566925,0.19567258656024933,0.08451853692531586
1775719685717071400,9.7050712890625,0.134558767080307,0.20971626043319702,0.08983871340751648
1775719685727084300,9.715084228515625,0.18143652379512787,0.19638100266456604,0.09622816741466522
1775719685737097500,9.725097412109376,0.18700283765792847,0.18883000314235687,0.09749815613031387
1775719685747111400,9.735111328125,0.163108691573143,0.17596480250358582,0.08397702127695084
1775719685757124400,9.745124267578126,0.13919155299663544,0.14240260422229767,0.07552863657474518
1775719685767137300,9.75513720703125,0.13357095420360565,0.12085870653390884,0.08138386160135269
1775719685777150500,9.765150390625,0.14256280660629272,0.09660793840885162,0.10361500084400177
1775719685787163400,9.775163330078126,0.15777797996997833,0.0839424729347229,0.13144901394844055
1775719685797177300,9.78517724609375,0.17168571054935455,0.07845629751682281,0.150197833776474
1775719685807190500,9.7951904296875,0.18527156114578247,0.07856974750757217,0.165552020072937
1775719685817203200,9.805203125,0.20032338798046112,0.085238516330719,0.186092808842659
1775719685827216400,9.81521630859375,0.2133214920759201,0.07644449174404144,0.20151491463184357
1775719685837230300,9.825230224609374,0.22734645009040833,0.059617992490530014,0.19800147414207458
1775719685847243300,9.8352431640625,0.2236132174730301,0.05525387078523636,0.18382573127746582
1775719685857256400,9.84525634765625,0.19666482508182526,0.06813114136457443,0.16075101494789124
1775719685867269600,9.85526953125,0.147780641913414,0.0747312530875206,0.11563972383737564
1775719685877282300,9.8652822265625,0.09907759726047516,0.07161299139261246,0.06059383600950241
1775719685887296500,9.875296630859374,0.06361015141010284,0.07330542802810669,0.019106844440102577
1775719685897309200,9.88530908203125,0.03905607387423515,0.08116645365953445,0.0006249772268347442
1775719685907322400,9.895322265625,0.028105424717068672,0.08337075263261795,-0.0007572034373879433
1775719685917335600,9.90533544921875,0.0322500504553318,0.08853726089000702,0.011555525474250317
1775719685927348500,9.915348388671875,0.03975590318441391,0.09580449759960175,0.03126424923539162
1775719685937362400,9.925362548828126,0.030090810731053352,0.09451138228178024,0.05127756670117378
1775719685947375400,9.935375244140625,0.005132196471095085,0.07976625859737396,0.06106601655483246
1775719685957388300,9.94538818359375,-0.03445399925112724,0.05726330727338791,0.06769527494907379
1775719685967401500,9.9554013671875,-0.07802970707416534,0.04602876305580139,0.06835360825061798
1775719685977415400,9.96541552734375,-0.11407843232154846,0.04643770679831505,0.0730077251791954
1775719685987428400,9.975428466796876,-0.12928055226802826,0.05470122769474983,0.07547833770513535
1775719685997441300,9.985441162109375,-0.13474692404270172,0.05317332223057747,0.08165598660707474
1775719686007454500,9.995454345703125,-0.13187550008296967,0.04049747437238693,0.09343434870243073
1775719686017467400,10.00546728515625,-0.1319335550069809,0.030296675860881805,0.10754425078630447
1775719686027481300,10.0154814453125,-0.1272679567337036,0.026128828525543213,0.11483784765005112
1775719686037494500,10.02549462890625,-0.12200894206762314,0.0497746579349041,0.11089467257261276
1775719686047507200,10.035507080078125,-0.1039700135588646,0.08975083380937576,0.0863291397690773
1775719686057520400,10.045520263671875,-0.08306246250867844,0.12217028439044952,0.05557786673307419
1775719686067533600,10.055533447265624,-0.06749282777309418,0.15466883778572083,0.038233499974012375
1775719686077547300,10.06554736328125,-0.06614921241998672,0.16050270199775696,0.028294306248426437
1775719686087560400,10.075560546875,-0.07958433032035828,0.16742798686027527,0.023874256759881973
1775719686097573600,10.08557373046875,-0.10084452480077744,0.18053746223449707,0.02676975168287754
1775719686107586300,10.09558642578125,-0.1131102442741394,0.1948402225971222,0.042687464505434036
1775719686117599500,10.105599609375,-0.1159149557352066,0.20505817234516144,0.04894512519240379
1775719686127613200,10.11561328125,-0.10697099566459656,0.1780574470758438,0.04881596192717552
1775719686137626400,10.12562646484375,-0.10322029143571854,0.14693009853363037,0.052419569343328476
1775719686147639600,10.1356396484375,-0.1098446398973465,0.13532990217208862,0.045860473066568375
1775719686157652500,10.145652587890625,-0.11672473698854446,0.12401042133569717,0.04091733694076538
1775719686167666400,10.15566650390625,-0.11841238290071487,0.15660618245601654,0.05284084007143974
1775719686177680100,10.16568017578125,-0.12496224790811539,0.17544567584991455,0.05855567380785942
1775719686187693000,10.175693115234376,-0.13081534206867218,0.1697331964969635,0.05512259528040886
1775719686197706200,10.185706298828125,-0.12562187016010284,0.1641658991575241,0.04835129156708717
1775719686207719200,10.19571923828125,-0.11247677356004715,0.1634007692337036,0.046976301819086075
1775719686217733000,10.205733154296874,-0.09553014487028122,0.18825986981391907,0.0410749725997448
1775719686227746300,10.215746337890625,-0.07373590022325516,0.21195293962955475,0.03621124103665352
1775719686237759200,10.22575927734375,-0.04710996896028519,0.22061622142791748,0.0327506922185421
1775719686247772200,10.235772216796875,-0.03321599215269089,0.20421862602233887,0.03051203489303589
1775719686257785000,10.24578515625,-0.035123348236083984,0.17154483497142792,0.0229917224496603
1775719686267799000,10.255799072265624,-0.04124036431312561,0.150899738073349,0.020431360229849815
1775719686277812200,10.265812255859375,-0.0454108752310276,0.14272837340831757,0.02202845737338066
1775719686287825200,10.2758251953125,-0.06102022901177406,0.1443202793598175,0.02127794176340103
1775719686297838300,10.28583837890625,-0.08457287400960922,0.11696753650903702,0.01181636843830347
1775719686307851000,10.29585107421875,-0.100765161216259,0.0778944343328476,0.008373700082302094
1775719686317865200,10.305865234375,-0.10516896843910217,0.060940489172935486,0.020303864032030106
1775719686327878100,10.315878173828125,-0.09129709005355835,0.06840186566114426,0.027228614315390587
1775719686337891000,10.32589111328125,-0.05914541333913803,0.09737865626811981,0.015719057992100716
1775719686347904300,10.335904296875,-0.030347323045134544,0.14817553758621216,-0.01837233267724514
1775719686357918200,10.345918212890625,-0.013505269773304462,0.187312513589859,-0.050245627760887146
1775719686367931100,10.35593115234375,0.0030316284392029047,0.21023142337799072,-0.05846254527568817
1775719686377944300,10.3659443359375,0.024179790169000626,0.21097736060619354,-0.04702480137348175
1775719686387957000,10.37595703125,0.04525791108608246,0.20578846335411072,-0.023998845368623734
1775719686397970200,10.38597021484375,0.05063358694314957,0.2123030573129654,-0.0038157706148922443
1775719686407984400,10.395984375,0.03435661271214485,0.2090553343296051,0.007905866019427776
1775719686417997000,10.4059970703125,0.0031530687119811773,0.2006016969680786,0.0048043071292340755
1775719686428010200,10.41601025390625,-0.016854461282491684,0.1755376160144806,0.007535112556070089
1775719686438023200,10.426023193359375,-0.01748562790453434,0.16559699177742004,0.0260607972741127
1775719686448036000,10.4360361328125,0.010392341762781143,0.15439629554748535,0.03386012837290764
1775719686458050300,10.44605029296875,0.044648319482803345,0.16045629978179932,0.03180869668722153
1775719686468063200,10.456063232421876,0.07085119932889938,0.19136162102222443,0.022639814764261246
1775719686478076200,10.466076171875,0.07892381399869919,0.20761340856552124,-0.001081565860658884
1775719686488089000,10.476089111328125,0.07022354006767273,0.22775888442993164,-0.04380239546298981
1775719686498102300,10.486102294921874,0.032084181904792786,0.24817603826522827,-0.10315035283565521
1775719686508116200,10.4961162109375,-0.031221549957990646,0.2649664878845215,-0.15219593048095703
1775719686518129200,10.506129150390626,-0.09693345427513123,0.28922131657600403,-0.17257224023342133
1775719686528142300,10.516142333984375,-0.14201517403125763,0.3006060719490051,-0.15198174118995667
1775719686538155000,10.526155029296875,-0.16450734436511993,0.2830106019973755,-0.08897516876459122
1775719686548168200,10.536168212890624,-0.17132504284381866,0.24608267843723297,0.01992654614150524
1775719686558182100,10.54618212890625,-0.173051655292511,0.18041741847991943,0.1567125767469406
1775719686568195000,10.556195068359376,-0.1875416487455368,0.08001250773668289,0.2932209074497223
1775719686578208300,10.566208251953125,-0.20968511700630188,-0.03348606452345848,0.42152687907218933
1775719686588221200,10.57622119140625,-0.24793024361133575,-0.11934983730316162,0.4952714145183563
1775719686598235100,10.586235107421874,-0.3075125515460968,-0.157237708568573,0.497402161359787
1775719686608248300,10.596248291015625,-0.3506065011024475,-0.16028329730033875,0.44749265909194946
1775719686618261000,10.606260986328126,-0.37351128458976746,-0.0953194871544838,0.378302663564682
1775719686628274200,10.616274169921875,-0.37705567479133606,-0.008804037235677242,0.2911520302295685
1775719686638287000,10.626287109375,-0.3425843119621277,0.06670880317687988,0.17793481051921844
1775719686648301000,10.636301025390624,-0.26331692934036255,0.1357928067445755,0.05251908674836159
1775719686658314200,10.646314208984375,-0.1732155680656433,0.17667227983474731,-0.04833674058318138
1775719686668327200,10.6563271484375,-0.10022924840450287,0.18478721380233765,-0.08795445412397385
1775719686678340000,10.666340087890624,-0.04904768615961075,0.13321927189826965,-0.06570051610469818
1775719686688353000,10.67635302734375,-0.01967994123697281,0.06086411327123642,-0.024631643667817116
1775719686698367200,10.6863671875,-0.024187209084630013,0.016077645123004913,0.0007187518058344722
1775719686708380200,10.696380126953125,-0.06339772790670395,0.018071554601192474,-0.002205931581556797
1775719686718393000,10.70639306640625,-0.10961946845054626,0.048495303839445114,-0.020810937508940697
1775719686728406300,10.71640625,-0.13387154042720795,0.09695737808942795,-0.06613793224096298
1775719686738419000,10.7264189453125,-0.13492460548877716,0.15200968086719513,-0.13389945030212402
1775719686748433200,10.73643310546875,-0.12555798888206482,0.169986292719841,-0.20333072543144226
1775719686758446300,10.7464462890625,-0.11523310095071793,0.17156995832920074,-0.24057400226593018
1775719686768459000,10.756458984375,-0.10436047613620758,0.17391619086265564,-0.24099372327327728
1775719686778472200,10.76647216796875,-0.10024389624595642,0.15072788298130035,-0.23617209494113922
1775719686788485000,10.776485107421875,-0.10312516987323761,0.11777763813734055,-0.22558815777301788
1775719686798499000,10.7864990234375,-0.1034197136759758,0.0766802728176117,-0.20879532396793365
1775719686808512300,10.79651220703125,-0.09752880036830902,0.04379715770483017,-0.185719832777977
1775719686818525200,10.806525146484375,-0.0954456776380539,0.021679870784282684,-0.15972578525543213
1775719686828538000,10.8165380859375,-0.10579898208379745,-0.015421956777572632,-0.11880151927471161
1775719686838552300,10.82655224609375,-0.13093194365501404,-0.04496993124485016,-0.041800908744335175
1775719686848565000,10.83656494140625,-0.1717986911535263,-0.05663431063294411,0.057840730994939804
1775719686858578200,10.846578125,-0.206478551030159,-0.07777770608663559,0.1340029239654541
1775719686868591000,10.856591064453125,-0.21797648072242737,-0.08917390555143356,0.18972955644130707
1775719686878604300,10.866604248046874,-0.1938675045967102,-0.08204495161771774,0.22322909533977509
1775719686888618200,10.8766181640625,-0.1534188836812973,-0.05935029312968254,0.2359270453453064
1775719686898631200,10.886631103515626,-0.11548059433698654,-0.03744644299149513,0.2410859316587448
1775719686908644000,10.89664404296875,-0.09439608454704285,-0.025297366082668304,0.2406046986579895
1775719686918657000,10.906656982421875,-0.07317135483026505,-0.023937735706567764,0.22086691856384277
1775719686928670200,10.916670166015624,-0.06297118216753006,0.0013918555341660976,0.1904458999633789
1775719686938684200,10.92668408203125,-0.06609151512384415,0.022365011274814606,0.16625624895095825
1775719686948697000,10.936697021484376,-0.07091077417135239,0.04499895125627518,0.16696225106716156
1775719686958710300,10.946710205078125,-0.0623718798160553,0.058450669050216675,0.18461161851882935
1775719686968723000,10.956722900390625,-0.05042413994669914,0.03357088565826416,0.20013092458248138
1775719686978736000,10.966736083984374,-0.04882180690765381,-0.006261270493268967,0.20408181846141815
1775719686988750300,10.976750244140625,-0.040433384478092194,-0.03391793370246887,0.2114124298095703
1775719686998763000,10.986762939453126,-0.021537497639656067,-0.0537814162671566,0.20964190363883972
1775719687008776200,10.996776123046875,-0.02384139783680439,-0.06754543632268906,0.18640634417533875
1775719687018789000,11.0067890625,-0.02899812161922455,-0.06828759610652924,0.14367620646953583
1775719687028802000,11.016802001953126,-0.01811271719634533,-0.03678932413458824,0.07698214054107666
1775719687038816300,11.026816162109375,0.009408474899828434,0.012559114024043083,-0.0030856940429657698
1775719687048829200,11.0368291015625,0.045551300048828125,0.06577732414007187,-0.07940736413002014
1775719687058842000,11.046842041015625,0.07894326001405716,0.10022738575935364,-0.15039615333080292
1775719687068855000,11.05685498046875,0.09658696502447128,0.0940118283033371,-0.1942909061908722
1775719687078869000,11.066868896484374,0.08840236067771912,0.02365623041987419,-0.19787348806858063
1775719687088882200,11.076882080078125,0.05924101918935776,-0.07793537527322769,-0.18424981832504272
1775719687098895000,11.08689501953125,0.031422387808561325,-0.14731135964393616,-0.17733457684516907
1775719687108908300,11.096908203125,0.0013827315997332335,-0.12716880440711975,-0.16659191250801086
1775719687118921000,11.1069208984375,-0.023657599464058876,-0.06431648880243301,-0.13654309511184692
1775719687128935200,11.11693505859375,-0.03506258502602577,-0.016739118844270706,-0.08072030544281006
1775719687138948000,11.126947998046875,-0.04642406851053238,-0.020253023132681847,-0.02207503840327263
1775719687148961000,11.1369609375,-0.05689721554517746,-0.06064225733280182,0.002442020457237959
1775719687158974200,11.14697412109375,-0.03910352289676666,-0.0790424570441246,-0.014203608967363834
1775719687168987100,11.156987060546875,0.02680571749806404,-0.0550825260579586,-0.0575990229845047
1775719687179001000,11.1670009765625,0.09900369495153427,0.033632852137088776,-0.1189553290605545
1775719687189014300,11.17701416015625,0.10111930966377258,0.11412955820560455,-0.17514455318450928
1775719687199027000,11.18702685546875,0.07024288922548294,0.13974766433238983,-0.2053324282169342
1775719687209040100,11.1970400390625,0.025326015427708626,0.15769603848457336,-0.20583203434944153
1775719687219053300,11.20705322265625,-0.027857759967446327,0.1674811840057373,-0.20806972682476044
1775719687229067000,11.21706689453125,-0.07761786133050919,0.1907484233379364,-0.24340826272964478
1775719687239080200,11.227080078125,-0.14310280978679657,0.2212667614221573,-0.3223670721054077
1775719687249093000,11.237093017578125,-0.21111515164375305,0.2755715548992157,-0.39114105701446533
1775719687259106000,11.24710595703125,-0.25774186849594116,0.33472684025764465,-0.4227026402950287
1775719687269119200,11.257119140625,-0.2775869369506836,0.33849361538887024,-0.4372757077217102
1775719687279133200,11.26713330078125,-0.2961972951889038,0.3037041127681732,-0.4547554552555084
1775719687289146000,11.27714599609375,-0.313521146774292,0.281790554523468,-0.4601030945777893
1775719687299159000,11.287158935546875,-0.33576977252960205,0.2619103789329529,-0.4536035656929016
1775719687309172200,11.297172119140624,-0.35714641213417053,0.2307433933019638,-0.41833531856536865
1775719687319185200,11.30718505859375,-0.36506158113479614,0.17268723249435425,-0.3430890738964081
1775719687329199000,11.31719921875,-0.36128175258636475,0.04067512974143028,-0.24787677824497223
1775719687339212300,11.32721240234375,-0.32805898785591125,-0.10300634056329727,-0.13978908956050873
1775719687349225000,11.337224853515625,-0.32191693782806396,-0.20011663436889648,-0.05500442162156105
1775719687359238100,11.347238037109374,-0.3314972221851349,-0.2881734073162079,-0.024049680680036545
1775719687369251300,11.357251220703125,-0.2821192741394043,-0.3007887899875641,-0.024637706577777863
1775719687379265000,11.36726513671875,-0.19900651276111603,-0.22526171803474426,-0.05971214175224304
1775719687389278200,11.3772783203125,-0.1090228259563446,-0.16039961576461792,-0.12920360267162323
1775719687399291100,11.387291015625,-0.027520516887307167,-0.14016011357307434,-0.2097180336713791
1775719687409304000,11.397303955078126,0.02715338207781315,-0.15652203559875488,-0.26150134205818176
1775719687419318300,11.407318359375,0.07966847717761993,-0.1901179403066635,-0.2657078504562378
1775719687429331000,11.4173310546875,0.09652069956064224,-0.21801242232322693,-0.22080296277999878
1775719687439344000,11.42734423828125,0.0763014405965805,-0.2452990859746933,-0.15389123558998108
1775719687449357000,11.437357177734375,0.03397742286324501,-0.30579838156700134,-0.07698766887187958
1775719687459370200,11.447370361328124,0.007996645756065845,-0.37966108322143555,0.0182320699095726
1775719687469384200,11.45738427734375,0.018623989075422287,-0.4290449023246765,0.09986647963523865
1775719687479397000,11.467397216796876,0.06730475276708603,-0.41371917724609375,0.1404043734073639
1775719687489410000,11.47741015625,0.11804036796092987,-0.30570322275161743,0.12277238070964813
1775719687499423200,11.48742333984375,0.14942319691181183,-0.13548710942268372,0.06730816513299942
1775719687509436200,11.497436279296876,0.15974347293376923,0.017673678696155548,0.015342967584729195
1775719687519450000,11.5074501953125,0.16329027712345123,0.09422340244054794,-0.006335366051644087
1775719687529463000,11.517463134765626,0.1583421230316162,0.07769609242677689,0.02119506150484085
1775719687539476200,11.527476318359374,0.14993323385715485,0.027233658358454704,0.11458492279052734
1775719687549489200,11.5374892578125,0.13671596348285675,-0.016102096065878868,0.2384386956691742
1775719687559502000,11.547502197265626,0.14019626379013062,-0.07224555313587189,0.34489113092422485
1775719687569516300,11.557516357421875,0.16867265105247498,-0.12107381224632263,0.4232831597328186
1775719687579529000,11.567529052734375,0.18533174693584442,-0.1251896619796753,0.48231345415115356
1775719687589542100,11.577542236328124,0.1936732977628708,-0.13461938500404358,0.5043590664863586
1775719687599555300,11.587555419921875,0.19149430096149445,-0.12834639847278595,0.46925270557403564
1775719687609568000,11.597568115234376,0.200678750872612,-0.11379622668027878,0.3740393817424774
1775719687619582200,11.607582275390625,0.26126629114151,-0.0766860768198967,0.24207079410552979
1775719687629595100,11.61759521484375,0.35301485657691956,-0.008024457842111588,0.10332010686397552
1775719687639608000,11.627608154296874,0.42867401242256165,0.08026959747076035,0.004669410176575184
1775719687649621200,11.637621337890625,0.4884081780910492,0.18512144684791565,-0.040536683052778244
1775719687659634200,11.64763427734375,0.5409390926361084,0.2492803931236267,-0.04787050560116768
1775719687669648100,11.657648193359375,0.5631815195083618,0.24480175971984863,0.006130676716566086
1775719687679661000,11.6676611328125,0.5528830885887146,0.18047931790351868,0.1313619762659073
1775719687689674200,11.67767431640625,0.5357916951179504,0.0680995061993599,0.280353307723999
1775719687699687200,11.687687255859375,0.5163628458976746,-0.02513124980032444,0.39749592542648315
1775719687709700000,11.6977001953125,0.4712326228618622,-0.07289744168519974,0.45970338582992554
1775719687719714000,11.707714111328125,0.40813443064689636,-0.07756856083869934,0.4431535303592682
1775719687729727200,11.717727294921875,0.3582478165626526,-0.04122759774327278,0.33466726541519165
1775719687739740200,11.727740234375,0.3407221734523773,0.03719136491417885,0.1541149914264679
1775719687749753300,11.73775341796875,0.35845351219177246,0.14232365787029266,-0.04158100113272667
1775719687759766000,11.74776611328125,0.3896598517894745,0.2583872973918915,-0.1858518272638321
1775719687769780200,11.7577802734375,0.3973103165626526,0.32990115880966187,-0.25142204761505127
1775719687779793200,11.767793212890625,0.3747321665287018,0.33327963948249817,-0.21621407568454742
1775719687789806000,11.77780615234375,0.3296661674976349,0.2626534104347229,-0.09871675074100494
1775719687799819300,11.7878193359375,0.2596554458141327,0.128529891371727,0.07115563750267029
1775719687809832200,11.797832275390626,0.1740073710680008,-0.020377567037940025,0.2165871262550354
1775719687819846100,11.80784619140625,0.0926780179142952,-0.12591597437858582,0.2735935151576996
1775719687829859300,11.817859375,0.02398364618420601,-0.16653290390968323,0.2438334971666336
1775719687839872000,11.8278720703125,-0.041199129074811935,-0.160696342587471,0.14140532910823822
1775719687849885200,11.83788525390625,-0.07171469181776047,-0.07974797487258911,0.005171332508325577
1775719687859898000,11.847898193359375,-0.04591754078865051,0.06181219965219498,-0.12803757190704346
1775719687869912000,11.857912109375,0.025427479296922684,0.1881246119737625,-0.22266501188278198
1775719687879925200,11.86792529296875,0.11540530622005463,0.23482215404510498,-0.23271749913692474
1775719687889938200,11.877938232421876,0.18657642602920532,0.21835795044898987,-0.1499621719121933
1775719687899951000,11.887951171875,0.22961921989917755,0.14416469633579254,-0.014186568558216095
1775719687909965000,11.897965087890626,0.23589763045310974,0.03559080883860588,0.13199807703495026
1775719687919978200,11.907978271484374,0.20761413872241974,-0.08785782754421234,0.2559049427509308
1775719687929991200,11.9179912109375,0.16685712337493896,-0.19390489161014557,0.31795579195022583
1775719687940004000,11.928004150390626,0.12586380541324615,-0.25297439098358154,0.29723072052001953
1775719687950017300,11.938017333984375,0.10671380907297134,-0.25113388895988464,0.19128616154193878
1775719687960031000,11.948031005859375,0.11085693538188934,-0.19418776035308838,0.03357895091176033
1775719687970044200,11.958044189453124,0.13490714132785797,-0.09583216905593872,-0.13022728264331818
1775719687980057300,11.968057373046875,0.1772899329662323,0.0025370470248162746,-0.28815606236457825
1775719687990070000,11.978070068359376,0.22922663390636444,0.07295767962932587,-0.4263080656528473
1775719688000083200,11.988083251953125,0.28435349464416504,0.10228899866342545,-0.5229136943817139
1775719688010097200,11.99809716796875,0.31962814927101135,0.058773212134838104,-0.5442283153533936
1775719688020110000,12.008110107421874,0.3241361677646637,-0.05844647437334061,-0.4407069981098175
1775719688030123300,12.018123291015625,0.2890474200248718,-0.2114032506942749,-0.24374598264694214
1775719688040136200,12.02813623046875,0.21193060278892517,-0.36400657892227173,-0.034186992794275284
1775719688050149000,12.038149169921875,0.12476933002471924,-0.49404793977737427,0.08681505918502808
1775719688060163300,12.048163330078125,0.037048399448394775,-0.5627212524414062,0.09787606447935104
1775719688070176000,12.058176025390624,-0.03433070331811905,-0.5423645973205566,0.013889816589653492
1775719688080189200,12.068189208984375,-0.07754813134670258,-0.44940975308418274,-0.153920516371727
1775719688090202000,12.0782021484375,-0.10052162408828735,-0.31611695885658264,-0.37700608372688293
1775719688100215300,12.08821533203125,-0.10791504383087158,-0.18852166831493378,-0.6015163660049438
1775719688110229200,12.098229248046875,-0.07595445215702057,-0.0714360699057579,-0.7632764577865601
1775719688120242200,12.1082421875,-0.00740286149084568,0.007337008602917194,-0.8123583197593689
1775719688130255000,12.118255126953125,0.0636603906750679,0.003907123580574989,-0.7530263066291809
1775719688140268000,12.12826806640625,0.1226545125246048,-0.08367747068405151,-0.6158855557441711
1775719688150281200,12.13828125,0.17066891491413116,-0.23130899667739868,-0.433960497379303
1775719688160295200,12.148295166015625,0.2010413259267807,-0.37898313999176025,-0.24808934330940247
1775719688170308000,12.15830810546875,0.20049138367176056,-0.4841785430908203,-0.10720038414001465
1775719688180321000,12.168321044921875,0.1329565942287445,-0.523980975151062,-0.052422165870666504
1775719688190334200,12.178334228515626,0.03082331083714962,-0.5278657078742981,-0.08788801729679108
1775719688200347000,12.188346923828124,-0.044817522168159485,-0.48053762316703796,-0.16086545586585999
1775719688210361000,12.198361083984375,-0.08157314360141754,-0.40758004784584045,-0.23813334107398987
1775719688220374000,12.2083740234375,-0.0773133710026741,-0.3371877074241638,-0.29561740159988403
1775719688230387000,12.218386962890625,-0.034652192145586014,-0.2898412346839905,-0.3147658109664917
1775719688240400100,12.228400146484375,0.032799992710351944,-0.266832560300827,-0.29227226972579956
1775719688250413000,12.2384130859375,0.11792394518852234,-0.2752270996570587,-0.24347278475761414
1775719688260427000,12.248427001953125,0.17769047617912292,-0.2742737829685211,-0.18501636385917664
1775719688270440200,12.258440185546876,0.17866012454032898,-0.2839117646217346,-0.1255282759666443
1775719688280452900,12.268452880859375,0.12768469750881195,-0.3060775101184845,-0.07071810960769653
1775719688290466000,12.278466064453125,0.044260911643505096,-0.32693058252334595,-0.023654188960790634
1775719688300479000,12.28847900390625,-0.036978594958782196,-0.33011630177497864,0.004211743362247944
1775719688310493000,12.298492919921875,-0.09756097942590714,-0.3121032118797302,0.005417622625827789
1775719688320506000,12.308506103515626,-0.12588179111480713,-0.28031736612319946,-0.013639247044920921
