time,seconds_elapsed,z,y,x
1774657820497859600,0.078859619140625,0,0,0
1774657820507859500,0.088859375,-0.018177032470703125,0.015817642211914062,-0.010404862463474274
1774657820517859600,0.098859619140625,-0.013444900512695312,0.01432037353515625,-0.035533882677555084
1774657820527859500,0.108859375,0.021767139434814453,-0.007538795471191406,0.006076820194721222
1774657820537859600,0.118859619140625,-0.04063892364501953,0.0031633377075195312,0.020797327160835266
1774657820547859500,0.128859375,0.0004858970642089844,-0.0034236907958984375,-0.018390163779258728
1774657820557859600,0.138859619140625,-0.003075122833251953,0.010137557983398438,-0.01612945646047592
1774657820567859500,0.148859375,-0.0035915374755859375,-0.006801605224609375,0.02314407378435135
1774657820577859600,0.158859619140625,0.02047133445739746,-0.011166572570800781,-0.003202766180038452
1774657820587859500,0.168859375,0.0026865005493164062,0.0048007965087890625,-0.00409940630197525
1774657820597859600,0.178859619140625,0.00743556022644043,0.00045490264892578125,0.008186094462871552
1774657820607859500,0.188859375,0.010516881942749023,-0.00013637542724609375,0.009793616831302643
1774657820617859600,0.198859619140625,-0.0057373046875,0.0032510757446289062,-0.019044235348701477
1774657820627859500,0.208859375,0.01730060577392578,-0.015527725219726562,-0.003094196319580078
1774657820637859600,0.218859619140625,-0.0168914794921875,0.012837409973144531,0.012499108910560608
1774657820647859500,0.228859375,-0.01652836799621582,0.010234832763671875,-0.011804908514022827
1774657820657859600,0.238859619140625,-0.002065896987915039,0.01763916015625,-0.015235960483551025
1774657820667859500,0.248859375,-0.005490779876708984,-0.006299018859863281,-0.005610726773738861
1774657820677859600,0.258859619140625,-0.0018150806427001953,-0.0012178421020507812,-0.007098600268363953
1774657820687859500,0.268859375,0.011095762252807617,0.011087417602539062,-0.008703641593456268
1774657820697859600,0.278859619140625,-0.0008337497711181641,-0.0015306472778320312,-0.0018080100417137146
1774657820707859500,0.288859375,0.016006946563720703,0.004311561584472656,-0.00023886561393737793
1774657820717859600,0.298859619140625,0.005150556564331055,0.0028028488159179688,-0.006888873875141144
1774657820727859500,0.308859375,0.013063192367553711,-0.000408172607421875,0.019544005393981934
1774657820737859600,0.318859619140625,0.015230417251586914,-0.0026693344116210938,0.00604596734046936
1774657820747859500,0.328859375,-0.024924755096435547,0.02168560028076172,-0.011286832392215729
1774657820757859600,0.338859619140625,-0.0003871917724609375,-0.0034885406494140625,0.003079049289226532
1774657820767859500,0.348859375,0.002233743667602539,-0.025109291076660156,0.03558991104364395
1774657820777859600,0.358859619140625,-0.023587703704833984,0.005944252014160156,-0.000051081180572509766
1774657820787859500,0.368859375,0.013917922973632812,0.0035448074340820312,-0.020707041025161743
1774657820797859600,0.378859619140625,-0.0006856918334960938,-0.020012855529785156,0.025705866515636444
1774657820807859500,0.388859375,0.0000057220458984375,0.001232147216796875,0.002934493124485016
1774657820817859600,0.398859619140625,-0.0024962425231933594,0.017060279846191406,-0.03965301811695099
1774657820827859500,0.408859375,0.023081302642822266,0.005541801452636719,-0.007873527705669403
1774657820837859600,0.418859619140625,0.015723228454589844,-0.015245437622070312,0.01931632310152054
1774657820847859500,0.428859375,-0.02337503433227539,0.0072650909423828125,-0.02002202719449997
1774657820857859600,0.438859619140625,0.008166790008544922,-0.004238128662109375,-0.028652973473072052
1774657820867859500,0.448859375,0.027801036834716797,-0.013611793518066406,0.02741827815771103
1774657820877859600,0.458859619140625,-0.020528554916381836,0.009784698486328125,0.012759730219841003
1774657820887859500,0.468859375,-0.004935741424560547,0.008509635925292969,-0.034536637365818024
1774657820897859600,0.478859619140625,0.021514892578125,-0.012592315673828125,-0.004775628447532654
1774657820907859500,0.488859375,-0.01311182975769043,0.0052318572998046875,0.045314423739910126
1774657820917859600,0.498859619140625,-0.0064356327056884766,0.004779815673828125,-0.0006528645753860474
1774657820927859500,0.508859375,0.011525392532348633,0.0021648406982421875,-0.01665530353784561
1774657820937859600,0.518859619140625,-0.009166717529296875,0.0003032684326171875,0.02000291645526886
1774657820947859500,0.528859375,-0.0163877010345459,-0.0054645538330078125,0.009553655982017517
1774657820957859600,0.538859619140625,-0.002226591110229492,-0.004202842712402344,-0.013654343783855438
1774657820967859500,0.548859375,0.023514986038208008,-0.017577171325683594,-0.003647439181804657
1774657820977859600,0.558859619140625,-0.020746469497680664,0.018358230590820312,0.01674627512693405
1774657820987859500,0.568859375,0.010746002197265625,-0.0075778961181640625,-0.0038435012102127075
1774657820997859600,0.578859619140625,0.02640986442565918,-0.011316299438476562,-0.023289844393730164
1774657821007859500,0.588859375,-0.016051054000854492,0.009988784790039062,0.0014640912413597107
1774657821017859600,0.598859619140625,0.008422136306762695,-0.010640144348144531,0.015280209481716156
1774657821027859500,0.608859375,-0.014064788818359375,-0.0005884170532226562,-0.002068139612674713
1774657821037859600,0.618859619140625,0.004549980163574219,0.0021104812622070312,-0.0071377232670784
1774657821047859500,0.628859375,-0.0001628398895263672,0.007720947265625,0.00415300577878952
1774657821057859600,0.638859619140625,-0.016633272171020508,0.0006361007690429688,0.010329872369766235
1774657821067859500,0.648859375,0.013210535049438477,-0.0010404586791992188,-0.00032773613929748535
1774657821077859600,0.658859619140625,-0.007000446319580078,0.010702133178710938,0.0029280781745910645
1774657821087859500,0.668859375,-0.0345308780670166,0.005366325378417969,-0.0014945119619369507
1774657821097859600,0.678859619140625,0.05448031425476074,-0.008927345275878906,-0.00427178293466568
1774657821107859500,0.688859375,-0.020126819610595703,0.00038051605224609375,-0.004121802747249603
1774657821117859600,0.698859619140625,-0.03657341003417969,-0.0052242279052734375,0.0015707314014434814
1774657821127859500,0.708859375,0.0592954158782959,-0.013665199279785156,0.0013753920793533325
1774657821137859600,0.718859619140625,-0.03880643844604492,0.02911376953125,0.009607560932636261
1774657821147859500,0.728859375,0.011275291442871094,-0.013915061950683594,-0.00048576295375823975
1774657821157859600,0.738859619140625,0.027630329132080078,-0.022008895874023438,-0.006355278193950653
1774657821167859500,0.748859375,-0.04378080368041992,0.010733604431152344,0.020337559282779694
1774657821177859600,0.758859619140625,0.030600547790527344,-0.035111427307128906,0.027809590101242065
1774657821187859500,0.768859375,-0.007281780242919922,0.0037975311279296875,-0.027153201401233673
1774657821197859600,0.778859619140625,-0.007352352142333984,0.007170677185058594,-0.02365395426750183
1774657821207859500,0.788859375,0.0009970664978027344,0.007308006286621094,0.013357825577259064
1774657821217859600,0.798859619140625,-0.0017054080963134766,-0.015162467956542969,0.028662145137786865
1774657821227859500,0.808859375,-0.0006570816040039062,0.009606361389160156,-0.029878072440624237
1774657821237859600,0.818859619140625,0.005292415618896484,0.0022945404052734375,-0.017050616443157196
1774657821247859500,0.828859375,-0.011075019836425781,0.00704193115234375,0.01685403287410736
1774657821257859600,0.838859619140625,0.025217056274414062,-0.0069293975830078125,-0.007941834628582
1774657821267859500,0.848859375,-0.0016109943389892578,0.010873794555664062,-0.05217571556568146
1774657821277859600,0.858859619140625,0.022966384887695312,0.025760650634765625,-0.0017266497015953064
1774657821287859500,0.868859375,0.009835004806518555,-0.0008192062377929688,0.07727605104446411
1774657821297859600,0.878859619140625,-0.030657529830932617,0.007498741149902344,0.012535460293293
1774657821307859500,0.888859375,-0.0007081031799316406,0.009747505187988281,-0.046793244779109955
1774657821317859600,0.898859619140625,0.033486366271972656,-0.02150726318359375,-0.005366109311580658
1774657821327859500,0.908859375,0.0020933151245117188,0.005555152893066406,0.02827504277229309
1774657821337859600,0.918859619140625,-0.011574745178222656,-0.012543678283691406,-0.010511226952075958
1774657821347859500,0.928859375,0.009012222290039062,0.01136016845703125,-0.032339222729206085
1774657821357859600,0.938859619140625,-0.012482881546020508,-0.00164794921875,0.02501692622900009
1774657821367859500,0.948859375,0.0022873878479003906,-0.01833057403564453,0.014127269387245178
1774657821377859600,0.958859619140625,0.011085748672485352,-0.0017757415771484375,-0.020328335464000702
1774657821387859500,0.968859375,-0.010334253311157227,-0.00154876708984375,-0.01640208065509796
1774657821397859600,0.978859619140625,0.016264915466308594,-0.024521827697753906,0.0014994442462921143
1774657821407859500,0.988859375,-0.028661012649536133,0.0071048736572265625,-0.016558200120925903
1774657821417859600,0.998859619140625,0.031290531158447266,-0.0045795440673828125,0.00002135336399078369
1774657821427859500,1.008859375,0.009657144546508789,0.004817962646484375,0.03892480581998825
1774657821437859600,1.018859619140625,-0.00655817985534668,-0.0008029937744140625,0.009357333183288574
1774657821447859500,1.028859375,-0.007489204406738281,0.008265495300292969,-0.013163536787033081
1774657821457859600,1.038859619140625,-0.002552032470703125,-0.0000400543212890625,0.011852458119392395
1774657821467859500,1.048859375,0.019171953201293945,-0.0031538009643554688,-0.0019463375210762024
1774657821477859600,1.058859619140625,-0.03257918357849121,0.016550064086914062,-0.017778493463993073
1774657821487859500,1.068859375,0.014112472534179688,-0.0035724639892578125,0.03217260539531708
1774657821497859600,1.078859619140625,0.014064788818359375,-0.006023406982421875,0.04018772393465042
1774657821507859500,1.088859375,-0.020636796951293945,-0.004464149475097656,-0.031991444528102875
1774657821517859600,1.098859619140625,0.013623714447021484,-0.0020513534545898438,-0.029616765677928925
1774657821527859500,1.108859375,0.017648696899414062,-0.0059299468994140625,0.02565842866897583
1774657821537859600,1.118859619140625,-0.016452550888061523,0.006337165832519531,-0.0036106035113334656
1774657821547859500,1.128859375,-0.017342567443847656,-0.000247955322265625,-0.03080596774816513
1774657821557859600,1.138859619140625,0.0020890235900878906,-0.010028839111328125,0.012947224080562592
1774657821567859500,1.148859375,0.0011789798736572266,-0.0037031173706054688,0.029150545597076416
1774657821577859600,1.158859619140625,0.005903959274291992,0.018999099731445312,-0.041038140654563904
1774657821587859500,1.168859375,0.010965347290039062,0.0057830810546875,-0.039935268461704254
1774657821597859600,1.178859619140625,0.02718639373779297,-0.011073112487792969,0.027906902134418488
1774657821607859500,1.188859375,-0.010835647583007812,-0.004309654235839844,0.017931826412677765
1774657821617859600,1.198859619140625,0.0062296390533447266,0.009169578552246094,-0.031101197004318237
1774657821627859500,1.208859375,0.016271591186523438,0.002666473388671875,0.018780700862407684
1774657821637859600,1.218859619140625,-0.0009403228759765625,-0.001529693603515625,0.05192974954843521
1774657821647859500,1.228859375,0.005542278289794922,0.015996932983398438,-0.03225620090961456
1774657821657859600,1.238859619140625,0.010149955749511719,-0.00311279296875,-0.0299958735704422
1774657821667859500,1.248859375,0.00019884109497070312,-0.015216827392578125,0.030865781009197235
1774657821677859600,1.258859619140625,-0.01451730728149414,0.003215789794921875,0.02011623978614807
1774657821687859500,1.268859375,-0.0008878707885742188,0.0037050247192382812,-0.0352388396859169
1774657821697859600,1.278859619140625,0.009798288345336914,0.0047168731689453125,-0.01301659643650055
1774657821707859500,1.288859375,-0.006948709487915039,-0.011016845703125,0.02338419109582901
1774657821717859600,1.298859619140625,0.006657838821411133,0.00655364990234375,-0.015668638050556183
1774657821727859500,1.308859375,0.0033528804779052734,-0.014239311218261719,-0.01946663111448288
1774657821737859600,1.318859619140625,0.005853414535522461,0.0013875961303710938,0.005606375634670258
1774657821747859500,1.328859375,-0.00119781494140625,0.03161048889160156,0.021536409854888916
1774657821757859600,1.338859619140625,-0.021727800369262695,0.0023593902587890625,-0.00048713386058807373
1774657821767859500,1.348859375,0.03164815902709961,-0.02452850341796875,-0.008460626006126404
1774657821777859600,1.358859619140625,-0.013278722763061523,0.026073455810546875,-0.0003699660301208496
1774657821787859500,1.368859375,0.0012938976287841797,0.005764961242675781,0.021818064153194427
1774657821797859600,1.378859619140625,0.049252986907958984,-0.027208328247070312,0.028323344886302948
1774657821807859500,1.388859375,0.020514249801635742,-0.01908397674560547,-0.004678696393966675
1774657821817859600,1.398859619140625,-0.05163860321044922,0.016962051391601562,0.0027604475617408752
1774657821827859500,1.408859375,0.0523989200592041,-0.04103279113769531,0.02635268121957779
1774657821837859600,1.418859619140625,0.03914523124694824,-0.01745891571044922,0.010141126811504364
1774657821847859500,1.428859375,-0.07489252090454102,0.04299736022949219,-0.02975006401538849
1774657821857859600,1.438859619140625,0.05191469192504883,-0.021164894104003906,-0.0002533942461013794
1774657821867859500,1.448859375,-0.020332813262939453,0.0022535324096679688,0.04727829992771149
1774657821877859600,1.458859619140625,-0.04507613182067871,0.03040599822998047,-0.028900757431983948
1774657821887859500,1.468859375,-0.0006544589996337891,0.007693290710449219,-0.05105111002922058
1774657821897859600,1.478859619140625,-0.016663074493408203,-0.001438140869140625,0.051904454827308655
1774657821907859500,1.488859375,0.023150205612182617,-0.011839866638183594,0.02397119253873825
1774657821917859600,1.498859619140625,-0.06419634819030762,0.041657447814941406,-0.07362241297960281
1774657821927859500,1.508859375,0.013433456420898438,-0.015899658203125,-0.010455720126628876
1774657821937859600,1.518859619140625,0.06589126586914062,-0.03356647491455078,0.06380246579647064
1774657821947859500,1.528859375,-0.03917884826660156,0.027083396911621094,-0.029691345989704132
1774657821957859600,1.538859619140625,0.0030982494354248047,-0.0018939971923828125,-0.08177830278873444
1774657821967859500,1.548859375,0.06567549705505371,-0.04649066925048828,0.05409572273492813
1774657821977859600,1.558859619140625,-0.02338719367980957,-0.00616455078125,0.06167517602443695
1774657821987859500,1.568859375,0.017945528030395508,0.0034999847412109375,-0.08768555521965027
1774657821997859600,1.578859619140625,-0.012060403823852539,0.0011043548583984375,-0.02272721379995346
1774657822007859500,1.588859375,0.024123668670654297,-0.015743255615234375,0.08185150474309921
1774657822017859600,1.598859619140625,-0.034856557846069336,0.04191398620605469,-0.008299395442008972
1774657822027859500,1.608859375,-0.06213951110839844,0.01030731201171875,-0.07665077596902847
1774657822037859600,1.618859619140625,0.06914281845092773,-0.016097068786621094,0.058826714754104614
1774657822047859500,1.628859375,-0.04969024658203125,0.014139175415039062,0.10012990981340408
1774657822057859600,1.638859619140625,-0.06359148025512695,0.03310108184814453,-0.06500901281833649
1774657822067859500,1.648859375,0.06332969665527344,-0.031401634216308594,-0.06425225734710693
1774657822077859600,1.658859619140625,-0.04124259948730469,0.02369976043701172,0.08052986115217209
1774657822087859500,1.668859375,0.008917093276977539,0.005354881286621094,0.0177517831325531
1774657822097859600,1.678859619140625,0.029605388641357422,-0.028537750244140625,-0.09938304126262665
1774657822107859500,1.688859375,-0.00627899169921875,0.014744758605957031,0.010148845613002777
1774657822117859600,1.698859619140625,-0.00018215179443359375,0.0001735687255859375,0.09016390889883041
1774657822127859500,1.708859375,-0.003870725631713867,-0.023479461669921875,-0.03791278600692749
1774657822137859600,1.718859619140625,0.01744985580444336,-0.01961803436279297,-0.07754183560609818
1774657822147859500,1.728859375,-0.0032422542572021484,-0.011724472045898438,0.03885670006275177
1774657822157859600,1.738859619140625,0.007066249847412109,-0.019769668579101562,0.03797276318073273
1774657822167859500,1.748859375,0.0457463264465332,-0.030941009521484375,-0.07913312315940857
1774657822177859600,1.758859619140625,-0.03672051429748535,0.0063953399658203125,-0.04171118140220642
1774657822187859500,1.768859375,-0.01582813262939453,0.0054874420166015625,0.07994511723518372
1774657822197859600,1.778859619140625,0.04938006401062012,-0.011418342590332031,0.024240359663963318
1774657822207859500,1.788859375,-0.013310670852661133,0.027797698974609375,-0.04632357507944107
1774657822217859600,1.798859619140625,-0.06942915916442871,0.03251075744628906,0.010606348514556885
1774657822227859500,1.808859375,0.03551125526428223,0.0057125091552734375,0.037828393280506134
1774657822237859600,1.818859619140625,-0.03423309326171875,0.0294952392578125,-0.004642389714717865
1774657822247859500,1.828859375,-0.011099576950073242,0.01830577850341797,-0.01037818193435669
1774657822257859600,1.838859619140625,-0.027924299240112305,0.02400970458984375,0.04214983433485031
1774657822267859500,1.848859375,0.021866798400878906,0.00025653839111328125,0.0032661855220794678
1774657822277859600,1.858859619140625,0.0007607936859130859,0.004772186279296875,-0.044745057821273804
1774657822287859500,1.868859375,0.012907266616821289,-0.01450347900390625,-0.022119179368019104
1774657822297859600,1.878859619140625,0.08670306205749512,-0.030188560485839844,0.014287196099758148
1774657822307859500,1.888859375,-0.08311033248901367,0.012622833251953125,-0.0032198727130889893
1774657822317859600,1.898859619140625,0.061532020568847656,-0.015176773071289062,-0.06633304059505463
1774657822327859500,1.908859375,0.03959035873413086,-0.02320575714111328,-0.009681910276412964
1774657822337859600,1.918859619140625,-0.10989713668823242,-0.006117820739746094,0.037181317806243896
1774657822347859500,1.928859375,0.06297016143798828,0.001529693603515625,-0.04606793075799942
1774657822357859600,1.938859619140625,0.014276742935180664,-0.013788223266601562,-0.047217294573783875
1774657822367859500,1.948859375,-0.10336470603942871,0.034644126892089844,0.06416963040828705
1774657822377859600,1.958859619140625,0.03996014595031738,-0.03123950958251953,0.04708164185285568
1774657822387859500,1.968859375,-0.005517482757568359,0.031023025512695312,-0.01647970825433731
1774657822397859600,1.978859619140625,0.0013344287872314453,0.009755134582519531,0.022079117596149445
1774657822407859500,1.988859375,0.0025513172149658203,0.002246856689453125,0.06280998885631561
1774657822417859600,1.998859619140625,0.00885629653930664,-0.0007333755493164062,0.013566412031650543
1774657822427859500,2.008859375,0.029123306274414062,0.017541885375976562,-0.019609719514846802
1774657822437859600,2.018859619140625,-0.0597376823425293,0.02182292938232422,0.02848624438047409
1774657822447859500,2.028859375,0.06637048721313477,-0.01746845245361328,0.0360698476433754
1774657822457859600,2.038859619140625,-0.044628143310546875,0.0256805419921875,-0.028270483016967773
1774657822467859500,2.048859375,-0.0490872859954834,0.022640228271484375,-0.04070517420768738
1774657822477859600,2.058859619140625,0.037275075912475586,-0.010689735412597656,0.014658607542514801
1774657822487859500,2.068859375,0.018204689025878906,0.01909160614013672,0.015355795621871948
1774657822497859600,2.078859619140625,-0.07791423797607422,0.01299285888671875,-0.032459236681461334
1774657822507859500,2.088859375,-0.04053997993469238,0.010801315307617188,-0.008682772517204285
1774657822517859600,2.098859619140625,0.10421895980834961,-0.03667449951171875,0.05915728956460953
1774657822527859500,2.108859375,-0.033071279525756836,0.010939598083496094,0.007657870650291443
1774657822537859600,2.118859619140625,-0.021723508834838867,0.002422332763671875,-0.03459346294403076
1774657822547859500,2.128859375,0.05905318260192871,-0.033493995666503906,0.0004201531410217285
1774657822557859600,2.138859619140625,-0.07144355773925781,0.026082992553710938,0.031425461173057556
1774657822567859500,2.148859375,0.002811431884765625,0.02946758270263672,-0.013545006513595581
1774657822577859600,2.158859619140625,0.048003196716308594,-0.04067039489746094,-0.004969947040081024
1774657822587859500,2.168859375,-0.016451120376586914,-0.0058040618896484375,0.052332475781440735
1774657822597859600,2.178859619140625,0.04807877540588379,-0.027446746826171875,-0.030872739851474762
1774657822607859500,2.188859375,0.035686492919921875,0.037550926208496094,-0.06317561119794846
1774657822617859600,2.198859619140625,-0.06473517417907715,-0.0032968521118164062,-0.03816593438386917
1774657822627859500,2.208859375,0.10435342788696289,-0.049696922302246094,-0.013069771230220795
1774657822637859600,2.218859619140625,-0.06755995750427246,0.020633697509765625,-0.007636331021785736
1774657822647859500,2.228859375,-0.028301239013671875,-0.001129150390625,-0.04641248285770416
1774657822657859600,2.238859619140625,0.14092135429382324,-0.06550121307373047,0.007980212569236755
1774657822667859500,2.248859375,-0.21468710899353027,0.0757303237915039,0.05137711763381958
1774657822677859600,2.258859619140625,0.11341738700866699,-0.043731689453125,-0.025833353400230408
1774657822687859500,2.268859375,0.015125513076782227,-0.00408172607421875,-0.02846033126115799
1774657822697859600,2.278859619140625,-0.12757229804992676,0.07302188873291016,0.019518420100212097
1774657822707859500,2.288859375,0.12159013748168945,-0.015471458435058594,0.03778105229139328
1774657822717859600,2.298859619140625,-0.10022258758544922,0.05532360076904297,0.053862400352954865
1774657822727859500,2.308859375,-0.019546031951904297,0.052516937255859375,0.012166738510131836
1774657822737859600,2.318859619140625,0.13313841819763184,-0.03266143798828125,-0.004806682467460632
1774657822747859500,2.328859375,-0.06871652603149414,0.043478965759277344,0.03469350188970566
1774657822757859600,2.338859619140625,-0.011299610137939453,0.004657745361328125,-0.018299870193004608
1774657822767859500,2.348859375,0.0960853099822998,-0.0179290771484375,-0.055097028613090515
1774657822777859600,2.358859619140625,-0.12673020362854004,0.05447101593017578,0.014591149985790253
1774657822787859500,2.368859375,0.04913330078125,-0.01780223846435547,0.03377415984869003
1774657822797859600,2.378859619140625,0.003193378448486328,-0.02343463897705078,-0.04544224590063095
1774657822807859500,2.388859375,-0.06970715522766113,-0.010294914245605469,-0.05891053378582001
1774657822817859600,2.398859619140625,0.07443046569824219,-0.045729637145996094,-0.001003272831439972
1774657822827859500,2.408859375,0.054013967514038086,-0.06842803955078125,-0.023539863526821136
1774657822837859600,2.418859619140625,-0.013228416442871094,-0.047570228576660156,-0.024595141410827637
1774657822847859500,2.428859375,-0.013380765914916992,-0.0295562744140625,0.03908860683441162
1774657822857859600,2.438859619140625,-0.00428318977355957,0.0020551681518554688,0.07160767912864685
1774657822867859500,2.448859375,0.024402379989624023,-0.03478431701660156,0.02155722677707672
1774657822877859600,2.458859619140625,0.036492347717285156,-0.010323524475097656,-0.009245015680789948
1774657822887859500,2.468859375,-0.024451732635498047,0.049884796142578125,0.06055941432714462
1774657822897859600,2.478859619140625,0.02671360969543457,0.028443336486816406,0.04151737689971924
1774657822907859500,2.488859375,-0.03912639617919922,0.07943058013916016,0.02785813808441162
1774657822917859600,2.498859619140625,-0.0163266658782959,0.023754119873046875,0.0330963134765625
1774657822927859500,2.508859375,0.003891468048095703,0.015355110168457031,0.02750600129365921
1774657822937859600,2.518859619140625,-0.04661369323730469,-0.0019350051879882812,0.01144775003194809
1774657822947859500,2.528859375,-0.02528214454650879,0.031945228576660156,0.008408337831497192
1774657822957859600,2.538859619140625,0.04462623596191406,-0.028759002685546875,0.007952488958835602
1774657822967859500,2.548859375,0.10117840766906738,-0.1090383529663086,0.049766406416893005
1774657822977859600,2.558859619140625,-0.011183738708496094,-0.01360321044921875,-0.03094075620174408
1774657822987859500,2.568859375,0.021837234497070312,-0.02254772186279297,-0.06590788811445236
1774657822997859600,2.578859619140625,0.16701030731201172,-0.06308650970458984,-0.024906285107135773
1774657823007859500,2.588859375,-0.2136852741241455,0.04387474060058594,0.03878702223300934
1774657823017859600,2.598859619140625,0.1173710823059082,-0.015506744384765625,0.004773132503032684
1774657823027859500,2.608859375,0.09969234466552734,-0.028390884399414062,0.07977265119552612
1774657823037859600,2.618859619140625,-0.2023780345916748,0.16991710662841797,0.1389833390712738
1774657823047859500,2.628859375,0.1410372257232666,-0.08998680114746094,0.055842746049165726
1774657823057859600,2.638859619140625,-0.22620034217834473,0.15329551696777344,0.014073148369789124
1774657823067859500,2.648859375,0.047007083892822266,0.06657981872558594,-0.010838598012924194
1774657823077859600,2.658859619140625,0.16499018669128418,-0.06652545928955078,-0.0006318464875221252
1774657823087859500,2.668859375,-0.3300137519836426,0.1565380096435547,0.013751044869422913
1774657823097859600,2.678859619140625,0.19960641860961914,-0.01314544677734375,0.013511069118976593
1774657823107859500,2.688859375,-0.020763635635375977,-0.039786338806152344,0.006013818085193634
1774657823117859600,2.698859619140625,-0.013814449310302734,-0.012113571166992188,-0.01885196566581726
1774657823127859500,2.708859375,0.24365878105163574,-0.05948352813720703,0.00019302219152450562
1774657823137859600,2.718859619140625,0.09482455253601074,-0.06804370880126953,-0.03787153214216232
1774657823147859500,2.728859375,-0.24170303344726562,0.3884143829345703,-0.013708643615245819
1774657823157859600,2.738859619140625,0.1825568675994873,-0.27695369720458984,-0.04011666774749756
1774657823167859500,2.748859375,-0.14737462997436523,0.011649131774902344,0.08796795457601547
1774657823177859600,2.758859619140625,-0.003940105438232422,-0.015303611755371094,0.13150405883789062
1774657823187859500,2.768859375,0.020310163497924805,0.17400360107421875,-0.03666366636753082
1774657823197859600,2.778859619140625,-0.28803586959838867,0.04098320007324219,0.009519755840301514
1774657823207859500,2.788859375,0.12076354026794434,-0.06299018859863281,0.040970928966999054
1774657823217859600,2.798859619140625,-0.04345583915710449,0.09776020050048828,0.08622519671916962
1774657823227859500,2.808859375,-0.15920758247375488,-0.21638774871826172,-0.05527488887310028
1774657823237859600,2.818859619140625,-0.1759200096130371,0.11798286437988281,-0.1566297560930252
1774657823247859500,2.828859375,0.3578989505767822,-0.3106985092163086,0.14132946729660034
1774657823257859600,2.838859619140625,-0.3001978397369385,0.1844959259033203,0.031994305551052094
1774657823267859500,2.848859375,0.14197182655334473,-0.09128952026367188,-0.251992404460907
1774657823277859600,2.858859619140625,0.2173924446105957,0.006028175354003906,-0.1292511224746704
1774657823287859500,2.868859375,-0.419126033782959,-0.1025543212890625,0.18934465944766998
1774657823297859600,2.878859619140625,0.15665388107299805,-0.10457229614257812,-0.3992088735103607
1774657823307859500,2.888859375,0.06888341903686523,-0.006519317626953125,-0.30633556842803955
1774657823317859600,2.898859619140625,-0.22547602653503418,-0.11667919158935547,0.2903537154197693
1774657823327859500,2.908859375,0.1015322208404541,-0.43329906463623047,0.14385920763015747
1774657823337859600,2.918859619140625,0.1081383228302002,0.33966732025146484,-0.46019840240478516
1774657823347859500,2.928859375,-0.0713505744934082,-0.09497356414794922,-0.1383429616689682
1774657823357859600,2.938859619140625,0.34290528297424316,0.07406139373779297,0.30607539415359497
1774657823367859500,2.948859375,-0.2674696445465088,0.2014150619506836,0.14859230816364288
1774657823377859600,2.958859619140625,-0.02324366569519043,-0.07128620147705078,-0.17288315296173096
1774657823387859500,2.968859375,-0.16390562057495117,-0.005747795104980469,0.21163007616996765
1774657823397859600,2.978859619140625,0.1844463348388672,0.028695106506347656,0.23940962553024292
1774657823407859500,2.988859375,0.2166304588317871,-0.14893817901611328,-0.047186098992824554
1774657823417859600,2.998859619140625,-0.363478422164917,0.2608203887939453,-0.05047186464071274
1774657823427859500,3.008859375,0.21868634223937988,-0.12109375,0.36819279193878174
1774657823437859600,3.018859619140625,-0.02587604522705078,-0.07890796661376953,0.47315463423728943
1774657823447859500,3.028859375,0.022791147232055664,0.30612850189208984,-0.5767670273780823
1774657823457859600,3.038859619140625,0.4884989261627197,-0.4721508026123047,-0.3483445644378662
1774657823467859500,3.048859375,-0.638836145401001,-0.0018949508666992188,0.13497859239578247
1774657823477859600,3.058859619140625,-0.033330678939819336,-0.0926961898803711,-0.2344951182603836
1774657823487859500,3.068859375,0.17813992500305176,-0.27811622619628906,-0.280251681804657
1774657823497859600,3.078859619140625,-0.4152412414550781,0.37589073181152344,0.13759687542915344
1774657823507859500,3.088859375,0.6094233989715576,-0.23316192626953125,0.13937273621559143
1774657823517859600,3.098859619140625,-0.13872504234313965,-0.0633230209350586,-0.2641483247280121
1774657823527859500,3.108859375,-0.24573159217834473,0.07674217224121094,-0.20601141452789307
1774657823537859600,3.118859619140625,0.7539260387420654,-0.0287628173828125,0.020132750272750854
1774657823547859500,3.128859375,-0.3627951145172119,-0.11381816864013672,-0.005434513092041016
1774657823557859600,3.138859619140625,-0.00599980354309082,-0.2175140380859375,-0.09968943148851395
1774657823567859500,3.148859375,-0.12456583976745605,-0.09311199188232422,-0.2996535897254944
1774657823577859600,3.158859619140625,0.004025936126708984,0.0344390869140625,-0.08262570202350616
1774657823587859500,3.168859375,0.14477205276489258,-0.11105632781982422,0.14002087712287903
1774657823597859600,3.178859619140625,-0.30083370208740234,0.06800079345703125,-0.10887955129146576
1774657823607859500,3.188859375,0.16518044471740723,-0.00041294097900390625,-0.3023122549057007
1774657823617859600,3.198859619140625,-0.12065744400024414,0.0926809310913086,0.12336188554763794
1774657823627859500,3.208859375,0.033951759338378906,-0.036151885986328125,0.23962002992630005
1774657823637859600,3.218859619140625,0.04289126396179199,0.04100322723388672,-0.13720382750034332
1774657823647859500,3.228859375,-0.137343168258667,0.1191253662109375,-0.13441027700901031
1774657823657859600,3.238859619140625,0.18205022811889648,-0.10454654693603516,0.24018800258636475
1774657823667859500,3.248859375,-0.1136772632598877,0.03708839416503906,0.08862870186567307
1774657823677859600,3.258859619140625,-0.038239479064941406,0.07542037963867188,-0.2910507321357727
1774657823687859500,3.268859375,0.029107093811035156,-0.03136157989501953,0.004020988941192627
1774657823697859600,3.278859619140625,-0.00625300407409668,0.056682586669921875,0.347628116607666
1774657823707859500,3.288859375,0.08544921875,-0.0021562576293945312,0.021820068359375
1774657823717859600,3.298859619140625,-0.08968472480773926,0.037955284118652344,-0.17440886795520782
1774657823727859500,3.308859375,0.09857678413391113,0.0025234222412109375,0.10470758378505707
1774657823737859600,3.318859619140625,0.009897947311401367,-0.020416259765625,0.1589096486568451
1774657823747859500,3.328859375,-0.07176399230957031,0.036090850830078125,-0.16461455821990967
1774657823757859600,3.338859619140625,-0.0351107120513916,0.006062507629394531,-0.13168348371982574
1774657823767859500,3.348859375,0.045154571533203125,-0.016732215881347656,0.18174614012241364
1774657823777859600,3.358859619140625,-0.03138422966003418,0.016175270080566406,0.11447271704673767
1774657823787859500,3.368859375,-0.07033467292785645,0.0389862060546875,-0.13348020613193512
1774657823797859600,3.378859619140625,0.11175274848937988,0.01285552978515625,-0.014057010412216187
1774657823807859500,3.388859375,-0.01543116569519043,-0.0030679702758789062,0.15615777671337128
1774657823817859600,3.398859619140625,0.03146505355834961,0.0011014938354492188,-0.007523894309997559
1774657823827859500,3.408859375,0.021799325942993164,0.023988723754882812,-0.14927278459072113
1774657823837859600,3.418859619140625,-0.015627622604370117,-0.02016162872314453,0.031614936888217926
1774657823847859500,3.428859375,-0.053322792053222656,0.020994186401367188,0.11675946414470673
1774657823857859600,3.438859619140625,0.06657528877258301,-0.005909919738769531,-0.056130170822143555
1774657823867859500,3.448859375,-0.05292868614196777,-0.0034799575805664062,-0.06993058323860168
1774657823877859600,3.458859619140625,0.041172027587890625,0.010095596313476562,0.13674360513687134
1774657823887859500,3.468859375,-0.06409811973571777,0.06388378143310547,0.059803303331136703
1774657823897859600,3.478859619140625,0.18285489082336426,-0.06292724609375,-0.04784833639860153
1774657823907859500,3.488859375,-0.26647043228149414,0.09852313995361328,0.03948546200990677
1774657823917859600,3.498859619140625,0.13143324851989746,-0.04044818878173828,0.04060273617506027
1774657823927859500,3.508859375,0.09150147438049316,-0.011304855346679688,-0.03870381414890289
1774657823937859600,3.518859619140625,-0.23885011672973633,0.08762073516845703,0.00971861183643341
1774657823947859500,3.528859375,0.20297026634216309,-0.07506179809570312,0.034278564155101776
1774657823957859600,3.538859619140625,-0.021414995193481445,0.018514633178710938,0.04729747027158737
1774657823967859500,3.548859375,-0.08016371726989746,0.06084918975830078,-0.001261010766029358
1774657823977859600,3.558859619140625,0.08276057243347168,-0.016504287719726562,-0.05446238815784454
1774657823987859500,3.568859375,-0.07393145561218262,0.05652141571044922,-0.011388599872589111
1774657823997859600,3.578859619140625,0.04233264923095703,0.0045108795166015625,-0.014510996639728546
1774657824007859500,3.588859375,0.0008378028869628906,-0.0049915313720703125,0.016184628009796143
1774657824017859600,3.598859619140625,-0.06614518165588379,0.036467552185058594,0.010817348957061768
1774657824027859500,3.608859375,0.10406494140625,-0.03066253662109375,-0.014415666460990906
1774657824037859600,3.618859619140625,-0.06209540367126465,0.02719593048095703,0.04550144821405411
1774657824047859500,3.628859375,0.015053987503051758,-0.009042739868164062,0.011357270181179047
1774657824057859600,3.638859619140625,0.05203104019165039,-0.0067195892333984375,-0.04490203410387039
1774657824067859500,3.648859375,-0.061861276626586914,0.02804851531982422,0.008525237441062927
1774657824077859600,3.658859619140625,0.04105949401855469,-0.01953887939453125,0.04374917596578598
1774657824087859500,3.668859375,-0.03834128379821777,0.030190467834472656,-0.00910014659166336
1774657824097859600,3.678859619140625,-0.014836788177490234,-0.004607200622558594,0.000974699854850769
1774657824107859500,3.688859375,0.013985633850097656,0.0009756088256835938,0.08118516206741333
1774657824117859600,3.698859619140625,-0.03130674362182617,0.02592754364013672,0.029438205063343048
1774657824127859500,3.708859375,0.006701469421386719,0.006098747253417969,-0.06537814438343048
1774657824137859600,3.718859619140625,0.01709723472595215,0.016681671142578125,-0.014068283140659332
1774657824147859500,3.728859375,-0.012562036514282227,0.011576652526855469,0.02045053243637085
1774657824157859600,3.738859619140625,0.010230541229248047,0.011366844177246094,-0.05010227859020233
1774657824167859500,3.748859375,0.018929004669189453,0.00748443603515625,-0.06346786022186279
1774657824177859600,3.758859619140625,-0.013263463973999023,0.0019941329956054688,0.02752118557691574
1774657824187859500,3.768859375,0.015202760696411133,-0.0044841766357421875,0.012542851269245148
1774657824197859600,3.778859619140625,-0.00013947486877441406,0.021394729614257812,-0.060891442000865936
1774657824207859500,3.788859375,0.015368938446044922,0.0018358230590820312,-0.015148065984249115
1774657824217859600,3.798859619140625,-0.029902935028076172,0.0005025863647460938,0.03829697519540787
1774657824227859500,3.808859375,0.04403996467590332,0.0006799697875976562,0.007650844752788544
1774657824237859600,3.818859619140625,-0.003739595413208008,0.016313552856445312,-0.005205318331718445
1774657824247859500,3.828859375,-0.023205041885375977,0.023256301879882812,0.03321768343448639
1774657824257859600,3.838859619140625,0.04349827766418457,-0.011510848999023438,0.06707558035850525
1774657824267859500,3.848859375,-0.01697707176208496,0.017435073852539062,0.04467616230249405
1774657824277859600,3.858859619140625,-0.004281520843505859,0.018693923950195312,0.017186284065246582
1774657824287859500,3.868859375,0.027051687240600586,0.0012617111206054688,0.020761996507644653
1774657824297859600,3.878859619140625,0.0003867149353027344,0.010806083679199219,0.013750873506069183
1774657824307859500,3.888859375,0.0067539215087890625,0.012251853942871094,-0.003800131380558014
1774657824317859600,3.898859619140625,-0.006054878234863281,-0.0033731460571289062,0.009449005126953125
1774657824327859500,3.908859375,0.014845132827758789,0.005566596984863281,0.036949485540390015
1774657824337859600,3.918859619140625,0.04383277893066406,-0.012750625610351562,0.01744251698255539
1774657824347859500,3.928859375,-0.028751373291015625,0.011201858520507812,-0.024503499269485474
1774657824357859600,3.938859619140625,0.045610666275024414,-0.013202667236328125,-0.02580469846725464
1774657824367859500,3.948859375,-0.013794422149658203,0.0014753341674804688,0.012029044330120087
1774657824377859600,3.958859619140625,-0.05391883850097656,0.018866539001464844,0.010709352791309357
1774657824387859500,3.968859375,0.017843246459960938,-0.01813030242919922,-0.003153592348098755
1774657824397859600,3.978859619140625,-0.033826589584350586,-0.020918846130371094,0.008192770183086395
1774657824407859500,3.988859375,0.028548479080200195,-0.035979270935058594,0.01738274097442627
1774657824417859600,3.998859619140625,-0.024685144424438477,-0.00357818603515625,0.002302117645740509
1774657824427859500,4.008859375,-0.019762277603149414,0.005213737487792969,0.006618857383728027
1774657824437859600,4.018859619140625,0.025553464889526367,-0.014252662658691406,0.03044973313808441
1774657824447859500,4.028859375,-0.03755998611450195,0.03724384307861328,0.02537919580936432
1774657824457859600,4.038859619140625,0.04240727424621582,-0.01318359375,-0.010206207633018494
1774657824467859500,4.048859375,-0.0006382465362548828,0.017418861389160156,-0.010600365698337555
1774657824477859600,4.058859619140625,-0.011018753051757812,0.025644302368164062,0.034568823873996735
1774657824487859500,4.068859375,0.01033639907836914,0.012983322143554688,0.008988089859485626
1774657824497859600,4.078859619140625,-0.024019479751586914,0.0322418212890625,-0.023602180182933807
1774657824507859500,4.088859375,-0.016558170318603516,0.022635459899902344,-0.008418291807174683
1774657824517859600,4.098859619140625,-0.004089832305908203,0.009604454040527344,-0.0008397921919822693
1774657824527859500,4.108859375,0.02197122573852539,-0.005290031433105469,-0.013289883732795715
1774657824537859600,4.118859619140625,0.010023832321166992,0.012331962585449219,-0.02943573147058487
1774657824547859500,4.128859375,0.03339958190917969,-0.018299102783203125,-0.012323416769504547
1774657824557859600,4.138859619140625,-0.00986790657043457,-0.0069255828857421875,-0.020022839307785034
1774657824567859500,4.148859375,0.0016629695892333984,-0.0022411346435546875,-0.01355726271867752
1774657824577859600,4.158859619140625,-0.04740619659423828,-0.0038957595825195312,0.03360173851251602
1774657824587859500,4.168859375,-0.00777745246887207,-0.027683258056640625,0.023731373250484467
1774657824597859600,4.178859619140625,0.03098607063293457,-0.03715801239013672,-0.03989018499851227
1774657824607859500,4.188859375,-0.05194902420043945,0.02007293701171875,-0.0057974159717559814
1774657824617859600,4.198859619140625,0.021819353103637695,0.011460304260253906,0.001305416226387024
1774657824627859500,4.208859375,-0.03632783889770508,0.005558967590332031,-0.02459275722503662
1774657824637859600,4.218859619140625,0.13269567489624023,-0.04962730407714844,0.0063190758228302
1774657824647859500,4.228859375,-0.08692622184753418,0.046492576599121094,0.058269187808036804
1774657824657859600,4.238859619140625,0.02741241455078125,0.0032262802124023438,0.001978658139705658
1774657824667859500,4.248859375,0.12413454055786133,-0.02753448486328125,-0.031926028430461884
1774657824677859600,4.258859619140625,-0.19928836822509766,0.10234355926513672,0.022325672209262848
1774657824687859500,4.268859375,0.14774703979492188,-0.052596092224121094,0.01138366013765335
1774657824697859600,4.278859619140625,-0.08335137367248535,0.02491283416748047,-0.03857874870300293
1774657824707859500,4.288859375,-0.04572010040283203,0.03293895721435547,-0.031046688556671143
1774657824717859600,4.298859619140625,0.07079887390136719,-0.026208877563476562,0.035192348062992096
1774657824727859500,4.308859375,-0.07668352127075195,0.014889717102050781,0.025462612509727478
1774657824737859600,4.318859619140625,0.11051678657531738,-0.06516170501708984,-0.07358124107122421
1774657824747859500,4.328859375,-0.01895761489868164,-0.0008792877197265625,0.02844598889350891
1774657824757859600,4.338859619140625,-0.015105724334716797,-0.006256103515625,0.09268826246261597
1774657824767859500,4.348859375,0.014315128326416016,-0.030547142028808594,-0.04983898997306824
1774657824777859600,4.358859619140625,-0.09751296043395996,0.012495994567871094,-0.05356978625059128
1774657824787859500,4.368859375,-0.0039789676666259766,-0.019820213317871094,0.08644353598356247
1774657824797859600,4.378859619140625,-0.04886007308959961,-0.02821636199951172,0.09929139912128448
1774657824807859500,4.388859375,-0.062401533126831055,0.025254249572753906,-0.04225314408540726
1774657824817859600,4.398859619140625,0.08413553237915039,-0.031084060668945312,-0.00809437781572342
1774657824827859500,4.408859375,-0.06012749671936035,0.012854576110839844,0.1201363205909729
1774657824837859600,4.418859619140625,0.09431886672973633,-0.027337074279785156,-0.018821991980075836
1774657824847859500,4.428859375,0.023822307586669922,0.03247547149658203,-0.11493458598852158
1774657824857859600,4.438859619140625,-0.016926288604736328,0.04729270935058594,0.045084185898303986
1774657824867859500,4.448859375,0.09453463554382324,-0.0039424896240234375,0.10587073117494583
1774657824877859600,4.458859619140625,-0.08967232704162598,0.01513671875,-0.012963205575942993
1774657824887859500,4.468859375,0.02849268913269043,-0.0627431869506836,-0.05055469274520874
1774657824897859600,4.478859619140625,-0.07846784591674805,0.18657398223876953,-0.09195654094219208
1774657824907859500,4.488859375,0.31656408309936523,-0.21915435791015625,-0.01183745265007019
1774657824917859600,4.498859619140625,-0.44107675552368164,0.1778249740600586,-0.04894356429576874
1774657824927859500,4.508859375,0.1502060890197754,-0.03060436248779297,-0.08422818779945374
1774657824937859600,4.518859619140625,0.10569024085998535,-0.050952911376953125,0.012917935848236084
1774657824947859500,4.528859375,-0.317249059677124,0.13399887084960938,0.12407094240188599
1774657824957859600,4.538859619140625,0.23566436767578125,-0.07096195220947266,-0.024689912796020508
1774657824967859500,4.548859375,-0.06178164482116699,0.02170562744140625,-0.04237367957830429
1774657824977859600,4.558859619140625,-0.0431973934173584,0.032039642333984375,0.0460793673992157
1774657824987859500,4.568859375,0.08432292938232422,-0.05002593994140625,0.03922855854034424
1774657824997859600,4.578859619140625,-0.08929181098937988,0.06315422058105469,-0.0608532577753067
1774657825007859500,4.588859375,0.1017298698425293,-0.047562599182128906,-0.06380834430456161
1774657825017859600,4.598859619140625,-0.05958080291748047,0.05471229553222656,0.08606477081775665
1774657825027859500,4.608859375,0.01161336898803711,-0.01615619659423828,0.04452037811279297
1774657825037859600,4.618859619140625,0.07586526870727539,-0.010575294494628906,-0.11543881893157959
1774657825047859500,4.628859375,-0.12409853935241699,0.06532001495361328,0.011403091251850128
1774657825057859600,4.638859619140625,0.06425595283508301,-0.033057212829589844,0.09300398826599121
1774657825067859500,4.648859375,0.06474661827087402,0.0008401870727539062,-0.026313453912734985
1774657825077859600,4.658859619140625,-0.010560035705566406,0.050696372985839844,-0.09866499155759811
1774657825087859500,4.668859375,0.12110185623168945,-0.05481433868408203,0.09068065136671066
1774657825097859600,4.678859619140625,-0.035082101821899414,0.008318901062011719,0.13236917555332184
1774657825107859500,4.688859375,0.04585075378417969,-0.0036029815673828125,-0.08967754244804382
1774657825117859600,4.698859619140625,0.00942230224609375,0.018708229064941406,-0.060124434530735016
1774657825127859500,4.708859375,-0.08182191848754883,0.014954566955566406,0.09232521802186966
1774657825137859600,4.718859619140625,0.03409600257873535,-0.04504203796386719,-0.0248122438788414
1774657825147859500,4.728859375,-0.11379408836364746,0.03513145446777344,-0.11821998655796051
1774657825157859600,4.738859619140625,-0.0063648223876953125,-0.030492782592773438,0.024723462760448456
1774657825167859500,4.748859375,0.051360368728637695,-0.03556537628173828,0.09162721782922745
1774657825177859600,4.758859619140625,0.014237403869628906,-0.03510284423828125,-0.0967344120144844
1774657825187859500,4.768859375,0.07087039947509766,-0.023858070373535156,-0.10424568504095078
1774657825197859600,4.778859619140625,-0.00848841667175293,0.00205230712890625,0.053352855145931244
1774657825207859500,4.788859375,0.12384390830993652,-0.015411376953125,0.016644500195980072
1774657825217859600,4.798859619140625,-0.011186599731445312,0.012925148010253906,-0.08922287821769714
1774657825227859500,4.808859375,0.05589127540588379,-0.009389877319335938,-0.029184490442276
1774657825237859600,4.818859619140625,-0.0069732666015625,-0.012464523315429688,0.0977461114525795
1774657825247859500,4.828859375,-0.06147408485412598,0.009522438049316406,0.006984345614910126
1774657825257859600,4.838859619140625,-0.08919429779052734,0.02783489227294922,-0.05349746346473694
1774657825267859500,4.848859375,-0.09880685806274414,0.023855209350585938,0.07385651767253876
1774657825277859600,4.858859619140625,-0.011071205139160156,0.0030879974365234375,0.1335652768611908
1774657825287859500,4.868859375,-0.0632622241973877,0.04534339904785156,0.025300845503807068
1774657825297859600,4.878859619140625,0.0626671314239502,0.018797874450683594,-0.039009079337120056
1774657825307859500,4.888859375,0.12354135513305664,-0.0063037872314453125,0.026477672159671783
1774657825317859600,4.898859619140625,0.041133880615234375,0.013035774230957031,0.05737513303756714
1774657825327859500,4.908859375,0.07657909393310547,0.0021314620971679688,-0.021402783691883087
1774657825337859600,4.918859619140625,0.11322617530822754,-0.026413917541503906,-0.00017046183347702026
1774657825347859500,4.928859375,-0.061406612396240234,0.0280609130859375,0.05528800189495087
1774657825357859600,4.938859619140625,-0.009543180465698242,0.0045871734619140625,-0.008393242955207825
1774657825367859500,4.948859375,-0.038042545318603516,0.02580547332763672,-0.10686944425106049
1774657825377859600,4.958859619140625,-0.052774667739868164,0.018634796142578125,-0.06867848336696625
1774657825387859500,4.968859375,-0.05256032943725586,0.04612159729003906,0.0037097707390785217
1774657825397859600,4.978859619140625,-0.037020206451416016,-0.013147354125976562,-0.004487887024879456
1774657825407859500,4.988859375,0.0012297630310058594,-0.02745342254638672,-0.020249053835868835
1774657825417859600,4.998859619140625,-0.05780649185180664,-0.000522613525390625,0.001461714506149292
1774657825427859500,5.008859375,0.014268875122070312,-0.04380321502685547,0.0059777796268463135
1774657825437859600,5.018859619140625,-0.0084381103515625,-0.021326065063476562,0.021839730441570282
1774657825447859500,5.028859375,0.013424396514892578,-0.01977825164794922,0.0077395960688591
1774657825457859600,5.038859619140625,-0.011748790740966797,0.011857032775878906,-0.004287660121917725
1774657825467859500,5.048859375,0.03098154067993164,-0.0052509307861328125,0.027573734521865845
1774657825477859600,5.058859619140625,0.002132892608642578,0.01781749725341797,0.08322816342115402
1774657825487859500,5.068859375,0.0020503997802734375,0.01816558837890625,0.04105176776647568
1774657825497859600,5.078859619140625,0.033173322677612305,0.014191627502441406,-0.046857573091983795
1774657825507859500,5.088859375,-0.07153940200805664,0.04978752136230469,-0.006701484322547913
1774657825517859600,5.098859619140625,0.00628352165222168,0.0137481689453125,0.026265554130077362
1774657825527859500,5.108859375,-0.0027780532836914062,0.023903846740722656,-0.027311190962791443
1774657825537859600,5.118859619140625,-0.001439809799194336,0.04277992248535156,-0.04572921246290207
1774657825547859500,5.128859375,-0.00005125999450683594,-0.04207611083984375,0.019010886549949646
1774657825557859600,5.138859619140625,-0.0019292831420898438,-0.02770519256591797,0.0501801073551178
1774657825567859500,5.148859375,0.10904502868652344,0.019959449768066406,-0.011190153658390045
1774657825577859600,5.158859619140625,-0.026187658309936523,-0.020437240600585938,-0.046431995928287506
1774657825587859500,5.168859375,0.137343168258667,-0.08597946166992188,-0.040960997343063354
1774657825597859600,5.178859619140625,-0.09189391136169434,0.019557952880859375,0.004655502736568451
1774657825607859500,5.188859375,0.004721403121948242,-0.03476905822753906,0.0004472658038139343
1774657825617859600,5.198859619140625,0.022733211517333984,-0.03326988220214844,-0.03787646442651749
1774657825627859500,5.208859375,-0.09597420692443848,-0.024908065795898438,-0.06633816659450531
1774657825637859600,5.218859619140625,-0.025715351104736328,0.01787567138671875,-0.07365883886814117
1774657825647859500,5.228859375,-0.054762840270996094,0.015063285827636719,0.01946716010570526
1774657825657859600,5.238859619140625,-0.03975510597229004,0.05336284637451172,0.0253843292593956
1774657825667859500,5.248859375,0.05577898025512695,0.022502899169921875,-0.047972239553928375
1774657825677859600,5.258859619140625,-0.0617823600769043,0.0634765625,-0.006977766752243042
1774657825687859500,5.268859375,0.0636439323425293,-0.011134147644042969,0.025120101869106293
1774657825697859600,5.278859619140625,0.012292146682739258,0.008380889892578125,-0.050676025450229645
1774657825707859500,5.288859375,-0.08909797668457031,0.039493560791015625,-0.07378561049699783
1774657825717859600,5.298859619140625,0.1000814437866211,-0.06464958190917969,0.038953714072704315
1774657825727859500,5.308859375,-0.012626409530639648,-0.012583732604980469,0.11099251359701157
1774657825737859600,5.318859619140625,0.022938966751098633,-0.015499114990234375,0.0018924102187156677
1774657825747859500,5.328859375,0.08233761787414551,-0.05614280700683594,-0.02721768617630005
1774657825757859600,5.338859619140625,-0.03362226486206055,0.001438140869140625,0.06014794111251831
1774657825767859500,5.348859375,0.015017032623291016,-0.05313682556152344,0.06309418380260468
1774657825777859600,5.358859619140625,-0.10248351097106934,0.020418167114257812,-0.01245347410440445
1774657825787859500,5.368859375,0.03009200096130371,-0.022588729858398438,0.00001475214958190918
1774657825797859600,5.378859619140625,-0.11969184875488281,-0.09138965606689453,0.0817258358001709
1774657825807859500,5.388859375,-0.1319432258605957,0.06937122344970703,0.009095504879951477
1774657825817859600,5.398859619140625,0.24077486991882324,-0.0923013687133789,-0.04836831986904144
1774657825827859500,5.408859375,-0.24946308135986328,0.07178974151611328,-0.02692018449306488
1774657825837859600,5.418859619140625,0.17130565643310547,-0.013831138610839844,-0.05177878588438034
1774657825847859500,5.428859375,0.005129098892211914,0.0063629150390625,-0.020547911524772644
1774657825857859600,5.438859619140625,-0.07524681091308594,0.04845619201660156,0.008632555603981018
1774657825867859500,5.448859375,0.21441936492919922,-0.048664093017578125,-0.03169770538806915
1774657825877859600,5.458859619140625,-0.13423442840576172,0.07650089263916016,0.029861822724342346
1774657825887859500,5.468859375,-0.06697630882263184,0.023520469665527344,0.14458122849464417
1774657825897859600,5.478859619140625,0.1464369297027588,0.04102325439453125,0.18274757266044617
1774657825907859500,5.488859375,-0.15329742431640625,0.11126708984375,0.09049752354621887
1774657825917859600,5.498859619140625,0.011863946914672852,-0.05976104736328125,-0.06265293806791306
1774657825927859500,5.508859375,0.0670163631439209,0.04413127899169922,0.052592553198337555
1774657825937859600,5.518859619140625,-0.17482686042785645,0.0019674301147460938,0.08219768106937408
1774657825947859500,5.528859375,0.2975306510925293,-0.07254505157470703,-0.054381079971790314
1774657825957859600,5.538859619140625,-0.1054842472076416,0.10179615020751953,0.11392664164304733
1774657825967859500,5.548859375,0.01841425895690918,0.007725715637207031,0.21775762736797333
1774657825977859600,5.558859619140625,0.2779672145843506,-0.06767463684082031,-0.0247952938079834
1774657825987859500,5.568859375,-0.06747174263000488,0.08458614349365234,-0.16760122776031494
1774657825997859600,5.578859619140625,0.020959138870239258,0.013486862182617188,0.021916918456554413
1774657826007859500,5.588859375,0.17383980751037598,-0.08844566345214844,0.08014506846666336
1774657826017859600,5.598859619140625,-0.27311110496520996,0.14773941040039062,-0.0915575921535492
1774657826027859500,5.608859375,-0.21554327011108398,0.056639671325683594,-0.08782660961151123
1774657826037859600,5.618859619140625,0.1085054874420166,-0.11641693115234375,0.13327743113040924
1774657826047859500,5.628859375,-0.326632022857666,0.030645370483398438,0.07239746302366257
1774657826057859600,5.638859619140625,0.061722517013549805,-0.09829330444335938,-0.16507486999034882
1774657826067859500,5.648859375,0.04642200469970703,-0.08518695831298828,-0.06496810913085938
1774657826077859600,5.658859619140625,-0.08594632148742676,-0.046875953674316406,0.13157996535301208
1774657826087859500,5.668859375,0.25707197189331055,-0.11224651336669922,-0.018505528569221497
1774657826097859600,5.678859619140625,-0.0646524429321289,0.021148681640625,-0.09681513905525208
1774657826107859500,5.688859375,0.1366734504699707,-0.03310203552246094,0.11554744094610214
1774657826117859600,5.698859619140625,-0.08639216423034668,0.07885456085205078,0.017564229667186737
1774657826127859500,5.708859375,0.2194066047668457,0.09951972961425781,-0.13288819789886475
1774657826137859600,5.718859619140625,0.08879637718200684,0.018385887145996094,-0.05275045335292816
1774657826147859500,5.728859375,-0.24625539779663086,0.009705543518066406,0.050648219883441925
1774657826157859600,5.738859619140625,0.2591416835784912,0.06462478637695312,-0.13839378952980042
1774657826167859500,5.748859375,-0.04297804832458496,-0.00563812255859375,-0.1515294909477234
1774657826177859600,5.758859619140625,-0.3345179557800293,0.1406717300415039,-0.007919996976852417
1774657826187859500,5.768859375,0.15676283836364746,-0.06891918182373047,-0.004209473729133606
1774657826197859600,5.778859619140625,-0.18016862869262695,0.10028934478759766,-0.04008343070745468
1774657826207859500,5.788859375,-0.1974632740020752,0.10376167297363281,0.04118406027555466
1774657826217859600,5.798859619140625,0.3086414337158203,-0.1514596939086914,0.15518926084041595
1774657826227859500,5.808859375,-0.16972661018371582,0.04805564880371094,0.13020415604114532
1774657826237859600,5.818859619140625,0.23842883110046387,-0.12497711181640625,-0.06317687779664993
1774657826247859500,5.828859375,0.051050662994384766,-0.015096664428710938,0.012810714542865753
1774657826257859600,5.838859619140625,-0.08649206161499023,0.021065711975097656,0.11610987037420273
1774657826267859500,5.848859375,0.14303016662597656,-0.08109283447265625,-0.004938982427120209
1774657826277859600,5.858859619140625,-0.09029054641723633,0.038041114807128906,-0.06373395025730133
1774657826287859500,5.868859375,0.0002281665802001953,-0.018266677856445312,-0.022806324064731598
1774657826297859600,5.878859619140625,-0.02318716049194336,0.0036611557006835938,-0.02489864081144333
1774657826307859500,5.888859375,-0.03984999656677246,0.0014657974243164062,-0.11379777640104294
1774657826317859600,5.898859619140625,0.10448813438415527,-0.008727073669433594,-0.09225473552942276
1774657826327859500,5.908859375,-0.08684492111206055,0.05455493927001953,-0.030169576406478882
1774657826337859600,5.918859619140625,0.07033634185791016,-0.00330352783203125,-0.04992634057998657
1774657826347859500,5.928859375,0.14974451065063477,-0.016773223876953125,-0.027236655354499817
1774657826357859600,5.938859619140625,-0.1474134922027588,0.08937263488769531,0.050702355802059174
1774657826367859500,5.948859375,0.1522235870361328,-0.0770263671875,-0.016718395054340363
1774657826377859600,5.958859619140625,-0.029870986938476562,-0.03348350524902344,-0.047570787370204926
1774657826387859500,5.968859375,-0.08926010131835938,-0.023374557495117188,0.04253161698579788
1774657826397859600,5.978859619140625,0.0854806900024414,-0.11258697509765625,0.13547463715076447
1774657826407859500,5.988859375,-0.010306835174560547,-0.03518867492675781,0.1434706598520279
1774657826417859600,5.998859619140625,-0.1362295150756836,0.024145126342773438,0.06999033689498901
1774657826427859500,6.008859375,-0.05267047882080078,-0.06326770782470703,-0.019464395940303802
1774657826437859600,6.018859619140625,0.12805628776550293,0.07246685028076172,0.029636502265930176
1774657826447859500,6.028859375,-0.2640385627746582,0.16279125213623047,0.08092459291219711
1774657826457859600,6.038859619140625,0.06764984130859375,-0.011879920959472656,-0.02138947695493698
1774657826467859500,6.048859375,0.3727850914001465,-0.05221748352050781,-0.1225125715136528
1774657826477859600,6.058859619140625,-0.3654470443725586,0.1730327606201172,-0.035523682832717896
1774657826487859500,6.068859375,0.1315011978149414,-0.1038370132446289,-0.03603865206241608
1774657826497859600,6.078859619140625,0.18157076835632324,-0.07523155212402344,-0.09485286474227905
1774657826507859500,6.088859375,-0.3304862976074219,0.15426349639892578,0.007484212517738342
1774657826517859600,6.098859619140625,0.04208183288574219,-0.07151222229003906,0.027768120169639587
1774657826527859500,6.108859375,0.08672928810119629,-0.10984230041503906,0.009675301611423492
1774657826537859600,6.118859619140625,-0.14146924018859863,0.08017635345458984,-0.12907831370830536
1774657826547859500,6.128859375,0.06073355674743652,-0.051448822021484375,-0.056074149906635284
1774657826557859600,6.138859619140625,0.2305893898010254,-0.04131031036376953,0.2514380216598511
1774657826567859500,6.148859375,0.17175912857055664,-0.04990863800048828,0.24358895421028137
1774657826577859600,6.158859619140625,-0.15466976165771484,0.0887155532836914,0.003306157886981964
1774657826587859500,6.168859375,0.32143211364746094,-0.07555103302001953,-0.044739268720149994
1774657826597859600,6.178859619140625,0.07850861549377441,-0.0013713836669921875,0.12939214706420898
1774657826607859500,6.188859375,-0.45597386360168457,0.1800394058227539,-0.06928270310163498
1774657826617859600,6.198859619140625,0.4039757251739502,-0.06353950500488281,-0.1796623319387436
1774657826627859500,6.208859375,-0.43402767181396484,0.20505046844482422,0.13027963042259216
1774657826637859600,6.218859619140625,-0.17025279998779297,0.0028486251831054688,-0.06676164269447327
1774657826647859500,6.228859375,0.21805214881896973,-0.03894329071044922,-0.3210010230541229
1774657826657859600,6.238859619140625,-0.351959228515625,0.04842185974121094,-0.04319518804550171
1774657826667859500,6.248859375,0.3417518138885498,-0.2508115768432617,0.1366686224937439
1774657826677859600,6.258859619140625,0.10140800476074219,-0.10995769500732422,-0.011475160717964172
1774657826687859500,6.268859375,-0.22847461700439453,0.044791221618652344,-0.04497251659631729
1774657826697859600,6.278859619140625,0.48363423347473145,-0.22736549377441406,0.07583802938461304
1774657826707859500,6.288859375,-0.06248903274536133,0.00007343292236328125,0.12505145370960236
1774657826717859600,6.298859619140625,-0.18271231651306152,0.10903072357177734,-0.04376983642578125
1774657826727859500,6.308859375,0.17281079292297363,-0.03922748565673828,0.0004990622401237488
1774657826737859600,6.318859619140625,-0.4439096450805664,0.048438072204589844,0.15731807053089142
1774657826747859500,6.328859375,-0.28234338760375977,-0.05939960479736328,-0.08951257169246674
1774657826757859600,6.338859619140625,0.3765239715576172,0.13701629638671875,-0.134374737739563
1774657826767859500,6.348859375,-0.30075764656066895,-0.00383758544921875,-0.0018236935138702393
1774657826777859600,6.358859619140625,0.44863224029541016,-0.17403507232666016,-0.04141660034656525
1774657826787859500,6.368859375,-0.34853267669677734,0.25863075256347656,-0.049602799117565155
1774657826797859600,6.378859619140625,0.32529520988464355,-0.05060768127441406,-0.13324184715747833
1774657826807859500,6.388859375,0.21304583549499512,-0.00576019287109375,-0.07280389964580536
1774657826817859600,6.398859619140625,-0.3326704502105713,0.11796855926513672,-0.09541210532188416
1774657826827859500,6.408859375,0.5640430450439453,-0.24941635131835938,-0.175803080201149
1774657826837859600,6.418859619140625,-0.4976675510406494,0.1401987075805664,0.019978336989879608
1774657826847859500,6.428859375,0.14380192756652832,-0.1269664764404297,0.04737886041402817
1774657826857859600,6.438859619140625,0.0944514274597168,-0.02550792694091797,0.0463067889213562
1774657826867859500,6.448859375,-0.3519740104675293,0.03036212921142578,0.019080445170402527
1774657826877859600,6.458859619140625,0.2674098014831543,-0.11800479888916016,0.008790090680122375
1774657826887859500,6.468859375,-0.23431992530822754,0.13743209838867188,0.14641468226909637
1774657826897859600,6.478859619140625,0.023908376693725586,-0.03776741027832031,0.07344385981559753
1774657826907859500,6.488859375,0.19852757453918457,-0.01776123046875,-0.010687857866287231
1774657826917859600,6.498859619140625,-0.23415088653564453,0.05188274383544922,0.2049061357975006
1774657826927859500,6.508859375,0.12293195724487305,0.004899024963378906,0.24220910668373108
1774657826937859600,6.518859619140625,0.0772092342376709,0.10024833679199219,0.18764528632164001
1774657826947859500,6.528859375,-0.2373645305633545,0.015790939331054688,0.021163448691368103
1774657826957859600,6.538859619140625,0.286409854888916,-0.10248947143554688,0.02502114325761795
1774657826967859500,6.548859375,-0.18239307403564453,0.162872314453125,-0.05974511802196503
1774657826977859600,6.558859619140625,0.2478349208831787,-0.07451343536376953,-0.22376853227615356
1774657826987859500,6.568859375,0.03806281089782715,0.04218578338623047,-0.06444502621889114
1774657826997859600,6.578859619140625,-0.12133097648620605,0.10751914978027344,-0.049647390842437744
1774657827007859500,6.588859375,0.37041211128234863,-0.15612316131591797,-0.10854277014732361
1774657827017859600,6.598859619140625,-0.2093207836151123,0.0627603530883789,0.011181071400642395
1774657827027859500,6.608859375,0.3797745704650879,-0.2377490997314453,-0.03039943426847458
1774657827037859600,6.618859619140625,-0.08146786689758301,0.0019483566284179688,-0.05211286246776581
1774657827047859500,6.628859375,-0.6182775497436523,0.06498241424560547,-0.11196060478687286
1774657827057859600,6.638859619140625,0.2559971809387207,-0.15239620208740234,-0.05510751157999039
1774657827067859500,6.648859375,-0.414353609085083,0.24897193908691406,0.03563028573989868
1774657827077859600,6.658859619140625,-0.09184432029724121,-0.09461212158203125,0.0973377376794815
1774657827087859500,6.668859375,-0.08037185668945312,0.033425331115722656,0.04556306451559067
1774657827097859600,6.678859619140625,-0.13120269775390625,0.04107666015625,0.15296651422977448
1774657827107859500,6.688859375,0.10817837715148926,-0.042720794677734375,0.12809713184833527
1774657827117859600,6.698859619140625,0.11036539077758789,0.05241107940673828,-0.035714954137802124
1774657827127859500,6.708859375,-0.08696889877319336,0.05097484588623047,-0.056164830923080444
1774657827137859600,6.718859619140625,0.06299781799316406,-0.05142498016357422,-0.07372491806745529
1774657827147859500,6.728859375,-0.04027581214904785,0.07848834991455078,-0.06212679296731949
1774657827157859600,6.738859619140625,-0.0034122467041015625,-0.013007164001464844,-0.08222126215696335
1774657827167859500,6.748859375,0.15137696266174316,-0.07425117492675781,-0.1332073211669922
1774657827177859600,6.758859619140625,0.06252574920654297,-0.047453880310058594,-0.08609917014837265
1774657827187859500,6.768859375,0.31755542755126953,-0.1418142318725586,-0.04938868433237076
1774657827197859600,6.778859619140625,0.002429485321044922,0.061133384704589844,0.009343132376670837
1774657827207859500,6.788859375,0.03477621078491211,0.029191970825195312,0.025766372680664062
1774657827217859600,6.798859619140625,0.20708250999450684,0.08988666534423828,-0.058722734451293945
1774657827227859500,6.808859375,-0.2886524200439453,0.07883834838867188,0.053639382123947144
1774657827237859600,6.818859619140625,-0.23409271240234375,-0.014100074768066406,-0.002668313682079315
1774657827247859500,6.828859375,-0.050069570541381836,0.12635326385498047,0.18851488828659058
1774657827257859600,6.838859619140625,-0.25934624671936035,0.056738853454589844,0.2943480610847473
1774657827267859500,6.848859375,0.20314455032348633,-0.1265869140625,0.17203965783119202
1774657827277859600,6.858859619140625,-0.2941725254058838,0.07176971435546875,0.09752988815307617
1774657827287859500,6.868859375,0.20270371437072754,-0.08156204223632812,-0.006023697555065155
1774657827297859600,6.878859619140625,0.1900191307067871,-0.035140037536621094,-0.002626076340675354
1774657827307859500,6.888859375,-0.3597574234008789,0.19571495056152344,-0.07753674685955048
1774657827317859600,6.898859619140625,0.4538860321044922,-0.22274017333984375,-0.1953248828649521
1774657827327859500,6.908859375,-0.1639559268951416,0.07488346099853516,-0.013767257332801819
1774657827337859600,6.918859619140625,-0.23374152183532715,0.019123077392578125,0.04030416160821915
1774657827347859500,6.928859375,0.21312570571899414,-0.1021270751953125,-0.06375684589147568
1774657827357859600,6.938859619140625,-0.21769142150878906,0.12447357177734375,-0.023944750428199768
1774657827367859500,6.948859375,0.009238243103027344,0.05186939239501953,-0.057175591588020325
1774657827377859600,6.958859619140625,0.1266922950744629,0.05540180206298828,-0.13535507023334503
1774657827387859500,6.968859375,0.018725872039794922,0.086761474609375,-0.1358085572719574
1774657827397859600,6.978859619140625,0.054158687591552734,0.09676170349121094,-0.032902009785175323
1774657827407859500,6.988859375,0.0466001033782959,0.03743553161621094,0.03627043962478638
1774657827417859600,6.998859619140625,-0.035094499588012695,0.019201278686523438,0.09729810059070587
1774657827427859500,7.008859375,-0.05586719512939453,0.012526512145996094,0.15042227506637573
1774657827437859600,7.018859619140625,0.14934039115905762,-0.1436300277709961,0.1630438268184662
1774657827447859500,7.028859375,0.10704350471496582,-0.11449146270751953,0.17036303877830505
1774657827457859600,7.038859619140625,0.22783875465393066,-0.10828304290771484,0.06648201495409012
1774657827467859500,7.048859375,-0.1848282814025879,-0.0956411361694336,0.02272622287273407
1774657827477859600,7.058859619140625,-0.29512810707092285,0.1629791259765625,0.2448834925889969
1774657827487859500,7.068859375,0.8917150497436523,-0.08208942413330078,0.02909179776906967
1774657827497859600,7.078859619140625,-0.32982802391052246,0.14776611328125,-0.3408714532852173
1774657827507859500,7.088859375,-0.1557295322418213,0.07531261444091797,-0.11269097775220871
1774657827517859600,7.098859619140625,0.13837528228759766,-0.050698280334472656,0.07987014204263687
1774657827527859500,7.108859375,-0.36473870277404785,0.3592185974121094,-0.15592101216316223
1774657827537859600,7.118859619140625,-0.08174252510070801,0.11363029479980469,-0.1307218074798584
1774657827547859500,7.128859375,-0.2433032989501953,0.22036075592041016,-0.007084578275680542
1774657827557859600,7.138859619140625,-0.43417906761169434,0.217620849609375,-0.08824701607227325
1774657827567859500,7.148859375,0.546738862991333,-0.2569570541381836,-0.24103106558322906
1774657827577859600,7.158859619140625,-0.4259457588195801,0.1868448257446289,0.004138156771659851
1774657827587859500,7.168859375,-0.16578197479248047,-0.11314964294433594,-0.10280092060565948
1774657827597859600,7.178859619140625,1.0569748878479004,-0.4728565216064453,-0.3466886281967163
1774657827607859500,7.188859375,-1.4116096496582031,0.4539299011230469,0.2995694875717163
1774657827617859600,7.198859619140625,1.5927174091339111,-0.4968271255493164,0.370031476020813
1774657827627859500,7.208859375,-0.7423803806304932,0.40734004974365234,0.010231390595436096
1774657827637859600,7.218859619140625,-0.9525496959686279,0.3540534973144531,-0.11070527136325836
1774657827647859500,7.228859375,1.759721040725708,-0.7252130508422852,0.17145314812660217
1774657827657859600,7.238859619140625,-0.9848558902740479,0.5997533798217773,0.614583432674408
1774657827667859500,7.248859375,-0.5845012664794922,0.49399280548095703,-0.1670146882534027
1774657827677859600,7.258859619140625,0.6253206729888916,0.2679624557495117,-0.18896570801734924
1774657827687859500,7.268859375,-1.5199415683746338,0.9849481582641602,0.3667389452457428
1774657827697859600,7.278859619140625,1.4955644607543945,-0.23461151123046875,-0.018582701683044434
1774657827707859500,7.288859375,-0.4453287124633789,0.8715629577636719,-0.34990137815475464
1774657827717859600,7.298859619140625,-1.0218830108642578,1.2480335235595703,-0.08563894033432007
1774657827727859500,7.308859375,0.6588802337646484,0.5899429321289062,-0.03683041036128998
1774657827737859600,7.318859619140625,-0.6716024875640869,1.3420782089233398,-0.1439841091632843
1774657827747859500,7.328859375,-0.5001571178436279,1.3711671829223633,-0.18291465938091278
1774657827757859600,7.338859619140625,0.07600951194763184,1.0733842849731445,-0.07363708317279816
1774657827767859500,7.348859375,-1.0462448596954346,1.5539026260375977,0.059099406003952026
1774657827777859600,7.358859619140625,-0.34340667724609375,1.3475570678710938,-0.13458535075187683
1774657827787859500,7.368859375,-0.12190914154052734,1.1179256439208984,0.04485815018415451
1774657827797859600,7.378859619140625,-0.46846914291381836,1.3239126205444336,0.16251203417778015
1774657827807859500,7.388859375,-1.208026647567749,1.744913101196289,0.19903714954853058
1774657827817859600,7.398859619140625,-1.3141288757324219,1.5748720169067383,-0.05120807886123657
1774657827827859500,7.408859375,-0.5254952907562256,1.6775083541870117,0.12370479106903076
1774657827837859600,7.418859619140625,-6.05271053314209,3.6527786254882812,0.5770876407623291
1774657827847859500,7.428859375,-1.8621821403503418,1.8909673690795898,-0.24671517312526703
1774657827857859600,7.438859619140625,-0.7322194576263428,1.3449115753173828,0.012919634580612183
1774657827867859500,7.448859375,1.1863031387329102,0.16498661041259766,0.5393049716949463
1774657827877859600,7.458859619140625,1.361379623413086,0.23368358612060547,0.1961262971162796
1774657827887859500,7.468859375,1.4340448379516602,0.02252674102783203,-0.37264519929885864
1774657827897859600,7.478859619140625,3.6510262489318848,-0.8108963966369629,-0.04253731667995453
1774657827907859500,7.488859375,3.0707168579101562,-1.1764092445373535,0.4519711136817932
1774657827917859600,7.498859619140625,4.562313556671143,-1.53023099899292,-0.20535831153392792
1774657827927859500,7.508859375,4.545047283172607,-1.491990089416504,-0.578001856803894
1774657827937859600,7.518859619140625,3.1483283042907715,-1.3034377098083496,-0.34665051102638245
1774657827947859500,7.528859375,1.8672385215759277,-0.7670202255249023,0.03354066610336304
1774657827957859600,7.538859619140625,-0.03496551513671875,0.3507099151611328,0.006625697016716003
1774657827967859500,7.548859375,-1.423093318939209,0.9409141540527344,-0.08382260799407959
1774657827977859600,7.558859619140625,-2.529520034790039,1.2903375625610352,0.1570519357919693
1774657827987859500,7.568859375,-3.115645170211792,1.192317008972168,0.23305539786815643
1774657827997859600,7.578859619140625,-2.882047176361084,0.91015625,0.015456289052963257
1774657828007859500,7.588859375,-1.7788336277008057,0.5544843673706055,0.005559459328651428
1774657828017859600,7.598859619140625,-1.1969599723815918,-0.1479654312133789,-0.133208230137825
1774657828027859500,7.608859375,-0.14583492279052734,-0.24004364013671875,-0.04108729958534241
1774657828037859600,7.618859619140625,-0.8183994293212891,0.2791004180908203,0.12230975925922394
1774657828047859500,7.628859375,-1.2551779747009277,0.30869579315185547,0.11374597996473312
1774657828057859600,7.638859619140625,-2.3544816970825195,0.6312856674194336,0.19494493305683136
1774657828067859500,7.648859375,-3.0297763347625732,0.20528316497802734,0.0033148974180221558
1774657828077859600,7.658859619140625,-2.5429861545562744,0.30089282989501953,-0.01739238202571869
1774657828087859500,7.668859375,-2.909184455871582,0.495938777923584,0.1604953110218048
1774657828097859600,7.678859619140625,-2.4974122047424316,-0.3946809768676758,-0.1050504744052887
1774657828107859500,7.688859375,-0.5660524368286133,-0.8893485069274902,-0.28497016429901123
1774657828117859600,7.698859619140625,1.0190787315368652,-2.087885856628418,0.00472809374332428
1774657828127859500,7.708859375,0.7907557487487793,-2.346876621246338,0.08881545811891556
1774657828137859600,7.718859619140625,1.686030387878418,-2.513484477996826,-0.21095934510231018
1774657828147859500,7.728859375,0.882662296295166,-1.4582347869873047,-0.27641761302948
1774657828157859600,7.738859619140625,0.7302560806274414,-2.2759084701538086,0.03856474161148071
1774657828167859500,7.748859375,-0.6225500106811523,-1.452746868133545,0.20695067942142487
1774657828177859600,7.758859619140625,0.08539438247680664,-1.4093241691589355,-0.2558005452156067
1774657828187859500,7.768859375,-1.028101921081543,-1.226499080657959,-0.14458367228507996
1774657828197859600,7.778859619140625,-0.3492870330810547,-1.545546054840088,0.01557379961013794
1774657828207859500,7.788859375,0.0855569839477539,-1.6167259216308594,0.009438231587409973
1774657828217859600,7.798859619140625,-0.1480555534362793,-1.3485198020935059,-0.15617437660694122
1774657828227859500,7.808859375,-0.07160615921020508,-1.1875910758972168,-0.013693511486053467
1774657828237859600,7.818859619140625,-0.46176815032958984,-0.8697528839111328,0.10426990687847137
1774657828247859500,7.828859375,-1.6517462730407715,-0.33006954193115234,0.048136770725250244
1774657828257859600,7.838859619140625,-2.261809825897217,0.0720210075378418,0.06967829167842865
1774657828267859500,7.848859375,-3.4291956424713135,0.581791877746582,0.1906260848045349
1774657828277859600,7.858859619140625,-4.217940807342529,1.068986415863037,0.15939545631408691
1774657828287859500,7.868859375,-4.981071472167969,1.4045000076293945,0.16559025645256042
1774657828297859600,7.878859619140625,-4.878063201904297,1.3882508277893066,0.09351718425750732
1774657828307859500,7.888859375,-3.7508535385131836,0.7504053115844727,0.06802618503570557
1774657828317859600,7.898859619140625,-1.3084931373596191,-1.3630485534667969,-0.4079307019710541
1774657828327859500,7.908859375,36.14051818847656,-17.013996124267578,-5.337283134460449
1774657828337859600,7.918859619140625,16.74397850036621,-5.574065208435059,3.0726046562194824
1774657828347859500,7.928859375,-24.936052322387695,9.330137252807617,2.788031578063965
1774657828357859600,7.938859619140625,-4.075263500213623,3.57033634185791,-3.2611730098724365
1774657828367859500,7.948859375,0.20166969299316406,-0.5005941390991211,-1.4579331874847412
1774657828377859600,7.958859619140625,7.991954326629639,-4.702178001403809,1.8819949626922607
1774657828387859500,7.968859375,5.864289283752441,-2.6258842945098877,1.7872260808944702
1774657828397859600,7.978859619140625,-14.640722274780273,6.56929874420166,-0.4134095013141632
1774657828407859500,7.988859375,5.212945461273193,-0.9988455772399902,-2.7389309406280518
1774657828417859600,7.998859619140625,3.028374195098877,-1.4789752960205078,0.5249175429344177
1774657828427859500,8.008859375,-1.190340518951416,0.29326772689819336,2.9258124828338623
1774657828437859600,8.018859619140626,-0.2919321060180664,0.5569772720336914,-0.2616635859012604
1774657828447859500,8.028859375,-0.9101214408874512,0.4965834617614746,-2.2266111373901367
1774657828457859600,8.038859619140625,2.8381738662719727,-0.977562427520752,0.3277033567428589
1774657828467859500,8.048859375,-1.5646090507507324,0.5658674240112305,1.888561487197876
1774657828477859600,8.058859619140625,0.6716108322143555,-0.3405270576477051,-0.3399398922920227
1774657828487859500,8.068859375,-1.2019290924072266,0.5439071655273438,-1.278784155845642
1774657828497859600,8.078859619140625,0.5045576095581055,-0.5990943908691406,0.17950500547885895
1774657828507859500,8.088859375,-0.0962371826171875,-0.3770289421081543,1.0190272331237793
1774657828517859600,8.098859619140624,-1.1445035934448242,0.25676727294921875,-0.2785443365573883
1774657828527859500,8.108859375,0.905672550201416,-0.7798099517822266,-1.008418083190918
1774657828537859600,8.118859619140625,-1.0669927597045898,-0.059472084045410156,0.1928713619709015
1774657828547859500,8.128859375,0.2845301628112793,-0.6662859916687012,0.4875890016555786
1774657828557859600,8.138859619140625,-0.25493621826171875,-0.27579450607299805,-0.46634238958358765
1774657828567859500,8.148859375,-0.4681835174560547,-0.05962181091308594,-0.5681253671646118
1774657828577859600,8.158859619140625,0.14264440536499023,-0.35329151153564453,0.27950847148895264
1774657828587859500,8.168859375,-0.2914881706237793,-0.10782289505004883,0.35264313220977783
1774657828597859600,8.178859619140624,-0.44135284423828125,-0.026968955993652344,-0.17628753185272217
1774657828607859500,8.188859375,0.1921377182006836,-0.11008119583129883,-0.14224648475646973
1774657828617859600,8.198859619140626,0.15089845657348633,-0.28672122955322266,0.4198845624923706
1774657828627859500,8.208859375,-0.4366731643676758,0.1310124397277832,0.276004433631897
1774657828637859600,8.218859619140625,-0.04852771759033203,0.03403902053833008,-0.1875273883342743
1774657828647859500,8.228859375,0.18706560134887695,-0.06520223617553711,0.09791329503059387
1774657828657859600,8.238859619140625,-0.2898826599121094,0.13588905334472656,0.4028583765029907
1774657828667859500,8.248859375,-0.07414007186889648,0.023494243621826172,0.003265947103500366
1774657828677859600,8.258859619140624,0.6593270301818848,-0.19598674774169922,-0.21419578790664673
1774657828687859500,8.268859375,-0.20140886306762695,0.33412885665893555,0.17539414763450623
1774657828697859600,8.278859619140626,-0.5773963928222656,0.260467529296875,0.1980365663766861
1774657828707859500,8.288859375,-0.06379270553588867,0.037245750427246094,-0.21339452266693115
1774657828717859600,8.298859619140625,1.2521991729736328,-0.6186132431030273,-0.2917373776435852
1774657828727859500,8.308859375,-0.4276418685913086,0.009250640869140625,-0.16708910465240479
1774657828737859600,8.318859619140625,-0.0756993293762207,-0.2283930778503418,-0.275370717048645
1774657828747859500,8.328859375,0.09888076782226562,-0.4500579833984375,-0.13651812076568604
1774657828757859600,8.338859619140624,-0.19493532180786133,-0.2676658630371094,0.05923497676849365
1774657828767859500,8.348859375,-0.5808196067810059,0.21602106094360352,0.2177015095949173
1774657828777859600,8.358859619140626,-0.23050689697265625,-0.19535303115844727,0.12863251566886902
1774657828787859500,8.368859375,-0.32733583450317383,-0.09588336944580078,-0.12692028284072876
1774657828797859600,8.378859619140625,-0.03785419464111328,0.05238056182861328,-0.1381102204322815
1774657828807859500,8.388859375,0.5885686874389648,-0.30347204208374023,0.0775957703590393
1774657828817859600,8.398859619140625,-0.924126148223877,0.35387325286865234,0.08497540652751923
1774657828827859500,8.408859375,0.46190977096557617,0.036548614501953125,-0.14873215556144714
1774657828837859600,8.418859619140624,0.21605825424194336,0.11949872970581055,0.010859847068786621
1774657828847859500,8.428859375,-0.3843817710876465,0.4169306755065918,0.31650903820991516
1774657828857859600,8.438859619140626,0.3596024513244629,0.05303239822387695,0.10129368305206299
1774657828867859500,8.448859375,1.2037382125854492,-0.24157094955444336,-0.09068402647972107
1774657828877859600,8.458859619140625,-0.05898571014404297,0.20460891723632812,0.24273565411567688
1774657828887859500,8.468859375,-0.6172466278076172,0.4424858093261719,0.11709325015544891
1774657828897859600,8.478859619140625,0.6644573211669922,-0.075225830078125,-0.29533255100250244
1774657828907859500,8.488859375,-0.11568641662597656,0.2070484161376953,-0.06333062052726746
1774657828917859600,8.498859619140624,-0.3734917640686035,0.2983241081237793,0.06171679496765137
1774657828927859500,8.508859375,0.35251760482788086,-0.10790252685546875,-0.20984208583831787
1774657828937859600,8.518859619140626,0.06248188018798828,0.07542562484741211,-0.1713791787624359
1774657828947859500,8.528859375,-0.3517122268676758,0.27242517471313477,-0.015016525983810425
1774657828957859600,8.538859619140625,0.521815299987793,-0.2394556999206543,-0.1416265368461609
1774657828967859500,8.548859375,-0.3366999626159668,0.26154184341430664,-0.3139382600784302
1774657828977859600,8.558859619140625,0.09982633590698242,0.025606632232666016,-0.1930912733078003
1774657828987859500,8.568859375,0.5953044891357422,-0.515291690826416,0.019793927669525146
1774657828997859600,8.578859619140625,-0.392209529876709,0.19461631774902344,-0.026624083518981934
1774657829007859500,8.588859375,0.3728823661804199,-0.3001394271850586,-0.13699200749397278
1774657829017859600,8.598859619140624,0.07795572280883789,-0.21115398406982422,0.12651662528514862
1774657829027859500,8.608859375,0.4431037902832031,-0.22288990020751953,0.24672016501426697
1774657829037859600,8.618859619140625,-0.25441646575927734,0.05124950408935547,-0.12982240319252014
1774657829047859500,8.628859375,-1.0427603721618652,0.4372892379760742,0.07378542423248291
1774657829057859600,8.638859619140625,0.3720221519470215,-0.16113948822021484,0.23708340525627136
1774657829067859500,8.648859375,-0.11554908752441406,0.02321147918701172,0.1620335876941681
1774657829077859600,8.658859619140625,-0.16121578216552734,0.24477100372314453,-0.08371224999427795
1774657829087859500,8.668859375,0.9573559761047363,-0.3915596008300781,0.016602009534835815
1774657829097859600,8.678859619140624,-0.4126129150390625,0.4061899185180664,0.16582819819450378
1774657829107859500,8.688859375,-0.4379572868347168,0.3691258430480957,0.0237065851688385
1774657829117859600,8.698859619140626,0.23109054565429688,-0.08147239685058594,-0.03584548830986023
1774657829127859500,8.708859375,-0.3608283996582031,0.34494543075561523,-0.1707194745540619
1774657829137859600,8.718859619140625,-0.04763174057006836,0.04692220687866211,-0.24340352416038513
1774657829147859500,8.728859375,0.5556759834289551,-0.22954750061035156,0.08744455873966217
1774657829157859600,8.738859619140625,-0.5495166778564453,0.30103254318237305,0.1471821516752243
1774657829167859500,8.748859375,0.23015546798706055,-0.15182781219482422,-0.25391241908073425
1774657829177859600,8.758859619140624,0.3958606719970703,-0.17805004119873047,-0.17324674129486084
1774657829187859500,8.768859375,-0.10921669006347656,0.11803245544433594,0.13760997354984283
1774657829197859600,8.778859619140626,0.5472631454467773,-0.36641931533813477,-0.057170361280441284
1774657829207859500,8.788859375,-0.628075122833252,0.13995838165283203,-0.0998947024345398
1774657829217859600,8.798859619140625,-0.18624496459960938,-0.09705781936645508,0.0729428082704544
1774657829227859500,8.808859375,0.47493791580200195,-0.38301753997802734,0.23678219318389893
1774657829237859600,8.818859619140625,-0.15180730819702148,0.011769294738769531,0.027767181396484375
1774657829247859500,8.828859375,-0.15117216110229492,-0.09900236129760742,-0.25368446111679077
1774657829257859600,8.838859619140624,0.33217763900756836,-0.21592950820922852,0.0030067861080169678
1774657829267859500,8.848859375,-0.8000335693359375,0.24355173110961914,0.3437443971633911
1774657829277859600,8.858859619140626,0.05731821060180664,-0.12793970108032227,-0.18539324402809143
1774657829287859500,8.868859375,0.061588287353515625,-0.08654308319091797,-0.28913769125938416
1774657829297859600,8.878859619140625,-0.6426806449890137,0.19001531600952148,0.122840017080307
1774657829307859500,8.888859375,0.0011005401611328125,-0.1705026626586914,0.019996583461761475
1774657829317859600,8.898859619140625,-0.08532476425170898,-0.0660848617553711,-0.16753298044204712
1774657829327859500,8.908859375,-0.31086206436157227,0.021840572357177734,-0.057527005672454834
1774657829337859600,8.918859619140624,0.008550643920898438,-0.14407968521118164,0.03402826189994812
1774657829347859500,8.928859375,-0.12399625778198242,-0.09461069107055664,0.08040490746498108
1774657829357859600,8.938859619140626,-0.06876277923583984,-0.18673276901245117,-0.021857738494873047
1774657829367859500,8.948859375,-0.08665752410888672,-0.22512340545654297,-0.014036118984222412
1774657829377859600,8.958859619140625,-0.07333612442016602,-0.16579151153564453,0.1085788756608963
1774657829387859500,8.968859375,0.031434059143066406,-0.274320125579834,-0.02214270830154419
1774657829397859600,8.978859619140625,-0.12245368957519531,-0.28798961639404297,-0.12148362398147583
1774657829407859500,8.988859375,-0.21967649459838867,-0.3500514030456543,-0.0011517703533172607
1774657829417859600,8.998859619140624,-0.27962493896484375,-0.49152231216430664,0.015620559453964233
1774657829427859500,9.008859375,-0.2853116989135742,-0.4823026657104492,-0.07190090417861938
1774657829437859600,9.018859619140626,-0.39458370208740234,-0.40982770919799805,-0.07674604654312134
1774657829447859500,9.028859375,-0.6060738563537598,-0.3950815200805664,0.08443914353847504
1774657829457859600,9.038859619140625,-0.6954784393310547,-0.535090446472168,0.14965300261974335
1774657829467859500,9.048859375,-0.6735029220581055,-0.5663113594055176,-0.05162239074707031
1774657829477859600,9.058859619140625,-0.6615996360778809,-0.6147580146789551,-0.045440077781677246
1774657829487859500,9.068859375,-0.8960113525390625,-0.49001312255859375,0.12148711085319519
1774657829497859600,9.078859619140625,-0.6964817047119141,-0.5076074600219727,-0.02353954315185547
1774657829507859500,9.088859375,-0.5267887115478516,-0.7106866836547852,-0.06956106424331665
1774657829517859600,9.098859619140624,-1.154454231262207,-0.5555286407470703,0.06338533759117126
1774657829527859500,9.108859375,-0.4551687240600586,-0.5498275756835938,-0.05973803997039795
1774657829537859600,9.118859619140625,-0.36463451385498047,-0.7090997695922852,0.03791153430938721
1774657829547859500,9.128859375,-0.8479104042053223,-0.5962305068969727,0.05644196271896362
1774657829557859600,9.138859619140625,-0.303987979888916,-0.7205677032470703,0.03646424412727356
1774657829567859500,9.148859375,-0.3725247383117676,-0.5944428443908691,0.07825145125389099
1774657829577859600,9.158859619140625,-0.4794921875,-0.6069083213806152,0.061126694083213806
1774657829587859500,9.168859375,-0.5896091461181641,-0.4894556999206543,-0.09199795126914978
1774657829597859600,9.178859619140624,-0.7387251853942871,-0.46466970443725586,-0.24573475122451782
1774657829607859500,9.188859375,-0.12215757369995117,-0.5805621147155762,-0.208673894405365
1774657829617859600,9.198859619140626,-0.2225971221923828,-0.6510591506958008,0.09639966487884521
1774657829627859500,9.208859375,-0.6390132904052734,-0.473177433013916,0.036875635385513306
1774657829637859600,9.218859619140625,-0.40732717514038086,-0.44757080078125,0.1398536115884781
1774657829647859500,9.228859375,-0.5298290252685547,-0.385159969329834,0.16971608996391296
1774657829657859600,9.238859619140625,-0.5156631469726562,-0.13620567321777344,-0.018597573041915894
1774657829667859500,9.248859375,-0.6501483917236328,-0.060056209564208984,0.011414855718612671
1774657829677859600,9.258859619140624,-0.12374639511108398,-0.14749383926391602,-0.17887338995933533
1774657829687859500,9.268859375,-0.37076663970947266,-0.24268198013305664,-0.44382166862487793
1774657829697859600,9.278859619140626,-0.3704261779785156,-0.06956768035888672,-0.024486184120178223
1774657829707859500,9.288859375,0.17995500564575195,0.04411745071411133,-0.010481417179107666
1774657829717859600,9.298859619140625,0.12867021560668945,-0.13501739501953125,0.37863612174987793
1774657829727859500,9.308859375,-0.22411680221557617,-0.3657960891723633,0.1399066001176834
1774657829737859600,9.318859619140625,0.34647560119628906,-0.2946157455444336,-0.10948118567466736
1774657829747859500,9.328859375,-0.27549266815185547,0.00905466079711914,-0.02595946192741394
1774657829757859600,9.338859619140624,0.26512813568115234,-0.07456302642822266,-0.006971776485443115
1774657829767859500,9.348859375,-0.1816859245300293,0.07517719268798828,-0.029817253351211548
1774657829777859600,9.358859619140626,-0.10528087615966797,0.10410594940185547,-0.12558403611183167
1774657829787859500,9.368859375,0.48378705978393555,0.08416509628295898,-0.01264074444770813
1774657829797859600,9.378859619140625,0.2635383605957031,0.4008955955505371,-0.12927782535552979
1774657829807859500,9.388859375,0.37389183044433594,0.17351627349853516,-0.22337955236434937
1774657829817859600,9.398859619140625,0.6254019737243652,0.18311738967895508,-0.4085284173488617
1774657829827859500,9.408859375,0.10523748397827148,0.13597345352172852,-0.20028796792030334
1774657829837859600,9.418859619140624,0.16825151443481445,0.13603687286376953,0.21738579869270325
1774657829847859500,9.428859375,0.16312170028686523,-0.025257587432861328,-0.020644336938858032
1774657829857859600,9.438859619140626,0.2881908416748047,0.5786213874816895,-0.17682737112045288
1774657829867859500,9.448859375,0.21575260162353516,0.16855669021606445,0.2465408444404602
1774657829877859600,9.458859619140625,0.053854942321777344,0.29341697692871094,0.3142911195755005
1774657829887859500,9.468859375,0.2420063018798828,0.3244152069091797,0.02768552303314209
1774657829897859600,9.478859619140625,-0.34008312225341797,-0.21161317825317383,0.02473735809326172
1774657829907859500,9.488859375,0.6807346343994141,0.2558126449584961,-0.04955938458442688
1774657829917859600,9.498859619140624,0.1166839599609375,0.1815967559814453,-0.1661590039730072
1774657829927859500,9.508859375,0.06464290618896484,0.03643369674682617,-0.03969758749008179
1774657829937859600,9.518859619140626,0.3103752136230469,0.09142923355102539,0.3394942581653595
1774657829947859500,9.528859375,0.2956876754760742,0.4558730125427246,0.36902493238449097
1774657829957859600,9.538859619140625,-0.022499561309814453,-0.09759235382080078,0.2087549865245819
1774657829967859500,9.548859375,0.06620597839355469,-0.3721499443054199,-0.09598648548126221
1774657829977859600,9.558859619140625,-0.0033812522888183594,0.5691289901733398,0.1054619550704956
1774657829987859500,9.568859375,0.48764562606811523,0.25512123107910156,0.14995872974395752
1774657829997859600,9.578859619140625,0.08411598205566406,0.05932044982910156,-0.39745691418647766
1774657830007859500,9.588859375,-0.12334394454956055,0.2736015319824219,0.007147550582885742
1774657830017859600,9.598859619140624,0.7486357688903809,0.23695135116577148,0.021985948085784912
1774657830027859500,9.608859375,-0.3752870559692383,0.4967465400695801,-0.22454607486724854
1774657830037859600,9.618859619140625,0.36530303955078125,0.17445898056030273,-0.2819294035434723
1774657830047859500,9.628859375,0.8844175338745117,0.5645976066589355,-0.26704517006874084
1774657830057859600,9.638859619140625,-0.19042158126831055,0.43590736389160156,0.03217676281929016
1774657830067859500,9.648859375,0.6392669677734375,0.38849544525146484,-0.08789530396461487
1774657830077859600,9.658859619140625,0.6230244636535645,0.38714122772216797,-0.11356213688850403
1774657830087859500,9.668859375,0.13396310806274414,0.4816446304321289,0.12999796867370605
1774657830097859600,9.678859619140624,0.5495071411132812,0.22793102264404297,-0.057599425315856934
1774657830107859500,9.688859375,0.46724414825439453,0.21869945526123047,-0.05885899066925049
1774657830117859600,9.698859619140626,0.16622638702392578,0.11734390258789062,0.12914347648620605
1774657830127859500,9.708859375,0.2982301712036133,0.05982780456542969,0.16206735372543335
1774657830137859600,9.718859619140625,0.5294070243835449,-0.060727596282958984,-0.03965562582015991
1774657830147859500,9.728859375,0.3278365135192871,0.08812189102172852,0.0012671351432800293
1774657830157859600,9.738859619140625,0.20987510681152344,0.1897735595703125,0.20820623636245728
1774657830167859500,9.748859375,-0.0909113883972168,0.28727006912231445,-0.03023645281791687
1774657830177859600,9.758859619140624,-0.40055322647094727,0.30095863342285156,0.1615256816148758
1774657830187859500,9.768859375,0.35870838165283203,0.04126882553100586,0.08292162418365479
1774657830197859600,9.778859619140626,0.32981014251708984,0.46041440963745117,-0.03407588601112366
1774657830207859500,9.788859375,0.3922281265258789,0.34314584732055664,-0.10627511143684387
1774657830217859600,9.798859619140625,0.552037239074707,0.40988779067993164,-0.21156036853790283
1774657830227859500,9.808859375,-0.021242618560791016,0.2715177536010742,-0.013254880905151367
1774657830237859600,9.818859619140625,0.1165475845336914,0.08978652954101562,0.1564749777317047
1774657830247859500,9.828859375,0.25168800354003906,0.3844161033630371,-0.03906339406967163
1774657830257859600,9.838859619140624,-0.07123565673828125,0.13633489608764648,0.19906187057495117
1774657830267859500,9.848859375,0.2768287658691406,0.23897361755371094,0.25524500012397766
1774657830277859600,9.858859619140626,0.4225306510925293,0.47002410888671875,-0.1741202473640442
1774657830287859500,9.868859375,0.0989384651184082,0.3745136260986328,-0.16244995594024658
1774657830297859600,9.878859619140625,-0.2005143165588379,0.11588859558105469,0.05302375555038452
1774657830307859500,9.888859375,-0.047354698181152344,0.004213809967041016,-0.35097387433052063
1774657830317859600,9.898859619140625,0.21390676498413086,0.2675023078918457,-0.4421517252922058
1774657830327859500,9.908859375,0.48889780044555664,0.13810014724731445,-0.07213017344474792
1774657830337859600,9.918859619140624,0.6020159721374512,0.32863378524780273,0.07050502300262451
1774657830347859500,9.928859375,0.2480301856994629,0.2369251251220703,0.00870099663734436
1774657830357859600,9.938859619140626,0.5125937461853027,-0.015008926391601562,-0.026636451482772827
1774657830367859500,9.948859375,0.08838224411010742,0.20725107192993164,0.2317143827676773
1774657830377859600,9.958859619140625,0.47538042068481445,0.19182300567626953,0.16321399807929993
1774657830387859500,9.968859375,0.41782045364379883,0.10984468460083008,-0.22449427843093872
1774657830397859600,9.978859619140625,0.33695268630981445,0.23116493225097656,-0.1565297544002533
1774657830407859500,9.988859375,0.25876855850219727,0.4107060432434082,0.03560319542884827
1774657830417859600,9.998859619140624,0.6305561065673828,0.16959238052368164,0.07185173034667969
1774657830427859500,10.008859375,0.0030584335327148438,0.14068317413330078,-0.1162765622138977
1774657830437859600,10.018859619140626,0.4427824020385742,0.4085245132446289,-0.16597115993499756
1774657830447859500,10.028859375,0.37348175048828125,0.5267610549926758,0.20021067559719086
1774657830457859600,10.038859619140625,0.18189239501953125,0.6394352912902832,0.3303152322769165
1774657830467859500,10.048859375,0.29579734802246094,0.5381593704223633,-0.014968812465667725
1774657830477859600,10.058859619140625,0.08292293548583984,0.4878268241882324,-0.030133545398712158
1774657830487859500,10.068859375,0.014544486999511719,0.3533916473388672,0.03938993811607361
1774657830497859600,10.078859619140625,0.2938981056213379,0.1716909408569336,-0.30570608377456665
1774657830507859500,10.088859375,0.22954273223876953,0.1740427017211914,-0.12189307808876038
1774657830517859600,10.098859619140624,0.18431329727172852,0.2944340705871582,0.08511877059936523
1774657830527859500,10.108859375,0.42511653900146484,0.4213094711303711,0.0020136237144470215
1774657830537859600,10.118859619140625,0.6542000770568848,0.3365755081176758,-0.07694250345230103
1774657830547859500,10.128859375,0.2237849235534668,0.08736610412597656,0.09580773115158081
1774657830557859600,10.138859619140625,0.0457911491394043,0.08001375198364258,0.06569290161132812
1774657830567859500,10.148859375,0.24985885620117188,-0.2728409767150879,-0.15482378005981445
1774657830577859600,10.158859619140625,0.2548518180847168,0.06801557540893555,-0.20826274156570435
1774657830587859500,10.168859375,0.18720579147338867,0.14468145370483398,0.1485055834054947
1774657830597859600,10.178859619140624,-0.03546857833862305,0.2184734344482422,0.15008562803268433
1774657830607859500,10.188859375,0.4279599189758301,0.15360641479492188,0.035930335521698
1774657830617859600,10.198859619140626,0.2395167350769043,0.19983720779418945,0.047310054302215576
1774657830627859500,10.208859375,-0.18548583984375,0.014391422271728516,0.08817921578884125
1774657830637859600,10.218859619140625,0.22930669784545898,-0.06479930877685547,-0.022366583347320557
1774657830647859500,10.228859375,0.2346816062927246,0.27044153213500977,-0.13814136385917664
1774657830657859600,10.238859619140625,-0.012462139129638672,0.14008140563964844,-0.12629839777946472
1774657830667859500,10.248859375,0.13402080535888672,0.11113691329956055,0.09965838491916656
1774657830677859600,10.258859619140624,-0.2563619613647461,0.03903818130493164,0.07785521447658539
1774657830687859500,10.268859375,-0.2526254653930664,0.0055866241455078125,0.006804287433624268
1774657830697859600,10.278859619140626,-0.1926898956298828,-0.05948781967163086,0.13077890872955322
1774657830707859500,10.288859375,-0.18782806396484375,0.16167020797729492,0.001984834671020508
1774657830717859600,10.298859619140625,0.10351991653442383,0.12114524841308594,-0.06673860549926758
1774657830727859500,10.308859375,0.1608891487121582,0.11121797561645508,0.06508062779903412
1774657830737859600,10.318859619140625,-0.015211105346679688,0.27387428283691406,0.150811567902565
1774657830747859500,10.328859375,0.2784748077392578,-0.007382869720458984,-0.03920915722846985
1774657830757859600,10.338859619140624,-0.13500261306762695,-0.07162714004516602,-0.07963550090789795
1774657830767859500,10.348859375,-0.18619394302368164,-0.30356740951538086,-0.0033856332302093506
1774657830777859600,10.358859619140626,0.5926337242126465,0.13324785232543945,0.052165687084198
1774657830787859500,10.368859375,0.3888225555419922,-0.1280841827392578,-0.03492236137390137
1774657830797859600,10.378859619140625,0.0350184440612793,-0.11031913757324219,-0.47829440236091614
1774657830807859500,10.388859375,-0.900719165802002,0.4414372444152832,-0.0250338613986969
1774657830817859600,10.398859619140625,0.1296391487121582,-0.5215291976928711,0.3148779571056366
1774657830827859500,10.408859375,-0.2843046188354492,-0.21827316284179688,-0.01636090874671936
1774657830837859600,10.418859619140624,-0.02886486053466797,0.1461629867553711,-0.224970281124115
1774657830847859500,10.428859375,-0.11319398880004883,0.05090951919555664,0.20317083597183228
1774657830857859600,10.438859619140626,-0.0867757797241211,-0.15204191207885742,0.41902628540992737
1774657830867859500,10.448859375,0.3660874366760254,-0.04807901382446289,-0.1372879445552826
1774657830877859600,10.458859619140625,-0.20113658905029297,0.05132102966308594,-0.171137273311615
1774657830887859500,10.468859375,0.08420038223266602,-0.014818191528320312,-0.0497225821018219
1774657830897859600,10.478859619140625,-0.00702667236328125,-0.20474910736083984,0.05509321391582489
1774657830907859500,10.488859375,-0.04122781753540039,0.08031415939331055,-0.16902229189872742
1774657830917859600,10.498859619140624,0.2879776954650879,0.15636730194091797,-0.047098249197006226
1774657830927859500,10.508859375,-0.1820969581604004,-0.03056478500366211,0.27905482053756714
1774657830937859600,10.518859619140626,-0.07731866836547852,-0.0024390220642089844,0.21467465162277222
1774657830947859500,10.528859375,0.13771677017211914,0.1570730209350586,-0.17430707812309265
1774657830957859600,10.538859619140625,-0.20028448104858398,0.08387374877929688,0.014461874961853027
1774657830967859500,10.548859375,0.049343109130859375,0.17617082595825195,0.07257676124572754
1774657830977859600,10.558859619140625,0.19671630859375,0.043880462646484375,-0.09075653553009033
1774657830987859500,10.568859375,0.03782033920288086,0.12018823623657227,-0.03439044952392578
1774657830997859600,10.578859619140625,-0.17338228225708008,-0.05306529998779297,0.06047914922237396
1774657831007859500,10.588859375,-0.012449264526367188,-0.030772686004638672,0.030909717082977295
1774657831017859600,10.598859619140624,0.15194940567016602,0.14855575561523438,-0.0992538332939148
1774657831027859500,10.608859375,0.05334949493408203,0.12641382217407227,0.1013953685760498
1774657831037859600,10.618859619140625,0.11116933822631836,0.11824369430541992,0.09954032301902771
1774657831047859500,10.628859375,0.25150012969970703,0.13376522064208984,-0.05098441243171692
1774657831057859600,10.638859619140625,0.14092636108398438,0.029585838317871094,-0.03150814771652222
1774657831067859500,10.648859375,0.25761938095092773,0.22373390197753906,-0.06843164563179016
1774657831077859600,10.658859619140625,0.21114873886108398,0.053737640380859375,0.05886572599411011
1774657831087859500,10.668859375,0.06627655029296875,0.08984994888305664,0.056047603487968445
1774657831097859600,10.678859619140624,0.08361291885375977,0.0934600830078125,0.1447492092847824
1774657831107859500,10.688859375,0.26662158966064453,0.17858552932739258,0.09312984347343445
1774657831117859600,10.698859619140626,-0.0375981330871582,-0.0017056465148925781,0.05494391918182373
1774657831127859500,10.708859375,-0.06244468688964844,0.21824312210083008,0.01843121647834778
1774657831137859600,10.718859619140625,0.2238163948059082,0.23985958099365234,0.10281771421432495
1774657831147859500,10.728859375,-0.03121662139892578,0.2377161979675293,0.1246943473815918
1774657831157859600,10.738859619140625,0.10548019409179688,0.18134355545043945,-0.05187371373176575
1774657831167859500,10.748859375,0.2883796691894531,0.33324623107910156,-0.04740819334983826
1774657831177859600,10.758859619140624,-0.0037240982055664062,0.17122411727905273,0.039694562554359436
1774657831187859500,10.768859375,0.30505895614624023,0.3254246711730957,-0.06088528037071228
1774657831197859600,10.778859619140626,0.29376983642578125,0.28669118881225586,-0.10245108604431152
1774657831207859500,10.788859375,0.4200901985168457,0.2726459503173828,-0.1785707175731659
1774657831217859600,10.798859619140625,0.3422269821166992,0.3395042419433594,-0.12409532070159912
1774657831227859500,10.808859375,0.7032761573791504,0.09526729583740234,-0.14135244488716125
1774657831237859600,10.818859619140625,0.3583550453186035,0.32956981658935547,-0.07544425129890442
1774657831247859500,10.828859375,0.47521305084228516,0.29471302032470703,0.03815916180610657
1774657831257859600,10.838859619140624,0.6366000175476074,0.3424863815307617,0.025704532861709595
1774657831267859500,10.848859375,0.3362250328063965,0.4977397918701172,0.06958694756031036
1774657831277859600,10.858859619140626,0.6022710800170898,0.45905542373657227,0.08492013812065125
1774657831287859500,10.868859375,0.4197406768798828,0.6099987030029297,0.1179831326007843
1774657831297859600,10.878859619140625,0.356719970703125,0.6772408485412598,0.1223248839378357
1774657831307859500,10.888859375,0.6570067405700684,0.5667247772216797,0.07286697626113892
1774657831317859600,10.898859619140625,0.2471303939819336,0.6164140701293945,0.05230066180229187
1774657831327859500,10.908859375,0.5949864387512207,0.6659808158874512,-0.02664676308631897
1774657831337859600,10.918859619140624,0.6650052070617676,0.6206002235412598,-0.011842191219329834
1774657831347859500,10.928859375,0.5873003005981445,0.6173973083496094,-0.06207960844039917
1774657831357859600,10.938859619140626,0.8596196174621582,0.5233054161071777,-0.05085006356239319
1774657831367859500,10.948859375,0.5346832275390625,0.5713291168212891,0.04663193225860596
1774657831377859600,10.958859619140625,0.47982120513916016,0.7506451606750488,0.01698887348175049
1774657831387859500,10.968859375,0.7906045913696289,0.5857448577880859,-0.03900092840194702
1774657831397859600,10.978859619140625,0.3632049560546875,0.6501812934875488,-0.016987383365631104
1774657831407859500,10.988859375,0.7072715759277344,0.5883374214172363,-0.07956808805465698
1774657831417859600,10.998859619140624,0.6145763397216797,0.6994247436523438,-0.08762022852897644
1774657831427859500,11.008859375,0.3435544967651367,0.5904912948608398,-0.05705416202545166
1774657831437859600,11.018859619140626,0.6850605010986328,0.4232521057128906,-0.051534444093704224
1774657831447859500,11.028859375,0.4091348648071289,0.5139493942260742,-0.1496918499469757
1774657831457859600,11.038859619140625,0.5150356292724609,0.4902219772338867,0.013593286275863647
1774657831467859500,11.048859375,0.7315483093261719,0.5294432640075684,0.10608893632888794
1774657831477859600,11.058859619140625,0.5943517684936523,0.733644962310791,0.15902936458587646
1774657831487859500,11.068859375,0.7255945205688477,0.46632862091064453,-0.0001284778118133545
1774657831497859600,11.078859619140625,0.5596275329589844,0.5112509727478027,0.000027120113372802734
1774657831507859500,11.088859375,0.7375259399414062,0.3705763816833496,0.02321559190750122
1774657831517859600,11.098859619140624,0.38342857360839844,0.08654308319091797,-0.03225123882293701
1774657831527859500,11.108859375,0.7091140747070312,0.38024282455444336,-0.07206469774246216
1774657831537859600,11.118859619140625,0.6965808868408203,0.30520057678222656,0.019086748361587524
1774657831547859500,11.128859375,-0.041855812072753906,0.24336814880371094,0.08529165387153625
1774657831557859600,11.138859619140625,0.6406393051147461,0.5701718330383301,0.1126144528388977
1774657831567859500,11.148859375,0.3724050521850586,0.5033602714538574,0.12979528307914734
1774657831577859600,11.158859619140625,-0.07719612121582031,0.46609973907470703,0.2904072403907776
1774657831587859500,11.168859375,0.19399452209472656,0.23429298400878906,0.05756010115146637
1774657831597859600,11.178859619140624,0.021066665649414062,0.5182309150695801,-0.08314865827560425
1774657831607859500,11.188859375,0.3730907440185547,0.3442363739013672,-0.20790931582450867
1774657831617859600,11.198859619140626,0.14119338989257812,-0.0006880760192871094,-0.2172420620918274
1774657831627859500,11.208859375,0.22582435607910156,0.45671796798706055,-0.06935983896255493
1774657831637859600,11.218859619140625,0.4700784683227539,0.07911396026611328,-0.027697652578353882
1774657831647859500,11.228859375,0.2010955810546875,-0.030066967010498047,-0.17392539978027344
1774657831657859600,11.238859619140625,0.43850040435791016,0.18560791015625,-0.2009519636631012
1774657831667859500,11.248859375,0.09268474578857422,-0.2899489402770996,-0.0988379418849945
1774657831677859600,11.258859619140624,0.27541160583496094,0.14420413970947266,-0.057221412658691406
1774657831687859500,11.268859375,0.4456663131713867,0.2632722854614258,0.2567492425441742
1774657831697859600,11.278859619140626,0.014738082885742188,0.21245241165161133,0.1822623312473297
1774657831707859500,11.288859375,-0.05235576629638672,-0.0702981948852539,-0.015903890132904053
1774657831717859600,11.298859619140625,-0.027159690856933594,0.10464715957641602,0.03764098882675171
1774657831727859500,11.308859375,-0.30138111114501953,0.06134939193725586,0.11473396420478821
1774657831737859600,11.318859619140625,0.06183338165283203,0.23923826217651367,0.2786489427089691
1774657831747859500,11.328859375,-0.21085548400878906,0.20606327056884766,0.231497660279274
1774657831757859600,11.338859619140624,0.421295166015625,0.41732311248779297,-0.1629716455936432
1774657831767859500,11.348859375,0.12972545623779297,0.2802600860595703,-0.0002937614917755127
1774657831777859600,11.358859619140626,-0.1412820816040039,-0.03871488571166992,0.06628294289112091
1774657831787859500,11.368859375,0.17751121520996094,0.1564946174621582,-0.12675422430038452
1774657831797859600,11.378859619140625,0.3051118850708008,0.2031421661376953,-0.05430302023887634
1774657831807859500,11.388859375,0.09568023681640625,0.03366565704345703,-0.012221068143844604
1774657831817859600,11.398859619140625,-0.019556045532226562,0.10834169387817383,0.07738769054412842
1774657831827859500,11.408859375,0.4570350646972656,0.12699556350708008,-0.10693925619125366
1774657831837859600,11.418859619140624,0.20378780364990234,0.21636343002319336,-0.12932273745536804
1774657831847859500,11.428859375,-0.2330160140991211,0.055389404296875,0.015492886304855347
1774657831857859600,11.438859619140626,0.19431018829345703,-0.20124435424804688,-0.04589846730232239
1774657831867859500,11.448859375,0.21503829956054688,0.21957015991210938,-0.07888635993003845
1774657831877859600,11.458859619140625,-0.49933576583862305,-0.2868618965148926,0.15414974093437195
1774657831887859500,11.468859375,0.1078338623046875,-0.20438146591186523,-0.03285539150238037
1774657831897859600,11.478859619140625,0.007063865661621094,-0.2926974296569824,-0.09867912530899048
1774657831907859500,11.488859375,-0.27066612243652344,-0.11264991760253906,-0.05492100119590759
1774657831917859600,11.498859619140624,-0.25371646881103516,-0.3610858917236328,0.12946070730686188
1774657831927859500,11.508859375,0.23255348205566406,-0.4692544937133789,-0.16616100072860718
1774657831937859600,11.518859619140626,-0.3338589668273926,-0.2573099136352539,0.07066953182220459
1774657831947859500,11.528859375,-0.6360807418823242,-0.42862558364868164,0.12254084646701813
1774657831957859600,11.538859619140625,-0.02563762664794922,-0.47432565689086914,-0.07008665800094604
1774657831967859500,11.548859375,-0.6821556091308594,-0.5961456298828125,-0.007285028696060181
1774657831977859600,11.558859619140625,-0.6798543930053711,-0.6035361289978027,-0.08256208896636963
1774657831987859500,11.568859375,-0.40966320037841797,-0.5236258506774902,0.237917959690094
1774657831997859600,11.578859619140625,-0.7137794494628906,-0.5396852493286133,0.16569574177265167
1774657832007859500,11.588859375,-0.7038993835449219,-0.7203607559204102,-0.1749175786972046
1774657832017859600,11.598859619140624,-0.8361568450927734,-1.0545282363891602,-0.5140484571456909
1774657832027859500,11.608859375,-1.5825862884521484,-0.8563909530639648,0.13861308991909027
1774657832037859600,11.618859619140625,-1.394968032836914,-0.9456143379211426,0.06780973076820374
1774657832047859500,11.628859375,-1.1700506210327148,-1.0675759315490723,-0.26393991708755493
1774657832057859600,11.638859619140625,-1.3066158294677734,-1.202035903930664,-0.13027799129486084
1774657832067859500,11.648859375,-1.5416078567504883,-1.4555072784423828,0.032539427280426025
1774657832077859600,11.658859619140625,-1.2575325965881348,-1.5645084381103516,-0.2898207902908325
1774657832087859500,11.668859375,-1.5655889511108398,-1.4998588562011719,-0.1490553319454193
1774657832097859600,11.678859619140624,-1.9806852340698242,-2.5000710487365723,0.06073427200317383
1774657832107859500,11.688859375,-1.9708118438720703,-1.6794013977050781,0.025175780057907104
1774657832117859600,11.698859619140626,-2.0288658142089844,-1.733034610748291,0.27146396040916443
1774657832127859500,11.708859375,-1.7526116371154785,-2.269974708557129,0.05319562554359436
1774657832137859600,11.718859619140625,-1.8950462341308594,-2.017624855041504,-0.21558740735054016
1774657832147859500,11.728859375,-2.5451250076293945,-2.0118770599365234,-0.10983476042747498
1774657832157859600,11.738859619140625,-2.3343043327331543,-2.4042887687683105,-0.4304456412792206
1774657832167859500,11.748859375,-2.860361099243164,-2.431898832321167,0.361076295375824
1774657832177859600,11.758859619140624,-2.302917003631592,-2.317917823791504,0.16599532961845398
1774657832187859500,11.768859375,-2.3054656982421875,-2.084911346435547,-0.1970207393169403
1774657832197859600,11.778859619140626,-2.5006165504455566,-2.45538330078125,-0.009503483772277832
1774657832207859500,11.788859375,-2.382655143737793,-2.4207873344421387,-0.00731128454208374
1774657832217859600,11.798859619140625,-2.416001319885254,-2.407029628753662,0.0096358060836792
1774657832227859500,11.808859375,-2.5157699584960938,-2.2302780151367188,-0.0030139684677124023
1774657832237859600,11.818859619140625,-2.4067182540893555,-2.404033660888672,0.0037264227867126465
1774657832247859500,11.828859375,-2.189403533935547,-2.3625683784484863,0.046047523617744446
1774657832257859600,11.838859619140624,-2.592113494873047,-2.328697681427002,0.10120007395744324
1774657832267859500,11.848859375,-2.290010929107666,-2.299156665802002,0.029566913843154907
1774657832277859600,11.858859619140626,-2.281315803527832,-2.220376968383789,0.09839648008346558
1774657832287859500,11.868859375,-2.297940731048584,-2.1237645149230957,0.12390705943107605
1774657832297859600,11.878859619140625,-2.2711939811706543,-1.9553236961364746,0.02162840962409973
1774657832307859500,11.888859375,-1.9528326988220215,-2.0930261611938477,-0.003717362880706787
1774657832317859600,11.898859619140625,-2.0888309478759766,-1.9586725234985352,0.018193542957305908
1774657832327859500,11.908859375,-1.8352689743041992,-1.6849732398986816,0.08163255453109741
1774657832337859600,11.918859619140624,-1.6809639930725098,-1.7814650535583496,0.10479924082756042
1774657832347859500,11.928859375,-1.6645054817199707,-1.6105217933654785,-0.10385578870773315
1774657832357859600,11.938859619140626,-1.549450397491455,-1.701333999633789,-0.22072094678878784
1774657832367859500,11.948859375,-1.1396136283874512,-1.2476134300231934,-0.011261165142059326
1774657832377859600,11.958859619140625,-1.0635342597961426,-0.9970331192016602,0.2804698944091797
1774657832387859500,11.968859375,-1.143134593963623,-1.2531967163085938,-0.045744746923446655
1774657832397859600,11.978859619140625,-0.8891401290893555,-1.0650501251220703,-0.1652592122554779
1774657832407859500,11.988859375,-0.8686599731445312,-0.9967141151428223,-0.1383856236934662
1774657832417859600,11.998859619140624,-0.9537529945373535,-1.0073466300964355,-0.07632941007614136
1774657832427859500,12.008859375,-0.8480072021484375,-0.9220895767211914,0.17809298634529114
1774657832437859600,12.018859619140626,-0.9614958763122559,-0.8520612716674805,0.13950687646865845
1774657832447859500,12.028859375,-0.8637452125549316,-0.8936386108398438,0.11814731359481812
1774657832457859600,12.038859619140625,-0.6187849044799805,-0.5308065414428711,-0.06598088145256042
1774657832467859500,12.048859375,-0.8129887580871582,-0.43968963623046875,-0.06544476747512817
1774657832477859600,12.058859619140625,-0.34880685806274414,-0.5167608261108398,-0.01818189024925232
1774657832487859500,12.068859375,-0.7477679252624512,-0.757993221282959,-0.021052241325378418
1774657832497859600,12.078859619140625,-1.0044140815734863,-0.9949584007263184,-0.32616207003593445
1774657832507859500,12.088859375,-0.5218157768249512,-0.8490586280822754,-0.2074032723903656
1774657832517859600,12.098859619140624,-0.4921426773071289,-0.5831012725830078,0.16769523918628693
1774657832527859500,12.108859375,-0.7111330032348633,-0.49829578399658203,0.056105777621269226
1774657832537859600,12.118859619140625,-1.4018702507019043,-0.9134731292724609,0.002920478582382202
1774657832547859500,12.128859375,-0.9675717353820801,-0.8028430938720703,-0.027414262294769287
1774657832557859600,12.138859619140625,-1.2868270874023438,-1.097461223602295,0.3662300109863281
1774657832567859500,12.148859375,-0.988339900970459,-0.9221878051757812,-0.023010730743408203
1774657832577859600,12.158859619140625,-0.43159961700439453,-0.6193389892578125,-0.554808497428894
1774657832587859500,12.168859375,-1.0464520454406738,-0.8878893852233887,-0.07677221298217773
1774657832597859600,12.178859619140624,-0.49970483779907227,-0.6895270347595215,0.0048347413539886475
1774657832607859500,12.188859375,-0.6973228454589844,-0.5933575630187988,0.00676041841506958
1774657832617859600,12.198859619140626,-0.5067629814147949,-0.9682774543762207,-0.11946305632591248
1774657832627859500,12.208859375,-0.4510645866394043,-0.2808218002319336,-0.306857705116272
1774657832637859600,12.218859619140625,-0.6637430191040039,-0.8763160705566406,0.24854116141796112
1774657832647859500,12.228859375,-0.39373350143432617,-0.7027764320373535,0.11890752613544464
1774657832657859600,12.238859619140625,-0.2467660903930664,0.11698102951049805,0.07674145698547363
1774657832667859500,12.248859375,0.10948848724365234,-0.5419487953186035,0.25337934494018555
1774657832677859600,12.258859619140624,-0.41876792907714844,-0.24121761322021484,0.15532267093658447
1774657832687859500,12.268859375,-0.5952534675598145,-0.4584536552429199,0.22173410654067993
1774657832697859600,12.278859619140626,-0.20723438262939453,-0.16233491897583008,-0.07716241478919983
1774657832707859500,12.288859375,0.01783895492553711,0.0989999771118164,-0.19309210777282715
1774657832717859600,12.298859619140625,-0.28931188583374023,-0.11626195907592773,0.07733938097953796
1774657832727859500,12.308859375,0.15600824356079102,0.2694849967956543,-0.014835894107818604
1774657832737859600,12.318859619140625,0.13292980194091797,0.21022891998291016,0.06442733108997345
1774657832747859500,12.328859375,-0.1677255630493164,-0.10100364685058594,-0.08632060885429382
1774657832757859600,12.338859619140624,0.1199026107788086,0.11564445495605469,-0.14541658759117126
1774657832767859500,12.348859375,0.18440771102905273,0.32686853408813477,-0.1692647635936737
1774657832777859600,12.358859619140626,0.24597787857055664,-0.056265830993652344,0.024102210998535156
1774657832787859500,12.368859375,-0.08062124252319336,0.2713603973388672,-0.03768974542617798
1774657832797859600,12.378859619140625,0.2617654800415039,-0.1613926887512207,-0.45814937353134155
1774657832807859500,12.388859375,0.24619436264038086,-0.2711772918701172,-0.30153408646583557
1774657832817859600,12.398859619140625,0.2781028747558594,0.36646366119384766,-0.10669103264808655
1774657832827859500,12.408859375,0.7515292167663574,0.5291543006896973,0.07342211902141571
1774657832837859600,12.418859619140624,0.43685102462768555,0.36406564712524414,0.05004265904426575
1774657832847859500,12.428859375,0.6032423973083496,0.37305307388305664,0.1859750896692276
1774657832857859600,12.438859619140626,0.28818559646606445,0.3404717445373535,0.1915329098701477
1774657832867859500,12.448859375,0.423245906829834,0.24071931838989258,0.018942922353744507
1774657832877859600,12.458859619140625,0.15739917755126953,0.37138986587524414,0.10529890656471252
1774657832887859500,12.468859375,0.30650997161865234,0.32677412033081055,0.07189756631851196
