time,seconds_elapsed,z,y,x
1774657820502811000,0.083810791015625,3.9146578311920166,9.013762474060059,-0.11006984114646912
1774657820519597600,0.10059765625,3.9672999382019043,8.999405860900879,-0.12921242415905
1774657820536386300,0.11738623046875,3.8907296657562256,9.004191398620605,-0.1052841991186142
1774657820553175000,0.134175048828125,3.9194436073303223,9.013762474060059,-0.13160525262355804
1774657820569964000,0.150964111328125,3.9457645416259766,8.989834785461426,-0.10289137065410614
1774657820586752800,0.167752685546875,3.9194436073303223,8.999405860900879,-0.11006984114646912
1774657820603541500,0.18454150390625,3.9385859966278076,9.001798629760742,-0.10289137065410614
1774657820620330200,0.201330322265625,3.94097900390625,8.9850492477417,-0.12442677468061447
1774657820637119200,0.218119140625,3.8979079723358154,9.018548965454102,-0.10289137065410614
1774657820653908000,0.234907958984375,3.924229145050049,9.023334503173828,-0.12921242415905
1774657820670696700,0.25169677734375,3.926621913909912,9.004191398620605,-0.12921242415905
1774657820687485400,0.2684853515625,3.933800458908081,9.013762474060059,-0.12681959569454193
1774657820704274400,0.2852744140625,3.9433717727661133,9.006584167480469,-0.11485548317432404
1774657820721063200,0.302063232421875,3.933800458908081,9.004191398620605,-0.09810572862625122
1774657820737852000,0.318851806640625,3.91705060005188,9.018548965454102,-0.11724831163883209
1774657820754640600,0.335640625,3.933800458908081,8.994620323181152,-0.10289137065410614
1774657820771429400,0.352429443359375,3.902693748474121,9.011369705200195,-0.1052841991186142
1774657820788218400,0.36921826171875,3.9385859966278076,8.987442016601562,-0.11006984114646912
1774657820805007000,0.386007080078125,3.9218363761901855,9.013762474060059,-0.12442677468061447
1774657820821795800,0.4027958984375,3.94815731048584,9.018548965454102,-0.12921242415905
1774657820838584600,0.41958447265625,3.9146578311920166,9.004191398620605,-0.11006984114646912
1774657820855373600,0.43637353515625,3.955335855484009,8.994620323181152,-0.13160525262355804
1774657820872162300,0.453162353515625,3.9050865173339844,9.016156196594238,-0.10049854964017868
1774657820888951000,0.469950927734375,3.950550079345703,9.006584167480469,-0.1459621787071228
1774657820905739800,0.48673974609375,3.8979079723358154,9.016156196594238,-0.06939185410737991
1774657820922528800,0.50352880859375,3.9361932277679443,9.008976936340332,-0.1339980661869049
1774657820939317500,0.5203173828125,3.90987229347229,9.006584167480469,-0.09092725813388824
1774657820956106200,0.537106201171875,3.9433717727661133,8.989834785461426,-0.13639089465141296
1774657820972895000,0.55389501953125,3.8979079723358154,9.028120040893555,-0.09810572862625122
1774657820989684000,0.57068408203125,3.972085475921631,8.987442016601562,-0.14117653667926788
1774657821006472700,0.58747265625,3.900300979614258,9.013762474060059,-0.10767702013254166
1774657821023261400,0.604261474609375,3.902693748474121,9.006584167480469,-0.11964113265275955
1774657821040050200,0.62105029296875,3.9385859966278076,9.013762474060059,-0.11485548317432404
1774657821056839000,0.6378388671875,3.9122650623321533,9.006584167480469,-0.10767702013254166
1774657821073628000,0.6546279296875,3.90987229347229,9.020941734313965,-0.11006984114646912
1774657821090416600,0.671416748046875,3.955335855484009,8.999405860900879,-0.11485548317432404
1774657821107205400,0.688205322265625,3.8572301864624023,9.011369705200195,-0.12203395366668701
1774657821123994000,0.704994140625,3.981656789779663,8.999405860900879,-0.11485548317432404
1774657821140783000,0.721783203125,3.9050865173339844,9.001798629760742,-0.10767702013254166
1774657821157571800,0.73857177734375,3.900300979614258,9.013762474060059,-0.11246266216039658
1774657821174360600,0.755360595703125,3.950550079345703,8.96829891204834,-0.09571290761232376
1774657821191149300,0.7721494140625,3.9050865173339844,9.023334503173828,-0.14835500717163086
1774657821207938300,0.788938232421875,3.9146578311920166,9.001798629760742,-0.08374879509210587
1774657821224727000,0.80572705078125,3.9146578311920166,9.025727272033691,-0.16031911969184875
1774657821241515800,0.822515869140625,3.900300979614258,9.013762474060059,-0.09810572862625122
1774657821258304500,0.839304443359375,3.924229145050049,9.006584167480469,-0.15314064919948578
1774657821275093500,0.856093505859375,3.9744784832000732,9.028120040893555,-0.09810572862625122
1774657821291882200,0.87288232421875,3.8811583518981934,9.018548965454102,-0.0933200865983963
1774657821308671000,0.8896708984375,3.955335855484009,8.999405860900879,-0.15074782073497772
1774657821325459700,0.906459716796875,3.91705060005188,9.013762474060059,-0.0933200865983963
1774657821342248400,0.92324853515625,3.9194436073303223,9.025727272033691,-0.15314064919948578
1774657821359037400,0.940037353515625,3.9050865173339844,9.001798629760742,-0.08614161610603333
1774657821375826200,0.956826171875,3.90987229347229,9.016156196594238,-0.13878370821475983
1774657821392615000,0.973614990234375,3.9290146827697754,8.9850492477417,-0.11485548317432404
1774657821409403600,0.990403564453125,3.9122650623321533,9.023334503173828,-0.12203395366668701
1774657821426192600,1.007192626953125,3.8907296657562256,9.011369705200195,-0.07896314561367035
1774657821442981400,1.0239814453125,3.902693748474121,9.020941734313965,-0.13160525262355804
1774657821459770000,1.04077001953125,3.9457645416259766,9.001798629760742,-0.1052841991186142
1774657821476558800,1.057558837890625,3.895515203475952,9.030512809753418,-0.12203395366668701
1774657821493347800,1.074347900390625,3.924229145050049,9.006584167480469,-0.07417750358581543
1774657821510136600,1.091136474609375,3.902693748474121,9.013762474060059,-0.16510476171970367
1774657821526925300,1.10792529296875,3.9122650623321533,9.011369705200195,-0.08614161610603333
1774657821543714000,1.124714111328125,3.893122434616089,9.011369705200195,-0.14835500717163086
1774657821560503000,1.1415029296875,3.902693748474121,9.006584167480469,-0.07657032459974289
1774657821577291800,1.158291748046875,3.9146578311920166,9.030512809753418,-0.17946170270442963
1774657821594080500,1.17508056640625,3.9361932277679443,8.999405860900879,-0.08135596662759781
1774657821610869200,1.191869140625,3.902693748474121,9.025727272033691,-0.14835500717163086
1774657821627658000,1.208657958984375,3.9218363761901855,9.016156196594238,-0.059820566326379776
1774657821644447000,1.225447021484375,3.9194436073303223,9.028120040893555,-0.16510476171970367
1774657821661235700,1.242235595703125,3.90987229347229,8.992227554321289,-0.08374879509210587
1774657821678024400,1.2590244140625,3.8979079723358154,9.013762474060059,-0.1339980661869049
1774657821694813200,1.275813232421875,3.9194436073303223,9.023334503173828,-0.12203395366668701
1774657821711602000,1.292601806640625,3.924229145050049,9.020941734313965,-0.12921242415905
1774657821728391000,1.309390869140625,3.9050865173339844,8.994620323181152,-0.11964113265275955
1774657821745179600,1.3261796875,3.8907296657562256,9.05444049835205,-0.10049854964017868
1774657821761968400,1.342968505859375,3.9457645416259766,8.9850492477417,-0.12442677468061447
1774657821778757400,1.35975732421875,3.8907296657562256,9.042476654052734,-0.10049854964017868
1774657821795546000,1.376546142578125,3.9744784832000732,8.975478172302246,-0.08853443711996078
1774657821812334800,1.3933349609375,3.8500516414642334,9.032905578613281,-0.11485548317432404
1774657821829123600,1.41012353515625,4.01037073135376,8.96112060546875,-0.09092725813388824
1774657821845912300,1.426912353515625,3.8668015003204346,9.049654960632324,-0.14835500717163086
1774657821862701300,1.443701416015625,3.8883368968963623,9.013762474060059,-0.064606212079525
1774657821879490000,1.460489990234375,3.895515203475952,9.023334503173828,-0.1818545162677765
1774657821896278800,1.47727880859375,3.91705060005188,8.992227554321289,-0.04546362906694412
1774657821913067500,1.494067626953125,3.840480327606201,9.059226989746094,-0.19381862878799438
1774657821929856500,1.5108564453125,3.9912281036376953,8.970691680908203,-0.0526420995593071
1774657821946645200,1.527645263671875,3.862015724182129,9.049654960632324,-0.1986042857170105
1774657821963434000,1.54443408203125,3.9768712520599365,8.965906143188477,-0.0526420995593071
1774657821980222700,1.56122265625,3.9074792861938477,9.011369705200195,-0.18424734473228455
1774657821997011500,1.578011474609375,3.8811583518981934,9.004191398620605,-0.06699903309345245
1774657822013800400,1.594800537109375,3.862015724182129,9.06401252746582,-0.1339980661869049
1774657822030589200,1.611589111328125,3.981656789779663,9.008976936340332,-0.09810572862625122
1774657822047378000,1.6283779296875,3.7782669067382812,9.05444049835205,-0.09571290761232376
1774657822064166700,1.645166748046875,3.9672999382019043,8.973084449768066,-0.16749759018421173
1774657822080955600,1.66195556640625,3.8907296657562256,9.030512809753418,-0.064606212079525
1774657822097744400,1.678744384765625,3.9074792861938477,9.008976936340332,-0.1866401731967926
1774657822114533000,1.695533203125,3.9122650623321533,9.011369705200195,-0.02632104977965355
1774657822131321900,1.71232177734375,3.9218363761901855,8.992227554321289,-0.20817556977272034
1774657822148110600,1.729110595703125,3.8907296657562256,8.999405860900879,-0.04307080805301666
1774657822164899600,1.745899658203125,3.94097900390625,8.987442016601562,-0.21296121180057526
1774657822181688300,1.762688232421875,3.88594388961792,9.020941734313965,-0.035892341285943985
1774657822198477000,1.77947705078125,3.9433717727661133,9.011369705200195,-0.15553347766399384
1774657822215265800,1.796265869140625,3.8572301864624023,9.037691116333008,-0.09092725813388824
1774657822232054500,1.813054443359375,3.87876558303833,9.040083885192871,-0.11724831163883209
1774657822248843500,1.829843505859375,3.9146578311920166,9.030512809753418,-0.08853443711996078
1774657822265632300,1.84663232421875,3.955335855484009,9.004191398620605,-0.12921242415905
1774657822282421000,1.8634208984375,3.9218363761901855,9.001798629760742,-0.13878370821475983
1774657822299209700,1.880209716796875,3.9074792861938477,9.037691116333008,-0.10289137065410614
1774657822315998700,1.896998779296875,3.9696927070617676,9.008976936340332,-0.1818545162677765
1774657822332787500,1.913787353515625,3.7734813690185547,9.004191398620605,-0.07417750358581543
1774657822349576200,1.930576171875,3.902693748474121,8.973084449768066,-0.1818545162677765
1774657822366365000,1.947364990234375,3.8117663860321045,9.025727272033691,-0.040677983313798904
1774657822383153700,1.964153564453125,3.902693748474121,9.052047729492188,-0.13639089465141296
1774657822399942700,1.980942626953125,3.9218363761901855,9.025727272033691,-0.05503492057323456
1774657822416731400,1.9977314453125,3.9744784832000732,9.006584167480469,-0.12203395366668701
1774657822433520000,2.01452001953125,3.840480327606201,9.032905578613281,-0.08135596662759781
1774657822450308900,2.031308837890625,3.90987229347229,9.011369705200195,-0.11964113265275955
1774657822467097900,2.048097900390625,3.9122650623321533,9.013762474060059,-0.14117653667926788
1774657822483886600,2.064886474609375,3.926621913909912,9.042476654052734,-0.10289137065410614
1774657822500675300,2.08167529296875,3.8428730964660645,9.042476654052734,-0.1459621787071228
1774657822517464000,2.098464111328125,3.9601213932037354,8.980263710021973,-0.06699903309345245
1774657822534253000,2.115253173828125,3.9074792861938477,9.008976936340332,-0.14835500717163086
1774657822551041800,2.132041748046875,3.8333017826080322,9.037691116333008,-0.07178468257188797
1774657822567830500,2.14883056640625,3.9146578311920166,9.001798629760742,-0.13878370821475983
1774657822584619300,2.165619384765625,3.8668015003204346,9.020941734313965,-0.059820566326379776
1774657822601408000,2.182407958984375,3.9744784832000732,9.047262191772461,-0.18424734473228455
1774657822618196700,2.19919677734375,3.9601213932037354,8.96829891204834,-0.13639089465141296
1774657822634985700,2.21598583984375,3.7567315101623535,9.05444049835205,-0.12921242415905
1774657822651774500,2.2327744140625,4.106083869934082,8.925228118896484,-0.11724831163883209
1774657822668563200,2.249563232421875,3.8500516414642334,9.044869422912598,-0.09810572862625122
1774657822685352000,2.26635205078125,3.7950167655944824,9.052047729492188,-0.1339980661869049
1774657822702140700,2.283140625,4.041477680206299,8.994620323181152,-0.07896314561367035
1774657822718929700,2.2999296875,3.7423746585845947,9.107083320617676,-0.07657032459974289
1774657822735718400,2.316718505859375,4.01037073135376,8.994620323181152,-0.11006984114646912
1774657822752507100,2.333507080078125,3.871587038040161,9.028120040893555,-0.12921242415905
1774657822769296000,2.3502958984375,3.8045880794525146,9.07119083404541,-0.12203395366668701
1774657822786084900,2.3670849609375,3.9768712520599365,8.997013092041016,-0.10289137065410614
1774657822802873600,2.38387353515625,3.8021950721740723,9.018548965454102,-0.1746760457754135
1774657822819662300,2.400662353515625,3.8907296657562256,8.96112060546875,-0.11964113265275955
1774657822836451000,2.417451171875,3.8021950721740723,8.980263710021973,-0.11724831163883209
1774657822853240000,2.434239990234375,3.8763725757598877,9.025727272033691,-0.040677983313798904
1774657822870028800,2.45102880859375,3.9768712520599365,8.980263710021973,-0.12203395366668701
1774657822886817500,2.467817626953125,3.8811583518981934,9.047262191772461,-0.04546362906694412
1774657822903606300,2.484606201171875,3.8356947898864746,9.104690551757812,-0.08374879509210587
1774657822920395000,2.50139501953125,3.90987229347229,9.049654960632324,-0.07896314561367035
1774657822937183700,2.518183837890625,3.7902309894561768,9.044869422912598,-0.1052841991186142
1774657822953972700,2.53497265625,3.926621913909912,8.9850492477417,-0.10049854964017868
1774657822970761500,2.551761474609375,3.864408493041992,8.994620323181152,-0.11724831163883209
1774657822987550200,2.56855029296875,3.9840497970581055,8.951549530029297,-0.1698904037475586
1774657823004339000,2.5853388671875,3.6299118995666504,9.073583602905273,-0.06699903309345245
1774657823021128000,2.6021279296875,4.098905086517334,8.980263710021973,-0.05024927482008934
1774657823037916700,2.618916748046875,3.656233072280884,9.09272575378418,0.004785645287483931
1774657823054705400,2.635705322265625,3.414557933807373,9.241081237792969,-0.07417750358581543
1774657823071494100,2.652494140625,4.115654945373535,8.910871505737305,-0.11485548317432404
1774657823088283100,2.669283203125,3.7950167655944824,9.142974853515625,-0.10049854964017868
1774657823105071900,2.68607177734375,3.91705060005188,9.011369705200195,-0.0933200865983963
1774657823121860600,2.702860595703125,4.051048755645752,8.982656478881836,-0.13160525262355804
1774657823138649300,2.7196494140625,4.333401679992676,9.382257461547852,-0.12681959569454193
1774657823155438000,2.73643798828125,4.4243292808532715,8.693124771118164,-0.14356936514377594
1774657823172226800,2.753226806640625,3.926621913909912,8.982656478881836,0.059820566326379776
1774657823189015800,2.770015869140625,3.5581271648406982,9.229117393493652,-0.11246266216039658
1774657823205804500,2.786804443359375,3.8021950721740723,9.073583602905273,-0.08853443711996078
1774657823222593300,2.80359326171875,3.8261234760284424,8.776873588562012,-0.1459621787071228
1774657823239382000,2.820382080078125,4.2281174659729,8.8438720703125,-0.059820566326379776
1774657823256171000,2.8371708984375,3.9074792861938477,9.229117393493652,-0.12921242415905
1774657823272959700,2.853959716796875,4.125226020812988,9.020941734313965,-0.24646073579788208
1774657823289748500,2.87074853515625,3.91705060005188,8.827122688293457,-0.3206382393836975
1774657823306537200,2.887537109375,3.6921253204345703,9.119047164916992,-0.1866401731967926
1774657823323326000,2.904325927734375,4.132404804229736,8.578269004821777,0.038285162299871445
1774657823340115000,2.921114990234375,3.6873397827148438,9.08554744720459,-0.4618147611618042
1774657823356903700,2.937903564453125,4.113262176513672,9.152546882629395,0.2799602448940277
1774657823373692400,2.9546923828125,3.862015724182129,8.848658561706543,-0.2991028428077698
1774657823390481200,2.971481201171875,3.8261234760284424,9.200403213500977,0.21774685382843018
1774657823407270000,2.988269775390625,3.5988051891326904,9.068798065185547,-0.21296121180057526
1774657823424059000,3.005058837890625,4.027120590209961,8.757730484008789,0.3086741268634796
1774657823440847600,3.02184765625,3.649054527282715,9.571290969848633,-0.5575276613235474
1774657823457636400,3.03863623046875,3.4097721576690674,8.544769287109375,-0.14356936514377594
1774657823474425000,3.055425048828125,4.161118507385254,8.848658561706543,-0.4163511395454407
1774657823491213800,3.0722138671875,3.3954153060913086,9.42772102355957,-0.02392822690308094
1774657823508002600,3.08900244140625,4.4721856117248535,8.72183895111084,-0.23210379481315613
1774657823524791600,3.10579150390625,3.996013879776001,9.10229778289795,-0.23210379481315613
1774657823541580300,3.122580322265625,3.658625841140747,8.894122123718262,-0.1052841991186142
1774657823558369000,3.139369140625,4.225724697113037,8.93958568572998,-0.3397808074951172
1774657823575157800,3.15615771484375,3.88594388961792,8.949156761169434,-0.13878370821475983
1774657823591946800,3.17294677734375,3.634697675704956,9.025727272033691,-0.18903298676013947
1774657823608735500,3.189735595703125,4.019941806793213,8.94676399230957,-0.23688943684101105
1774657823625524200,3.206524169921875,4.180261135101318,8.872586250305176,0.02392822690308094
1774657823642313000,3.22331298828125,3.775874137878418,9.119047164916992,-0.29431718587875366
1774657823659101700,3.240101806640625,4.034298896789551,8.937192916870117,0.12203395366668701
1774657823675890700,3.256890625,4.046263217926025,9.013762474060059,-0.44027936458587646
1774657823692679400,3.273679443359375,3.94815731048584,9.040083885192871,0.23688943684101105
1774657823709468200,3.29046826171875,3.91705060005188,8.980263710021973,-0.3278166949748993
1774657823726257000,3.3072568359375,4.084548473358154,8.937192916870117,0.07417750358581543
1774657823743045600,3.324045654296875,3.8739798069000244,9.020941734313965,-0.30149564146995544
1774657823759834400,3.34083447265625,3.8524444103240967,9.004191398620605,-0.009571290574967861
1774657823776623400,3.357623291015625,3.7806596755981445,9.052047729492188,-0.11964113265275955
1774657823793412000,3.374412109375,4.074976921081543,8.994620323181152,-0.12442677468061447
1774657823810200800,3.391200927734375,4.0319061279296875,8.958727836608887,-0.062213387340307236
1774657823826989600,3.407989501953125,4.01037073135376,8.992227554321289,-0.22492532432079315
1774657823843778600,3.424778564453125,3.933800458908081,9.006584167480469,0
1774657823860567300,3.4415673828125,3.981656789779663,8.987442016601562,-0.22971096634864807
1774657823877356000,3.45835595703125,3.840480327606201,9.030512809753418,0.019142581149935722
1774657823894144800,3.475144775390625,4.153940200805664,8.910871505737305,-0.17706887423992157
1774657823910933500,3.49193359375,3.9840497970581055,8.982656478881836,-0.062213387340307236
1774657823927722500,3.508722412109375,3.737588882446289,9.075976371765137,-0.1579262912273407
1774657823944511200,3.52551123046875,4.218546390533447,8.879764556884766,-0.08853443711996078
1774657823961300000,3.542300048828125,3.8356947898864746,9.049654960632324,-0.1052841991186142
1774657823978088700,3.559088623046875,3.9672999382019043,8.9850492477417,-0.14835500717163086
1774657823994877400,3.57587744140625,4.058227062225342,8.96112060546875,-0.13878370821475983
1774657824011666400,3.59266650390625,3.871587038040161,9.025727272033691,-0.1052841991186142
1774657824028455200,3.609455078125,4.000799655914307,8.975478172302246,-0.10289137065410614
1774657824045244000,3.626243896484375,4.034298896789551,8.949156761169434,-0.13160525262355804
1774657824062032600,3.64303271484375,3.895515203475952,9.011369705200195,-0.11964113265275955
1774657824078821400,3.6598212890625,3.981656789779663,8.97787094116211,-0.1052841991186142
1774657824095610400,3.6766103515625,3.9936211109161377,8.96112060546875,-0.09571290761232376
1774657824112399000,3.693399169921875,3.9433717727661133,9.004191398620605,-0.08374879509210587
1774657824129187800,3.710187744140625,3.9936211109161377,8.982656478881836,-0.1746760457754135
1774657824145976600,3.7269765625,3.9696927070617676,8.987442016601562,-0.11006984114646912
1774657824162765300,3.743765380859375,3.9984066486358643,8.982656478881836,-0.18903298676013947
1774657824179554300,3.76055419921875,3.9984066486358643,8.980263710021973,-0.08374879509210587
1774657824196343000,3.777343017578125,3.9457645416259766,8.997013092041016,-0.1866401731967926
1774657824213131800,3.7941318359375,3.9457645416259766,8.975478172302246,-0.08135596662759781
1774657824229920500,3.81092041015625,4.053441524505615,8.965906143188477,-0.13878370821475983
1774657824246709200,3.827709228515625,4.022335052490234,8.958727836608887,-0.06699903309345245
1774657824263498200,3.844498291015625,3.9601213932037354,8.994620323181152,-0.07657032459974289
1774657824280287000,3.861286865234375,3.988835334777832,8.987442016601562,-0.09810572862625122
1774657824297075700,3.87807568359375,3.9601213932037354,9.004191398620605,-0.10767702013254166
1774657824313864400,3.894864501953125,3.964907169342041,8.975478172302246,-0.1052841991186142
1774657824330653200,3.911653076171875,4.034298896789551,8.96112060546875,-0.09571290761232376
1774657824347442000,3.92844189453125,3.964907169342041,8.9850492477417,-0.1579262912273407
1774657824364231000,3.94523095703125,3.9457645416259766,8.9850492477417,-0.10049854964017868
1774657824381019600,3.96201953125,3.9984066486358643,8.96829891204834,-0.12442677468061447
1774657824397808400,3.978808349609375,3.9672999382019043,8.95394229888916,-0.10049854964017868
1774657824414597000,3.99559716796875,3.9314076900482178,8.9850492477417,-0.11485548317432404
1774657824431385900,4.0123857421875,4.01754903793335,8.949156761169434,-0.09092725813388824
1774657824448174800,4.0291748046875,3.9840497970581055,8.982656478881836,-0.11006984114646912
1774657824464963600,4.045963623046875,3.9672999382019043,8.997013092041016,-0.11964113265275955
1774657824481752300,4.06275244140625,3.988835334777832,8.992227554321289,-0.10289137065410614
1774657824498541000,4.079541015625,3.9529430866241455,9.011369705200195,-0.13639089465141296
1774657824515329800,4.096329833984375,3.9744784832000732,8.980263710021973,-0.12442677468061447
1774657824532118800,4.113118896484375,3.9768712520599365,8.999405860900879,-0.14835500717163086
1774657824548907500,4.129907470703125,3.9792640209198,8.96829891204834,-0.1339980661869049
1774657824565696300,4.1466962890625,3.9672999382019043,8.975478172302246,-0.12442677468061447
1774657824582485000,4.163485107421875,3.9601213932037354,8.95394229888916,-0.09092725813388824
1774657824599274000,4.18027392578125,3.8979079723358154,8.989834785461426,-0.15074782073497772
1774657824616062700,4.197062744140625,4.00319242477417,8.97787094116211,-0.12921242415905
1774657824632851500,4.2138515625,4.118047714233398,8.922835350036621,-0.11485548317432404
1774657824649640200,4.23064013671875,3.8572301864624023,9.056833267211914,-0.08853443711996078
1774657824666429000,4.247428955078125,3.9194436073303223,9.035298347473145,-0.14117653667926788
1774657824683218000,4.264218017578125,4.144368648529053,8.920442581176758,-0.10767702013254166
1774657824700006700,4.281006591796875,3.8428730964660645,9.030512809753418,-0.16510476171970367
1774657824716795400,4.29779541015625,3.9457645416259766,8.975478172302246,-0.059820566326379776
1774657824733584100,4.314584228515625,4.091726779937744,8.913264274597168,-0.1986042857170105
1774657824750372900,4.331372802734375,3.9050865173339844,8.997013092041016,-0.007178467698395252
1774657824767161900,4.348161865234375,3.9218363761901855,8.97787094116211,-0.20817556977272034
1774657824783950600,4.36495068359375,3.9672999382019043,8.958727836608887,-0.01196411345154047
1774657824800739300,4.3817392578125,3.8356947898864746,9.023334503173828,-0.13878370821475983
1774657824817528000,4.398528076171875,3.9529430866241455,8.989834785461426,-0.04546362906694412
1774657824834317000,4.415317138671875,4.084548473358154,8.949156761169434,-0.16749759018421173
1774657824851105800,4.432105712890625,3.8907296657562256,9.035298347473145,-0.09810572862625122
1774657824867894500,4.44889453125,3.9457645416259766,9.006584167480469,-0.07178468257188797
1774657824884683300,4.465683349609375,3.9696927070617676,8.915657043457031,-0.1818545162677765
1774657824901472300,4.48247216796875,4.316651821136475,8.731410026550293,-0.12442677468061447
1774657824918261000,4.499260986328125,3.555734395980835,9.193224906921387,-0.19381862878799438
1774657824935049700,4.5160498046875,3.8979079723358154,9.049654960632324,-0.064606212079525
1774657824951838500,4.53283837890625,4.235296249389648,8.913264274597168,-0.1339980661869049
1774657824968627500,4.54962744140625,3.7950167655944824,9.066405296325684,-0.10049854964017868
1774657824985416200,4.566416259765625,3.981656789779663,8.96112060546875,-0.0933200865983963
1774657825002205000,4.583204833984375,4.082155227661133,8.925228118896484,-0.19381862878799438
1774657825018993700,4.59999365234375,3.87876558303833,9.023334503173828,-0.009571290574967861
1774657825035782400,4.616782470703125,3.9768712520599365,9.013762474060059,-0.22971096634864807
1774657825052571400,4.6335712890625,4.024727821350098,8.951549530029297,-0.016749758273363113
1774657825069360000,4.650360107421875,3.830909013748169,9.020941734313965,-0.22971096634864807
1774657825086148900,4.66714892578125,4.122833251953125,8.941978454589844,0.04785645380616188
1774657825102937600,4.6839375,3.9936211109161377,8.992227554321289,-0.2105683982372284
1774657825119726600,4.7007265625,3.7878382205963135,9.05444049835205,-0.04785645380616188
1774657825136515300,4.717515380859375,3.9122650623321533,9.020941734313965,-0.20578274130821228
1774657825153304000,4.734303955078125,3.9290146827697754,8.970691680908203,-0.08135596662759781
1774657825170093000,4.751093017578125,3.9218363761901855,8.963513374328613,-0.16271193325519562
1774657825186881800,4.7678818359375,3.9457645416259766,8.989834785461426,-0.1459621787071228
1774657825203670500,4.78467041015625,4.070191383361816,8.9850492477417,-0.10767702013254166
1774657825220459300,4.801459228515625,3.9936211109161377,8.999405860900879,-0.18903298676013947
1774657825237248300,4.818248291015625,3.8907296657562256,8.992227554321289,-0.035892341285943985
1774657825254037000,4.835037109375,3.840480327606201,9.028120040893555,-0.1698904037475586
1774657825270825700,4.85182568359375,3.9218363761901855,8.997013092041016,0.035892341285943985
1774657825287614500,4.868614501953125,3.9074792861938477,9.035298347473145,-0.1339980661869049
1774657825304403500,4.885403564453125,4.0558342933654785,8.989834785461426,-0.06699903309345245
1774657825321192200,4.902192138671875,3.9912281036376953,9.011369705200195,-0.12681959569454193
1774657825337981000,4.91898095703125,3.9601213932037354,9.013762474060059,-0.07657032459974289
1774657825354769700,4.935769775390625,3.9433717727661133,9.001798629760742,-0.14117653667926788
1774657825371558400,4.952558349609375,3.871587038040161,9.020941734313965,-0.19381862878799438
1774657825388347400,4.969347412109375,3.838087558746338,9.028120040893555,-0.10767702013254166
1774657825405136100,4.98613623046875,3.9146578311920166,8.989834785461426,-0.12921242415905
1774657825421924900,5.0029248046875,3.9385859966278076,8.96112060546875,-0.11006984114646912
1774657825438713600,5.019713623046875,3.9050865173339844,8.982656478881836,-0.08853443711996078
1774657825455502300,5.03650244140625,3.895515203475952,9.028120040893555,-0.11964113265275955
1774657825472291300,5.053291259765625,3.9290146827697754,9.023334503173828,-0.02871387079358101
1774657825489080000,5.070080078125,3.9601213932037354,9.016156196594238,-0.13639089465141296
1774657825505868800,5.086868896484375,3.838087558746338,9.07119083404541,-0.09810572862625122
1774657825522657800,5.10365771484375,3.91705060005188,9.032905578613281,-0.14117653667926788
1774657825539446500,5.120446533203125,3.955335855484009,9.013762474060059,-0.15314064919948578
1774657825556235300,5.1372353515625,4.034298896789551,9.008976936340332,-0.07657032459974289
1774657825573024000,5.15402392578125,3.869194269180298,8.992227554321289,-0.16271193325519562
1774657825589813000,5.17081298828125,3.8835511207580566,9.023334503173828,-0.12203395366668701
1774657825606601700,5.187601806640625,3.9864425659179688,8.958727836608887,-0.13160525262355804
1774657825623390500,5.204390380859375,3.8021950721740723,8.987442016601562,-0.1866401731967926
1774657825640179200,5.22117919921875,3.84765887260437,9.035298347473145,-0.11964113265275955
1774657825656968200,5.23796826171875,3.88594388961792,9.068798065185547,-0.13639089465141296
1774657825673757000,5.2547568359375,3.814159393310547,9.08554744720459,-0.11964113265275955
1774657825690545700,5.271545654296875,3.988835334777832,8.992227554321289,-0.14835500717163086
1774657825707334400,5.28833447265625,3.9146578311920166,8.997013092041016,-0.16749759018421173
1774657825724123100,5.305123046875,3.864408493041992,9.016156196594238,-0.009571290574967861
1774657825740912000,5.321912109375,4.029513359069824,8.94676399230957,-0.16510476171970367
1774657825757700900,5.338700927734375,3.900300979614258,8.980263710021973,-0.040677983313798904
1774657825774489600,5.355489501953125,3.78544545173645,9.044869422912598,-0.1459621787071228
1774657825791278300,5.3722783203125,3.8811583518981934,8.903693199157715,-0.035892341285943985
1774657825808067000,5.389067138671875,3.9696927070617676,9.032905578613281,-0.16271193325519562
1774657825824856000,5.40585595703125,3.5054850578308105,9.145368576049805,-0.1579262912273407
1774657825841644800,5.422644775390625,3.9529430866241455,8.989834785461426,-0.15314064919948578
1774657825858433500,5.43943359375,4.0797624588012695,8.963513374328613,-0.1339980661869049
1774657825875222500,5.456222412109375,3.7543387413024902,9.097511291503906,-0.06699903309345245
1774657825892011300,5.47301123046875,4.022335052490234,9.032905578613281,0.06939185410737991
1774657825908800000,5.489800048828125,3.706482172012329,9.080761909484863,-0.12442677468061447
1774657825925588700,5.506588623046875,3.6993038654327393,9.104690551757812,-0.007178467698395252
1774657825942377700,5.523377685546875,4.235296249389648,8.920442581176758,-0.1698904037475586
1774657825959166500,5.54016650390625,3.7328033447265625,9.066405296325684,0.12681959569454193
1774657825975955200,5.556955078125,4.137190341949463,8.982656478881836,-0.23210379481315613
1774657825992744000,5.573743896484375,3.91705060005188,9.035298347473145,-0.08853443711996078
1774657826009532700,5.59053271484375,3.8356947898864746,9.073583602905273,-0.1339980661869049
1774657826026321700,5.60732177734375,4.0319061279296875,8.965906143188477,-0.13878370821475983
1774657826043110400,5.6241103515625,3.5198421478271484,9.068798065185547,-0.040677983313798904
1774657826059899100,5.640899169921875,4.000799655914307,8.894122123718262,-0.2584248483181
1774657826076688000,5.65768798828125,3.9768712520599365,8.906085968017578,0.01196411345154047
1774657826093476600,5.6744765625,3.7902309894561768,9.052047729492188,-0.20817556977272034
1774657826110265600,5.691265625,3.689732551574707,9.06401252746582,-0.059820566326379776
1774657826127054300,5.708054443359375,3.7878382205963135,9.068798065185547,-0.2967100143432617
1774657826143843000,5.724843017578125,3.6227335929870605,9.025727272033691,-0.05742774158716202
1774657826160632000,5.741632080078125,3.996013879776001,8.9850492477417,-0.2991028428077698
1774657826177420800,5.7584208984375,3.845266103744507,9.097511291503906,-0.1052841991186142
1774657826194209500,5.77520947265625,3.6227335929870605,9.17886734008789,-0.16510476171970367
1774657826210998300,5.791998291015625,4.323830604553223,8.834300994873047,0.02392822690308094
1774657826227787000,5.808787109375,3.8524444103240967,9.013762474060059,-0.09092725813388824
1774657826244576000,5.825575927734375,3.8261234760284424,9.06401252746582,-0.064606212079525
1774657826261364700,5.84236474609375,4.058227062225342,8.908478736877441,-0.09571290761232376
1774657826278153500,5.859153564453125,3.783052682876587,9.035298347473145,-0.15314064919948578
1774657826294942200,5.875942138671875,3.81655216217041,9.040083885192871,-0.15314064919948578
1774657826311731000,5.89273095703125,4.01754903793335,9.008976936340332,-0.2153540402650833
1774657826328520000,5.90952001953125,3.81655216217041,9.07119083404541,-0.15314064919948578
1774657826345308700,5.92630859375,3.9529430866241455,9.028120040893555,-0.11964113265275955
1774657826362097400,5.943097412109375,4.012763500213623,8.96112060546875,-0.12681959569454193
1774657826378886100,5.95988623046875,3.6299118995666504,9.066405296325684,-0.12442677468061447
1774657826395675100,5.976675048828125,3.9218363761901855,8.918049812316895,0.035892341285943985
1774657826412463900,5.9934638671875,3.7160534858703613,9.061619758605957,-0.038285162299871445
1774657826429252600,6.010252685546875,3.8333017826080322,9.030512809753418,-0.13878370821475983
1774657826446041300,6.027041259765625,3.5676984786987305,9.162117958068848,-0.038285162299871445
1774657826462830000,6.043830078125,4.278367042541504,8.970691680908203,-0.2392822653055191
1774657826479619000,6.060619140625,3.7160534858703613,9.066405296325684,-0.11724831163883209
1774657826496407800,6.07740771484375,3.6945180892944336,9.104690551757812,-0.18424734473228455
1774657826513196500,6.094196533203125,3.924229145050049,8.94676399230957,-0.08853443711996078
1774657826529985300,6.1109853515625,3.7710886001586914,9.107083320617676,-0.20578274130821228
1774657826546774000,6.12777392578125,4.084548473358154,8.956335067749023,-0.0526420995593071
1774657826563563000,6.14456298828125,4.060619831085205,8.96829891204834,0.13160525262355804
1774657826580351700,6.161351806640625,4.000799655914307,9.011369705200195,-0.19381862878799438
1774657826597140500,6.178140380859375,3.469592809677124,9.214759826660156,-0.01196411345154047
1774657826613929200,6.19492919921875,4.3788652420043945,8.96112060546875,-0.28235307335853577
1774657826630718200,6.21171826171875,3.373879909515381,9.123832702636719,-0.08135596662759781
1774657826647507000,6.2285068359375,3.641875982284546,9.09990406036377,-0.3565305769443512
1774657826664295700,6.245295654296875,4.333401679992676,8.745766639709473,0.019142581149935722
1774657826681084400,6.26208447265625,3.5461630821228027,9.128618240356445,-0.1746760457754135
1774657826697873200,6.278873046875,4.29033088684082,8.831908226013184,0.009571290574967861
1774657826714662100,6.295662109375,3.838087558746338,9.097511291503906,-0.19381862878799438
1774657826731451000,6.312450927734375,3.5605201721191406,9.18843936920166,0.07178468257188797
1774657826748239600,6.329239501953125,4.053441524505615,8.982656478881836,-0.2799602448940277
1774657826765028400,6.3460283203125,3.9433717727661133,8.894122123718262,-0.08374879509210587
1774657826781817000,6.362817138671875,3.541377544403076,9.284152030944824,-0.16510476171970367
1774657826798605800,6.379605712890625,4.596612453460693,8.793622970581055,-0.24167509377002716
1774657826815394800,6.396394775390625,3.8428730964660645,9.001798629760742,-0.2560320198535919
1774657826832183600,6.41318359375,3.3643085956573486,9.176474571228027,-0.10767702013254166
1774657826848972300,6.42997216796875,4.34536600112915,8.827122688293457,-0.0933200865983963
1774657826865761000,6.446760986328125,3.7806596755981445,8.96112060546875,-0.11724831163883209
1774657826882550000,6.463550048828125,3.6227335929870605,9.174081802368164,0.02871387079358101
1774657826899338800,6.4803388671875,4.168296813964844,8.922835350036621,-0.1459621787071228
1774657826916127500,6.49712744140625,3.682554006576538,8.994620323181152,0.18903298676013947
1774657826932916200,6.513916259765625,4.005585193634033,9.138189315795898,0.08853443711996078
1774657826949705000,6.530705078125,4.156332969665527,8.903693199157715,-0.07896314561367035
1774657826966494000,6.547493896484375,3.6370904445648193,9.200403213500977,-0.24885354936122894
1774657826983282700,6.56428271484375,3.87876558303833,9.087940216064453,-0.1698904037475586
1774657827000071400,6.581071533203125,4.357329845428467,8.846264839172363,-0.23688943684101105
1774657827016860200,6.597860107421875,3.6323046684265137,9.052047729492188,-0.10049854964017868
1774657827033649000,6.61464892578125,3.6370904445648193,9.09272575378418,-0.17228323221206665
1774657827050438000,6.63143798828125,4.292723655700684,8.798408508300781,-0.1746760457754135
1774657827067226600,6.6482265625,3.627519130706787,9.080761909484863,0.004785645287483931
1774657827084015400,6.665015380859375,3.7112679481506348,9.104690551757812,-0.07178468257188797
1774657827100804000,6.68180419921875,3.957728624343872,9.020941734313965,0.04785645380616188
1774657827117592800,6.6985927734375,3.744767427444458,9.164510726928711,-0.17706887423992157
1774657827134381800,6.7153818359375,3.8979079723358154,8.982656478881836,-0.18903298676013947
1774657827151170600,6.732170654296875,3.768695592880249,9.052047729492188,-0.19621145725250244
1774657827167959300,6.748959228515625,3.924229145050049,8.992227554321289,-0.23210379481315613
1774657827184748000,6.765748046875,4.194618225097656,8.894122123718262,-0.16510476171970367
1774657827201536800,6.782536865234375,3.82373046875,9.10229778289795,-0.08374879509210587
1774657827218325800,6.79932568359375,3.792623996734619,9.332008361816406,-0.13160525262355804
1774657827235114500,6.816114501953125,3.5030922889709473,8.96112060546875,-0.08374879509210587
1774657827251903200,6.8329033203125,3.4815568923950195,9.138189315795898,0.1986042857170105
1774657827268692000,6.84969189453125,3.81655216217041,8.987442016601562,0.035892341285943985
1774657827285480700,6.866480712890625,4.271188259124756,8.858229637145996,-0.12681959569454193
1774657827302269400,6.88326953125,3.4241292476654053,9.279366493225098,-0.17946170270442963
1774657827319058400,6.900058349609375,4.101297855377197,8.910871505737305,-0.2273181527853012
1774657827335847200,6.91684716796875,3.8835511207580566,8.934800148010254,-0.09092725813388824
1774657827352636000,6.933635986328125,3.6155550479888916,9.1716890335083,-0.14117653667926788
1774657827369424600,6.950424560546875,4.130012035369873,9.087940216064453,-0.2392822653055191
1774657827386213400,6.96721337890625,3.9792640209198,9.107083320617676,-0.23210379481315613
1774657827403002400,6.98400244140625,3.9074792861938477,9.080761909484863,-0.08614161610603333
1774657827419791000,7.000791015625,3.7232320308685303,9.119047164916992,0.014356935396790504
1774657827436579800,7.017579833984375,3.94815731048584,8.874979019165039,0.04307080805301666
1774657827453368600,7.03436865234375,4.060619831085205,8.93240737915039,-0.05503492057323456
1774657827470157600,7.051157470703125,4.019941806793213,9.276973724365234,0.03349951654672623
1774657827486946300,7.0679462890625,4.199403762817383,8.920442581176758,-0.2919243574142456
1774657827503735000,7.084735107421875,3.737588882446289,9.116654396057129,-0.1818545162677765
1774657827520523800,7.101523681640625,3.170490026473999,9.4660062789917,-0.26081767678260803
1774657827537312500,7.1183125,3.4097721576690674,9.126225471496582,-0.16271193325519562
1774657827554101500,7.1351015625,3.3164522647857666,9.305686950683594,-0.21774685382843018
1774657827570890200,7.15189013671875,3.759124279022217,9.190832138061523,-0.1866401731967926
1774657827587679000,7.168678955078125,4.4961137771606445,8.616554260253906,-0.519242525100708
1774657827604467700,7.1854677734375,1.6031911373138428,9.525827407836914,0.2512463629245758
1774657827621256400,7.20225634765625,3.589233875274658,9.20997428894043,-0.07657032459974289
1774657827638045400,7.21904541015625,4.618147850036621,8.532805442810059,-0.20099709928035736
1774657827654834200,7.235834228515625,1.8592232465744019,9.978070259094238,0.48095735907554626
1774657827671623000,7.252622802734375,4.9124650955200195,9.169296264648438,-0.4043870270252228
1774657827688411600,7.26941162109375,3.9744784832000732,9.32004451751709,0.14835500717163086
1774657827705200600,7.28620068359375,2.682354211807251,10.248459815979004,-0.4618147611618042
1774657827721989400,7.3029892578125,4.553541660308838,9.623932838439941,-0.1459621787071228
1774657827738778000,7.319778076171875,2.837887763977051,10.628918647766113,-0.32303106784820557
1774657827755566800,7.33656689453125,3.6394832134246826,10.26760196685791,-0.1579262912273407
1774657827772355800,7.35335595703125,3.665804386138916,10.40638542175293,-0.2584248483181
1774657827789144600,7.37014453125,3.462414264678955,10.332208633422852,0.04307080805301666
1774657827805933300,7.386933349609375,1.5098711252212524,11.243873596191406,0.04785645380616188
1774657827822722000,7.40372216796875,3.9768712520599365,10.49970531463623,-0.040677983313798904
1774657827839511000,7.420510986328125,0.08853443711996078,11.425727844238281,-0.016749758273363113
1774657827856299800,7.4372998046875,3.579662561416626,9.896714210510254,0.20338992774486542
1774657827873088500,7.454088623046875,6.1399827003479,8.93240737915039,0.04307080805301666
1774657827889877200,7.470877197265625,8.367700576782227,7.8819580078125,-0.4426721930503845
1774657827906666000,7.487666015625,8.427521705627441,7.183253765106201,0.1818545162677765
1774657827923455000,7.504455078125,9.626325607299805,6.951149940490723,-0.7489534616470337
1774657827940243700,7.52124365234375,7.503891944885254,7.345965385437012,-0.16271193325519562
1774657827957032400,7.538032470703125,4.6372904777526855,9.152546882629395,-0.1698904037475586
1774657827973821400,7.554821533203125,2.5076780319213867,9.741181373596191,0.02632104977965355
1774657827990610200,7.571610107421875,2.1607189178466797,9.42772102355957,-0.1339980661869049
1774657828007399000,7.58839892578125,3.957728624343872,8.504091262817383,-0.2799602448940277
1774657828024187600,7.605187744140625,5.517848968505859,8.087740898132324,-0.21296121180057526
1774657828040976400,7.621976318359375,4.479363918304443,8.559126853942871,0.01196411345154047
1774657828057765400,7.638765380859375,2.6560330390930176,8.781659126281738,0.01196411345154047
1774657828074554000,7.65555419921875,3.077169895172119,8.228917121887207,-0.20338992774486542
1774657828091342800,7.6723427734375,3.414557933807373,7.568498134613037,-0.2727817893028259
1774657828108131600,7.689131591796875,7.204789161682129,6.099305152893066,-0.39960137009620667
1774657828124920300,7.70592041015625,7.336394309997559,4.838287353515625,-0.23210379481315613
1774657828141709300,7.722709228515625,7.441678524017334,6.065805435180664,-0.5264210104942322
1774657828158498000,7.739498046875,6.4941205978393555,5.350351333618164,-0.019142581149935722
1774657828175286800,7.756286865234375,7.018148899078369,5.814558982849121,-0.48095735907554626
1774657828192075500,7.773075439453125,6.460621356964111,5.529813289642334,-0.22013968229293823
1774657828208864500,7.789864501953125,6.750152587890625,5.501099109649658,-0.28953152894973755
1774657828225653200,7.8066533203125,7.003791809082031,5.8337016105651855,-0.18424734473228455
1774657828242442000,7.82344189453125,5.484349727630615,6.463014125823975,-0.1866401731967926
1774657828259230700,7.840230712890625,4.1419758796691895,7.0923261642456055,-0.07417750358581543
1774657828276019700,7.857019775390625,2.744567632675171,7.75753116607666,-0.07896314561367035
1774657828292808400,7.873808349609375,2.59621262550354,7.743174076080322,-0.16031911969184875
1774657828309597200,7.89059716796875,5.469992637634277,6.130411624908447,-0.2512463629245758
1774657828326386000,7.907385986328125,51.321258544921875,-14.074583053588867,-2.9144580364227295
1774657828343175000,7.9241748046875,-20.47777557373047,15.096318244934082,3.7710886001586914
1774657828359963600,7.940963623046875,8.350951194763184,5.627918720245361,-3.486342668533325
1774657828376752400,7.95775244140625,20.956340789794922,0.380458801984787,1.8640087842941284
1774657828393541000,7.974541015625,-8.10688304901123,13.191631317138672,-1.0265209674835205
1774657828410329900,7.991329833984375,13.213166236877441,3.390629768371582,-1.0480563640594482
1774657828427118600,8.00811865234375,8.102097511291504,5.594419479370117,1.6462619304656982
1774657828443907600,8.024907470703125,7.207181930541992,6.223731517791748,-2.589034080505371
1774657828460696300,8.0416962890625,5.838487148284912,6.738188743591309,1.8376877307891846
1774657828477485000,8.058485107421875,8.159524917602539,6.025127410888672,-1.4979069232940674
1774657828494273800,8.075273681640626,8.987442016601562,5.113461971282959,0.1579262912273407
1774657828511062800,8.092062744140625,6.113661766052246,6.558726787567139,-0.22971096634864807
1774657828527851500,8.1088515625,7.88913631439209,5.599205017089844,-0.7657032608985901
1774657828544640300,8.12564013671875,8.439485549926758,5.237888813018799,0.12442677468061447
1774657828561429000,8.142428955078126,7.0923261642456055,6.092126369476318,-0.9547362327575684
1774657828578218000,8.159218017578125,7.439285755157471,5.974878311157227,0.2273181527853012
1774657828595006700,8.1760068359375,7.037291526794434,6.206982135772705,-0.5072783827781677
1774657828611795500,8.19279541015625,8.118846893310547,5.6685967445373535,0.12203395366668701
1774657828628584200,8.209584228515626,7.635497093200684,6.094519138336182,-0.33499518036842346
1774657828645373000,8.226373046875,7.980063438415527,5.9509501457214355,-0.031106693670153618
1774657828662162000,8.243161865234375,7.558926582336426,6.065805435180664,-0.24885354936122894
1774657828678950700,8.25995068359375,8.063812255859375,6.120840549468994,-0.24167509377002716
1774657828695739400,8.276739501953125,7.4847493171691895,6.288337707519531,-0.19381862878799438
1774657828712528100,8.293528076171874,9.116654396057129,5.367101192474365,-0.5694918036460876
1774657828729316900,8.31031689453125,7.5637125968933105,5.953342914581299,-0.5216353535652161
1774657828746105900,8.32710595703125,7.800601959228516,5.637490272521973,-0.3278166949748993
1774657828762894600,8.34389453125,7.133004188537598,6.297909259796143,-0.0526420995593071
1774657828779683300,8.360683349609374,7.781459331512451,5.694917678833008,-0.3158525824546814
1774657828796472000,8.37747216796875,8.044670104980469,5.824130535125732,-0.35892340540885925
1774657828813261000,8.394260986328124,6.809973239898682,6.4941205978393555,-0.18903298676013947
1774657828830049800,8.4110498046875,8.00638484954834,6.2428741455078125,-0.3756731450557709
1774657828846838500,8.427838623046876,7.520641803741455,6.1950178146362305,-0.0023928226437419653
1774657828863627300,8.444627197265625,9.119047164916992,5.766702651977539,-0.36610186100006104
1774657828880416000,8.461416015625,6.869793891906738,6.6113691329956055,-0.040677983313798904
1774657828897205000,8.478205078125,8.444271087646484,5.974878311157227,-0.5551348328590393
1774657828913993700,8.49499365234375,7.456035137176514,6.302694797515869,-0.23449662327766418
1774657828930782500,8.511782470703125,8.066205024719238,6.044270038604736,-0.4905286431312561
1774657828947571200,8.5285712890625,7.846065521240234,6.228517532348633,-0.31345975399017334
1774657828964360000,8.54535986328125,6.867401123046875,6.4701924324035645,-0.6556333899497986
1774657828981149000,8.56214892578125,8.410771369934082,5.367101192474365,-0.27756741642951965
1774657828997937700,8.578937744140624,7.197610378265381,6.087340831756592,-0.41874396800994873
1774657829014726400,8.595726318359375,7.585247993469238,5.886343479156494,-0.09810572862625122
1774657829031515100,8.61251513671875,7.575676441192627,6.005984783172607,-0.4139583110809326
1774657829048304000,8.62930419921875,7.0755767822265625,6.2668023109436035,-0.07178468257188797
1774657829065092900,8.6460927734375,7.195217609405518,6.211767673492432,-0.1579262912273407
1774657829081881600,8.662881591796875,8.662017822265625,5.474778175354004,-0.34217363595962524
1774657829098670300,8.67967041015625,6.620940208435059,6.774080753326416,-0.1866401731967926
1774657829115459000,8.696458984375,7.884350776672363,6.063412666320801,-0.27756741642951965
1774657829132247800,8.713247802734376,7.587640762329102,6.1328043937683105,-0.5599204897880554
1774657829149036800,8.730036865234375,7.377072334289551,6.235695838928223,-0.062213387340307236
1774657829165825500,8.746825439453126,8.34855842590332,5.649454116821289,-0.6245267391204834
1774657829182614300,8.7636142578125,7.5804619789123535,6.149554252624512,-0.14835500717163086
1774657829199403000,8.780403076171876,7.6474609375,5.903093338012695,-0.3924229145050049
1774657829216192000,8.79719189453125,8.264809608459473,5.776273727416992,-0.0526420995593071
1774657829232980700,8.813980712890626,7.621140003204346,6.044270038604736,-0.2584248483181
1774657829249769500,8.83076953125,8.549555778503418,5.608776092529297,-0.4737788736820221
1774657829266558200,8.84755810546875,6.903293132781982,6.314659118652344,-0.04546362906694412
1774657829283347000,8.864346923828125,7.759923934936523,5.9437713623046875,-0.576670229434967
1774657829300136000,8.881135986328125,7.429714202880859,5.955735683441162,-0.1866401731967926
1774657829316924700,8.897924560546874,7.317251682281494,6.051448345184326,-0.43549370765686035
1774657829333713400,8.91471337890625,7.767102241516113,5.848058700561523,-0.2560320198535919
1774657829350502100,8.931502197265624,7.558926582336426,5.869594097137451,-0.28953152894973755
1774657829367291000,8.948290771484375,7.716853141784668,5.804987907409668,-0.22971096634864807
1774657829384080000,8.965079833984374,7.817351341247559,5.697310924530029,-0.33738797903060913
1774657829400868600,8.98186865234375,7.57806921005249,5.663811206817627,-0.3158525824546814
1774657829417657300,8.9986572265625,7.475177764892578,5.491528034210205,-0.3086741268634796
1774657829434446000,9.015446044921875,7.286144733428955,5.563312530517578,-0.35413774847984314
1774657829451234800,9.03223486328125,7.044469833374023,5.412564754486084,-0.11964113265275955
1774657829468023800,9.04902392578125,6.989434719085693,5.328815937042236,-0.3852444589138031
1774657829484812500,9.0658125,6.632904529571533,5.481956481933594,-0.15553347766399384
1774657829501601300,9.082601318359375,7.152146816253662,5.149354457855225,-0.38285163044929504
1774657829518390000,9.09939013671875,6.798008918762207,5.37906551361084,-0.2919243574142456
1774657829535178800,9.1161787109375,6.955935478210449,5.278566837310791,-0.24167509377002716
1774657829551967500,9.132967529296875,7.267002582550049,5.127819061279297,-0.2679961323738098
1774657829568756500,9.149756591796875,7.238288402557373,5.245067119598389,-0.19142581522464752
1774657829585545200,9.166545166015625,6.845865726470947,5.460421085357666,-0.39481574296951294
1774657829602334000,9.183333984375,7.403393268585205,5.257031440734863,-0.5240281820297241
1774657829619122700,9.200122802734375,6.857829570770264,5.240281581878662,-0.17706887423992157
1774657829635911400,9.216911376953124,6.960721015930176,5.20678186416626,-0.05024927482008934
1774657829652700400,9.233700439453125,6.98704195022583,5.625525951385498,-0.31824541091918945
1774657829669489200,9.2504892578125,7.121040344238281,5.6590256690979,-0.3684946894645691
1774657829686278000,9.26727783203125,6.953542709350586,5.694917678833008,-0.5599204897880554
1774657829703066600,9.284066650390624,7.69531774520874,5.840879917144775,-0.31345975399017334
1774657829719855400,9.30085546875,7.142575740814209,5.484349727630615,-0.06699903309345245
1774657829736644400,9.317644287109376,7.740781307220459,5.594419479370117,-0.33738797903060913
1774657829753433000,9.33443310546875,7.774280548095703,5.6685967445373535,-0.2871387302875519
1774657829770221800,9.351221923828126,7.1473612785339355,5.747560024261475,-0.4450650215148926
1774657829787010600,9.368010498046875,7.88913631439209,5.98444938659668,-0.3517449200153351
1774657829803799300,9.38479931640625,8.003992080688477,5.953342914581299,-0.5072783827781677
1774657829820588300,9.40158837890625,7.487142086029053,5.821737289428711,-0.6604190468788147
1774657829837377000,9.418376953125,7.6474609375,5.7619171142578125,-0.14835500717163086
1774657829854165800,9.435165771484375,7.750352382659912,6.510870456695557,-0.4426721930503845
1774657829870954500,9.45195458984375,7.412964344024658,5.910272121429443,0.15074782073497772
1774657829887743200,9.4687431640625,7.046862602233887,5.627918720245361,-0.2273181527853012
1774657829904532000,9.485531982421875,8.470592498779297,6.2500529289245605,-0.30628129839897156
1774657829921321000,9.502321044921874,7.5326056480407715,5.883950710296631,-0.380458801984787
1774657829938109700,9.519109619140625,7.5708909034729,5.960521221160889,0.07896314561367035
1774657829954898400,9.5358984375,7.652246952056885,5.625525951385498,-0.04546362906694412
1774657829971687200,9.552687255859375,7.429714202880859,6.38165807723999,-0.1986042857170105
1774657829988476200,9.56947607421875,7.645068168640137,5.706881999969482,-0.5240281820297241
1774657830005265000,9.586264892578125,7.7216386795043945,6.128018856048584,-0.11485548317432404
1774657830022053600,9.6030537109375,7.137789726257324,6.422336101531982,-0.48574298620224
1774657830038842400,9.61984228515625,8.614161491394043,6.355337142944336,-0.641276478767395
1774657830055631000,9.636631103515626,7.312466144561768,6.340980052947998,-0.2632105052471161
1774657830072419800,9.653419921875,8.22413158416748,6.283552169799805,-0.4259224236011505
1774657830089208800,9.670208740234376,7.814958572387695,6.168696880340576,-0.2584248483181
1774657830105997600,9.68699755859375,7.755138397216797,6.0849480628967285,-0.2919243574142456
1774657830122786300,9.703786376953126,7.905886173248291,5.958128452301025,-0.12921242415905
1774657830139575300,9.7205751953125,8.056633949279785,5.888736724853516,-0.46420758962631226
1774657830156364000,9.737364013671876,7.980063438415527,6.254838466644287,-0.16749759018421173
1774657830173152800,9.75415283203125,7.202396392822266,6.240481376647949,-0.11724831163883209
1774657830189941500,9.77094140625,8.008777618408203,6.350551128387451,-0.27756741642951965
1774657830206730200,9.787730224609374,8.221738815307617,6.340980052947998,-0.45942193269729614
1774657830223519200,9.804519287109375,7.539783954620361,6.199803352355957,-0.2991028428077698
1774657830240308000,9.821307861328124,7.9657063484191895,6.281159400939941,-0.33020952343940735
1774657830257096700,9.8380966796875,7.738388538360596,6.204588890075684,0.07896314561367035
1774657830273885400,9.854885498046874,8.003992080688477,6.446264266967773,-0.519242525100708
1774657830290674400,9.87167431640625,7.429714202880859,6.063412666320801,-0.2392822653055191
1774657830307463200,9.888463134765624,7.551748275756836,5.965306758880615,-0.7728816866874695
1774657830324252000,9.905251953125,8.169096946716309,6.013163089752197,-0.2919243574142456
1774657830341040600,9.92204052734375,7.874779224395752,6.355337142944336,-0.2225325107574463
1774657830357829400,9.938829345703125,7.95134973526001,6.226124286651611,-0.12921242415905
1774657830374618400,9.955618408203126,8.147561073303223,6.130411624908447,-0.2560320198535919
1774657830391407000,9.972406982421875,8.051848411560059,6.214160442352295,-0.48574298620224
1774657830408195800,9.98919580078125,8.185846328735352,6.305087566375732,-0.18903298676013947
1774657830424984600,10.005984619140625,7.707281589508057,6.1950178146362305,-0.4426721930503845
1774657830441773600,10.022773681640626,8.142775535583496,6.597012042999268,-0.13160525262355804
1774657830458562300,10.039562255859375,7.872386455535889,6.628118515014648,-0.14356936514377594
1774657830475351000,10.05635107421875,7.618747234344482,6.429514408111572,-0.27038896083831787
1774657830492139800,10.073139892578125,8.056633949279785,6.269195556640625,-0.6005984544754028
1774657830508928800,10.0899287109375,7.659425258636475,6.307480335235596,-0.22492532432079315
1774657830525717500,10.106717529296875,8.422736167907715,6.532405853271484,-0.3326023519039154
1774657830542506200,10.12350634765625,8.0350980758667,6.180660724639893,-0.1986042857170105
1774657830559295000,10.140294921875,8.011170387268066,5.907878875732422,-0.36610186100006104
1774657830576083700,10.157083740234375,7.903493404388428,6.235695838928223,-0.4091726839542389
1774657830592872700,10.173872802734374,7.728816986083984,6.324230194091797,-0.14835500717163086
1774657830609661400,10.190661376953125,8.4562349319458,6.309873104095459,-0.28235307335853577
1774657830626450200,10.2074501953125,7.865208148956299,6.0777692794799805,-0.23449662327766418
1774657830643239000,10.224239013671875,8.042277336120605,6.4079790115356445,-0.44027936458587646
1774657830660027600,10.241027587890626,7.891529083251953,6.230910301208496,-0.2584248483181
1774657830676816600,10.257816650390625,7.542177200317383,6.1088762283325195,-0.2799602448940277
1774657830693605400,10.27460546875,7.592426300048828,6.0466628074646,-0.15074782073497772
1774657830710394000,10.29139404296875,7.917850017547607,6.333801746368408,-0.4211367964744568
1774657830727183000,10.30818310546875,7.8628153800964355,6.400800704956055,-0.14835500717163086
1774657830743971800,10.324971923828125,8.169096946716309,6.104090690612793,-0.349352091550827
1774657830760760600,10.341760498046876,7.506284713745117,5.881557941436768,-0.32303106784820557
1774657830777549300,10.35854931640625,8.329415321350098,6.204588890075684,-0.26081767678260803
1774657830794338000,10.375338134765625,7.786244869232178,6.199803352355957,-0.729810893535614
1774657830811127000,10.392126953125,7.853243827819824,5.539384365081787,0.05024927482008934
1774657830827915800,10.408915771484375,7.5637125968933105,6.223731517791748,-0.4546363055706024
1774657830844704500,10.42570458984375,7.585247993469238,6.183053493499756,0.05024927482008934
1774657830861493200,10.4424931640625,8.212167739868164,6.008377552032471,-0.4043870270252228
1774657830878282000,10.459281982421874,7.712067604064941,6.2500529289245605,-0.3852444589138031
1774657830895071000,10.476071044921875,7.733603000640869,5.931807518005371,-0.23688943684101105
1774657830911859700,10.492859619140624,8.097311973571777,6.269195556640625,-0.380458801984787
1774657830928648400,10.5096484375,7.534998416900635,6.123233318328857,0.0526420995593071
1774657830945437200,10.526437255859374,7.824530124664307,6.290730953216553,-0.4953143000602722
1774657830962226200,10.54322607421875,7.81974458694458,6.338587284088135,-0.20578274130821228
1774657830979015000,10.560014892578126,7.860422611236572,6.214160442352295,-0.3684946894645691
1774657830995803600,10.5768037109375,7.551748275756836,6.104090690612793,-0.22013968229293823
1774657831012592400,10.59359228515625,7.939385414123535,6.293123722076416,-0.4043870270252228
1774657831029381000,10.610381103515625,7.82692289352417,6.269195556640625,-0.12921242415905
1774657831046170000,10.627170166015626,8.032705307006836,6.281159400939941,-0.3326023519039154
1774657831062958800,10.643958740234375,8.066205024719238,6.393621921539307,-0.36610186100006104
1774657831079747600,10.66074755859375,8.008777618408203,6.1399827003479,-0.2153540402650833
1774657831096536300,10.677536376953125,7.908278942108154,6.2668023109436035,-0.19142581522464752
1774657831113325000,10.694324951171875,7.77188777923584,6.16391134262085,-0.23210379481315613
1774657831130114000,10.711114013671875,8.015955924987793,6.329015731811523,-0.22492532432079315
1774657831146902800,10.72790283203125,7.791030406951904,6.38883638381958,-0.20338992774486542
1774657831163691500,10.74469140625,8.11406135559082,6.52044153213501,-0.32542386651039124
1774657831180480300,10.761480224609375,8.073383331298828,6.460621356964111,-0.33020952343940735
1774657831197269000,10.77826904296875,8.200202941894531,6.441478729248047,-0.41156548261642456
1774657831214058000,10.79505810546875,8.204988479614258,6.561119556427002,-0.4019941985607147
1774657831230846700,10.8118466796875,8.317451477050781,6.510870456695557,-0.4019941985607147
1774657831247635500,10.828635498046875,8.628518104553223,6.45822811126709,-0.2727817893028259
1774657831264424200,10.845424072265626,8.200202941894531,6.704689025878906,-0.22971096634864807
1774657831281213000,10.862212890625,8.408378601074219,6.821937561035156,-0.1818545162677765
1774657831298002000,10.879001953125,8.49452018737793,6.898507595062256,-0.20338992774486542
1774657831314790700,10.895790771484375,8.12123966217041,6.936792850494385,-0.24646073579788208
1774657831331579400,10.912579345703126,8.647661209106445,6.922435760498047,-0.2967100143432617
1774657831348368100,10.9293681640625,8.688339233398438,6.922435760498047,-0.363709032535553
1774657831365156900,10.946156982421876,8.322237014770508,6.932007312774658,-0.2273181527853012
1774657831381945900,10.96294580078125,8.858229637145996,6.92482852935791,-0.33020952343940735
1774657831398734600,10.979734619140626,8.477770805358887,6.915257453918457,-0.3397808074951172
1774657831415523300,10.9965234375,8.628518104553223,7.027719974517822,-0.397208571434021
1774657831432312000,11.01331201171875,8.798408508300781,6.812366008758545,-0.33738797903060913
1774657831449101000,11.03010107421875,8.427521705627441,6.97986364364624,-0.349352091550827
1774657831465889800,11.046889892578125,8.760123252868652,7.077969551086426,-0.1579262912273407
1774657831482678500,11.063678466796874,8.863015174865723,6.884150981903076,-0.2991028428077698
1774657831499467300,11.08046728515625,8.827122688293457,6.845865726470947,-0.2847459018230438
1774657831516256000,11.097256103515624,8.401200294494629,6.515655994415283,-0.3517449200153351
1774657831533044700,11.114044677734375,8.86062240600586,6.7621169090271,-0.275174617767334
1774657831549833700,11.130833740234374,8.492127418518066,6.98704195022583,-0.15074782073497772
1774657831566622500,11.14762255859375,7.810173034667969,6.915257453918457,-0.1339980661869049
1774657831583411200,11.1644111328125,8.425128936767578,6.685546398162842,-0.24646073579788208
1774657831600200000,11.181199951171875,8.50169849395752,6.903293132781982,-0.43549370765686035
1774657831616989000,11.197989013671876,8.044670104980469,6.649653911590576,-0.3326023519039154
1774657831633777700,11.214777587890625,8.62612533569336,6.491727828979492,-0.30149564146995544
1774657831650566400,11.23156640625,8.542376518249512,6.745367050170898,-0.5575276613235474
1774657831667355100,11.248355224609375,8.293522834777832,6.333801746368408,-0.3852444589138031
1774657831684143900,11.265143798828126,8.740981101989746,6.843472957611084,0.02871387079358101
1774657831700932600,11.2819326171875,8.018348693847656,6.3601226806640625,-0.3038884699344635
1774657831717721600,11.2987216796875,7.637889862060547,6.577869415283203,-0.19381862878799438
1774657831734510300,11.31551025390625,8.264809608459473,6.764509677886963,0.02153540402650833
1774657831751299000,11.332299072265625,8.640482902526855,6.891329288482666,-0.44745782017707825
1774657831768087800,11.349087890625,8.102097511291504,6.580262184143066,-0.1698904037475586
1774657831784876800,11.365876708984375,8.566305160522461,6.752545356750488,-0.4211367964744568
1774657831801665500,11.38266552734375,8.34138011932373,6.544369697570801,-0.3517449200153351
1774657831818454300,11.399454345703125,8.544769287109375,6.58265495300293,-0.3445664644241333
1774657831835243000,11.416242919921874,8.236095428466797,6.561119556427002,-0.43549370765686035
1774657831852031700,11.43303173828125,8.405985832214355,6.31944465637207,-0.32303106784820557
1774657831868820500,11.449820556640624,7.8795647621154785,6.6831536293029785,-0.11485548317432404
1774657831885609500,11.466609375,8.336593627929688,6.324230194091797,-0.38763725757598877
1774657831902398200,11.483398193359376,7.960920810699463,6.410371780395508,-0.38763725757598877
1774657831919187000,11.50018701171875,8.166703224182129,5.965306758880615,-0.4091726839542389
1774657831935975700,11.5169755859375,7.489534854888916,6.197410583496094,-0.09092725813388824
1774657831952764400,11.533764404296875,8.228917121887207,6.032305717468262,-0.363709032535553
1774657831969553400,11.550553466796876,7.520641803741455,6.034698486328125,-0.4043870270252228
1774657831986342100,11.567342041015625,7.767102241516113,6.017949104309082,-0.064606212079525
1774657832003131000,11.584130859375,7.4225358963012695,5.726024627685547,-0.4666004180908203
1774657832019919600,11.600919677734375,6.7310099601745605,5.584847927093506,-0.3158525824546814
1774657832036708600,11.61770849609375,6.786045074462891,5.412564754486084,-0.3684946894645691
1774657832053497300,11.634497314453125,6.728617191314697,5.166104316711426,-0.39481574296951294
1774657832070286000,11.6512861328125,6.874579429626465,4.6372904777526855,-0.5096712112426758
1774657832087074800,11.66807470703125,6.69990348815918,4.692325115203857,-0.2512463629245758
1774657832103863600,11.684863525390625,6.211767673492432,4.893322467803955,-0.2727817893028259
1774657832120652300,11.70165234375,6.149554252624512,4.108476638793945,-0.064606212079525
1774657832137441300,11.718441162109375,5.694917678833008,4.505684852600098,-0.397208571434021
1774657832154230000,11.73522998046875,5.79063081741333,3.864408493041992,-0.7585247755050659
1774657832171018800,11.752018798828125,5.625525951385498,3.900300979614258,-0.04307080805301666
1774657832187807500,11.768807373046876,5.489135265350342,4.022335052490234,-0.41156548261642456
1774657832204596500,11.785596435546875,5.613562107086182,3.996013879776001,-0.2799602448940277
1774657832221385200,11.80238525390625,5.544169902801514,4.151547431945801,-0.2679961323738098
1774657832238174000,11.819174072265625,5.647061347961426,3.90987229347229,-0.2632105052471161
1774657832254962700,11.835962646484376,5.371886730194092,3.981656789779663,-0.17946170270442963
1774657832271751700,11.852751708984375,5.704489231109619,4.060619831085205,-0.1986042857170105
1774657832288540400,11.86954052734375,5.6925249099731445,4.333401679992676,-0.20099709928035736
1774657832305329200,11.8863291015625,5.97727108001709,4.0797624588012695,-0.275174617767334
1774657832322118000,11.903117919921876,6.1399827003479,4.603790760040283,-0.20099709928035736
1774657832338906600,11.91990673828125,6.262016773223877,4.567898273468018,-0.30149564146995544
1774657832355695600,11.936695556640625,6.503692150115967,4.584648132324219,-0.44745782017707825
1774657832372484400,11.953484375,6.788437843322754,5.233103275299072,0.019142581149935722
1774657832389273000,11.970273193359375,7.054041385650635,5.216353416442871,-0.4570291340351105
1774657832406061800,11.987061767578124,6.896114826202393,5.146961688995361,-0.5288137793540955
1774657832422850800,12.003850830078125,7.087540626525879,5.292923450469971,-0.0933200865983963
1774657832439639600,12.0206396484375,6.8410797119140625,5.142175674438477,-0.2105683982372284
1774657832456428300,12.03742822265625,7.3746795654296875,5.948556900024414,-0.4378865361213684
1774657832473217000,12.054217041015624,7.594819068908691,5.694917678833008,-0.2991028428077698
1774657832490006000,12.071006103515625,6.879364967346191,5.252245903015137,-0.5120640397071838
1774657832506794800,12.087794677734376,7.420143127441406,5.474778175354004,-0.27756741642951965
1774657832523583500,12.10458349609375,7.178467750549316,5.714060306549072,-0.21774685382843018
1774657832540372200,12.121372314453126,6.8243303298950195,5.469992637634277,-0.3684946894645691
1774657832557161200,12.1381611328125,6.498906135559082,5.161318302154541,0.10289137065410614
1774657832573950000,12.154949951171876,7.506284713745117,5.587240695953369,-0.851844847202301
1774657832590738700,12.17173876953125,7.216753005981445,5.357530117034912,-0.2392822653055191
1774657832607527400,12.18852734375,6.896114826202393,5.163711071014404,-0.2799602448940277
1774657832624316400,12.20531640625,7.240681171417236,6.070590972900391,-0.5479564070701599
1774657832641105200,12.222105224609376,7.441678524017334,5.190032482147217,-0.08614161610603333
1774657832657894000,12.238893798828125,7.963313579559326,6.065805435180664,0.0023928226437419653
1774657832674682600,12.2556826171875,7.2574310302734375,5.840879917144775,-0.15314064919948578
1774657832691471400,12.272471435546874,7.625925540924072,6.10169792175293,-0.2871387302875519
1774657832708260400,12.28926025390625,7.618747234344482,6.1710896492004395,-0.28953152894973755
1774657832725049000,12.306049072265624,8.276773452758789,6.6113691329956055,-0.2560320198535919
1774657832741837800,12.322837890625,7.680960655212402,6.051448345184326,-0.37088751792907715
1774657832758626600,12.33962646484375,7.953742504119873,6.491727828979492,-0.4666004180908203
1774657832775415600,12.35641552734375,8.044670104980469,6.2189459800720215,-0.2105683982372284
1774657832792204300,12.373204345703124,8.044670104980469,5.960521221160889,-0.7800601720809937
1774657832808993000,12.389992919921875,8.25523853302002,6.527620315551758,-0.49292147159576416
1774657832825781800,12.40678173828125,8.195417404174805,6.580262184143066,-0.2799602448940277
1774657832842570800,12.42357080078125,8.559126853942871,6.558726787567139,-0.11964113265275955
1774657832859359500,12.440359375,8.23848819732666,6.393621921539307,-0.2225325107574463
1774657832876148200,12.457148193359375,8.0350980758667,6.439085960388184,-0.13878370821475983
1774657832892937000,12.47393701171875,7.980063438415527,6.482156753540039,-0.3900300860404968
1774657832909725700,12.4907255859375,7.999206066131592,6.577869415283203,-0.28235307335853577
1774657832926514700,12.5075146484375,7.554141044616699,6.45822811126709,-0.14117653667926788
1774657832943303400,12.524303466796875,7.932207107543945,6.417550563812256,-0.3900300860404968
1774657832960092200,12.541092041015625,8.169096946716309,6.317051887512207,-0.4378865361213684
1774657832976881000,12.557880859375,7.585247993469238,6.498906135559082,-0.21296121180057526
1774657832993669600,12.574669677734375,8.482556343078613,5.994020938873291,-0.40677985548973083
1774657833010458600,12.591458740234375,8.331808090209961,6.307480335235596,-0.11246266216039658
1774657833027247400,12.608247314453125,8.109275817871094,6.1950178146362305,-0.2967100143432617
1774657833044036000,12.6250361328125,8.13081169128418,6.498906135559082,-0.20099709928035736
1774657833060824800,12.641824951171875,8.068597793579102,6.314659118652344,-0.33020952343940735
1774657833077613800,12.65861376953125,8.21695327758789,6.7310099601745605,-0.37806597352027893
1774657833094402600,12.675402587890625,7.953742504119873,6.405586242675781,-0.3086741268634796
1774657833111191300,12.69219140625,8.477770805358887,6.666403770446777,-0.2584248483181
1774657833127980000,12.70897998046875,8.195417404174805,6.563512325286865,-0.16510476171970367
1774657833144768800,12.725768798828126,8.056633949279785,6.515655994415283,-0.19621145725250244
1774657833161557800,12.742557861328125,8.367700576782227,6.654439926147461,-0.48095735907554626
1774657833178346500,12.759346435546876,8.396414756774902,6.340980052947998,-0.3038884699344635
1774657833195135200,12.77613525390625,8.662017822265625,6.589833736419678,-0.07417750358581543
1774657833211924000,12.792924072265626,8.37727165222168,6.5874409675598145,-0.25363919138908386
1774657833228712700,12.809712646484375,7.946564197540283,6.728617191314697,-0.23210379481315613
1774657833245501700,12.826501708984376,8.252845764160156,6.355337142944336,-0.3397808074951172
1774657833262290400,12.84329052734375,8.367700576782227,6.711867332458496,-0.4498506486415863
1774657833279079200,12.8600791015625,8.123632431030273,6.503692150115967,-0.32303106784820557
1774657833295868000,12.876867919921875,8.015955924987793,6.424728870391846,-0.2105683982372284
1774657833312657000,12.893656982421875,8.597412109375,6.661618232727051,-0.5120640397071838
1774657833329445600,12.910445556640624,8.097311973571777,6.805187702178955,-0.39481574296951294
1774657833346234400,12.927234375,8.413164138793945,6.728617191314697,-0.3086741268634796
1774657833363023000,12.944023193359374,8.532805442810059,6.687939167022705,-0.24646073579788208
1774657833379811800,12.960811767578125,8.274380683898926,6.508477687835693,-0.20338992774486542
1774657833396600800,12.977600830078124,8.327022552490234,6.652047157287598,-0.19621145725250244
1774657833413389600,12.9943896484375,8.240880966186523,6.618547439575195,-0.33499518036842346
1774657833430178300,13.01117822265625,8.135597229003906,6.766902446746826,-0.2512463629245758
1774657833446967000,13.027967041015625,8.34855842590332,6.733402729034424,-0.3397808074951172
1774657833463755800,13.044755859375,8.248059272766113,6.726224422454834,-0.3684946894645691
1774657833480544800,13.061544677734375,8.49452018737793,6.697510719299316,-0.27756741642951965
1774657833497333500,13.07833349609375,8.525627136230469,6.640082836151123,-0.3397808074951172
1774657833514122200,13.095122314453125,8.23130989074707,6.750152587890625,-0.15553347766399384
1774657833530911000,13.111910888671876,8.470592498779297,6.6831536293029785,-0.34695929288864136
1774657833547700000,13.128699951171875,8.506484031677246,6.843472957611084,-0.27756741642951965
1774657833564488700,13.14548876953125,8.609375953674316,6.654439926147461,-0.4953143000602722
1774657833581277400,13.16227734375,8.219346046447754,6.860222339630127,-0.09092725813388824
1774657833598066200,13.179066162109375,8.353343963623047,6.776473522186279,-0.20817556977272034
1774657833614855000,13.19585498046875,8.477770805358887,6.778866767883301,-0.3565305769443512
1774657833631644000,13.212643798828125,8.568697929382324,6.661618232727051,-0.41156548261642456
1774657833648432600,13.2294326171875,8.415556907653809,6.809973239898682,-0.2847459018230438
1774657833665221400,13.246221435546875,8.788837432861328,6.8171515464782715,-0.1866401731967926
1774657833682010000,13.263010009765624,8.468199729919434,7.073183536529541,-0.19142581522464752
1774657833698798800,13.279798828125,8.805587768554688,6.807580471038818,-0.18424734473228455
1774657833715587800,13.296587890625,8.609375953674316,6.819544315338135,-0.32303106784820557
1774657833732376600,13.31337646484375,8.57348346710205,6.900900363922119,-0.519242525100708
1774657833749165300,13.330165283203126,8.621339797973633,7.109076023101807,0.03349951654672623
1774657833765954000,13.3469541015625,8.901300430297852,6.781259536743164,-0.44027936458587646
1774657833782742800,13.36374267578125,8.662017822265625,7.063612461090088,-0.34695929288864136
1774657833799531800,13.38053173828125,9.028120040893555,7.080362319946289,-0.07417750358581543
1774657833816320500,13.397320556640626,8.413164138793945,6.8482584953308105,-0.49292147159576416
1774657833833109200,13.414109130859375,8.650053977966309,6.850651264190674,0.007178467698395252
1774657833849898000,13.43089794921875,8.583054542541504,6.86261510848999,-0.397208571434021
1774657833866686700,13.447686767578125,8.446663856506348,6.721438884735107,-0.25363919138908386
1774657833883475500,13.464475341796875,8.291130065917969,6.606583118438721,-0.605384111404419
1774657833900264400,13.481264404296875,7.671389579772949,6.460621356964111,-0.20817556977272034
1774657833917053200,13.49805322265625,8.415556907653809,6.3529438972473145,-0.1052841991186142
1774657833933842000,13.514842041015624,8.126026153564453,6.601797580718994,-0.363709032535553
1774657833950630700,13.531630615234375,8.001599311828613,6.348158359527588,-0.3517449200153351
1774657833967419600,13.548419677734374,7.683353424072266,6.3122663497924805,-0.15553347766399384
1774657833984208400,13.56520849609375,8.207381248474121,6.3601226806640625,-0.31824541091918945
1774657834000997000,13.5819970703125,7.898707389831543,6.393621921539307,-0.363709032535553
1774657834017785900,13.598785888671875,8.161917686462402,6.245266914367676,-0.20099709928035736
1774657834034574600,13.61557470703125,7.8077802658081055,6.439085960388184,-0.17946170270442963
1774657834051363300,13.63236328125,8.434700012207031,6.544369697570801,-0.17706887423992157
1774657834068152300,13.64915234375,7.920242786407471,6.324230194091797,-0.28953152894973755
1774657834084941000,13.665941162109375,8.09252643585205,6.496513366699219,-0.33499518036842346
1774657834101729800,13.682729736328126,8.334200859069824,6.503692150115967,-0.38763725757598877
1774657834118518500,13.6995185546875,7.869993686676025,6.364908218383789,-0.3086741268634796
1774657834135307300,13.716307373046876,8.336593627929688,6.6831536293029785,-0.35892340540885925
1774657834152096300,13.73309619140625,8.37966537475586,6.752545356750488,-0.2919243574142456
1774657834168885000,13.749885009765626,8.468199729919434,6.666403770446777,-0.4091726839542389
1774657834185673700,13.766673828125,8.059026718139648,6.565905570983887,-0.31824541091918945
1774657834202462500,13.78346240234375,8.429914474487305,6.156732559204102,-0.6173482537269592
1774657834219251200,13.800251220703124,7.927421569824219,6.8410797119140625,-0.02153540402650833
1774657834236040000,13.8170400390625,8.190631866455078,6.668796539306641,-0.16510476171970367
1774657834252829000,13.833828857421874,8.334200859069824,6.333801746368408,-0.6293123364448547
1774657834269617700,13.85061767578125,7.494320392608643,6.104090690612793,-0.14117653667926788
1774657834286406400,13.867406494140624,8.319844245910645,6.072983741760254,-0.48574298620224
1774657834303195100,13.884195068359375,8.025527000427246,5.78345251083374,-0.26560330390930176
1774657834319983900,13.90098388671875,6.544369697570801,6.051448345184326,-0.35413774847984314
1774657834336772900,13.91777294921875,7.137789726257324,5.352744102478027,-0.3732803463935852
1774657834353561600,13.9345615234375,6.809973239898682,5.101497650146484,-0.32542386651039124
1774657834370350300,13.951350341796875,6.329015731811523,4.945964336395264,-0.41156548261642456
1774657834387139000,13.96813916015625,6.826723098754883,4.4410786628723145,-0.23449662327766418
1774657834403927800,13.984927734375,6.25723123550415,4.706682205200195,-0.36610186100006104
1774657834420716800,14.001716796875,5.726024627685547,4.252045631408691,0.5264210104942322
1774657834437505500,14.018505615234375,5.546562671661377,4.388436794281006,-0.5264210104942322
1774657834454294300,14.035294189453126,6.183053493499756,3.8524444103240967,-0.6173482537269592
1774657834471083000,14.0520830078125,5.053641319274902,3.5533416271209717,0.1339980661869049
1774657834487871700,14.068871826171875,5.381458282470703,3.7639100551605225,-0.7441678643226624
1774657834504660500,14.085660400390625,5.209175109863281,3.625126361846924,0.11724831163883209
1774657834521449500,14.102449462890625,5.391029357910156,3.7878382205963135,-0.5264210104942322
1774657834538238200,14.11923828125,5.412564754486084,3.806980848312378,-0.1052841991186142
1774657834555027000,14.13602685546875,5.539384365081787,4.1036906242370605,-0.4307080805301666
1774657834571815700,14.152815673828124,5.7786664962768555,3.91705060005188,-0.21774685382843018
1774657834588604700,14.169604736328125,6.003592014312744,4.299902439117432,-0.3158525824546814
1774657834605393400,14.186393310546874,6.39601469039917,4.618147850036621,-0.031106693670153618
1774657834622182100,14.20318212890625,6.4079790115356445,5.1182475090026855,-0.18903298676013947
1774657834638971000,14.219970947265624,7.140182971954346,5.3312087059021,-0.3565305769443512
1774657834655759600,14.236759521484375,6.903293132781982,5.970092296600342,-0.33738797903060913
1774657834672548600,14.253548583984376,8.595019340515137,5.577669620513916,-0.3852444589138031
1774657834689337300,14.27033740234375,7.348358154296875,6.39601469039917,0.07417750358581543
1774657834706126000,14.2871259765625,8.599804878234863,6.678368091583252,-0.7752745151519775
1774657834722914800,14.303914794921875,8.372486114501953,6.905686378479004,0.02632104977965355
1774657834739703600,14.32070361328125,8.920442581176758,6.994220733642578,-0.8590233325958252
1774657834756492500,14.337492431640625,8.898907661437988,7.051648139953613,0.1579262912273407
1774657834773281300,14.35428125,9.198010444641113,7.1162543296813965,-0.4785645306110382
1774657834790070000,14.371070068359375,8.693124771118164,7.295716285705566,-0.13639089465141296
1774657834806858800,14.387858642578125,9.33440113067627,6.912864685058594,-0.49292147159576416
1774657834823647700,14.404647705078125,8.752944946289062,6.788437843322754,-0.275174617767334
1774657834840436500,14.4214365234375,8.401200294494629,6.6352972984313965,-0.30628129839897156
1774657834857225200,14.43822509765625,8.23130989074707,6.405586242675781,-0.15314064919948578
1774657834874014000,14.455013916015625,8.221738815307617,6.013163089752197,-0.3038884699344635
1774657834890803000,14.471802978515624,7.434499740600586,5.903093338012695,-0.4785645306110382
1774657834907591700,14.488591796875,7.719245910644531,5.364708423614502,-0.4211367964744568
1774657834924380400,14.50538037109375,6.187839508056641,5.929414749145508,-0.47617170214653015
1774657834941169200,14.522169189453125,7.506284713745117,4.876572608947754,-0.21774685382843018
1774657834957958000,14.5389580078125,6.534798622131348,5.111069202423096,-0.21774685382843018
1774657834974747000,14.555746826171875,7.087540626525879,3.9218363761901855,-0.12681959569454193
1774657834991535600,14.57253564453125,4.989035129547119,5.017749309539795,-0.22013968229293823
1774657835008324400,14.589324462890625,6.819544315338135,4.402793884277344,-0.41874396800994873
1774657835025113000,14.606113037109376,6.44387149810791,4.2209391593933105,0.16271193325519562
1774657835041901800,14.62290185546875,6.6831536293029785,4.426722049713135,-0.4546363055706024
1774657835058690800,14.63969091796875,5.850451469421387,4.768895626068115,0.12442677468061447
1774657835075479600,14.6564794921875,6.39601469039917,4.575077056884766,-0.380458801984787
1774657835092268300,14.673268310546876,6.297909259796143,4.9124650955200195,-0.05742774158716202
1774657835109057000,14.69005712890625,6.522834300994873,4.874179840087891,-0.2799602448940277
1774657835125846000,14.706845947265625,6.63769006729126,5.029713153839111,-0.4785645306110382
1774657835142634800,14.723634765625,6.64486837387085,5.245067119598389,-0.37088751792907715
1774657835159423500,14.740423583984375,6.953542709350586,5.173282623291016,-0.20817556977272034
1774657835176212200,14.757212158203124,6.967899322509766,5.362315654754639,-0.380458801984787
1774657835193001200,14.774001220703125,6.915257453918457,5.096712112426758,-0.42831525206565857
1774657835209790000,14.7907900390625,7.2574310302734375,5.309673309326172,-0.1818545162677765
1774657835226578700,14.80757861328125,7.3052873611450195,5.3694939613342285,-0.24406790733337402
1774657835243367400,14.824367431640624,7.197610378265381,5.527420520782471,-0.42831525206565857
1774657835260156200,14.84115625,6.63051176071167,5.154139995574951,-0.1698904037475586
1774657835276945000,14.85794482421875,6.98704195022583,5.7619171142578125,-0.014356935396790504
1774657835293734000,14.87473388671875,7.381857872009277,6.092126369476318,-0.12203395366668701
1774657835310522600,14.891522705078126,7.300501823425293,6.340980052947998,-0.20099709928035736
1774657835327311400,14.908311279296875,7.8819580078125,6.1950178146362305,-0.4019941985607147
1774657835344100000,14.92510009765625,8.37966537475586,5.654240131378174,-0.4378865361213684
1774657835360889000,14.94188916015625,7.980063438415527,6.113661766052246,-0.37088751792907715
1774657835377677800,14.958677734375,7.211967468261719,5.687739372253418,0.01196411345154047
1774657835394466600,14.975466552734375,7.716853141784668,6.2668023109436035,0.35892340540885925
1774657835411255300,14.99225537109375,7.913064479827881,6.664011001586914,-0.19621145725250244
1774657835428044300,15.009044189453125,7.968099594116211,6.63051176071167,-0.698704183101654
1774657835444833000,15.0258330078125,8.264809608459473,6.142375946044922,-0.39960137009620667
1774657835461621800,15.042621826171874,8.453842163085938,6.845865726470947,-0.019142581149935722
1774657835478410500,15.059410400390625,8.482556343078613,6.424728870391846,-0.7226324677467346
1774657835495199200,15.07619921875,8.35573673248291,6.479763507843018,-0.11006984114646912
1774657835511988200,15.09298828125,7.494320392608643,6.668796539306641,-0.45224347710609436
1774657835528777000,15.10977685546875,7.922635555267334,6.386443614959717,-0.35892340540885925
1774657835545565700,15.126565673828125,8.764909744262695,6.943971157073975,-0.2225325107574463
1774657835562354400,15.1433544921875,8.437092781066895,6.929614543914795,-0.4713860750198364
1774657835579143200,15.16014306640625,8.34855842590332,6.379265308380127,-0.30149564146995544
1774657835595932200,15.17693212890625,8.506484031677246,6.479763507843018,-0.2799602448940277
1774657835612721000,15.193720947265625,8.329415321350098,6.26440954208374,-0.11246266216039658
1774657835629509600,15.210509521484376,7.836493968963623,6.472585201263428,-0.2727817893028259
1774657835646298400,15.22729833984375,7.920242786407471,6.39601469039917,-0.397208571434021
1774657835663087000,15.244087158203126,8.051848411560059,6.415157318115234,-0.44745782017707825
1774657835679876000,15.2608759765625,8.295916557312012,6.427121639251709,-0.4570291340351105
1774657835696664800,15.277664794921876,7.738388538360596,6.45822811126709,-0.26081767678260803
1774657835713453600,15.29445361328125,8.422736167907715,6.293123722076416,-0.15314064919948578
1774657835730242300,15.3112421875,8.070990562438965,6.173482418060303,-0.3158525824546814
1774657835747031000,15.328031005859375,7.779066562652588,6.324230194091797,-0.2919243574142456
1774657835763820000,15.344820068359375,8.324629783630371,6.3122663497924805,-0.4666004180908203
1774657835780608800,15.36160888671875,7.872386455535889,6.2668023109436035,-0.45224347710609436
1774657835797397500,15.3783974609375,7.886743545532227,6.441478729248047,-0.4426721930503845
1774657835814186200,15.395186279296874,8.48016357421875,6.759724140167236,-0.28235307335853577
1774657835830975000,15.41197509765625,7.712067604064941,6.300302028656006,-0.1052841991186142
1774657835847764000,15.428763916015624,8.128418922424316,6.436692714691162,-0.20817556977272034
1774657835864552700,15.445552734375,8.525627136230469,6.075376510620117,-0.45942193269729614
1774657835881341400,15.462341552734374,8.015955924987793,6.690331935882568,-0.2632105052471161
1774657835898130200,15.479130126953125,8.523234367370605,6.372086524963379,-0.3517449200153351
1774657835914919000,15.4959189453125,8.070990562438965,6.441478729248047,-0.1986042857170105
1774657835931707600,15.512707763671875,8.315058708190918,6.4941205978393555,-0.22971096634864807
1774657835948496600,15.52949658203125,8.271987915039062,6.668796539306641,-0.16271193325519562
1774657835965285400,15.546285400390625,7.901100158691406,6.455835342407227,-0.38763725757598877
1774657835982074000,15.56307421875,8.281558990478516,6.776473522186279,-0.2919243574142456
1774657835998862800,15.57986279296875,8.504091262817383,6.750152587890625,-0.3517449200153351
1774657836015651800,15.59665185546875,8.037490844726562,6.764509677886963,-0.17228323221206665
1774657836032440600,15.613440673828125,8.95394229888916,6.908079147338867,-0.32303106784820557
1774657836049229300,15.630229248046875,8.288737297058105,6.829115867614746,-0.17228323221206665
1774657836066018000,15.64701806640625,8.58066177368164,6.92482852935791,-0.28953152894973755
1774657836082806800,15.663806884765625,8.922835350036621,6.58265495300293,-0.30628129839897156
1774657836099595500,15.680595458984374,8.508877754211426,6.939185619354248,-0.41156548261642456
1774657836116384500,15.697384521484375,8.760123252868652,6.9104719161987305,-0.23688943684101105
1774657836133173200,15.71417333984375,8.786444664001465,6.948757171630859,-0.3565305769443512
1774657836149962000,15.7309619140625,8.161917686462402,7.0301127433776855,-0.13639089465141296
1774657836166750700,15.747750732421874,8.535198211669922,6.750152587890625,-0.23210379481315613
1774657836183539500,15.76453955078125,8.525627136230469,6.8554368019104,-0.2967100143432617
1774657836200328200,15.781328125,8.776873588562012,6.740581512451172,-0.39960137009620667
1774657836217117200,15.7981171875,8.669196128845215,6.826723098754883,-0.4091726839542389
1774657836233906000,15.814906005859376,8.614161491394043,6.912864685058594,-0.2919243574142456
1774657836250694700,15.831694580078125,8.851051330566406,6.7621169090271,-0.4163511395454407
1774657836267483400,15.8484833984375,8.547162055969238,6.869793891906738,-0.3158525824546814
1774657836284272000,15.865272216796875,8.317451477050781,6.991827964782715,-0.4713860750198364
1774657836301061000,15.88206103515625,8.86780071258545,7.015756130218506,-0.48574298620224
1774657836317849900,15.898849853515625,8.446663856506348,7.176074981689453,-0.22013968229293823
1774657836334638600,15.915638671875,8.796015739440918,7.142575740814209,-0.02392822690308094
1774657836351427300,15.93242724609375,9.126225471496582,7.357929706573486,-0.24406790733337402
1774657836368216000,15.949216064453125,9.1716890335083,7.527820110321045,-0.11006984114646912
1774657836385004800,15.9660048828125,8.870193481445312,6.98704195022583,-0.4043870270252228
1774657836401793800,15.982793701171875,8.81515884399414,6.888936519622803,-0.21296121180057526
1774657836418582500,15.99958251953125,8.839086532592773,7.130611419677734,-0.550349235534668
1774657836435371300,16.016371337890625,9.107083320617676,7.202396392822266,-0.14835500717163086
1774657836452160000,16.033159912109376,8.863015174865723,7.240681171417236,-0.1698904037475586
1774657836468948700,16.04994873046875,8.595019340515137,7.015756130218506,-0.4785645306110382
1774657836485737700,16.06673779296875,9.083154678344727,6.905686378479004,-0.2632105052471161
1774657836502526500,16.0835263671875,8.772088050842285,6.975078105926514,-0.4546363055706024
1774657836519315200,16.100315185546876,9.147761344909668,6.927221775054932,-0.24167509377002716
1774657836536104000,16.11710400390625,8.295916557312012,6.884150981903076,-0.32303106784820557
1774657836552892700,16.133892578125,8.910871505737305,7.207181930541992,-0.10049854964017868
1774657836569681400,16.150681396484377,8.374878883361816,6.778866767883301,-0.20817556977272034
1774657836586470400,16.167470458984376,8.516056060791016,7.219145774841309,-0.064606212079525
1774657836603259100,16.184259033203126,8.073383331298828,6.726224422454834,-0.42352959513664246
1774657836620048000,16.2010478515625,8.578269004821777,6.821937561035156,0.07896314561367035
1774657836636836600,16.217836669921876,8.018348693847656,6.03948450088501,-0.3517449200153351
1774657836653625300,16.234625244140624,8.293522834777832,6.589833736419678,-0.32303106784820557
1774657836670414000,16.2514140625,7.805387496948242,6.6592254638671875,-0.4331009089946747
1774657836687203000,16.268203125,7.877171993255615,6.025127410888672,-0.34695929288864136
1774657836703991800,16.28499169921875,8.623732566833496,6.640082836151123,-0.5814558863639832
1774657836720780500,16.301780517578123,8.104490280151367,6.027520179748535,-0.31345975399017334
1774657836737569300,16.3185693359375,8.104490280151367,5.931807518005371,-0.6460621356964111
1774657836754358000,16.33535791015625,7.09711217880249,5.819344520568848,-0.12681959569454193
1774657836771147000,16.35214697265625,8.094919204711914,6.10169792175293,-0.3326023519039154
1774657836787935700,16.368935791015623,7.195217609405518,5.807380676269531,-0.03349951654672623
1774657836804724500,16.385724365234374,7.1856465339660645,5.544169902801514,-0.48574298620224
1774657836821513200,16.40251318359375,6.876972198486328,5.481956481933594,-0.11246266216039658
1774657836838302000,16.419302001953124,7.061219692230225,5.927021503448486,-0.031106693670153618
1774657836855090700,16.436090576171875,7.085147857666016,5.352744102478027,-0.46420758962631226
1774657836871879400,16.45287939453125,6.8410797119140625,4.926821708679199,-0.2584248483181
1774657836888668400,16.46966845703125,6.479763507843018,4.8191447257995605,-0.20578274130821228
1774657836905457200,16.48645703125,6.728617191314697,4.9052863121032715,-0.01196411345154047
1774657836922246000,16.503245849609375,5.92223596572876,4.386044025421143,-0.7393822073936462
1774657836939034600,16.52003466796875,5.670989513397217,3.9290146827697754,-0.3038884699344635
1774657836955823400,16.5368232421875,5.931807518005371,4.445864677429199,-0.6699903607368469
1774657836972612000,16.553612060546875,6.1399827003479,4.443471431732178,-0.2273181527853012
1774657836989401000,16.570401123046874,5.517848968505859,3.696911096572876,-0.1818545162677765
1774657837006189800,16.58718994140625,5.982056617736816,4.137190341949463,-0.12442677468061447
1774657837022978600,16.603978515625,5.515456199645996,3.988835334777832,-0.28953152894973755
1774657837039767300,16.620767333984375,5.733202934265137,4.005585193634033,-0.34217363595962524
1774657837056556000,16.63755615234375,5.826523303985596,4.022335052490234,-0.05024927482008934
1774657837073345000,16.654344970703125,5.876772403717041,4.46979284286499,-0.23210379481315613
1774657837090133800,16.6711337890625,6.206982135772705,4.457828521728516,-0.20817556977272034
1774657837106922500,16.687922607421875,6.331408500671387,4.682754039764404,-0.30149564146995544
1774657837123711200,16.704711181640626,6.501298904418945,4.962714195251465,-0.3326023519039154
1774657837140500000,16.7215,6.826723098754883,5.292923450469971,-0.23210379481315613
1774657837157289000,16.7382890625,7.144968509674072,5.4628143310546875,-0.37088751792907715
1774657837174077700,16.75507763671875,7.051648139953613,5.726024627685547,-0.4546363055706024
1774657837190866400,16.771866455078126,8.104490280151367,5.706881999969482,-0.7202396392822266
1774657837207655200,16.7886552734375,7.657032489776611,6.099305152893066,-0.1698904037475586
1774657837224444000,16.80544384765625,7.719245910644531,6.16391134262085,-0.3517449200153351
1774657837241233000,16.82223291015625,8.123632431030273,6.118447303771973,-0.2799602448940277
1774657837258021600,16.839021728515625,7.829315662384033,6.32662296295166,-0.3326023519039154
1774657837274810400,16.855810302734376,8.111668586730957,6.362515449523926,-0.3445664644241333
1774657837291599000,16.87259912109375,8.283951759338379,6.372086524963379,-0.11964113265275955
1774657837308388000,16.88938818359375,8.544769287109375,6.130411624908447,-0.2679961323738098
1774657837325176800,16.9061767578125,7.984848976135254,6.3529438972473145,-0.05742774158716202
1774657837341965600,16.922965576171876,8.283951759338379,6.223731517791748,-0.38285163044929504
1774657837358754300,16.93975439453125,8.02791976928711,6.269195556640625,-0.12442677468061447
1774657837375543000,16.95654296875,7.805387496948242,6.106483459472656,-0.28235307335853577
1774657837392331800,16.973331787109377,7.795815944671631,5.986842155456543,-0.3613162338733673
1774657837409120800,16.990120849609376,7.506284713745117,5.958128452301025,-0.4259224236011505
1774657837425909500,17.006909423828127,7.554141044616699,5.714060306549072,-0.4426721930503845
1774657837442698200,17.0236982421875,7.310073375701904,5.690132141113281,-0.36610186100006104
1774657837459487000,17.040487060546877,7.345965385437012,5.405386447906494,-0.29431718587875366
1774657837476276000,17.05727587890625,6.845865726470947,5.276174068450928,-0.18903298676013947
1774657837493064700,17.074064697265626,6.532405853271484,5.190032482147217,-0.3086741268634796
1774657837509853400,17.090853515625,7.278966426849365,4.5583271980285645,-0.1986042857170105
1774657837526642200,17.10764208984375,6.183053493499756,4.673182487487793,-0.12203395366668701
1774657837543431000,17.124430908203124,6.427121639251709,4.5200419425964355,-0.12442677468061447
1774657837560219600,17.1412197265625,5.92223596572876,4.800002098083496,-0.004785645287483931
1774657837577008600,17.158008544921874,6.116054534912109,4.823930263519287,-0.2847459018230438
1774657837593797400,17.17479736328125,6.175875186920166,4.146761417388916,-0.20338992774486542
1774657837610586000,17.191586181640623,6.190232276916504,4.59421968460083,-0.5000999569892883
1774657837627374800,17.208374755859374,6.324230194091797,4.522434711456299,-0.18424734473228455
1774657837644163600,17.22516357421875,6.798008918762207,4.955535888671875,-0.4785645306110382
1774657837660952600,17.24195263671875,6.675975322723389,4.907679080963135,-0.2632105052471161
1774657837677741300,17.2587412109375,6.226124286651611,5.00578498840332,-0.5144568681716919
1774657837694530000,17.275530029296874,6.836294174194336,5.115854740142822,-0.2392822653055191
1774657837711318800,17.29231884765625,7.0683979988098145,5.1876397132873535,-0.06939185410737991
1774657837728107500,17.309107421875,7.8317084312438965,5.431707382202148,-0.2799602448940277
1774657837744896500,17.325896484375,6.845865726470947,5.163711071014404,0.01196411345154047
1774657837761685200,17.342685302734374,6.946363925933838,5.400600910186768,0.11006984114646912
1774657837778474000,17.359473876953125,7.190432071685791,5.934200286865234,-0.3397808074951172
1774657837795262700,17.3762626953125,7.561319351196289,5.67338228225708,-0.5694918036460876
1774657837812051500,17.393051513671875,7.302894592285156,5.781059741973877,-0.2632105052471161
1774657837828840400,17.40984033203125,7.448856830596924,5.941378593444824,-0.41874396800994873
1774657837845629200,17.426629150390625,7.8317084312438965,6.369693756103516,-0.02392822690308094
1774657837862418000,17.44341796875,7.671389579772949,6.1328043937683105,-0.3158525824546814
1774657837879206700,17.46020654296875,7.77188777923584,6.156732559204102,-0.5575276613235474
1774657837895995400,17.476995361328125,7.975277900695801,6.005984783172607,-0.5886343717575073
1774657837912784100,17.4937841796875,7.922635555267334,6.020341873168945,-0.3852444589138031
1774657837929573000,17.510572998046875,8.403593063354492,6.187839508056641,-0.2871387302875519
1774657837946361900,17.52736181640625,7.219145774841309,6.281159400939941,-0.07178468257188797
1774657837963150600,17.544150634765625,8.135597229003906,5.735595703125,-0.3565305769443512
1774657837979939300,17.560939208984376,7.867600917816162,6.766902446746826,-0.27756741642951965
1774657837996728000,17.57772802734375,8.159524917602539,6.3529438972473145,-0.32542386651039124
1774657838013517000,17.59451708984375,7.867600917816162,6.302694797515869,-0.23688943684101105
1774657838030305800,17.611305908203125,8.039883613586426,6.31944465637207,-0.2967100143432617
1774657838047094500,17.628094482421876,7.987242221832275,6.39601469039917,-0.2799602448940277
1774657838063883300,17.64488330078125,8.054241180419922,6.168696880340576,0.01196411345154047
1774657838080672000,17.661672119140626,7.88913631439209,6.52044153213501,-0.04307080805301666
1774657838097460700,17.678460693359376,7.707281589508057,6.199803352355957,-0.2991028428077698
1774657838114249700,17.695249755859376,7.738388538360596,6.6831536293029785,-0.26081767678260803
1774657838131038500,17.71203857421875,8.547162055969238,6.235695838928223,-0.6221339106559753
1774657838147827200,17.7288271484375,8.23848819732666,6.10169792175293,-0.6843472719192505
1774657838164616000,17.745615966796876,8.047062873840332,6.819544315338135,-0.02871387079358101
1774657838181404700,17.76240478515625,8.350951194763184,6.405586242675781,-0.3206382393836975
1774657838198193700,17.779193603515626,7.886743545532227,6.5180487632751465,-0.20817556977272034
1774657838214982400,17.795982421875,8.283951759338379,6.668796539306641,-0.3086741268634796
1774657838231771100,17.812771240234376,8.492127418518066,6.723831653594971,-0.10049854964017868
1774657838248559900,17.829559814453123,8.015955924987793,6.597012042999268,-0.2584248483181
1774657838265348600,17.8463486328125,8.305487632751465,6.955935478210449,-0.20578274130821228
1774657838282137300,17.863137451171873,8.46341323852539,6.666403770446777,-0.28953152894973755
1774657838298926300,17.87992626953125,8.800801277160645,7.226324558258057,-0.20578274130821228
1774657838315715000,17.896715087890627,8.614161491394043,6.5180487632751465,-0.41156548261642456
1774657838332503800,17.91350390625,8.451449394226074,6.8482584953308105,-0.29431718587875366
1774657838349292500,17.93029248046875,8.819944381713867,6.697510719299316,-0.4259224236011505
1774657838366081300,17.947081298828124,8.425128936767578,6.905686378479004,-0.30149564146995544
1774657838382870000,17.9638701171875,8.599804878234863,6.422336101531982,-0.3517449200153351
1774657838399659000,17.980658935546874,8.228917121887207,6.673582553863525,0.040677983313798904
1774657838416447700,17.99744775390625,8.444271087646484,6.38883638381958,-0.1986042857170105
1774657838433236500,18.014236572265624,7.929814338684082,6.695117950439453,0.09810572862625122
1774657838450025200,18.031025146484374,8.176275253295898,6.530013084411621,-0.2225325107574463
1774657838466814000,18.04781396484375,8.185846328735352,6.685546398162842,-0.26081767678260803
1774657838483602700,18.064602783203124,8.329415321350098,6.608976364135742,-0.38763725757598877
1774657838500391700,18.0813916015625,8.015955924987793,6.530013084411621,-0.3326023519039154
1774657838517180400,18.098180419921874,8.382058143615723,6.5491557121276855,-0.42352959513664246
1774657838533969200,18.11496923828125,8.6907320022583,6.580262184143066,-0.4498506486415863
1774657838550758000,18.1317578125,8.331808090209961,6.865008354187012,-0.3278166949748993
1774657838567546600,18.148546630859375,8.22413158416748,6.664011001586914,-0.25363919138908386
1774657838584335400,18.16533544921875,8.532805442810059,6.640082836151123,-0.2991028428077698
1774657838601124400,18.182124267578125,8.293522834777832,6.881757736206055,-0.33499518036842346
1774657838617913000,18.1989130859375,8.468199729919434,6.97268533706665,-0.23688943684101105
1774657838634701800,18.215701904296875,8.709874153137207,6.881757736206055,-0.2392822653055191
1774657838651490600,18.232490478515626,8.659625053405762,6.905686378479004,-0.2799602448940277
1774657838668279300,18.249279296875,8.532805442810059,7.032505512237549,-0.23688943684101105
1774657838685068000,18.266068115234376,8.733802795410156,7.121040344238281,-0.40677985548973083
1774657838701856800,18.282856689453126,8.927620887756348,7.020541667938232,-0.37088751792907715
1774657838718645800,18.299645751953125,8.69791030883789,7.247859954833984,-0.3732803463935852
1774657838735434500,18.3164345703125,9.078369140625,7.03489875793457,-0.3326023519039154
1774657838752223200,18.33322314453125,8.882157325744629,6.994220733642578,-0.37806597352027893
1774657838769012000,18.350011962890626,8.93958568572998,7.061219692230225,-0.34217363595962524
1774657838785800700,18.36680078125,8.738588333129883,7.264609336853027,-0.37088751792907715
1774657838802589400,18.38358935546875,8.63330364227295,7.037291526794434,-0.3732803463935852
1774657838819378200,18.400378173828123,8.58066177368164,7.113861560821533,-0.19381862878799438
1774657838836167200,18.417167236328126,8.575876235961914,6.778866767883301,-0.41874396800994873
1774657838852956000,18.433955810546873,8.551948547363281,6.592226505279541,-0.30628129839897156
1774657838869744600,18.45074462890625,8.49452018737793,6.951149940490723,-0.11724831163883209
1774657838886533400,18.467533447265627,8.449056625366211,6.776473522186279,-0.45942193269729614
1774657838903322000,18.484322021484374,8.774480819702148,6.994220733642578,-0.14117653667926788
1774657838920110800,18.50111083984375,8.539983749389648,6.723831653594971,-0.6245267391204834
1774657838936899600,18.517899658203124,8.590232849121094,7.010970115661621,-0.04546362906694412
1774657838953688600,18.5346884765625,8.776873588562012,6.702296257019043,-0.5527420043945312
1774657838970477300,18.551477294921874,8.319844245910645,6.843472957611084,-0.40677985548973083
1774657838987266000,18.56826611328125,8.499305725097656,6.8004021644592285,-0.014356935396790504
1774657839004054800,18.5850546875,8.190631866455078,6.415157318115234,-0.09571290761232376
1774657839020843500,18.601843505859375,9.157332420349121,7.087540626525879,-0.44745782017707825
1774657839037632300,18.61863232421875,8.329415321350098,6.4079790115356445,-0.550349235534668
1774657839054421200,18.635421142578124,8.23848819732666,6.597012042999268,-0.2392822653055191
1774657839071210000,18.6522099609375,8.059026718139648,6.474977970123291,-0.10289137065410614
1774657839087998700,18.668998779296874,7.999206066131592,6.604190349578857,-0.32303106784820557
1774657839104787500,18.685787353515625,7.9728851318359375,6.3840508460998535,-0.11006984114646912
1774657839121576200,18.702576171875,7.740781307220459,6.16391134262085,-0.45224347710609436
1774657839138365000,18.719364990234375,7.688138961791992,5.816951751708984,-0.33738797903060913
1774657839155153700,18.736153564453126,8.221738815307617,6.340980052947998,-0.39481574296951294
1774657839171942700,18.752942626953125,7.372286796569824,5.840879917144775,-0.06939185410737991
1774657839188731400,18.7697314453125,7.934599876403809,6.116054534912109,-0.30628129839897156
1774657839205520100,18.78652001953125,7.759923934936523,6.302694797515869,-0.3158525824546814
1774657839222308900,18.803308837890626,7.6474609375,6.032305717468262,-0.20578274130821228
1774657839239097600,18.82009765625,8.334200859069824,6.647261142730713,-0.349352091550827
1774657839255886300,18.83688623046875,7.865208148956299,6.271588325500488,-0.31106695532798767
1774657839272675000,18.853675048828126,7.247859954833984,6.10169792175293,-0.35413774847984314
1774657839289463800,18.8704638671875,7.982456207275391,6.1399827003479,-0.2967100143432617
1774657839306252800,18.887252685546876,7.898707389831543,5.9509501457214355,-0.32542386651039124
1774657839323041500,18.90404150390625,7.642675399780273,6.3361945152282715,-0.02392822690308094
1774657839339830300,18.920830322265626,7.779066562652588,5.941378593444824,-0.550349235534668
1774657839356619000,18.937618896484373,7.922635555267334,5.970092296600342,-0.35892340540885925
1774657839373407700,18.95440771484375,7.317251682281494,5.972485542297363,-0.3613162338733673
1774657839390196500,18.971196533203123,7.82692289352417,5.931807518005371,0.11964113265275955
1774657839406985200,18.987985107421874,7.554141044616699,5.8337016105651855,-0.1866401731967926
1774657839423774200,19.004774169921873,7.274180889129639,5.584847927093506,-0.33499518036842346
1774657839440563000,19.02156298828125,7.417750358581543,5.357530117034912,-0.550349235534668
1774657839457351700,19.0383515625,7.322037220001221,5.773880958557129,-0.18903298676013947
1774657839474140400,19.055140380859374,7.336394309997559,5.426921844482422,-0.14835500717163086
1774657839490929200,19.07192919921875,7.76470947265625,5.78345251083374,-0.3852444589138031
1774657839507718000,19.0887177734375,6.393621921539307,4.709074974060059,-0.33020952343940735
1774657839524506600,19.105506591796875,7.18086051940918,5.496313571929932,-0.672383189201355
1774657839541295600,19.122295654296874,7.0995049476623535,5.374279499053955,-0.1818545162677765
1774657839558084400,19.13908447265625,7.29093074798584,5.044070243835449,0.031106693670153618
1774657839574873000,19.155873046875,6.757331371307373,4.941178798675537,-0.2392822653055191
1774657839591661800,19.172661865234375,6.111268997192383,4.682754039764404,-0.5527420043945312
1774657839608450600,19.189450439453125,6.45822811126709,4.4243292808532715,-0.37088751792907715
1774657839625239600,19.206239501953124,6.068198204040527,4.7712883949279785,-0.08374879509210587
1774657839642028300,19.2230283203125,6.044270038604736,4.639683246612549,-0.3278166949748993
1774657839658817000,19.239817138671874,5.941378593444824,4.1970109939575195,-0.08135596662759781
1774657839675605800,19.256605712890625,5.699703693389893,4.60139799118042,-0.10049854964017868
1774657839692394500,19.27339453125,5.874379634857178,4.266402721405029,-0.39481574296951294
1774657839709183200,19.290183349609375,6.1088762283325195,4.6372904777526855,-0.5742774605751038
1774657839725972000,19.306971923828126,6.38165807723999,4.567898273468018,-0.14117653667926788
1774657839742761000,19.323760986328125,7.03489875793457,4.919643402099609,-0.35892340540885925
1774657839759549700,19.3405498046875,6.977470874786377,5.099104881286621,0.08374879509210587
1774657839776338400,19.35733837890625,7.125825881958008,5.357530117034912,-0.45224347710609436
1774657839793127200,19.374127197265626,7.494320392608643,5.410171985626221,-0.1746760457754135
1774657839809916000,19.390916015625,7.338787078857422,5.869594097137451,-0.36610186100006104
1774657839826704600,19.40770458984375,7.724031448364258,5.864808082580566,-0.2512463629245758
1774657839843493600,19.42449365234375,7.549355506896973,6.151947021484375,-0.22971096634864807
1774657839860282400,19.441282470703126,7.630711555480957,6.159125328063965,-0.40677985548973083
1774657839877071000,19.458071044921876,7.805387496948242,6.2668023109436035,-0.2632105052471161
1774657839893859800,19.47485986328125,7.688138961791992,6.338587284088135,-0.38285163044929504
1774657839910648600,19.491648681640626,8.049455642700195,6.120840549468994,-0.17228323221206665
1774657839927437600,19.5084375,8.061419486999512,6.104090690612793,-0.45942193269729614
1774657839944226300,19.525226318359376,8.432307243347168,5.8959150314331055,-0.32303106784820557
1774657839961015000,19.54201513671875,7.814958572387695,6.1950178146362305,-0.29431718587875366
1774657839977803800,19.5588037109375,8.848658561706543,5.903093338012695,-0.18903298676013947
1774657839994592500,19.575592529296873,7.81974458694458,6.130411624908447,-0.18424734473228455
1774657840011381200,19.59238134765625,7.561319351196289,6.211767673492432,-0.19142581522464752
1774657840028170200,19.609170166015623,7.252645492553711,6.422336101531982,-0.363709032535553
1774657840044959000,19.625958984375,8.248059272766113,5.656632900238037,-0.3326023519039154
1774657840061747700,19.642747802734377,6.826723098754883,6.436692714691162,-0.14356936514377594
1774657840078536400,19.659536376953124,8.059026718139648,5.9198431968688965,-0.41156548261642456
1774657840095325200,19.6763251953125,7.2095746994018555,6.096911907196045,-0.20578274130821228
1774657840112114000,19.693114013671874,7.874779224395752,5.704489231109619,-0.5240281820297241
1774657840128902700,19.709902587890625,7.731209754943848,5.410171985626221,-0.2105683982372284
1774657840145691600,19.726691650390624,7.7455668449401855,5.615954875946045,-0.4666004180908203
1774657840162480400,19.74348046875,7.82692289352417,5.6446685791015625,-0.10049854964017868
1774657840179269000,19.76026904296875,7.29810905456543,5.726024627685547,-0.5024927258491516
1774657840196057900,19.777057861328124,7.338787078857422,5.67338228225708,-0.3445664644241333
1774657840212846600,19.7938466796875,7.032505512237549,5.517848968505859,-0.35892340540885925
1774657840229635300,19.81063525390625,7.2813591957092285,5.398207664489746,-0.28235307335853577
1774657840246424000,19.827424072265625,6.8243303298950195,5.312066078186035,-0.24167509377002716
1774657840263213000,19.844213134765624,6.805187702178955,5.170889854431152,-0.12203395366668701
1774657840280001800,19.861001708984375,6.537191390991211,4.9052863121032715,-0.275174617767334
1774657840296790500,19.87779052734375,6.647261142730713,4.603790760040283,-0.23449662327766418
1774657840313579300,19.894579345703125,6.333801746368408,4.761716842651367,-0.19621145725250244
1774657840330368000,19.911367919921876,5.78345251083374,4.644468784332275,-0.3086741268634796
1774657840347156700,19.92815673828125,6.474977970123291,4.627718925476074,-0.17228323221206665
1774657840363945700,19.94494580078125,6.427121639251709,4.9986066818237305,0.4666004180908203
1774657840380734500,19.961734375,6.474977970123291,4.917250633239746,-0.5288137793540955
1774657840397523200,19.978523193359376,6.8171515464782715,5.103890895843506,-0.25363919138908386
1774657840414312000,19.99531201171875,6.678368091583252,5.087141036987305,-0.5838487148284912
1774657840431100700,20.0121005859375,7.214360237121582,4.867001056671143,-0.6317051649093628
1774657840447889400,20.028889404296876,6.661618232727051,5.216353416442871,-0.04546362906694412
1774657840464678100,20.04567822265625,6.766902446746826,5.446064472198486,-0.11006984114646912
1774657840481467100,20.062467041015626,6.45822811126709,5.4173502922058105,-0.48095735907554626
1774657840498256000,20.079255859375,7.472784996032715,5.544169902801514,-0.6819544434547424
1774657840515044600,20.096044677734376,7.872386455535889,5.398207664489746,-0.2871387302875519
1774657840531833300,20.112833251953123,7.369893550872803,5.862415313720703,-0.25363919138908386
1774657840548622000,20.1296220703125,7.542177200317383,5.91505765914917,0.0023928226437419653
1774657840565410800,20.146410888671873,7.975277900695801,5.632704734802246,0.014356935396790504
1774657840582199600,20.163199462890624,7.252645492553711,5.979663848876953,-0.38763725757598877
1774657840598988500,20.179988525390623,8.195417404174805,6.664011001586914,0.10289137065410614
1774657840615777300,20.19677734375,9.140582084655762,5.536991596221924,-0.7537391185760498
1774657840632566000,20.21356591796875,7.429714202880859,6.321837425231934,-0.5599204897880554
1774657840649354800,20.230354736328124,8.93240737915039,5.735595703125,-0.2919243574142456
1774657840666143500,20.2471435546875,6.597012042999268,6.6831536293029785,0.2560320198535919
1774657840682932200,20.26393212890625,7.623532772064209,6.537191390991211,-0.38763725757598877
1774657840699721000,20.280720947265625,8.051848411560059,5.501099109649658,-0.4043870270252228
1774657840716510000,20.297510009765624,7.2813591957092285,6.893722057342529,-0.5718846321105957
1774657840733298700,20.314298583984375,9.243474006652832,5.704489231109619,-1.038485050201416
1774657840750087400,20.33108740234375,8.169096946716309,5.970092296600342,0.040677983313798904
1774657840766876200,20.347876220703125,8.437092781066895,5.869594097137451,-0.31345975399017334
1774657840783665000,20.364664794921875,7.934599876403809,6.424728870391846,0.44027936458587646
1774657840800453600,20.38145361328125,7.654639720916748,6.305087566375732,-0.5455635786056519
1774657840817242400,20.398242431640625,8.066205024719238,6.149554252624512,-0.2153540402650833
1774657840834031000,20.415031005859376,7.427321434020996,6.778866767883301,-0.35892340540885925
1774657840850819800,20.43181982421875,8.319844245910645,6.556334018707275,-0.3900300860404968
1774657840867608800,20.44860888671875,8.997013092041016,6.2668023109436035,-0.3852444589138031
1774657840884397600,20.4653974609375,7.11146879196167,6.419943332672119,-0.0526420995593071
1774657840901186300,20.482186279296876,8.149953842163086,6.271588325500488,-0.19381862878799438
1774657840917975000,20.49897509765625,8.080561637878418,6.247660160064697,-0.4905286431312561
1774657840934763800,20.515763671875,7.814958572387695,6.577869415283203,-0.12681959569454193
1774657840951552500,20.532552490234377,8.305487632751465,6.436692714691162,-0.607776939868927
1774657840968341200,20.54934130859375,7.946564197540283,6.477370738983154,-0.23210379481315613
1774657840985130200,20.566130126953126,8.353343963623047,6.477370738983154,-0.4211367964744568
1774657841001919000,20.5829189453125,8.4562349319458,6.551548480987549,-0.2392822653055191
1774657841018707700,20.599707763671876,8.003992080688477,6.618547439575195,-0.12921242415905
1774657841035496400,20.616496337890624,8.401200294494629,6.340980052947998,-0.11006984114646912
1774657841052285200,20.63328515625,8.01356315612793,6.4941205978393555,-0.2584248483181
1774657841069074000,20.650073974609374,8.221738815307617,6.45822811126709,-0.2871387302875519
1774657841085862700,20.666862548828124,8.279166221618652,6.350551128387451,-0.25363919138908386
1774657841102651600,20.683651611328123,8.307880401611328,6.546762943267822,-0.23449662327766418
1774657841119440400,20.7004404296875,7.984848976135254,6.489335060119629,-0.2584248483181
1774657841136229000,20.71722900390625,8.336593627929688,6.561119556427002,-0.3158525824546814
1774657841153017900,20.734017822265624,8.078168869018555,6.441478729248047,-0.3326023519039154
1774657841169806600,20.750806640625,8.085348129272461,6.577869415283203,-0.4163511395454407
1774657841186595300,20.76759521484375,8.434700012207031,6.802794933319092,-0.38285163044929504
1774657841203384000,20.784384033203125,8.008777618408203,6.551548480987549,-0.45942193269729614
1774657841220172800,20.8011728515625,8.391629219055176,6.338587284088135,-0.14835500717163086
1774657841236961800,20.8179619140625,8.051848411560059,6.226124286651611,-0.3684946894645691
1774657841253750500,20.83475048828125,7.81974458694458,6.197410583496094,-0.14117653667926788
1774657841270539300,20.851539306640625,8.25523853302002,6.1950178146362305,-0.33499518036842346
1774657841287328000,20.868327880859376,7.817351341247559,6.149554252624512,-0.040677983313798904
1774657841304116700,20.88511669921875,7.874779224395752,6.453442573547363,-0.4163511395454407
1774657841320905500,20.901905517578125,7.984848976135254,6.305087566375732,-0.2273181527853012
1774657841337694200,20.918694091796876,7.700103282928467,6.252445697784424,-0.29431718587875366
1774657841354483200,20.935483154296875,8.185846328735352,6.489335060119629,-0.36610186100006104
1774657841371272000,20.95227197265625,8.0350980758667,6.38165807723999,-0.2991028428077698
1774657841388060700,20.969060791015625,7.927421569824219,6.022734642028809,-0.37806597352027893
1774657841404849400,20.985849365234376,8.085348129272461,6.4941205978393555,-0.3565305769443512
1774657841421638100,21.00263818359375,8.15234661102295,6.415157318115234,-0.30149564146995544
1774657841438427000,21.019427001953126,8.23130989074707,6.472585201263428,-0.22971096634864807
1774657841455215600,21.036215576171877,8.023134231567383,6.496513366699219,-0.30628129839897156
1774657841472004400,21.05300439453125,8.271987915039062,6.563512325286865,-0.22492532432079315
1774657841488793300,21.06979345703125,8.358129501342773,6.63769006729126,-0.2679961323738098
1774657841505582000,21.08658203125,7.884350776672363,6.599404811859131,-0.2392822653055191
1774657841522370800,21.103370849609377,8.508877754211426,6.570691108703613,-0.3900300860404968
1774657841539159600,21.12015966796875,8.257631301879883,6.673582553863525,-0.3684946894645691
1774657841555948300,21.1369482421875,8.425128936767578,6.687939167022705,-0.380458801984787
1774657841572737000,21.153737060546874,8.504091262817383,6.678368091583252,-0.3206382393836975
1774657841589525800,21.17052587890625,8.482556343078613,6.86261510848999,-0.24406790733337402
1774657841606314500,21.187314453125,8.405985832214355,6.888936519622803,-0.20338992774486542
1774657841623103200,21.204103271484374,8.642875671386719,6.9583282470703125,-0.2560320198535919
1774657841639892000,21.22089208984375,8.630910873413086,6.9104719161987305,-0.30628129839897156
1774657841656681000,21.237680908203124,8.662017822265625,7.18086051940918,-0.2679961323738098
1774657841673469700,21.2544697265625,8.824729919433594,7.0061845779418945,-0.363709032535553
1774657841690258400,21.271258544921874,8.7505521774292,7.03489875793457,-0.3206382393836975
1774657841707047200,21.288047119140625,8.74337387084961,7.16650390625,-0.4331009089946747
1774657841723836000,21.3048359375,8.877371788024902,6.999006271362305,-0.3397808074951172
1774657841740624600,21.321624755859375,8.717052459716797,6.963113784790039,-0.14356936514377594
1774657841757413400,21.338413330078126,8.949156761169434,7.17368221282959,-0.040677983313798904
1774657841774202400,21.355202392578125,8.913264274597168,6.876972198486328,-0.25363919138908386
1774657841790991000,21.3719912109375,8.628518104553223,6.876972198486328,-0.1986042857170105
1774657841807779800,21.38877978515625,8.61894702911377,6.872186660766602,-0.3852444589138031
1774657841824568600,21.405568603515626,8.709874153137207,7.018148899078369,-0.5910272002220154
1774657841841357300,21.422357421875,8.449056625366211,7.144968509674072,-0.064606212079525
1774657841858146000,21.43914599609375,8.695517539978027,6.786045074462891,-0.37088751792907715
1774657841874934800,21.455934814453126,8.183453559875488,7.250252723693848,0.1986042857170105
1774657841891723500,21.4727236328125,8.93240737915039,6.592226505279541,-0.5024927258491516
