time,seconds_elapsed,z,y,x
1775722015324022500,0.0520224609375,0.1100894883275032,0.1711624264717102,0.18519222736358643
1775722015334035500,0.062035400390625,0.0866566002368927,0.19343844056129456,0.16967611014842987
1775722015344048400,0.07204833984375,0.07584390044212341,0.2141897827386856,0.13989798724651337
1775722015354061300,0.082061279296875,0.07937178760766983,0.2315211147069931,0.11188764870166779
1775722015364074500,0.092074462890625,0.07825326174497604,0.2061249315738678,0.10211038589477539
1775722015374087700,0.102087646484375,0.06684853881597519,0.18425479531288147,0.11280031502246857
1775722015384100400,0.112100341796875,0.060377854853868484,0.2087007462978363,0.12181511521339417
1775722015394114600,0.122114501953125,0.060440175235271454,0.2532525062561035,0.11364427208900452
1775722015404127500,0.13212744140625,0.06096374988555908,0.27414819598197937,0.08616577833890915
1775722015414140400,0.142140380859375,0.0756489560008049,0.26676592230796814,0.050337206572294235
1775722015424153600,0.152153564453125,0.09739526361227036,0.22603154182434082,0.025480858981609344
1775722015434166500,0.16216650390625,0.10845004767179489,0.167775958776474,0.02738501876592636
1775722015444179500,0.172179443359375,0.10865643620491028,0.1276426464319229,0.04736059159040451
1775722015454192400,0.1821923828125,0.11509409546852112,0.12660108506679535,0.05468481779098511
1775722015464205600,0.19220556640625,0.1414836347103119,0.1653016060590744,0.04452246055006981
1775722015474218500,0.202218505859375,0.18345504999160767,0.21033033728599548,0.033428262919187546
1775722015484231400,0.2122314453125,0.2199787050485611,0.1958073228597641,0.028419123962521553
1775722015494244600,0.22224462890625,0.24096494913101196,0.14311347901821136,0.041900843381881714
1775722015504257500,0.232257568359375,0.24230478703975677,0.11278247088193893,0.0544656403362751
1775722015514270500,0.2422705078125,0.23875078558921814,0.06065535917878151,0.05709337815642357
1775722015524283400,0.252283447265625,0.2402229905128479,0.010175406001508236,0.052258145064115524
1775722015534296600,0.262296630859375,0.25272998213768005,-0.040233440697193146,0.04695312678813934
1775722015544309500,0.2723095703125,0.25412681698799133,-0.09164576232433319,0.05542384460568428
1775722015554323500,0.282323486328125,0.2374466359615326,-0.11293427646160126,0.06634599715471268
1775722015564336600,0.292336669921875,0.2122454196214676,-0.10833419859409332,0.0677417665719986
1775722015574349300,0.302349365234375,0.17557741701602936,-0.052927397191524506,0.056174587458372116
1775722015584362500,0.312362548828125,0.144859179854393,0.016801616176962852,0.03491537272930145
1775722015594375400,0.32237548828125,0.12389931082725525,0.06679794192314148,0.008761000819504261
1775722015604388400,0.332388427734375,0.1151668056845665,0.08303017169237137,-0.014653777703642845
1775722015614401500,0.342401611328125,0.10346779972314835,0.024270985275506973,-0.027407921850681305
1775722015624414500,0.35241455078125,0.08873173594474792,-0.06810794770717621,-0.009247826412320137
1775722015634427600,0.362427734375,0.08748190850019455,-0.09695930033922195,0.04097619652748108
1775722015644440300,0.3724404296875,0.09063269942998886,-0.1062404215335846,0.10274794697761536
1775722015654453500,0.38245361328125,0.09735904633998871,-0.14828640222549438,0.16148370504379272
1775722015664466400,0.392466552734375,0.11992720514535904,-0.20405539870262146,0.20573557913303375
1775722015674479400,0.402479248046875,0.14511431753635406,-0.23296667635440826,0.22650638222694397
1775722015684492500,0.412492431640625,0.16434526443481445,-0.23195014894008636,0.21473386883735657
1775722015694505500,0.42250537109375,0.1710100919008255,-0.21712112426757812,0.17391107976436615
1775722015704519400,0.43251953125,0.1805197149515152,-0.18054501712322235,0.11142239719629288
1775722015714532400,0.442532470703125,0.1931159347295761,-0.12392247468233109,0.044927794486284256
1775722015724545500,0.452545654296875,0.19459718465805054,-0.07553283870220184,-0.0168511513620615
1775722015734558500,0.462558349609375,0.17761792242527008,-0.05746888369321823,-0.06202635169029236
1775722015744571400,0.4725712890625,0.14161305129528046,-0.0850515142083168,-0.0884169489145279
1775722015754584600,0.48258447265625,0.11128844320774078,-0.08694848418235779,-0.09118077903985977
1775722015764597500,0.492597412109375,0.08609094470739365,-0.06324847787618637,-0.0889383926987648
1775722015774610400,0.5026103515625,0.05841537192463875,-0.05727367475628853,-0.07921865582466125
1775722015784623400,0.512623291015625,0.02646622806787491,-0.041119206696748734,-0.06974232941865921
1775722015794636500,0.522636474609375,-0.00935941282659769,-0.03197551146149635,-0.06075789034366608
1775722015804649500,0.5326494140625,-0.045632731169462204,-0.034867171198129654,-0.0515633262693882
1775722015814662400,0.542662353515625,-0.07515627145767212,-0.015306518413126469,-0.04407105594873428
1775722015824676000,0.552676025390625,-0.08619480580091476,0.03415796905755997,-0.041182056069374084
1775722015834689000,0.56268896484375,-0.07666867971420288,0.044554151594638824,-0.04139644280076027
1775722015844702000,0.572701904296875,-0.055859003216028214,-0.027120035141706467,-0.00621022516861558
1775722015854716200,0.582716064453125,-0.01372033916413784,-0.0465557835996151,0.08811227977275848
1775722015864729000,0.59272900390625,0.026274479925632477,-0.03494546562433243,0.21478447318077087
1775722015874742000,0.602741943359375,0.07262600213289261,-0.026574086397886276,0.3453350365161896
1775722015884755200,0.612755126953125,0.12295494973659515,-0.02496393956243992,0.45166492462158203
1775722015894767900,0.622767822265625,0.1580657958984375,-0.033198967576026917,0.5268728733062744
1775722015904781000,0.632781005859375,0.17495955526828766,-0.03135419264435768,0.5887540578842163
1775722015914794200,0.642794189453125,0.15202175080776215,-0.03219335526227951,0.635164201259613
1775722015924807200,0.65280712890625,0.10988255590200424,-0.04338449239730835,0.6675562262535095
1775722015934820000,0.662820068359375,0.06107693538069725,-0.013656956143677235,0.6848387718200684
1775722015944833000,0.6728330078125,0.017187776044011116,0.026550650596618652,0.6722407341003418
1775722015954846200,0.68284619140625,-0.0071037160232663155,0.04205344244837761,0.6495063900947571
1775722015964859100,0.692859130859375,-0.010584467090666294,0.0867207795381546,0.6373144388198853
1775722015974872000,0.7028720703125,-0.01571611315011978,0.12126117944717407,0.6146924495697021
1775722015984885200,0.71288525390625,-0.022086126729846,0.092134989798069,0.5676879286766052
1775722015994898200,0.722898193359375,-0.0357968807220459,0.027583424001932144,0.49968838691711426
1775722016004912000,0.732912109375,-0.05597139149904251,-0.015909191220998764,0.41740548610687256
1775722016014925000,0.742925048828125,-0.06518246233463287,-0.034517765045166016,0.3310815095901489
1775722016024938000,0.75293798828125,-0.0659947320818901,-0.03175419941544533,0.24520602822303772
1775722016034951200,0.762951171875,-0.06599073112010956,-0.04711531475186348,0.1641916036605835
1775722016044964000,0.772964111328125,-0.07574882358312607,-0.08787766098976135,0.09125161916017532
1775722016054977300,0.782977294921875,-0.08905158191919327,-0.1511104255914688,0.013063071295619011
1775722016064990000,0.792989990234375,-0.08803211897611618,-0.1908799409866333,-0.06269028037786484
1775722016075003100,0.803003173828125,-0.07548144459724426,-0.18170295655727386,-0.13987508416175842
1775722016085016000,0.81301611328125,-0.06881581246852875,-0.1779305785894394,-0.21431362628936768
1775722016095029000,0.823029052734375,-0.06669940054416656,-0.21660101413726807,-0.26310938596725464
1775722016105042200,0.833042236328125,-0.07193703949451447,-0.19414550065994263,-0.2729188799858093
1775722016115055000,0.84305517578125,-0.08116089552640915,-0.15214958786964417,-0.2540072500705719
1775722016125068300,0.853068359375,-0.0826573297381401,-0.15289553999900818,-0.2192298173904419
1775722016135081000,0.8630810546875,-0.07487078011035919,-0.12572410702705383,-0.16156679391860962
1775722016145094100,0.87309423828125,-0.07015618681907654,-0.061040982604026794,-0.08724942058324814
1775722016155108000,0.883108154296875,-0.061757639050483704,0.03681500628590584,-0.010214554145932198
1775722016165121000,0.89312109375,-0.05169728398323059,0.11892132461071014,0.04879150912165642
1775722016175134200,0.90313427734375,-0.0552414171397686,0.08851734548807144,0.09316083788871765
1775722016185147100,0.913147216796875,-0.054430484771728516,0.06913193315267563,0.14069639146327972
1775722016195160000,0.92316015625,-0.04646443575620651,0.1084042340517044,0.19002613425254822
1775722016205173000,0.933173095703125,-0.04549584537744522,0.1209368109703064,0.2296539694070816
1775722016215186200,0.943186279296875,-0.03602990508079529,0.07673472166061401,0.24828916788101196
1775722016225199000,0.95319921875,-0.019417906180024147,0.06843364983797073,0.2530149519443512
1775722016235212000,0.9632119140625,0.0017379788914695382,0.09376617521047592,0.2339688241481781
1775722016245225200,0.97322509765625,0.017117202281951904,0.14020317792892456,0.20161034166812897
1775722016255238100,0.983238037109375,0.02130608819425106,0.18702208995819092,0.1739017516374588
1775722016265251000,0.9932509765625,0.01834545098245144,0.2169395089149475,0.15939870476722717
1775722016275264000,1.003263916015625,0.007115433923900127,0.23941631615161896,0.16120992600917816
1775722016285277200,1.013277099609375,-0.0076182386837899685,0.2107870727777481,0.16650988161563873
1775722016295290000,1.0232900390625,-0.010206565260887146,0.183170348405838,0.1750144213438034
1775722016305304000,1.033303955078125,-0.010105364955961704,0.17566263675689697,0.1850510835647583
1775722016315317200,1.043317138671875,-0.010113620199263096,0.19213375449180603,0.17692869901657104
1775722016325330000,1.053329833984375,-0.02105175517499447,0.19908647239208221,0.16450771689414978
1775722016335343000,1.063343017578125,-0.04832332208752632,0.21638768911361694,0.1498028039932251
1775722016345356300,1.073356201171875,-0.07630036026239395,0.25064313411712646,0.14150039851665497
1775722016355369200,1.083369140625,-0.09766637533903122,0.2826245129108429,0.132695734500885
1775722016365382100,1.093382080078125,-0.123713418841362,0.2978423535823822,0.11460807174444199
1775722016375395000,1.10339501953125,-0.14289936423301697,0.2787248492240906,0.07743886858224869
1775722016385408300,1.113408203125,-0.15032239258289337,0.24510376155376434,0.03387540951371193
1775722016395421000,1.1234208984375,-0.1407637745141983,0.1931271106004715,-0.010578075423836708
1775722016405434000,1.13343408203125,-0.12261806428432465,0.13468751311302185,-0.040945835411548615
1775722016415447000,1.143447021484375,-0.11003036051988602,0.11698201298713684,-0.05450345575809479
1775722016425460200,1.153460205078125,-0.10297804325819016,0.08471382409334183,-0.05944761261343956
1775722016435473200,1.16347314453125,-0.09444847702980042,0.0386163666844368,-0.05880605801939964
1775722016445486000,1.173486083984375,-0.08832613378763199,0.03996286168694496,-0.04316291585564613
1775722016455500000,1.1835,-0.0761384442448616,0.08972642570734024,-0.027001257985830307
1775722016465513000,1.193512939453125,-0.05926119163632393,0.14649303257465363,-0.009070460684597492
1775722016475526100,1.203526123046875,-0.040333040058612823,0.1716655045747757,0.010943194851279259
1775722016485539000,1.2135390625,-0.02219931222498417,0.16738499701023102,0.03205513954162598
1775722016495552000,1.223552001953125,0.008019843138754368,0.15412990748882294,0.042637474834918976
1775722016505565200,1.233565185546875,0.024342091754078865,0.10161744058132172,0.03756601735949516
1775722016515578000,1.243578125,0.02436952106654644,0.059548016637563705,0.02257348597049713
1775722016525591000,1.253591064453125,0.01581970974802971,0.0431663803756237,0.006590524688363075
1775722016535604000,1.26360400390625,0.0032519858796149492,0.03845711052417755,-0.009512278251349926
1775722016545617200,1.2736171875,-0.0026226809713989496,0.04463005065917969,-0.021620873361825943
1775722016555630000,1.283630126953125,-0.0004308994684834033,0.048777926713228226,-0.029506759718060493
1775722016565643000,1.29364306640625,-0.007370031904429197,0.0792229175567627,-0.03365702927112579
1775722016575656200,1.30365625,-0.024290159344673157,0.11936554312705994,-0.030949393287301064
1775722016585669000,1.313669189453125,-0.03688877448439598,0.16039340198040009,-0.030653782188892365
1775722016595682000,1.32368212890625,-0.044065460562705994,0.17815722525119781,-0.042683813720941544
1775722016605696300,1.3336962890625,-0.0452289953827858,0.14580966532230377,-0.06397365778684616
1775722016615709200,1.343709228515625,-0.046842340379953384,0.09137119352817535,-0.09793747961521149
1775722016625722000,1.35372216796875,-0.05281847342848778,0.024508539587259293,-0.1340845674276352
1775722016635735000,1.363735107421875,-0.065462626516819,-0.012571452185511589,-0.1461058109998703
1775722016645748200,1.373748291015625,-0.0871969535946846,-0.006672283634543419,-0.13726304471492767
1775722016655761000,1.383760986328125,-0.11404241621494293,0.05567418038845062,-0.11496973037719727
1775722016665774000,1.393774169921875,-0.13372130692005157,0.1160975769162178,-0.10001847892999649
1775722016675787300,1.403787353515625,-0.14177843928337097,0.1597401350736618,-0.09785279631614685
1775722016685800200,1.41380029296875,-0.14662513136863708,0.15962907671928406,-0.09868316352367401
1775722016695813000,1.423813232421875,-0.1494254469871521,0.16928330063819885,-0.09725118428468704
1775722016705826000,1.433825927734375,-0.14775244891643524,0.19288849830627441,-0.09170142561197281
1775722016715839200,1.443839111328125,-0.1483878791332245,0.1748865842819214,-0.08684089034795761
1775722016725852000,1.453851806640625,-0.13943645358085632,0.16407868266105652,-0.08957169204950333
1775722016735865000,1.463864990234375,-0.12919101119041443,0.1343463510274887,-0.09930554777383804
1775722016745879300,1.47387939453125,-0.12691374123096466,0.07936593145132065,-0.1090676337480545
1775722016755892000,1.48389208984375,-0.12697339057922363,0.07391976565122604,-0.11345971375703812
1775722016765905200,1.4939052734375,-0.1357887238264084,0.050945207476615906,-0.12180846184492111
1775722016775918000,1.50391796875,-0.13925935328006744,0.053699713200330734,-0.11513883620500565
1775722016785931000,1.513930908203125,-0.12718963623046875,0.09591641277074814,-0.09430546313524246
1775722016795944200,1.523944091796875,-0.10842687636613846,0.1282767504453659,-0.07397835701704025
1775722016805957000,1.53395703125,-0.09520348161458969,0.10346167534589767,-0.05711495131254196
1775722016815970300,1.54397021484375,-0.10076043009757996,0.08379796147346497,-0.03852342441678047
1775722016825982700,1.553982666015625,-0.11559264361858368,0.07886232435703278,-0.024286696687340736
1775722016835995600,1.56399560546875,-0.14244262874126434,0.0661449283361435,-0.02429788187146187
1775722016846008800,1.5740087890625,-0.16661587357521057,0.04944424703717232,-0.036436039954423904
1775722016856021800,1.584021728515625,-0.18313653767108917,0.013888651505112648,-0.06894204765558243
1775722016866034700,1.59403466796875,-0.20222048461437225,-0.05933336541056633,-0.1024017408490181
1775722016876047600,1.604047607421875,-0.22913038730621338,-0.11441153287887573,-0.13190104067325592
1775722016886060800,1.614060791015625,-0.24927480518817902,-0.09662268310785294,-0.15581968426704407
1775722016896074800,1.62407470703125,-0.2742243707180023,-0.08109351992607117,-0.18532618880271912
1775722016906087700,1.634087646484375,-0.2932150959968567,-0.06510390341281891,-0.19265733659267426
1775722016916100900,1.644100830078125,-0.29352349042892456,0.05164162442088127,-0.16022749245166779
1775722016926113500,1.654113525390625,-0.2897908091545105,0.16727155447006226,-0.09940994530916214
1775722016936126700,1.664126708984375,-0.27827849984169006,0.2228945940732956,-0.03419259190559387
1775722016946139600,1.6741396484375,-0.2540706396102905,0.22405201196670532,0.013235644437372684
1775722016956152600,1.684152587890625,-0.21758505702018738,0.16722175478935242,0.041006822139024734
1775722016966165800,1.694165771484375,-0.16522037982940674,0.11026684939861298,0.05627712234854698
1775722016976178700,1.7041787109375,-0.10469738394021988,0.052796367555856705,0.06741046905517578
1775722016986192000,1.71419189453125,-0.05445392057299614,0.03157417103648186,0.08471488952636719
1775722016996204500,1.72420458984375,-0.03983449935913086,0.02990996278822422,0.11883370578289032
1775722017006217700,1.7342177734375,-0.06622109562158585,0.05006236955523491,0.16616366803646088
1775722017016230700,1.744230712890625,-0.12344257533550262,0.041739191859960556,0.21609528362751007
1775722017026243600,1.75424365234375,-0.1904493123292923,0.07194902747869492,0.25848188996315
1775722017036256800,1.7642568359375,-0.23258744180202484,0.14388659596443176,0.2723020911216736
1775722017046270700,1.774270751953125,-0.2621506452560425,0.2142324000597,0.2611328065395355
1775722017056283600,1.78428369140625,-0.28571298718452454,0.24919624626636505,0.23568841814994812
1775722017066296600,1.794296630859375,-0.30888035893440247,0.26562902331352234,0.20582853257656097
1775722017076309800,1.804309814453125,-0.3418998122215271,0.2552157938480377,0.17573986947536469
1775722017086322700,1.81432275390625,-0.3756849467754364,0.24651603400707245,0.1503482311964035
1775722017096335600,1.824335693359375,-0.39157816767692566,0.2285066694021225,0.13108931481838226
1775722017106348800,1.834348876953125,-0.3895946443080902,0.17533452808856964,0.11760705709457397
1775722017116361700,1.84436181640625,-0.36675509810447693,0.15269286930561066,0.12065345048904419
1775722017126374700,1.854374755859375,-0.3287073075771332,0.17940810322761536,0.14269191026687622
1775722017136387600,1.8643876953125,-0.2901977300643921,0.2280837595462799,0.17648155987262726
1775722017146400800,1.87440087890625,-0.25576573610305786,0.2654913365840912,0.2192806899547577
1775722017156413700,1.88441357421875,-0.23403939604759216,0.28407326340675354,0.2628614604473114
1775722017166426600,1.894426513671875,-0.21960186958312988,0.2624571919441223,0.29624977707862854
1775722017176439800,1.904439697265625,-0.20103803277015686,0.23492303490638733,0.3091626465320587
1775722017186452700,1.91445263671875,-0.19347332417964935,0.19565658271312714,0.29953426122665405
1775722017196466700,1.924466796875,-0.18554510176181793,0.16245149075984955,0.27214762568473816
1775722017206480000,1.93447998046875,-0.15716324746608734,0.13718955218791962,0.2344955950975418
1775722017216492500,1.944492431640625,-0.12397627532482147,0.11017177999019623,0.1971423625946045
1775722017226505700,1.954505615234375,-0.11734580248594284,0.10938534885644913,0.1596493124961853
1775722017236518700,1.9645185546875,-0.13489602506160736,0.09911486506462097,0.13309121131896973
1775722017246531800,1.97453173828125,-0.1314869225025177,0.14288152754306793,0.1224883645772934
1775722017256544500,1.98454443359375,-0.12026409059762955,0.21004430949687958,0.13014495372772217
1775722017266557700,1.9945576171875,-0.09907571971416473,0.25018027424812317,0.15180258452892303
1775722017276571000,2.00457080078125,-0.06830368936061859,0.26370009779930115,0.18477384746074677
1775722017286583600,2.01458349609375,-0.047394413501024246,0.2750651240348816,0.2105412632226944
1775722017296596700,2.0245966796875,-0.019002186134457588,0.26688921451568604,0.2076898068189621
1775722017306609700,2.034609619140625,0.008073639124631882,0.2058517038822174,0.1809210479259491
1775722017316622800,2.044622802734375,0.021981464698910713,0.08557508885860443,0.14409592747688293
1775722017326635500,2.054635498046875,0.02358522079885006,-0.13104963302612305,0.10436422377824783
1775722017336649700,2.064649658203125,0.03635774180293083,-0.30108898878097534,0.06507594138383865
1775722017346662700,2.07466259765625,0.07499940693378448,-0.40995076298713684,0.02460893988609314
1775722017356675600,2.084675537109375,0.15624499320983887,-0.39661845564842224,-0.010101635940372944
1775722017366688800,2.094688720703125,0.24810461699962616,-0.25469887256622314,-0.014668424613773823
1775722017376701700,2.10470166015625,0.3076097369194031,-0.05705929175019264,0.027573570609092712
1775722017386714600,2.114714599609375,0.32008853554725647,0.11421685665845871,0.11347329616546631
1775722017396727800,2.124727783203125,0.29457223415374756,0.23698484897613525,0.2180604338645935
1775722017406740700,2.13474072265625,0.28254008293151855,0.3055111765861511,0.32764071226119995
1775722017416753700,2.144753662109375,0.3024357557296753,0.28833937644958496,0.4240468740463257
1775722017426766600,2.1547666015625,0.3145768344402313,0.19062188267707825,0.48776382207870483
1775722017436779800,2.16477978515625,0.30669814348220825,0.10591284930706024,0.5256941318511963
1775722017446792700,2.174792724609375,0.25139468908309937,0.016096411272883415,0.5265945792198181
1775722017456805600,2.1848056640625,0.2089412361383438,-0.06816919893026352,0.48634806275367737
1775722017466818800,2.19481884765625,0.1951569765806198,-0.1747499704360962,0.3976392447948456
1775722017476831700,2.204831787109375,0.21609607338905334,-0.17901556193828583,0.2806015610694885
1775722017486845700,2.214845703125,0.26733076572418213,-0.08171696960926056,0.17938679456710815
1775722017496858600,2.224858642578125,0.3254531919956207,0.05493568629026413,0.11107059568166733
1775722017506871800,2.234871826171875,0.3661510944366455,0.15010002255439758,0.07796616852283478
1775722017516884700,2.244884765625,0.3723117709159851,0.16392502188682556,0.05348213389515877
1775722017526897700,2.254897705078125,0.35559672117233276,0.07727827876806259,0.019663982093334198
1775722017536910800,2.264910888671875,0.31699419021606445,-0.07636348158121109,-0.03682832047343254
1775722017546923500,2.274923583984375,0.28431934118270874,-0.25879961252212524,-0.11432790756225586
1775722017556936700,2.284936767578125,0.23526178300380707,-0.4539933204650879,-0.20711617171764374
1775722017566949600,2.29494970703125,0.15605032444000244,-0.5857337713241577,-0.2930355966091156
1775722017576962800,2.304962890625,0.06298935413360596,-0.6521679162979126,-0.3453643321990967
1775722017586975500,2.3149755859375,-0.035345472395420074,-0.7145511507987976,-0.36707547307014465
1775722017596988700,2.32498876953125,-0.13476499915122986,-0.7786454558372498,-0.3673170208930969
1775722017607001900,2.335001953125,-0.18937738239765167,-0.6690369248390198,-0.36504507064819336
1775722017617014500,2.3450146484375,-0.21279269456863403,-0.46824416518211365,-0.3721535801887512
1775722017627028700,2.35502880859375,-0.21273091435432434,-0.25963422656059265,-0.39102500677108765
1775722017637042000,2.3650419921875,-0.22595803439617157,-0.12880724668502808,-0.39883074164390564
1775722017647054600,2.3750546875,-0.26055383682250977,-0.09737236052751541,-0.38661110401153564
1775722017657067800,2.38506787109375,-0.26276424527168274,-0.0215377826243639,-0.33380645513534546
1775722017667080700,2.395080810546875,-0.2454688847064972,0.09441065788269043,-0.2530796527862549
1775722017677093600,2.40509375,-0.2035272866487503,0.18548063933849335,-0.1648251712322235
1775722017687106600,2.4151064453125,-0.16904520988464355,0.22083890438079834,-0.10204514116048813
1775722017697119700,2.42511962890625,-0.13467925786972046,0.17741580307483673,-0.08929898589849472
1775722017707132700,2.435132568359375,-0.1050230860710144,0.07453388720750809,-0.1039399802684784
1775722017717145600,2.4451455078125,-0.10908174514770508,-0.04218660295009613,-0.12723544239997864
1775722017727158800,2.45515869140625,-0.13055987656116486,-0.06052166596055031,-0.13488617539405823
1775722017737171700,2.465171630859375,-0.12736834585666656,0.06421307474374771,-0.11696230620145798
1775722017747184600,2.4751845703125,-0.1231597512960434,0.20844775438308716,-0.05258757621049881
1775722017757197600,2.485197509765625,-0.11539503186941147,0.26324495673179626,0.033134784549474716
1775722017767211800,2.495211669921875,-0.07664711028337479,0.21263450384140015,0.09896200150251389
1775722017777224700,2.505224609375,-0.023869646713137627,0.042145323008298874,0.13286830484867096
1775722017787237600,2.515237548828125,0.05475166067481041,-0.11796019226312637,0.1615295112133026
1775722017797250800,2.525250732421875,0.1323108971118927,-0.19684195518493652,0.18401937186717987
1775722017807263500,2.535263427734375,0.18801811337471008,-0.20043297111988068,0.18251414597034454
1775722017817276700,2.545276611328125,0.21034099161624908,-0.19425123929977417,0.16001923382282257
1775722017827289300,2.555289306640625,0.2012132704257965,-0.24609951674938202,0.1236172765493393
1775722017837302500,2.565302490234375,0.1925761103630066,-0.27445685863494873,0.09600216150283813
1775722017847315500,2.5753154296875,0.18208032846450806,-0.2222333401441574,0.09772922098636627
1775722017857328400,2.585328369140625,0.14470098912715912,-0.1261342316865921,0.12173628807067871
1775722017867341600,2.595341552734375,0.08284401893615723,-0.05247306078672409,0.1315673440694809
1775722017877354500,2.6053544921875,0.021745242178440094,-0.05096038430929184,0.089829221367836
1775722017887367400,2.615367431640625,-0.011669971980154514,-0.09455979615449905,0.007764978799968958
1775722017897380400,2.62538037109375,-0.03208576515316963,-0.1789894551038742,-0.08215931802988052
1775722017907393500,2.6353935546875,-0.016165386885404587,-0.20687754452228546,-0.1422937661409378
1775722017917407500,2.645407470703125,0.019306853413581848,-0.20688606798648834,-0.13808010518550873
1775722017927420400,2.65542041015625,0.033119071274995804,-0.2318931519985199,-0.07711449265480042
1775722017937433600,2.66543359375,0.02984711155295372,-0.24329973757266998,0.016707606613636017
1775722017947446300,2.6754462890625,0.0390925407409668,-0.22829841077327728,0.12282419204711914
1775722017957459500,2.68545947265625,0.0437575988471508,-0.1693490743637085,0.2095140814781189
1775722017967472600,2.69547265625,0.03532177209854126,-0.09132591634988785,0.2526485025882721
1775722017977485300,2.7054853515625,0.014625282026827335,-0.032939840108156204,0.2421915978193283
1775722017987498500,2.71549853515625,-0.027532558888196945,0.005336708389222622,0.200972780585289
1775722017997511400,2.725511474609375,-0.07424813508987427,0.07042862474918365,0.14842355251312256
1775722018007524600,2.735524658203125,-0.11128231883049011,0.13400040566921234,0.10135671496391296
1775722018017537300,2.745537353515625,-0.13613146543502808,0.1512124240398407,0.05284404009580612
1775722018027550500,2.755550537109375,-0.14745363593101501,0.08555058389902115,0.006746585946530104
1775722018037563400,2.7655634765625,-0.14523015916347504,-0.03700995072722435,-0.032401349395513535
1775722018047576300,2.775576416015625,-0.12867063283920288,-0.10661672055721283,-0.059957608580589294
1775722018057590500,2.785590576171875,-0.10116363316774368,-0.0924535021185875,-0.06731459498405457
1775722018067603500,2.795603515625,-0.07765670865774155,-0.03730742633342743,-0.05210234969854355
1775722018077616400,2.805616455078125,-0.04469902813434601,0.006947122048586607,-0.026575418189167976
1775722018087629600,2.815629638671875,-0.007077882997691631,0.038603849709033966,0.013353089801967144
1775722018097642500,2.825642578125,0.015740880742669106,0.04205797240138054,0.06342211365699768
1775722018107655400,2.835655517578125,0.03580886498093605,0.04567321389913559,0.106424979865551
1775722018117668400,2.84566845703125,0.05209169536828995,0.03251613304018974,0.12611985206604004
1775722018127681500,2.855681640625,0.07381989806890488,0.010903513990342617,0.10270773619413376
1775722018137694500,2.865694580078125,0.10415143519639969,-0.0037031255196779966,0.04983546584844589
1775722018147707400,2.875707275390625,0.12367959320545197,-0.02774933911859989,-0.004436826333403587
1775722018157720300,2.88572021484375,0.13367816805839539,-0.0689883902668953,-0.03893754631280899
1775722018167733500,2.8957333984375,0.12729643285274506,-0.1370214968919754,-0.05306801199913025
1775722018177746400,2.905746337890625,0.12045477330684662,-0.16130021214485168,-0.05702679976820946
1775722018187759400,2.91575927734375,0.12711374461650848,-0.14179575443267822,-0.04742743819952011
1775722018197773600,2.925773681640625,0.13260331749916077,-0.09569296985864639,-0.03910292685031891
1775722018207786500,2.935786376953125,0.1308395117521286,-0.06637848913669586,-0.031129157170653343
1775722018217799400,2.94579931640625,0.12015676498413086,-0.06885842978954315,-0.029259884729981422
1775722018227812600,2.9558125,0.10952649265527725,-0.07590807974338531,-0.02160675823688507
1775722018237825300,2.9658251953125,0.09597712755203247,-0.1263805776834488,0.007410778198391199
1775722018247838500,2.97583837890625,0.07856272161006927,-0.13691124320030212,0.0360589362680912
1775722018257851400,2.985851318359375,0.08052573353052139,-0.09134083241224289,0.0571567639708519
1775722018267864600,2.995864501953125,0.10372612625360489,-0.03557317331433296,0.06638088822364807
1775722018277877200,3.005877197265625,0.1481764167547226,0.014456703327596188,0.0641627386212349
1775722018287890400,3.015890380859375,0.19338516891002655,0.04231389984488487,0.06628554314374924
1775722018297903600,3.025903564453125,0.19494791328907013,0.022170016542077065,0.06011127308011055
1775722018307916300,3.035916259765625,0.18267473578453064,-0.03357234224677086,0.03563496097922325
1775722018317929500,3.045929443359375,0.19004850089550018,-0.1229110062122345,0.006707703694701195
1775722018327942400,3.0559423828125,0.21730755269527435,-0.18064381182193756,-0.013075588271021843
1775722018337956400,3.065956298828125,0.23418426513671875,-0.2450329214334488,-0.018098842352628708
1775722018347969500,3.075969482421875,0.22484908998012543,-0.30090177059173584,-0.008855809457600117
1775722018357982500,3.085982421875,0.21557170152664185,-0.2942047417163849,0.012337625958025455
1775722018367995400,3.095995361328125,0.17632202804088593,-0.2850349247455597,0.02755386382341385
1775722018378008300,3.10600830078125,0.1382441520690918,-0.23961392045021057,0.04266437143087387
1775722018388021500,3.116021484375,0.12574167549610138,-0.13952140510082245,0.042205777019262314
1775722018398034400,3.126034423828125,0.11914210021495819,-0.06095682829618454,0.02756478264927864
1775722018408047400,3.13604736328125,0.13116280734539032,0.01967543363571167,-0.01571531407535076
1775722018418060500,3.146060546875,0.16005012392997742,0.10283130407333374,-0.08236757665872574
1775722018428073500,3.156073486328125,0.19690240919589996,0.17254753410816193,-0.14242932200431824
1775722018438086400,3.16608642578125,0.23266653716564178,0.12342046946287155,-0.1528816968202591
1775722018448099300,3.176099365234375,0.2732248902320862,0.07904262095689774,-0.08129671961069107
1775722018458112500,3.186112548828125,0.30960631370544434,-0.01611931435763836,0.05987425148487091
1775722018468125400,3.19612548828125,0.334808349609375,-0.17731113731861115,0.2169879674911499
1775722018478138400,3.206138427734375,0.33631330728530884,-0.32244542241096497,0.33997222781181335
1775722018488152600,3.216152587890625,0.29863837361335754,-0.4597170054912567,0.39157310128211975
1775722018498165200,3.226165283203125,0.24420814216136932,-0.45343539118766785,0.3883560001850128
1775722018508178400,3.236178466796875,0.23506391048431396,-0.2869236469268799,0.35397377610206604
1775722018518191400,3.24619140625,0.22307755053043365,-0.05702147260308266,0.31456831097602844
1775722018528204500,3.25620458984375,0.17527595162391663,0.21164673566818237,0.2765418589115143
1775722018538217500,3.266217529296875,0.10635174065828323,0.38588646054267883,0.2200964093208313
1775722018548230400,3.27623046875,0.032279644161462784,0.4455079734325409,0.12893986701965332
1775722018558243600,3.28624365234375,-0.0178823284804821,0.3986102342605591,-0.0033475933596491814
1775722018568256300,3.29625634765625,-0.03849412873387337,0.21651633083820343,-0.14158935844898224
1775722018578269400,3.30626953125,-0.04074743017554283,0.037934865802526474,-0.22076833248138428
1775722018588282400,3.316282470703125,-0.02672082744538784,-0.06798490881919861,-0.21618716418743134
1775722018598295600,3.326295654296875,-0.01738032139837742,-0.08465496450662613,-0.1649375557899475
1775722018608308500,3.33630859375,0.006172408349812031,-0.012653477489948273,-0.12170912325382233
1775722018618321400,3.3463212890625,0.0386216938495636,0.10439751297235489,-0.14091850817203522
1775722018628335400,3.35633544921875,0.05180540680885315,0.24889689683914185,-0.20787224173545837
1775722018638348300,3.366348388671875,0.06270146369934082,0.41045382618904114,-0.28877612948417664
1775722018648361500,3.376361572265625,0.05907956510782242,0.5023153424263,-0.3545317053794861
1775722018658374700,3.386374755859375,0.053371611982584,0.6204786896705627,-0.39321333169937134
1775722018668387300,3.39638720703125,0.05600521340966225,0.7152997851371765,-0.41807952523231506
1775722018678400500,3.406400390625,0.06806320697069168,0.7172659635543823,-0.45242446660995483
1775722018688413400,3.416413330078125,0.0856802836060524,0.5400685667991638,-0.48291313648223877
1775722018698426400,3.42642626953125,0.10669262707233429,0.3269360363483429,-0.478156179189682
1775722018708439300,3.436439208984375,0.10294608771800995,0.17767012119293213,-0.4319838881492615
1775722018718452500,3.446452392578125,0.07116205990314484,0.15481728315353394,-0.3535514175891876
1775722018728465700,3.456465576171875,0.0697881355881691,0.35490110516548157,-0.2793339192867279
1775722018738478300,3.466478271484375,0.08893732726573944,0.604019045829773,-0.24150928854942322
1775722018748491500,3.476491455078125,0.09436405450105667,0.7176273465156555,-0.2388053834438324
1775722018758504400,3.48650439453125,0.07304517924785614,0.6661766767501831,-0.2411108911037445
1775722018768518400,3.496518310546875,-0.0001174454009742476,0.5268134474754333,-0.218360036611557
1775722018778531600,3.506531494140625,-0.06575983762741089,0.4759332537651062,-0.1704407036304474
1775722018788544500,3.51654443359375,-0.12398772686719894,0.4405030906200409,-0.1335468739271164
1775722018798557400,3.526557373046875,-0.18238791823387146,0.36077311635017395,-0.12029871344566345
1775722018808570400,3.5365703125,-0.2320827692747116,0.19468186795711517,-0.10996618121862411
1775722018818583600,3.54658349609375,-0.30211111903190613,-0.021682659164071083,-0.09593318402767181
1775722018828597200,3.55659716796875,-0.3594929277896881,-0.12020523846149445,-0.08336786180734634
1775722018838610400,3.5666103515625,-0.3649763762950897,-0.23034532368183136,-0.10512188822031021
1775722018848623400,3.576623291015625,-0.300739586353302,-0.2790220379829407,-0.17093445360660553
1775722018858636300,3.58663623046875,-0.1806158572435379,-0.2964295446872711,-0.2577812075614929
1775722018868649200,3.596649169921875,-0.053645119071006775,-0.31789860129356384,-0.32641512155532837
1775722018878662400,3.606662353515625,0.04707483574748039,-0.3492288291454315,-0.36091265082359314
1775722018888675300,3.61667529296875,0.09337761998176575,-0.5161027908325195,-0.37098100781440735
1775722018898688300,3.626688232421875,0.12372620403766632,-0.7880874276161194,-0.385579377412796
1775722018908702500,3.636702392578125,0.1533767729997635,-1.0453649759292603,-0.4020872414112091
1775722018918715100,3.646715087890625,0.17192089557647705,-1.1262140274047852,-0.41196784377098083
1775722018928728300,3.656728271484375,0.1788400560617447,-1.04164719581604,-0.4189610481262207
1775722018938741200,3.6667412109375,0.18388301134109497,-0.7780393362045288,-0.427569180727005
1775722018948754400,3.67675439453125,0.21696533262729645,-0.43693286180496216,-0.4206865131855011
1775722018958767400,3.686767333984375,0.25505173206329346,-0.16374072432518005,-0.3905656337738037
1775722018968780300,3.6967802734375,0.24887533485889435,0.011158378794789314,-0.3129669725894928
1775722018978793500,3.70679345703125,0.22329726815223694,0.1720396727323532,-0.2078930139541626
1775722018988806100,3.71680615234375,0.18078894913196564,0.26314908266067505,-0.11785686016082764
1775722018998819300,3.7268193359375,0.12971964478492737,0.3003001809120178,-0.06362158805131912
1775722019008832300,3.736832275390625,0.07839733362197876,0.2707768976688385,-0.04494404047727585
1775722019018845400,3.746845458984375,0.012704609893262386,0.15193361043930054,-0.05995521321892738
1775722019028858400,3.7568583984375,-0.058452922850847244,-0.034746263176202774,-0.08261338621377945
1775722019038871300,3.766871337890625,-0.1099691092967987,-0.1478443145751953,-0.09343807399272919
1775722019048885200,3.77688525390625,-0.15659067034721375,-0.1111728623509407,-0.07848921418190002
1775722019058898200,3.786898193359375,-0.18075060844421387,0.035705532878637314,-0.06936363130807877
1775722019068911400,3.796911376953125,-0.17211796343326569,0.2057824581861496,-0.0721314549446106
1775722019078924500,3.806924560546875,-0.16337880492210388,0.3773651421070099,-0.0628037303686142
1775722019088937200,3.816937255859375,-0.18258312344551086,0.44832292199134827,-0.0418316014111042
1775722019098950400,3.826950439453125,-0.2222253382205963,0.39045217633247375,-0.021874671801924706
1775722019108963300,3.83696337890625,-0.23117995262145996,0.281535804271698,-0.030464431270956993
1775722019118976300,3.846976318359375,-0.2068682312965393,0.1381078064441681,-0.07168377190828323
1775722019128989200,3.8569892578125,-0.16151273250579834,0.029803702607750893,-0.11197500675916672
1775722019139002400,3.86700244140625,-0.08894185721874237,-0.01799844205379486,-0.13042564690113068
1775722019149015600,3.877015625,-0.013821805827319622,-0.04550516605377197,-0.11390872299671173
1775722019159028200,3.8870283203125,0.052026983350515366,-0.06689275056123734,-0.06203647330403328
1775722019169041400,3.89704150390625,0.11831892281770706,-0.057261426001787186,0.0094480961561203
1775722019179054300,3.907054443359375,0.15115223824977875,-0.042934149503707886,0.08678123354911804
1775722019189068300,3.917068359375,0.14421284198760986,-0.04123532027006149,0.14091823995113373
1775722019199081500,3.92708154296875,0.10541404038667679,-0.04784022644162178,0.15110349655151367
1775722019209094400,3.937094482421875,0.06214885786175728,0.0014799186028540134,0.11889256536960602
1775722019219107300,3.947107421875,0.006869623903185129,0.06496062129735947,0.061401575803756714
1775722019229120300,3.957120361328125,-0.04289526864886284,0.12180127203464508,0.009603625163435936
1775722019239133400,3.967133544921875,-0.07447449862957001,0.14603416621685028,-0.02671336941421032
1775722019249146000,3.97714599609375,-0.0965861976146698,0.12540799379348755,-0.04644925892353058
1775722019259159300,3.9871591796875,-0.11575935781002045,0.034802187234163284,-0.05567498132586479
1775722019269172500,3.99717236328125,-0.13608114421367645,-0.07023687660694122,-0.04381139576435089
1775722019279185400,4.007185302734375,-0.1565355509519577,-0.09992393106222153,-0.004181429278105497
1775722019289198300,4.0171982421875,-0.17703869938850403,-0.03946138918399811,0.043471843004226685
1775722019299211300,4.027211181640625,-0.18335650861263275,0.05813387781381607,0.06246417760848999
1775722019309224400,4.037224365234375,-0.16396602988243103,0.10794723778963089,0.03695216029882431
1775722019319237000,4.047237060546875,-0.12473607063293457,0.10604067891836166,-0.01260846946388483
1775722019329251300,4.057251220703125,-0.08865316957235336,0.057425741106271744,-0.05685769021511078
1775722019339264500,4.067264404296875,-0.05949102342128754,-0.011635350994765759,-0.07788574695587158
1775722019349277200,4.077277099609375,-0.03969654440879822,-0.09117384999990463,-0.07112104445695877
1775722019359290400,4.087290283203125,-0.011667042039334774,-0.11093024909496307,-0.04092532768845558
1775722019369303300,4.09730322265625,0.018136393278837204,-0.10322332382202148,-0.002073803450912237
1775722019379316200,4.107316162109375,0.039872050285339355,-0.0942002683877945,0.03939800709486008
1775722019389329400,4.117329345703125,0.04571182653307915,-0.1299220472574234,0.06689833849668503
1775722019399342300,4.12734228515625,0.043057188391685486,-0.17053020000457764,0.07486625015735626
1775722019409355500,4.13735546875,0.027872910723090172,-0.18100334703922272,0.07134289294481277
1775722019419368200,4.1473681640625,0.014011955820024014,-0.12628497183322906,0.06027932092547417
1775722019429381400,4.15738134765625,-0.010486729443073273,-0.05842895433306694,0.05149728059768677
1775722019439394300,4.167394287109375,-0.043784499168395996,0.023358052596449852,0.03699396923184395
1775722019449407200,4.1774072265625,-0.07736270129680634,0.062070827931165695,0.007910653948783875
1775722019459420200,4.187420166015625,-0.10523294657468796,0.06479097902774811,-0.033895380795001984
1775722019469434400,4.197434326171875,-0.12026195973157883,0.038060035556554794,-0.07446464896202087
1775722019479447300,4.207447265625,-0.140747532248497,-0.01248143706470728,-0.09966347366571426
1775722019489460200,4.217460205078125,-0.15023930370807648,-0.02466966025531292,-0.10454744845628738
1775722019499473400,4.227473388671875,-0.1607191115617752,-0.04180443659424782,-0.09493077546358109
1775722019509486000,4.237486083984375,-0.16095958650112152,0.0013970943400636315,-0.06238987296819687
1775722019519499300,4.247499267578125,-0.13822205364704132,0.11355345696210861,-0.01858753338456154
1775722019529512400,4.257512451171875,-0.12695075571537018,0.19156304001808167,0.02064775489270687
1775722019539525400,4.267525390625,-0.11575642973184586,0.2302747517824173,0.03912369906902313
1775722019549538300,4.277538330078125,-0.09888796508312225,0.22683633863925934,0.02816346101462841
1775722019559551200,4.28755126953125,-0.09089315682649612,0.18520741164684296,-0.005658951122313738
1775722019569564400,4.297564453125,-0.0839199349284172,0.14061836898326874,-0.044322457164525986
1775722019579577000,4.3075771484375,-0.07600688189268112,0.08674395084381104,-0.0772942528128624
1775722019589590300,4.31759033203125,-0.0784817561507225,0.01077035628259182,-0.08623821288347244
1775722019599603500,4.327603515625,-0.07503296434879303,-0.0011920308461412787,-0.05982045829296112
1775722019609617200,4.3376171875,-0.0692238137125969,0.034867703914642334,-0.028798092156648636
1775722019619630300,4.34763037109375,-0.07038814574480057,0.06874684244394302,-0.005105812568217516
1775722019629643300,4.357643310546875,-0.07400977611541748,0.07753154635429382,0.00341577036306262
1775722019639656200,4.36765625,-0.07054980099201202,0.052314069122076035,0.0011821772204712033
1775722019649669400,4.37766943359375,-0.06364049762487411,0.008305600844323635,0.0027798074297606945
1775722019659682300,4.387682373046875,-0.06838518381118774,0.015962455421686172,0.021197697147727013
1775722019669695500,4.397695556640625,-0.07224996387958527,0.04819256439805031,0.039985764771699905
1775722019679708200,4.407708251953125,-0.06898439675569534,0.0827806368470192,0.0461597703397274
1775722019689721300,4.417721435546875,-0.06344129145145416,0.08813811093568802,0.03656626492738724
1775722019699734300,4.427734375,-0.05450372025370598,0.06536062806844711,0.008255532942712307
1775722019709747200,4.437747314453125,-0.05012202262878418,-0.010390322655439377,-0.02280731126666069
1775722019719760400,4.447760498046875,-0.03092995285987854,-0.04627242311835289,-0.04062971845269203
1775722019729773300,4.457773193359375,0.0007502124644815922,-0.05073268711566925,-0.044869471341371536
1775722019739786500,4.467786376953125,0.02743908204138279,-0.025738919153809547,-0.026867566630244255
1775722019749800200,4.47780029296875,0.052190233021974564,0.001853293739259243,0.006413158029317856
1775722019759813400,4.4878134765625,0.05975015088915825,0.004483431577682495,0.04493018984794617
1775722019769826300,4.497826416015625,0.05886518210172653,-0.004750546533614397,0.0702696368098259
1775722019779839200,4.507839111328125,0.06250492483377457,-0.008347411639988422,0.06704481691122055
1775722019789852400,4.517852294921875,0.06798064708709717,-0.01477521751075983,0.044562675058841705
1775722019799865300,4.527865234375,0.06606557220220566,-0.020973192527890205,0.017057014629244804
1775722019809878300,4.537878173828125,0.057022806257009506,-0.0209505558013916,-0.005862948950380087
1775722019819891200,4.54789111328125,0.04415840655565262,-0.022611036896705627,-0.016682041808962822
1775722019829903600,4.557903564453125,0.028132569044828415,-0.011130149476230145,-0.01901044324040413
1775722019839916500,4.56791650390625,0.006983607076108456,0.017241837456822395,-0.003989148885011673
1775722019849929500,4.577929443359375,-0.0019560917280614376,0.055392418056726456,0.011574630625545979
1775722019859942700,4.587942626953125,-0.0059969061985611916,0.06679847091436386,0.027337081730365753
1775722019869955600,4.59795556640625,-0.012790363281965256,0.05109700560569763,0.04362151399254799
1775722019879968800,4.60796875,-0.030976291745901108,0.01501223910599947,0.06561842560768127
1775722019889982500,4.617982421875,-0.059299010783433914,0.0014658038271591067,0.08353723585605621
1775722019899995600,4.62799560546875,-0.08717244863510132,-0.003198722843080759,0.0910838395357132
1775722019910008600,4.638008544921875,-0.10750861465930939,0.0078059914521873,0.08294814825057983
1775722019920021500,4.648021484375,-0.11797323822975159,0.037458959966897964,0.06422905623912811
1775722019930034700,4.65803466796875,-0.1304328441619873,0.05372261628508568,0.03970826417207718
1775722019940047600,4.668047607421875,-0.13691949844360352,0.07503589242696762,0.0173246618360281
1775722019950060500,4.678060546875,-0.13967560231685638,0.09252487123012543,-0.0004703142330981791
1775722019960073500,4.688073486328125,-0.14313718676567078,0.09204630553722382,-0.014172544702887535
1775722019970086700,4.698086669921875,-0.1425829827785492,0.07956273853778839,-0.021944180130958557
1775722019980099600,4.708099609375,-0.13796639442443848,0.07678212970495224,-0.018918031826615334
1775722019990112500,4.718112548828125,-0.1466192603111267,0.0423666313290596,-0.012796222232282162
1775722020000125700,4.728125732421875,-0.1614605337381363,0.009016398340463638,-0.010407633148133755
1775722020010138600,4.738138671875,-0.17218747735023499,-0.00803129468113184,-0.0231119766831398
1775722020020151600,4.748151611328125,-0.18372295796871185,-0.04193359985947609,-0.047457531094551086
1775722020030165800,4.758165771484375,-0.18464520573616028,-0.0934188961982727,-0.07620661705732346
1775722020040178400,4.768178466796875,-0.15660639107227325,-0.09691562503576279,-0.09225456416606903
1775722020050191600,4.778191650390625,-0.11514390259981155,-0.07016763836145401,-0.09352382272481918
1775722020060204500,4.78820458984375,-0.0802045613527298,-0.04856833443045616,-0.07428887486457825
1775722020070217700,4.7982177734375,-0.043303266167640686,0.010921090841293335,-0.04109444096684456
1775722020080230400,4.80823046875,-0.004129763692617416,0.05504221469163895,-0.0068302094005048275
1775722020090243600,4.81824365234375,0.03480085730552673,0.0748143196105957,0.01781734637916088
1775722020100256800,4.8282568359375,0.0648956447839737,0.056164734065532684,0.03845071792602539
1775722020110269400,4.83826953125,0.08221790939569473,0.032466862350702286,0.04754434898495674
1775722020120282600,4.84828271484375,0.08293376863002777,0.02244352363049984,0.046662312000989914
1775722020130295600,4.858295654296875,0.08967182785272598,0.014054033905267715,0.03061782941222191
1775722020140308700,4.868308837890625,0.12503381073474884,0.018555840477347374,0.007456851191818714
1775722020150321400,4.8783212890625,0.16617938876152039,0.027518976479768753,-0.0019592875614762306
1775722020160335600,4.888335693359375,0.19543421268463135,0.06415847688913345,0.022048844024538994
1775722020170348500,4.8983486328125,0.1996782273054123,0.09618405997753143,0.06754601746797562
1775722020180361500,4.908361572265625,0.1903505027294159,0.09410040080547333,0.1137249693274498
1775722020190374700,4.918374755859375,0.1803460717201233,0.05265761911869049,0.13734906911849976
1775722020200387600,4.9283876953125,0.1714649647474289,0.028603948652744293,0.13300465047359467
1775722020210400500,4.938400390625,0.16076357662677765,0.019724436104297638,0.10037427395582199
1775722020220413700,4.94841357421875,0.1470208764076233,0.01750282756984234,0.04849589616060257
1775722020230426600,4.958426513671875,0.12738005816936493,0.008100003935396671,-0.009321330115199089
1775722020240439600,4.968439453125,0.09594836831092834,0.003919107839465141,-0.05862762778997421
1775722020250452500,4.978452392578125,0.05758925899863243,0.026768231764435768,-0.07667400687932968
1775722020260465700,4.988465576171875,0.024217721074819565,0.028080902993679047,-0.06786533445119858
1775722020270478600,4.998478515625,0.006082660052925348,0.029924342408776283,-0.03280934691429138
1775722020280491500,5.008491455078125,0.012680108658969402,0.042746663093566895,0.017557421699166298
1775722020290504400,5.01850439453125,0.04489317163825035,0.0958426371216774,0.07394400238990784
1775722020300518400,5.028518310546875,0.09248679131269455,0.1897699385881424,0.14138536155223846
1775722020310531600,5.038531494140625,0.12202098220586777,0.29657840728759766,0.2136150747537613
1775722020320544500,5.04854443359375,0.12361861020326614,0.37791934609413147,0.2775397300720215
1775722020330557700,5.0585576171875,0.11307915300130844,0.39148733019828796,0.31721603870391846
1775722020340570400,5.0685703125,0.09932898730039597,0.32776162028312683,0.3181518614292145
1775722020350583600,5.07858349609375,0.10902262479066849,0.24293595552444458,0.2810510993003845
1775722020360596700,5.0885966796875,0.13461853563785553,0.14010943472385406,0.23130379617214203
1775722020370609400,5.098609375,0.1515682190656662,0.03539074584841728,0.19563181698322296
1775722020380622600,5.10862255859375,0.16129088401794434,-0.0278574638068676,0.19092229008674622
1775722020390635500,5.118635498046875,0.1554444432258606,-0.012415390461683273,0.20853270590305328
1775722020400648700,5.128648681640625,0.13711205124855042,0.061703845858573914,0.23982244729995728
1775722020410661400,5.138661376953125,0.1186310425400734,0.11396598070859909,0.2772345244884491
1775722020420674600,5.148674560546875,0.1522023230791092,0.20610682666301727,0.3093029856681824
1775722020430687700,5.158687744140625,0.2350253015756607,0.2574877142906189,0.3399679660797119
1775722020440701400,5.168701416015625,0.30687153339385986,0.27941378951072693,0.37915292382240295
1775722020450714600,5.178714599609375,0.34627723693847656,0.27678045630455017,0.4368803799152374
1775722020460727600,5.1887275390625,0.3506317734718323,0.2317807674407959,0.49874642491340637
1775722020470740500,5.198740478515625,0.3340695798397064,0.15246330201625824,0.543938934803009
1775722020480753700,5.208753662109375,0.30666619539260864,0.038594529032707214,0.5674756765365601
1775722020490766600,5.2187666015625,0.25527438521385193,-0.1106809750199318,0.5622630715370178
1775722020500779500,5.228779541015625,0.21536476910114288,-0.1823974996805191,0.5354152321815491
1775722020510792400,5.23879248046875,0.19952669739723206,-0.19831176102161407,0.49532878398895264
1775722020520805600,5.2488056640625,0.18775951862335205,-0.1538662612438202,0.4591215252876282
1775722020530818600,5.258818603515625,0.17453159391880035,-0.029620476067066193,0.43629342317581177
1775722020540831500,5.26883154296875,0.14791569113731384,0.0940103828907013,0.42357149720191956
1775722020550844700,5.2788447265625,0.11872585117816925,0.17466367781162262,0.4008323848247528
1775722020560857600,5.288857666015625,0.10643775761127472,0.19161976873874664,0.34645435214042664
1775722020570871600,5.29887158203125,0.1117907166481018,0.13149623572826385,0.26191550493240356
1775722020580884500,5.308884521484375,0.1091400682926178,-0.017410948872566223,0.17342399060726166
1775722020590897700,5.318897705078125,0.09882937371730804,-0.12411396205425262,0.11536094546318054
1775722020600910600,5.32891064453125,0.08727658540010452,-0.17384609580039978,0.09146999567747116
1775722020610923500,5.338923583984375,0.08700919896364212,-0.15135250985622406,0.10927589237689972
1775722020620936700,5.348936767578125,0.08532395213842392,-0.0948689877986908,0.15514005720615387
1775722020630949400,5.358949462890625,0.05685209855437279,-0.027949076145887375,0.21732433140277863
1775722020640962600,5.368962646484375,0.012521917000412941,0.08437427133321762,0.29115062952041626
1775722020650975500,5.3789755859375,-0.021453360095620155,0.16196893155574799,0.352298378944397
1775722020660988700,5.38898876953125,-0.012972523458302021,0.21542203426361084,0.3849993348121643
1775722020671001600,5.399001708984375,0.03512629494071007,0.23624955117702484,0.3910902738571167
1775722020681014500,5.4090146484375,0.09593318402767181,0.22809015214443207,0.3688376843929291
1775722020691027700,5.41902783203125,0.15192827582359314,0.2373502403497696,0.3356086313724518
1775722020701040400,5.429040283203125,0.185484379529953,0.22066286206245422,0.2931796908378601
1775722020711054600,5.4390546875,0.21017959713935852,0.19160085916519165,0.24916695058345795
1775722020721067800,5.44906787109375,0.2175552248954773,0.14481550455093384,0.20621629059314728
1775722020731080400,5.45908056640625,0.19409996271133423,0.072120800614357,0.15630225837230682
1775722020741093600,5.46909375,0.12390463054180145,-0.015992015600204468,0.09195096045732498
1775722020751106600,5.4791064453125,0.026669960469007492,-0.10509739071130753,0.03033074177801609
1775722020761119500,5.489119384765625,-0.07793101668357849,-0.20638859272003174,-0.03328312188386917
1775722020771132400,5.49913232421875,-0.17374782264232635,-0.246474489569664,-0.08959139883518219
1775722020781145600,5.5091455078125,-0.25730398297309875,-0.26562875509262085,-0.1418633908033371
1775722020791158800,5.51915869140625,-0.3326463997364044,-0.26183533668518066,-0.18911239504814148
1775722020801171500,5.52917138671875,-0.3772607445716858,-0.20670178532600403,-0.22400912642478943
1775722020811184600,5.5391845703125,-0.3880755603313446,-0.0831095352768898,-0.2469344139099121
1775722020821197600,5.549197509765625,-0.34103694558143616,0.10737119615077972,-0.2545294761657715
1775722020831211300,5.559211181640625,-0.25501683354377747,0.29960134625434875,-0.2509712278842926
1775722020841225500,5.5692255859375,-0.1689986139535904,0.4216604232788086,-0.2217947095632553
1775722020851238100,5.579238037109375,-0.11238034069538116,0.4186513125896454,-0.15631930530071259
1775722020861251300,5.589251220703125,-0.08426188677549362,0.3677745461463928,-0.05215161666274071
1775722020871264300,5.59926416015625,-0.0678461566567421,0.31507912278175354,0.07747295498847961
1775722020881277400,5.60927734375,-0.057199638336896896,0.2822282314300537,0.20061485469341278
1775722020891290400,5.619290283203125,-0.04849722981452942,0.2380642294883728,0.290833979845047
1775722020901303300,5.62930322265625,-0.04651530459523201,0.17772258818149567,0.32049545645713806
1775722020911316500,5.63931640625,-0.0397665873169899,0.08413751423358917,0.2846120297908783
1775722020921329200,5.6493291015625,-0.027038009837269783,-0.02907053381204605,0.19902761280536652
1775722020931342300,5.65934228515625,-0.006682403851300478,-0.11951015144586563,0.08935810625553131
1775722020941355300,5.669355224609375,0.00042823629337362945,-0.16917304694652557,-0.013481720350682735
1775722020951368400,5.679368408203125,-0.008027566596865654,-0.18308433890342712,-0.08544512838125229
1775722020961381400,5.68938134765625,-0.023851802572607994,-0.16661055386066437,-0.11216408759355545
1775722020971394300,5.699394287109375,-0.042504582554101944,-0.1160895898938179,-0.10160758346319199
1775722020981408300,5.709408203125,-0.047578439116477966,-0.04687057062983513,-0.0728989765048027
1775722020991421200,5.719421142578125,-0.03257179260253906,0.008796687237918377,-0.05046903342008591
1775722021001434400,5.729434326171875,-0.013272395357489586,-0.012687832117080688,-0.05528669059276581
1775722021011447600,5.739447509765625,0.0033931334037333727,-0.0911347046494484,-0.07796777039766312
1775722021021460200,5.749460205078125,0.022720225155353546,-0.16817782819271088,-0.09408947825431824
1775722021031473400,5.759473388671875,0.036381710320711136,-0.22614818811416626,-0.09643599390983582
1775722021041486300,5.769486328125,0.04566841945052147,-0.28962862491607666,-0.08811787515878677
1775722021051499300,5.779499267578125,0.0461757518351078,-0.35263076424598694,-0.07381190359592438
1775722021061512200,5.78951220703125,0.043044671416282654,-0.3576984703540802,-0.06283275783061981
1775722021071525400,5.799525390625,0.02556421607732773,-0.3291025161743164,-0.059420451521873474
1775722021081538300,5.809538330078125,-0.009646235965192318,-0.26768016815185547,-0.057139452546834946
1775722021091551200,5.81955126953125,-0.04989432170987129,-0.1952965259552002,-0.0570363886654377
1775722021101564400,5.829564453125,-0.0873279795050621,-0.15644046664237976,-0.058695003390312195
1775722021111578000,5.839578125,-0.10890757292509079,-0.0843614861369133,-0.05865372717380524
1775722021121591300,5.84959130859375,-0.11598678678274155,0.014080132357776165,-0.04513631761074066
1775722021131604500,5.8596044921875,-0.12482502311468124,0.09642906486988068,-0.02448377199470997
1775722021141617400,5.869617431640625,-0.13753655552864075,0.13644012808799744,-0.0039867521263659
1775722021151630300,5.87963037109375,-0.14431323111057281,0.10997896641492844,0.003946538548916578
1775722021161643300,5.889643310546875,-0.14026044309139252,0.06926055997610092,-0.003687146585434675
1775722021171656400,5.899656494140625,-0.13141155242919922,0.031199997290968895,-0.019478892907500267
1775722021181669000,5.909669189453125,-0.11534230411052704,-0.004890629090368748,-0.03629036247730255
1775722021191682300,5.919682373046875,-0.09333527088165283,-0.03440697491168976,-0.046188000589609146
1775722021201695200,5.9296953125,-0.0736614391207695,-0.0449935719370842,-0.04420660808682442
1775722021211708400,5.93970849609375,-0.046293728053569794,-0.05031110718846321,-0.03765443339943886
1775722021221721300,5.949721435546875,-0.019701799377799034,-0.055213455110788345,-0.02720046229660511
1775722021231734300,5.959734375,-0.008707737550139427,-0.03955433517694473,-0.007528489921241999
1775722021241747500,5.96974755859375,-0.007849933579564095,-0.017008544877171516,0.01522715575993061
1775722021251761200,5.97976123046875,-0.009946107864379883,0.008902414701879025,0.01944587007164955
1775722021261774300,5.9897744140625,-0.003203782718628645,0.014193849638104439,0.001918807509355247
1775722021271787500,5.99978759765625,0.003981159534305334,-0.0006988134700804949,-0.023541012778878212
1775722021281800200,6.00980029296875,0.01293257623910904,-0.04025527834892273,-0.05338625982403755
1775722021291813400,6.0198134765625,0.029338181018829346,-0.06656091660261154,-0.06810102611780167
1775722021301826300,6.029826416015625,0.042623892426490784,-0.10536317527294159,-0.07142677903175354
1775722021311839200,6.039839111328125,0.06070728972554207,-0.12470384687185287,-0.05910220369696617
1775722021321852200,6.04985205078125,0.07560554146766663,-0.12225081026554108,-0.0386296845972538
1775722021331865300,6.059865234375,0.07987672090530396,-0.1008099690079689,-0.020489562302827835
1775722021341878500,6.06987841796875,0.08410875499248505,-0.06813857704401016,-0.013382650911808014
1775722021351891200,6.07989111328125,0.0859745591878891,-0.06166736036539078,-0.019783558323979378
1775722021361904400,6.089904296875,0.08808805048465729,-0.07811637222766876,-0.030850857496261597
1775722021371917300,6.099917236328125,0.08920204639434814,-0.10752858966588974,-0.047143545001745224
1775722021381931300,6.10993115234375,0.08227596431970596,-0.1481705605983734,-0.06267616152763367
1775722021391944400,6.1199443359375,0.06956815719604492,-0.1453569233417511,-0.06756812334060669
1775722021401957400,6.129957275390625,0.06221223995089531,-0.08602356165647507,-0.05699111521244049
1775722021411970300,6.13997021484375,0.05145972967147827,-0.012977051548659801,-0.03982996940612793
1775722021421983200,6.149983154296875,0.054361242800951004,0.03930239751935005,-0.02605503611266613
1775722021431996400,6.159996337890625,0.07623724639415741,0.05613943561911583,-0.024929318577051163
1775722021442009000,6.170009033203125,0.11174171417951584,0.05307972803711891,-0.034801121801137924
1775722021452022300,6.180022216796875,0.13607501983642578,0.01942482963204384,-0.04526734724640846
1775722021462035500,6.190035400390625,0.14864780008792877,-0.01985652931034565,-0.05023600533604622
1775722021472048400,6.20004833984375,0.16392555832862854,-0.047925446182489395,-0.05203364044427872
1775722021482061300,6.210061279296875,0.1818382441997528,-0.07749905437231064,-0.044268395751714706
1775722021492074200,6.22007421875,0.19608747959136963,-0.09571507573127747,-0.03285355493426323
1775722021502087400,6.23008740234375,0.20139729976654053,-0.10069359093904495,-0.016813866794109344
1775722021512100000,6.24010009765625,0.19820202887058258,-0.09903949499130249,0.00373028963804245
1775722021522114300,6.2501142578125,0.18772515654563904,-0.08604247123003006,0.018152106553316116
1775722021532127500,6.26012744140625,0.17524345219135284,-0.07638851553201675,0.01997610554099083
1775722021542140200,6.27014013671875,0.15058870613574982,-0.07729718834161758,0.0022415826097130775
1775722021552153300,6.2801533203125,0.12564580142498016,-0.08586777001619339,-0.033548373728990555
1775722021562166300,6.290166259765625,0.10963834822177887,-0.09981181472539902,-0.07718746364116669
1775722021572179200,6.30017919921875,0.10161477327346802,-0.11767363548278809,-0.11785633116960526
1775722021582192400,6.3101923828125,0.10324542969465256,-0.13173618912696838,-0.14203622937202454
1775722021592205300,6.320205322265625,0.11349274218082428,-0.13387364149093628,-0.13134311139583588
1775722021602218500,6.330218505859375,0.1514206826686859,-0.10952170193195343,-0.09343674033880234
1775722021612231200,6.340231201171875,0.1980116218328476,-0.09265296906232834,-0.04164677858352661
1775722021622244400,6.350244384765625,0.23057381808757782,-0.10148481279611588,0.0060235378332436085
1775722021632257300,6.36025732421875,0.2627144455909729,-0.15937741100788116,0.025055019184947014
1775722021642270200,6.370270263671875,0.29715123772621155,-0.2333459109067917,0.020262127742171288
1775722021652284400,6.380284423828125,0.31579017639160156,-0.32618850469589233,0.006673881784081459
1775722021662297300,6.39029736328125,0.32563507556915283,-0.40923118591308594,0.0001411475386703387
1775722021672310300,6.400310302734375,0.36024871468544006,-0.40912386775016785,0.014701981097459793
1775722021682323200,6.4103232421875,0.429251492023468,-0.371493935585022,0.05953549966216087
1775722021692336400,6.42033642578125,0.5578773617744446,-0.24549098312854767,0.13198547065258026
1775722021702349300,6.430349365234375,0.7370162606239319,-0.13758155703544617,0.2370450347661972
1775722021712362200,6.4403623046875,0.9200752973556519,-0.05332181230187416,0.37335413694381714
1775722021722375400,6.45037548828125,1.059486746788025,0.0652860626578331,0.5278640985488892
1775722021732388400,6.460388427734375,1.0510854721069336,0.06043324992060661,0.6772964596748352
1775722021742401300,6.4704013671875,0.9404321908950806,0.197310671210289,0.7708106637001038
1775722021752414200,6.480414306640625,0.7735273838043213,0.21066881716251373,0.7414805293083191
1775722021762427400,6.490427490234375,0.5895900130271912,0.19273775815963745,0.5669875144958496
1775722021772440300,6.5004404296875,0.43459540605545044,0.21683751046657562,0.26713770627975464
1775722021782453200,6.510453369140625,0.2449551522731781,-0.024206802248954773,-0.08705101162195206
1775722021792467500,6.520467529296875,0.06476648151874542,-0.08086049556732178,-0.4066910743713379
1775722021802480000,6.530480224609375,-0.07320737093687057,-0.003364105010405183,-0.6500152945518494
1775722021812493300,6.540493408203125,-0.17393611371517181,0.06801260262727737,-0.7930656671524048
1775722021822506500,6.550506591796875,-0.2347741574048996,0.11955782026052475,-0.8423791527748108
1775722021832518400,6.560518310546875,-0.23029126226902008,0.14482083916664124,-0.8523228764533997
1775722021842531300,6.57053125,-0.22462138533592224,0.11527119576931,-0.7905625700950623
1775722021852544300,6.580544189453125,-0.25630661845207214,0.20480135083198547,-0.6586207747459412
1775722021862557200,6.59055712890625,-0.32028958201408386,0.3203947842121124,-0.5018375515937805
1775722021872570400,6.6005703125,-0.4217853248119354,0.24729394912719727,-0.39324262738227844
1775722021882583000,6.6105830078125,-0.5027939081192017,0.038350317627191544,-0.40543830394744873
1775722021892596200,6.62059619140625,-0.5416430234909058,-0.18407823145389557,-0.5102946758270264
1775722021902609400,6.630609375,-0.5343430042266846,-0.40986260771751404,-0.6462122797966003
1775722021912622300,6.640622314453125,-0.48766207695007324,-0.5669278502464294,-0.7538615465164185
1775722021922636300,6.65063623046875,-0.43561646342277527,-0.5752004384994507,-0.8054919838905334
1775722021932649200,6.660649169921875,-0.38198649883270264,-0.5314162373542786,-0.8028873801231384
1775722021942662100,6.670662109375,-0.3082329332828522,-0.5555974245071411,-0.7532910704612732
1775722021952675300,6.68067529296875,-0.21350961923599243,-0.6107736229896545,-0.6712239384651184
1775722021962688300,6.690688232421875,-0.13481613993644714,-0.7779942750930786,-0.5715673565864563
1775722021972701200,6.700701171875,-0.0632796362042427,-0.8666352033615112,-0.4739912748336792
1775722021982714000,6.710714111328125,0.00022903185163158923,-0.8817862272262573,-0.3931315839290619
1775722021992727300,6.720727294921875,0.04011812433600426,-0.8333864808082581,-0.32911691069602966
1775722022002740200,6.730740234375,0.0802341178059578,-0.704581081867218,-0.2917940318584442
1775722022012753200,6.740753173828125,0.09681016951799393,-0.5823212265968323,-0.2888493835926056
1775722022022766300,6.750766357421875,0.07691927999258041,-0.4229864180088043,-0.3172282874584198
1775722022032779300,6.760779296875,0.036785710602998734,-0.18449634313583374,-0.3696587383747101
1775722022042792400,6.77079248046875,-0.0332101508975029,0.029991721734404564,-0.44464483857154846
1775722022052805000,6.78080517578125,-0.11104263365268707,0.12087049335241318,-0.526975154876709
1775722022062819300,6.7908193359375,-0.17662829160690308,0.13394448161125183,-0.5940122008323669
1775722022072832300,6.800832275390625,-0.21377992630004883,0.09838196635246277,-0.636589765548706
1775722022082845200,6.81084521484375,-0.21924632787704468,0.038359638303518295,-0.6417831778526306
1775722022092858400,6.8208583984375,-0.19350369274616241,-0.023551931604743004,-0.6009878516197205
1775722022102871300,6.830871337890625,-0.1662326455116272,-0.09236295521259308,-0.5268195867538452
1775722022112884200,6.84088427734375,-0.16530853509902954,-0.1862867921590805,-0.43046218156814575
1775722022122897200,6.850897216796875,-0.1895691305398941,-0.22451965510845184,-0.3290383517742157
1775722022132910300,6.860910400390625,-0.21787507832050323,-0.1543150097131729,-0.2644210159778595
1775722022142923000,6.870923095703125,-0.25619158148765564,-0.07329711318016052,-0.25651299953460693
1775722022152936200,6.880936279296875,-0.3003545105457306,0.006641391199082136,-0.2941346764564514
1775722022162949400,6.890949462890625,-0.322556734085083,0.08539452403783798,-0.3547285199165344
1775722022172962300,6.90096240234375,-0.33351483941078186,0.07112237811088562,-0.40210455656051636
1775722022182975200,6.910975341796875,-0.3317915201187134,0.057074472308158875,-0.4013010859489441
1775722022192988200,6.92098828125,-0.30225732922554016,0.13409975171089172,-0.3504863679409027
1775722022203002000,6.931002197265625,-0.25855910778045654,0.19198568165302277,-0.28338298201560974
1775722022213015300,6.941015380859375,-0.20387695729732513,0.21610672771930695,-0.21613602340221405
1775722022223028200,6.9510283203125,-0.13567526638507843,0.20157332718372345,-0.15377305448055267
1775722022233041400,6.96104150390625,-0.09616594761610031,0.043584760278463364,-0.09695051610469818
1775722022243054000,6.97105419921875,-0.050700459629297256,-0.0351361483335495,-0.03441789373755455
1775722022253067300,6.9810673828125,0.00015446334145963192,-0.02232234925031662,0.014550712890923023
1775722022263080200,6.991080078125,0.021497301757335663,0.023317307233810425,0.03469699248671532
1775722022273093000,7.001093017578125,0.024085894227027893,0.05759298801422119,0.025405490770936012
1775722022283106300,7.011106201171875,0.01894785836338997,0.00714579364284873,-0.005939648021012545
1775722022293119200,7.021119140625,0.003513508476316929,-0.0582507885992527,-0.037213414907455444
1775722022303132400,7.03113232421875,-0.00948005449026823,-0.07609955966472626,-0.05404752120375633
1775722022313145000,7.04114501953125,-0.034327879548072815,-0.08376999944448471,-0.05792668089270592
1775722022323158300,7.051158203125,-0.06624826043844223,-0.08362539112567902,-0.052381183952093124
1775722022333172200,7.061172119140625,-0.0875338464975357,-0.05573170632123947,-0.04907806217670441
1775722022343185200,7.07118505859375,-0.11190442740917206,-0.005055745132267475,-0.046004775911569595
1775722022353198300,7.0811982421875,-0.14399738609790802,0.07910174131393433,-0.0381401963531971
1775722022363211300,7.091211181640625,-0.1800142377614975,0.15618853271007538,-0.02678181231021881
1775722022373224200,7.10122412109375,-0.20514357089996338,0.21654322743415833,-0.02141394466161728
1775722022383237000,7.111237060546875,-0.218659907579422,0.23963549733161926,-0.03212304785847664
1775722022393250300,7.121250244140625,-0.22097232937812805,0.21302039921283722,-0.05455432087182999
1775722022403263200,7.13126318359375,-0.22050067782402039,0.10384543985128403,-0.06355953216552734
1775722022413276200,7.141276123046875,-0.2098219394683838,0.012782374396920204,-0.04218287393450737
1775722022423289300,7.151289306640625,-0.1980627477169037,-0.014185327105224133,-0.0009012137306854129
1775722022433302300,7.16130224609375,-0.1857546865940094,-0.031504131853580475,0.040102411061525345
1775722022443315200,7.171315185546875,-0.15649160742759705,-0.02576075680553913,0.0647912472486496
1775722022453328100,7.181328125,-0.11799082159996033,-0.0013195963110774755,0.075333371758461
1775722022463342000,7.191342041015625,-0.0862928107380867,0.006903978530317545,0.07939016073942184
1775722022473355300,7.201355224609375,-0.055582836270332336,0.0052232579328119755,0.08519931882619858
1775722022483368200,7.2113681640625,-0.010292585007846355,0.04639706015586853,0.0960887148976326
1775722022493381400,7.22138134765625,0.027270236983895302,0.07193145155906677,0.10798106342554092
1775722022503394000,7.23139404296875,0.04800667241215706,0.09363620728254318,0.12004438042640686
1775722022513407200,7.2414072265625,0.0633600652217865,0.10512295365333557,0.12226146459579468
1775722022523420400,7.25142041015625,0.06904617697000504,0.08918233960866928,0.11242161691188812
1775722022533433000,7.26143310546875,0.06650472432374954,0.031038610264658928,0.096329465508461
1775722022543446300,7.2714462890625,0.05053294822573662,-0.06302929669618607,0.08310074359178543
1775722022553459200,7.281459228515625,0.03676174208521843,-0.1016419380903244,0.07706442475318909
1775722022563472400,7.291472412109375,0.02707289718091488,-0.06712684035301208,0.06448711454868317
1775722022573485000,7.301485107421875,0.028240691870450974,0.0191904716193676,0.047036219388246536
1775722022583498200,7.311498291015625,0.04331764578819275,0.0811782106757164,0.02941940724849701
1775722022593511400,7.321511474609375,0.052561476826667786,0.08630453050136566,0.027965854853391647
1775722022603525000,7.331525146484375,0.059239089488983154,0.08093133568763733,0.03837987780570984
1775722022613538300,7.341538330078125,0.05904388055205345,0.06515689939260483,0.053694918751716614
1775722022623551200,7.35155126953125,0.05152178183197975,0.013759754598140717,0.05866411328315735
1775722022633564200,7.361564208984375,0.049738261848688126,-0.016895359382033348,0.0497790090739727
1775722022643577300,7.371577392578125,0.04982428252696991,-0.026066754013299942,0.03579394891858101
1775722022653590300,7.38159033203125,0.047265782952308655,-0.019637616351246834,0.020895695313811302
1775722022663603200,7.391603271484375,0.0548776313662529,-0.016655942425131798,0.006946322973817587
1775722022673616100,7.4016162109375,0.07741010189056396,-0.007229417096823454,-0.009105880744755268
1775722022683629300,7.41162939453125,0.10961837321519852,-0.00253453035838902,-0.020109795033931732
1775722022693642200,7.421642333984375,0.1389232575893402,-0.016883907839655876,-0.016288425773382187
1775722022703655200,7.4316552734375,0.1651916205883026,-0.04381486028432846,0.004111920483410358
1775722022713668400,7.44166845703125,0.18810652196407318,-0.06748396903276443,0.027702467516064644
1775722022723681300,7.451681396484375,0.20135600864887238,-0.060916878283023834,0.041363418102264404
1775722022733694200,7.461694091796875,0.21293143928050995,-0.05258624628186226,0.03977430984377861
1775722022743708200,7.471708251953125,0.2083558738231659,-0.0579405315220356,0.03789092227816582
1775722022753721300,7.481721435546875,0.2068655639886856,0.011469968594610691,0.04838404431939125
1775722022763734300,7.491734375,0.2062181532382965,0.11241921782493591,0.06332410871982574
1775722022773747200,7.501747314453125,0.20308414101600647,0.18117058277130127,0.07170161604881287
1775722022783760400,7.511760498046875,0.1971530169248581,0.1765982061624527,0.0735706239938736
1775722022793773000,7.52177294921875,0.17661498486995697,0.11460407823324203,0.08018005639314651
1775722022803786200,7.5317861328125,0.1494416892528534,0.050998467952013016,0.08985105901956558
1775722022813799200,7.541799072265625,0.12430251389741898,0.013464143499732018,0.09129396080970764
1775722022823812400,7.551812255859375,0.09592892229557037,-0.006989466026425362,0.0871756449341774
1775722022833825300,7.5618251953125,0.06868106126785278,-0.012674516066908836,0.07610302418470383
1775722022843838200,7.571838134765625,0.0441642664372921,0.002338521648198366,0.06331026554107666
1775722022853851400,7.581851318359375,0.02003496140241623,0.02737836167216301,0.05060698464512825
1775722022863864300,7.5918642578125,0.002264485927298665,0.030046582221984863,0.04309127852320671
1775722022873878300,7.601878173828125,-0.010871822014451027,0.018980082124471664,0.04322123900055885
1775722022883891500,7.611891357421875,-0.02520681917667389,0.0006229133578017354,0.04954305291175842
1775722022893904100,7.621904052734375,-0.04411606118083,-0.021265873685479164,0.058946672827005386
1775722022903917300,7.631917236328125,-0.06353263556957245,-0.04700745642185211,0.05449866130948067
1775722022913930500,7.641930419921875,-0.07169389724731445,-0.044370125979185104,0.03689197078347206
1775722022923943200,7.651943115234375,-0.06661231815814972,-0.01684449426829815,0.015339008532464504
1775722022933956400,7.661956298828125,-0.041010282933712006,0.011116833426058292,0.0014112089993432164
1775722022943969300,7.67196923828125,-0.006788664031773806,0.017365140840411186,0.005887716542929411
1775722022953982500,7.681982421875,0.03051449917256832,0.029332855716347694,0.030854851007461548
1775722022963995100,7.6919951171875,0.05944494903087616,0.042750392109155655,0.0796133354306221
1775722022974008300,7.70200830078125,0.07108137011528015,0.07296928018331528,0.13009008765220642
1775722022984021500,7.712021484375,0.07777948677539825,0.12671427428722382,0.15423616766929626
1775722022994034200,7.7220341796875,0.069114089012146,0.09755904972553253,0.1463329792022705
1775722023004047400,7.73204736328125,0.03868001699447632,0.031251661479473114,0.12113627791404724
1775722023014061300,7.742061279296875,0.0057319216430187225,0.0016623451374471188,0.0746539980173111
1775722023024074200,7.75207421875,-0.018221348524093628,-0.030277477577328682,0.011831092648208141
1775722023034087400,7.76208740234375,-0.03648583963513374,-0.058886751532554626,-0.04758456349372864
1775722023044100400,7.772100341796875,-0.04852119833230972,-0.06373050808906555,-0.08813225477933884
1775722023054113300,7.78211328125,-0.0526626780629158,-0.054788947105407715,-0.11529862880706787
1775722023064126200,7.792126220703125,-0.07135194540023804,-0.08301552385091782,-0.12116584181785583
1775722023074139400,7.802139404296875,-0.08853492885828018,-0.07798135280609131,-0.11816632002592087
1775722023084152300,7.81215234375,-0.09998784959316254,-0.07021637260913849,-0.115634985268116
1775722023094165200,7.822165283203125,-0.09752123057842255,-0.07483136653900146,-0.11872265487909317
1775722023104178400,7.832178466796875,-0.08194759488105774,-0.10445636510848999,-0.11821825057268143
1775722023114191400,7.84219140625,-0.05479799956083298,-0.13538844883441925,-0.1039639487862587
1775722023124204300,7.852204345703125,-0.02449682168662548,-0.13115616142749786,-0.0692797377705574
1775722023134217200,7.86221728515625,0.003733485471457243,-0.10074498504400253,-0.02805081009864807
1775722023144231400,7.8722314453125,0.025593776255846024,-0.08302724361419678,0.006533266510814428
1775722023154244400,7.882244384765625,0.044791705906391144,-0.07214955985546112,0.0209438968449831
1775722023164257300,7.89225732421875,0.06143300235271454,-0.07707934081554413,0.007334345486015081
1775722023174270500,7.9022705078125,0.06271345168352127,-0.11626562476158142,-0.012515258975327015
1775722023184283100,7.912283203125,0.07194928824901581,-0.12298531085252762,-0.03236832469701767
1775722023194296300,7.92229638671875,0.08379210531711578,-0.1206824779510498,-0.040275249630212784
1775722023204309200,7.932309326171875,0.09590735286474228,-0.10672058910131454,-0.03296167775988579
1775722023214322400,7.942322509765625,0.10893766582012177,-0.11899536103010178,-0.01281353272497654
1775722023224335400,7.95233544921875,0.10670167952775955,-0.13726891577243805,0.015482553280889988
1775722023234348300,7.962348388671875,0.0923168808221817,-0.12992390990257263,0.04121161997318268
1775722023244361500,7.972361572265625,0.06487087160348892,-0.10515491664409637,0.04298661649227142
1775722023254374100,7.9823740234375,0.03690555319190025,-0.05847929045557976,0.028255073353648186
1775722023264387300,7.99238720703125,0.021498100832104683,-0.01341567374765873,0.0016397082945331931
1775722023274401500,8.002401611328125,0.00971547793596983,-0.018128937110304832,-0.025139708071947098
1775722023284414200,8.012414306640625,0.002920954953879118,-0.020598752424120903,-0.043540287762880325
1775722023294427400,8.022427490234374,-0.006216883193701506,-0.027094468474388123,-0.04370380565524101
1775722023304440300,8.0324404296875,-0.02683241292834282,-0.038110099732875824,-0.0279738437384367
1775722023314453200,8.042453369140626,-0.05067223310470581,-0.03394917771220207,-0.006690126843750477
1775722023324466200,8.052466064453125,-0.0642990916967392,-0.013895043171942234,-0.0017947042360901833
1775722023334479400,8.062479248046875,-0.06567861139774323,0.01920325495302677,-0.004591289907693863
1775722023344492500,8.072492431640624,-0.07757122069597244,0.005074120592325926,-0.0059742690064013
1775722023354505200,8.082505126953125,-0.08974799513816833,0.004283161833882332,0.0011925635626539588
1775722023364518400,8.092518310546875,-0.09454887360334396,0.017186444252729416,0.005889580585062504
1775722023374531300,8.10253125,-0.10427873581647873,0.029510753229260445,0.007732754573225975
1775722023384544300,8.112544189453125,-0.11289752274751663,0.04318954795598984,-0.00015393071225844324
1775722023394557200,8.12255712890625,-0.10896483063697815,0.04783356934785843,-0.019407520070672035
1775722023404571400,8.1325712890625,-0.0980496034026146,0.05030844360589981,-0.04161695018410683
1775722023414584300,8.142584228515625,-0.08325174450874329,0.059785835444927216,-0.048353683203458786
1775722023424597200,8.15259716796875,-0.07040971517562866,0.01483300793915987,-0.03466370329260826
1775722023434610400,8.1626103515625,-0.04724953696131706,-0.050931356847286224,-0.009733853861689568
1775722023444623000,8.172623046875,-0.001892175991088152,-0.1284133642911911,0.013961887918412685
1775722023454636300,8.18263623046875,0.054428622126579285,-0.20607353746891022,0.03670262172818184
1775722023464649200,8.192649169921875,0.10304782539606094,-0.2632329761981964,0.07014446705579758
1775722023474662400,8.202662353515626,0.13311438262462616,-0.27525022625923157,0.11564137786626816
1775722023484675300,8.21267529296875,0.1266532838344574,-0.2678042948246002,0.16429147124290466
1775722023494688300,8.222688232421875,0.10392932593822479,-0.18378394842147827,0.21412454545497894
1775722023504701400,8.232701416015624,0.07234663516283035,-0.04325373098254204,0.25853675603866577
1775722023514714400,8.24271435546875,0.013731790706515312,0.09085267782211304,0.29137325286865234
1775722023524727300,8.252727294921876,-0.04833424463868141,0.18173198401927948,0.3087799549102783
1775722023534740200,8.262740234375,-0.07338420301675797,0.1956203728914261,0.3068752586841583
1775722023544754200,8.272754150390625,-0.05095106363296509,0.1434708833694458,0.3076920509338379
1775722023554767400,8.282767333984374,-0.014591192826628685,0.10066349059343338,0.33581849932670593
1775722023564780300,8.2927802734375,0.0013422331539914012,0.08081814646720886,0.3872222900390625
1775722023574793200,8.302793212890625,-0.01931883580982685,0.10221531987190247,0.45073094964027405
1775722023584806100,8.31280615234375,-0.07208777219057083,0.15913692116737366,0.5019179582595825
1775722023594819300,8.3228193359375,-0.12902775406837463,0.1749153584241867,0.519588053226471
1775722023604832500,8.33283251953125,-0.17013631761074066,0.1351303905248642,0.489698588848114
1775722023614845200,8.34284521484375,-0.19508932530879974,0.08106023073196411,0.43120279908180237
1775722023624858400,8.3528583984375,-0.19081895053386688,0.04699467122554779,0.3503068685531616
1775722023634871300,8.362871337890626,-0.15955157577991486,0.05582091957330704,0.2683379650115967
1775722023644884200,8.37288427734375,-0.11715138703584671,0.0681590810418129,0.20455314218997955
1775722023654897200,8.382897216796875,-0.07131892442703247,0.06844643503427505,0.1744879186153412
1775722023664910300,8.392910400390624,-0.014120612293481827,0.11294066905975342,0.17224207520484924
1775722023674924300,8.40292431640625,0.04030774161219597,0.08137208968400955,0.1803058534860611
1775722023684937200,8.412937255859376,0.10090237855911255,0.05426563695073128,0.20755772292613983
1775722023694950400,8.422950439453125,0.19281286001205444,0.004832572303712368,0.26399195194244385
1775722023704963300,8.43296337890625,0.2846921980381012,-0.08767206221818924,0.345420241355896
1775722023714976300,8.442976318359374,0.34642294049263,-0.08679215610027313,0.453645795583725
1775722023724989400,8.452989501953125,0.3448364734649658,-0.013818610459566116,0.5761067271232605
1775722023735002400,8.46300244140625,0.2711372375488281,0.10877734422683716,0.6837258338928223
1775722023745015300,8.473015380859374,0.17256776988506317,0.2231111079454422,0.7515336871147156
1775722023755028200,8.4830283203125,0.09900833666324615,0.2715505361557007,0.7648984789848328
1775722023765041400,8.49304150390625,0.07452723383903503,0.2273511290550232,0.7137988209724426
1775722023775054300,8.503054443359375,0.0933280810713768,0.1773659884929657,0.6079187393188477
1775722023785067300,8.5130673828125,0.14891864359378815,0.15517094731330872,0.4817439913749695
1775722023795080400,8.52308056640625,0.2088959515094757,0.14103089272975922,0.36747947335243225
1775722023805093400,8.53309326171875,0.23982590436935425,0.11865208297967911,0.3032269775867462
1775722023815107300,8.543107421875,0.2190639078617096,0.0849875956773758,0.2933831512928009
1775722023825120300,8.553120361328125,0.17514730989933014,0.046299319714307785,0.3173332214355469
1775722023835133400,8.563133544921875,0.13189038634300232,0.043227896094322205,0.33546775579452515
1775722023845146400,8.573146484375,0.10738291591405869,0.03171984478831291,0.33747735619544983
1775722023855159600,8.58315966796875,0.10148295015096664,0.0013670006301254034,0.3239873945713043
1775722023865172500,8.59317236328125,0.09474648535251617,-0.07883143424987793,0.3047686815261841
1775722023875185400,8.603185302734374,0.08484458178281784,-0.21447980403900146,0.28275179862976074
1775722023885198300,8.6131982421875,0.07307261228561401,-0.3190472424030304,0.2698218822479248
1775722023895211500,8.62321142578125,0.03214355558156967,-0.3484181761741638,0.26755768060684204
1775722023905224400,8.633224365234375,-0.03650740906596184,-0.3138628602027893,0.2576272785663605
1775722023915237400,8.6432373046875,-0.10368085652589798,-0.1767907589673996,0.23707646131515503
1775722023925250600,8.65325048828125,-0.14834073185920715,-0.08767659217119217,0.20703840255737305
1775722023935263500,8.663263427734375,-0.15177541971206665,-0.059185825288295746,0.16740337014198303
1775722023945276400,8.6732763671875,-0.1300693154335022,-0.12487189471721649,0.14346235990524292
1775722023955290600,8.68329052734375,-0.11826938390731812,-0.2966838777065277,0.12598828971385956
1775722023965303300,8.69330322265625,-0.12904053926467896,-0.4205930233001709,0.11411139369010925
1775722023975316500,8.70331640625,-0.158906027674675,-0.4688020944595337,0.1002214103937149
1775722023985329400,8.713329345703125,-0.22286184132099152,-0.4859139919281006,0.08007273077964783
1775722023995342600,8.723342529296875,-0.30063414573669434,-0.4540330171585083,0.0580047145485878
1775722024005355300,8.733355224609374,-0.38177478313446045,-0.40832439064979553,0.03394198790192604
1775722024015368400,8.743368408203125,-0.46098998188972473,-0.33957913517951965,0.006862965878099203
1775722024025381400,8.75338134765625,-0.5168335437774658,-0.2931983172893524,-0.01914173737168312
1775722024035394300,8.763394287109374,-0.5626958608627319,-0.309628963470459,-0.049135852605104446
1775722024045407500,8.773407470703125,-0.5834216475486755,-0.25193849205970764,-0.087223581969738
1775722024055420400,8.78342041015625,-0.6002054214477539,-0.1535501480102539,-0.11258620023727417
1775722024065433600,8.79343359375,-0.6355993151664734,-0.046302784234285355,-0.11925661563873291
1775722024075446300,8.8034462890625,-0.6708455085754395,-0.02618579752743244,-0.12237890809774399
1775722024085460500,8.81346044921875,-0.6845530271530151,-0.043479301035404205,-0.13285738229751587
1775722024095473400,8.823473388671875,-0.6641007661819458,-0.08686698973178864,-0.15841840207576752
1775722024105486300,8.833486328125,-0.6285520792007446,-0.11950003355741501,-0.19804437458515167
1775722024115499500,8.84349951171875,-0.5780830383300781,-0.11031185835599899,-0.24173326790332794
1775722024125512400,8.853512451171875,-0.5017267465591431,-0.0846155509352684,-0.27837249636650085
1775722024135525400,8.863525390625,-0.40019240975379944,-0.06441307812929153,-0.2822149097919464
1775722024145538300,8.873538330078125,-0.30944785475730896,-0.08304508775472641,-0.2547699809074402
1775722024155551500,8.883551513671875,-0.21932116150856018,-0.04321910813450813,-0.2026202231645584
1775722024165564400,8.893564453125,-0.11962679773569107,0.01721973344683647,-0.14568449556827545
1775722024175577300,8.903577392578125,-0.011812451295554638,0.048225585371255875,-0.08440329879522324
1775722024185590500,8.913590576171876,0.09022203832864761,0.08328929543495178,-0.021798772737383842
1775722024195603500,8.923603515625,0.18795499205589294,0.06860090047121048,0.039082154631614685
1775722024205616400,8.933616455078125,0.2824929356575012,0.035469576716423035,0.09227640181779861
1775722024215629300,8.94362939453125,0.3798123002052307,0.053110890090465546,0.13443104922771454
1775722024225643500,8.9536435546875,0.43478527665138245,0.06097360700368881,0.16582252085208893
1775722024235656400,8.963656494140626,0.4428434669971466,0.07709211856126785,0.1676981896162033
1775722024245669400,8.97366943359375,0.4557963013648987,0.09763095527887344,0.14135020971298218
1775722024255682600,8.9836826171875,0.47040507197380066,0.09694039821624756,0.10427900403738022
1775722024265695200,8.9936953125,0.47761237621307373,0.08461421728134155,0.07662153989076614
1775722024275708400,9.00370849609375,0.46707478165626526,0.050698332488536835,0.07219696789979935
1775722024285721600,9.0137216796875,0.43877336382865906,0.005652026738971472,0.08896609395742416
1775722024295734500,9.023734619140624,0.40296024084091187,-0.07157351821660995,0.11976155638694763
1775722024305747500,9.03374755859375,0.36802569031715393,-0.058876365423202515,0.15537813305854797
1775722024315760400,9.043760498046876,0.330100953578949,0.028731780126690865,0.1907672882080078
1775722024325773600,9.053773681640624,0.26798057556152344,0.0893344059586525,0.21785509586334229
1775722024335786200,9.0637861328125,0.20186947286128998,0.11159071326255798,0.225684255361557
1775722024345799400,9.07379931640625,0.15348809957504272,0.10564307123422623,0.20731830596923828
1775722024355813400,9.0838134765625,0.11031265556812286,0.09645543247461319,0.17170704901218414
1775722024365826300,9.093826416015625,0.08040988445281982,0.0454215444624424,0.13202807307243347
1775722024375839500,9.103839599609374,0.05987824872136116,-0.011860387399792671,0.10974620282649994
1775722024385852400,9.113852294921875,0.022641129791736603,-0.03857934847474098,0.10461562126874924
1775722024395865300,9.123865234375,-0.025728266686201096,-0.01751294732093811,0.1025138571858406
1775722024405878500,9.13387841796875,-0.07180841267108917,0.032288964837789536,0.09906026721000671
1775722024415891500,9.143891357421875,-0.10118387639522552,0.08356919884681702,0.09453396499156952
1775722024425904600,9.153904541015624,-0.12227904051542282,0.060981061309576035,0.09098636358976364
1775722024435917300,9.163917236328125,-0.13353195786476135,0.019246932119131088,0.08976344019174576
1775722024445930500,9.173930419921875,-0.1302030086517334,-0.025246767327189445,0.08275959640741348
1775722024455943400,9.183943359375,-0.12800191342830658,-0.07135886698961258,0.06863312423229218
1775722024465956400,9.193956298828125,-0.11858443915843964,-0.09982886165380478,0.05656207725405693
1775722024475969500,9.203969482421876,-0.12839312851428986,-0.12535499036312103,0.05386802554130554
1775722024485983500,9.2139833984375,-0.14657984673976898,-0.1272847205400467,0.04446813091635704
1775722024495996400,9.223996337890625,-0.1549168825149536,-0.13727423548698425,0.02129649929702282
1775722024506009300,9.23400927734375,-0.14723072946071625,-0.17516382038593292,-0.009366070851683617
1775722024516022500,9.2440224609375,-0.13975656032562256,-0.19374576210975647,-0.03742886334657669
1775722024526035500,9.254035400390626,-0.1384928971529007,-0.18730996549129486,-0.049248505383729935
1775722024536048400,9.26404833984375,-0.147528737783432,-0.11545921862125397,-0.0455017052590847
1775722024546061600,9.2740615234375,-0.1530638486146927,0.016704145818948746,-0.03666187450289726
1775722024556074500,9.284074462890626,-0.15126940608024597,0.1419757753610611,-0.02882126159965992
1775722024566087400,9.29408740234375,-0.1369336098432541,0.1825932413339615,-0.02009647898375988
1775722024576100400,9.304100341796875,-0.11279738694429398,0.18204756081104279,-0.005644570104777813
1775722024586113500,9.314113525390624,-0.08133107423782349,0.1611904799938202,0.009385512210428715
1775722024596126500,9.32412646484375,-0.05156678706407547,0.12059112638235092,0.022280804812908173
1775722024606139400,9.334139404296875,-0.02534104324877262,0.06968613713979721,0.03923608735203743
1775722024616152600,9.344152587890624,-0.012047874741256237,0.028210865333676338,0.05734344944357872
1775722024626166300,9.354166259765625,-0.005481318105012178,-0.020799022167921066,0.05914933979511261
1775722024636179500,9.364179443359374,0.003884486621245742,-0.0239572636783123,0.04318928346037865
1775722024646192600,9.374192626953125,0.015590411610901356,-0.00256355875171721,0.012417787685990334
1775722024656205300,9.384205322265625,0.021381454542279243,0.031613051891326904,-0.018620289862155914
1775722024666218500,9.394218505859374,0.022601449862122536,0.060192499309778214,-0.03955406695604324
1775722024676231400,9.4042314453125,0.029036978259682655,0.045708898454904556,-0.04205317795276642
1775722024686244600,9.41424462890625,0.03153342381119728,0.030283870175480843,-0.03582031652331352
1775722024696257300,9.42425732421875,0.03189827874302864,0.01817207969725132,-0.028836708515882492
1775722024706270500,9.4342705078125,0.021976938471198082,-0.020792363211512566,-0.022887472063302994
1775722024716283600,9.44428369140625,0.007173757068812847,-0.04974731430411339,-0.023634755983948708
1775722024726296300,9.45429638671875,-0.0008910936885513365,-0.0756063461303711,-0.028546689078211784
1775722024736309500,9.4643095703125,-0.021914087235927582,-0.10950519144535065,-0.03664136677980423
1775722024746322400,9.474322509765624,-0.04874490201473236,-0.11543098837137222,-0.04598080739378929
1775722024756336400,9.48433642578125,-0.08252763003110886,-0.11067937314510345,-0.05848408117890358
1775722024766349600,9.494349609375,-0.11902332305908203,-0.09263193607330322,-0.07943357527256012
1775722024776362500,9.504362548828125,-0.1375621259212494,-0.030476948246359825,-0.09864801168441772
1775722024786375400,9.51437548828125,-0.1365320086479187,0.06858092546463013,-0.11241043359041214
1775722024796388400,9.524388427734374,-0.13158732652664185,0.1191764548420906,-0.10843859612941742
1775722024806401500,9.534401611328125,-0.12744984030723572,0.11496306955814362,-0.09364259988069534
1775722024816414500,9.54441455078125,-0.11690957844257355,0.08367332816123962,-0.08394869416952133
1775722024826427400,9.554427490234374,-0.09912259131669998,0.06066707521677017,-0.08049164712429047
1775722024836441300,9.56444140625,-0.080172598361969,0.015249792486429214,-0.08951976150274277
1775722024846454000,9.5744541015625,-0.058997008949518204,-0.03274809196591377,-0.10631978511810303
1775722024856467200,9.58446728515625,-0.03284476697444916,-0.055395882576704025,-0.12815290689468384
1775722024866480400,9.59448046875,0.011113370768725872,-0.006875216495245695,-0.1374683827161789
1775722024876493300,9.604493408203124,0.06138000264763832,0.04298288747668266,-0.13437485694885254
1775722024886507300,9.61450732421875,0.09278000146150589,0.059967730194330215,-0.10795043408870697
1775722024896520200,9.624520263671876,0.12875531613826752,0.0770585685968399,-0.06696784496307373
1775722024906533000,9.634533203125,0.15213307738304138,0.07522258162498474,-0.018752915784716606
1775722024916546300,9.64454638671875,0.1666041612625122,0.07547478377819061,0.02455860562622547
1775722024926559200,9.654559326171874,0.1746751368045807,0.032344888895750046,0.05861031636595726
1775722024936572400,9.664572509765625,0.17910903692245483,-0.006609166972339153,0.07637546211481094
1775722024946585000,9.674585205078126,0.17361626029014587,-0.04243720695376396,0.07649663835763931
1775722024956598300,9.684598388671875,0.15420661866664886,-0.07123103737831116,0.06593960523605347
1775722024966611200,9.694611083984375,0.13180756568908691,-0.0641065463423729,0.05411197245121002
1775722024976624000,9.7046240234375,0.10065869987010956,0.001639441936276853,0.052139367908239365
1775722024986637000,9.714636962890625,0.04170669987797737,0.08649920672178268,0.05956026539206505
1775722024996650200,9.724650146484375,-0.0435703806579113,0.16351330280303955,0.06223434582352638
1775722025006663400,9.734663330078124,-0.13744601607322693,0.2096453756093979,0.04764022305607796
1775722025016676000,9.744676025390625,-0.2216825932264328,0.19979646801948547,0.006237655878067017
1775722025026690300,9.754690185546876,-0.29350990056991577,0.120137058198452,-0.05740150809288025
1775722025036703200,9.764703125,-0.3591291308403015,0.0024349282030016184,-0.12435231357812881
1775722025046716200,9.774716064453125,-0.40613046288490295,-0.06680726259946823,-0.1813407689332962
1775722025056729300,9.784729248046874,-0.41622596979141235,-0.09636116027832031,-0.22579318284988403
1775722025066742300,9.7947421875,-0.37032371759414673,-0.07746363431215286,-0.24919864535331726
1775722025076755200,9.804755126953125,-0.2828274369239807,-0.048948634415864944,-0.2448401153087616
1775722025086768000,9.81476806640625,-0.17888106405735016,-0.0494258739054203,-0.2008305788040161
1775722025096781300,9.82478125,-0.05878714844584465,-0.01751161552965641,-0.12270940840244293
1775722025106794200,9.834794189453126,0.08118993043899536,0.035475168377161026,-0.023571372032165527
1775722025116807200,9.84480712890625,0.20932605862617493,0.08897434920072556,0.08285413682460785
1775722025126820400,9.8548203125,0.3106577396392822,0.13092312216758728,0.17508286237716675
1775722025136833300,9.864833251953126,0.40237754583358765,0.12732040882110596,0.22769148647785187
1775722025146846200,9.87484619140625,0.5005062222480774,0.0983705148100853,0.23730282485485077
1775722025156860400,9.8848603515625,0.5947903990745544,-0.015083345584571362,0.21350349485874176
1775722025166873300,9.894873291015625,0.6415792107582092,-0.15028856694698334,0.17053738236427307
1775722025176886300,9.90488623046875,0.626059889793396,-0.25430843234062195,0.12356481701135635
1775722025186899200,9.914899169921876,0.5508562326431274,-0.32295355200767517,0.06984379887580872
1775722025196912400,9.924912353515625,0.41453301906585693,-0.33522486686706543,0.0005371595616452396
1775722025206925000,9.934925048828125,0.25629010796546936,-0.25275954604148865,-0.08630852401256561
1775722025216938200,9.944938232421874,0.1364092379808426,-0.038247786462306976,-0.19351594150066376
1775722025226951200,9.954951171875,0.062304653227329254,0.18865565955638885,-0.30667364597320557
1775722025236964400,9.96496435546875,0.0028551749419420958,0.3633795380592346,-0.39945071935653687
1775722025246977300,9.974977294921874,-0.057378072291612625,0.47828587889671326,-0.45067688822746277
1775722025256990200,9.984990234375,-0.16556578874588013,0.5314226150512695,-0.44977274537086487
1775722025267003400,9.99500341796875,-0.3080417215824127,0.571800947189331,-0.42588871717453003
1775722025277016000,10.00501611328125,-0.4187716841697693,0.6053192019462585,-0.41822415590286255
1775722025287030300,10.0150302734375,-0.4695344567298889,0.5868930816650391,-0.4517842233181
1775722025297043200,10.025043212890624,-0.45005902647972107,0.4654878079891205,-0.5192399621009827
1775722025307056000,10.03505615234375,-0.37852972745895386,0.21981199085712433,-0.58921879529953
1775722025317069300,10.0450693359375,-0.2949341833591461,0.04020440950989723,-0.6118026375770569
1775722025327082200,10.055082275390625,-0.21822580695152283,0.04025954008102417,-0.5705148577690125
1775722025337095200,10.06509521484375,-0.17283116281032562,0.14754284918308258,-0.4930453896522522
1775722025347108000,10.075108154296874,-0.15051254630088806,0.28350016474723816,-0.4174251854419708
1775722025357121300,10.085121337890625,-0.11191881448030472,0.3790911138057709,-0.3717746138572693
1775722025367134200,10.09513427734375,-0.05120779201388359,0.39447274804115295,-0.35359853506088257
1775722025377147100,10.105147216796874,0.021892515942454338,0.301817387342453,-0.35644200444221497
1775722025387160300,10.115160400390625,0.08275347203016281,0.15534724295139313,-0.364250123500824
1775722025397173200,10.12517333984375,0.13285711407661438,0.01571637950837612,-0.37237170338630676
1775722025407186200,10.135186279296875,0.17386341094970703,-0.14329244196414948,-0.3798905909061432
1775722025417199000,10.14519921875,0.2397015392780304,-0.29646360874176025,-0.3960117995738983
1775722025427213300,10.15521337890625,0.326702743768692,-0.43873101472854614,-0.3936908543109894
1775722025437226200,10.165226318359375,0.3978882431983948,-0.4297489821910858,-0.34704717993736267
1775722025447239200,10.1752392578125,0.432801216840744,-0.27150073647499084,-0.26856622099876404
1775722025457252400,10.18525244140625,0.40217700600624084,-0.04727776721119881,-0.19922202825546265
1775722025467265000,10.19526513671875,0.34191766381263733,0.15527427196502686,-0.16342593729496002
1775722025477278200,10.2052783203125,0.30475538969039917,0.2811741530895233,-0.1655716598033905
1775722025487291400,10.21529150390625,0.2916840612888336,0.32503747940063477,-0.18475493788719177
1775722025497304300,10.22530419921875,0.28818172216415405,0.3218861520290375,-0.19927795231342316
1775722025507317200,10.235317138671874,0.2719540297985077,0.25866538286209106,-0.21314449608325958
1775722025517330200,10.245330078125,0.21583402156829834,0.14228656888008118,-0.22564883530139923
1775722025527343400,10.25534326171875,0.13530854880809784,0.06087639927864075,-0.24192820489406586
1775722025537356000,10.26535595703125,0.06310839205980301,0.015192534774541855,-0.2683688700199127
1775722025547369200,10.275369140625,0.00035180358099751174,0.0030863373540341854,-0.2988452911376953
1775722025557383400,10.285383544921874,-0.04644899070262909,0.061709970235824585,-0.3273214101791382
1775722025567396000,10.29539599609375,-0.06346552819013596,0.1559792160987854,-0.3563583791255951
1775722025577409300,10.3054091796875,-0.06549405306577682,0.2536791265010834,-0.3696499466896057
1775722025587422200,10.315422119140624,-0.04911454766988754,0.2928585112094879,-0.3574635982513428
1775722025597435100,10.32543505859375,-0.010647318325936794,0.2422134280204773,-0.325539231300354
1775722025607448300,10.3354482421875,0.029680397361516953,0.18835845589637756,-0.2684948444366455
1775722025617461200,10.345461181640625,0.044978659600019455,0.15549105405807495,-0.1965135931968689
1775722025627474400,10.355474365234375,0.020550016313791275,0.14126898348331451,-0.13065014779567719
1775722025637487000,10.365487060546876,-0.02093484252691269,0.10578954964876175,-0.099261075258255
1775722025647500300,10.375500244140625,-0.05347414314746857,-0.010150638408958912,-0.09530361741781235
1775722025657513200,10.38551318359375,-0.06431720405817032,-0.17950904369354248,-0.1067352369427681
1775722025667526100,10.395526123046874,-0.028016719967126846,-0.3143395483493805,-0.11914423108100891
1775722025677539300,10.405539306640625,0.04235810786485672,-0.3382238447666168,-0.12373072654008865
1775722025687552300,10.41555224609375,0.08745687454938889,-0.1644749641418457,-0.11559317260980606
1775722025697566200,10.425566162109375,-0.017303090542554855,0.36625683307647705,-0.12104439735412598
1775722025707579100,10.4355791015625,-0.067228302359581,0.4696066379547119,-0.1608341485261917
1775722025717592300,10.44559228515625,-0.03973329812288284,0.3682405948638916,-0.1747955083847046
1775722025727605200,10.455605224609375,0.003163036424666643,0.30474498867988586,-0.12363272160291672
1775722025737618200,10.4656181640625,0.02040460705757141,0.2518559396266937,-0.0470479354262352
1775722025747631400,10.47563134765625,0.02774268202483654,0.1540803760290146,-0.000055660068028373644
1775722025757644300,10.485644287109375,0.058158643543720245,0.07209709286689758,0.01733851060271263
1775722025767657200,10.4956572265625,0.11105354875326157,0.04417065531015396,0.017184313386678696
1775722025777670100,10.505670166015625,0.1644025295972824,0.011270497925579548,0.006342317909002304
1775722025787683300,10.515683349609375,0.19603289663791656,-0.035292476415634155,-0.011438276618719101
1775722025797696300,10.5256962890625,0.20448683202266693,-0.06127294525504112,-0.02755972184240818
1775722025807709200,10.535709228515625,0.19728857278823853,-0.04126647859811783,-0.036676522344350815
1775722025817722400,10.545722412109376,0.18696989119052887,-0.020908743143081665,-0.03326128423213959
1775722025827736000,10.555736083984375,0.18471018970012665,0.002891926560550928,0.0051963599398732185
1775722025837748700,10.565748779296875,0.18955262005329132,0.030482808127999306,0.0680147334933281
1775722025847762000,10.575761962890626,0.19999566674232483,0.0037619813811033964,0.13358283042907715
1775722025857774800,10.58577490234375,0.19759882986545563,-0.056227318942546844,0.18608678877353668
1775722025867787800,10.595787841796875,0.1764349490404129,-0.12986798584461212,0.2226104438304901
1775722025877800700,10.60580078125,0.14052808284759521,-0.16407735645771027,0.24295379221439362
1775722025887814000,10.61581396484375,0.07684764266014099,-0.16450053453445435,0.24656663835048676
1775722025897826800,10.625826904296876,0.0003270361921750009,-0.16688619554042816,0.22084103524684906
1775722025907839700,10.63583984375,-0.06862140446901321,-0.16651147603988647,0.16519933938980103
1775722025917853000,10.64585302734375,-0.12183908373117447,-0.14756016433238983,0.09815612435340881
1775722025927865900,10.655865966796876,-0.16515886783599854,-0.10582443326711655,0.026557041332125664
1775722025937878800,10.665878662109375,-0.20738966763019562,-0.027419639751315117,-0.03689463436603546
1775722025947891700,10.6758916015625,-0.25318804383277893,0.05734717845916748,-0.0825854241847992
1775722025957905700,10.68590576171875,-0.29156365990638733,0.11408130079507828,-0.10080117732286453
1775722025967918800,10.6959189453125,-0.32099559903144836,0.14548902213573456,-0.08870536834001541
1775722025977931800,10.705931884765626,-0.3338885009288788,0.16391544044017792,-0.04498957842588425
1775722025987945000,10.715945068359375,-0.3274313807487488,0.19038964807987213,0.013737117871642113
1775722025997957600,10.72595751953125,-0.303462952375412,0.1829913854598999,0.06783630698919296
1775722026007970800,10.735970703125,-0.2704634368419647,0.13273701071739197,0.0975145697593689
1775722026017984000,10.74598388671875,-0.22043703496456146,0.055391620844602585,0.10620579868555069
1775722026027996700,10.75599658203125,-0.158140629529953,-0.005483714863657951,0.09946773201227188
1775722026038009900,10.766009765625,-0.10341241210699081,-0.02076173759996891,0.08902707695960999
1775722026048022800,10.776022705078125,-0.07673552632331848,-0.02628859505057335,0.07036151736974716
1775722026058036000,10.786035888671876,-0.07251015305519104,-0.025711754336953163,0.046784814447164536
1775722026068048600,10.796048583984375,-0.07762528955936432,-0.0034796863328665495,0.016292687505483627
1775722026078061800,10.806061767578125,-0.07808867841959,0.009544769302010536,-0.013375992886722088
1775722026088075800,10.81607568359375,-0.07478582113981247,0.005658951122313738,-0.03905579075217247
1775722026098088700,10.826088623046875,-0.07376663386821747,-0.002266616327688098,-0.04993267357349396
1775722026108102000,10.836101806640626,-0.07004646211862564,-0.0043563987128436565,-0.04802824556827545
1775722026118114800,10.84611474609375,-0.05886251851916313,0.008294947445392609,-0.045227400958538055
1775722026128127700,10.856127685546875,-0.042577289044857025,0.010820689611136913,-0.04194904863834381
1775722026138141000,10.866140869140626,-0.024768462404608727,0.0015606123488396406,-0.0359279066324234
1775722026148153900,10.87615380859375,-0.017016533762216568,-0.019650666043162346,-0.020255204290151596
1775722026158166800,10.886166748046875,-0.020614730194211006,-0.048941176384687424,0.00686110183596611
1775722026168179700,10.8961796875,-0.035827238112688065,-0.042027078568935394,0.04057272523641586
1775722026178193000,10.90619287109375,-0.057611629366874695,-0.020784907042980194,0.06292650103569031
1775722026188205800,10.916205810546876,-0.07867030799388885,-0.022350845858454704,0.06788238137960434
1775722026198218800,10.92621875,-0.09596727788448334,-0.0220874585211277,0.057852912694215775
1775722026208232000,10.93623193359375,-0.09985043108463287,-0.003909786697477102,0.042823631316423416
1775722026218245600,10.94624560546875,-0.11053050309419632,0.004878112114965916,0.02911980263888836
1775722026228258800,10.9562587890625,-0.12661440670490265,-0.005768673028796911,0.013200224377214909
1775722026238271700,10.966271728515625,-0.13718315958976746,-0.008287491276860237,0.002924683503806591
1775722026248285000,10.976284912109374,-0.14697320759296417,-0.011099522933363914,-0.003600061172619462
1775722026258297900,10.9862978515625,-0.16292473673820496,-0.014903848059475422,-0.0012580773327499628
1775722026268310800,10.996310791015626,-0.17203354835510254,0.00760998297482729,0.00803395826369524
1775722026278324000,11.006323974609375,-0.1726207733154297,0.01630839891731739,0.01727193035185337
1775722026288336600,11.016336669921875,-0.1719520539045334,-0.008618255145847797,0.020303940400481224
1775722026298349800,11.026349853515624,-0.16524328291416168,-0.03296886757016182,0.011461446061730385
1775722026308362800,11.03636279296875,-0.1526915431022644,-0.061288390308618546,-0.014816762879490852
1775722026318376000,11.0463759765625,-0.13153912127017975,-0.08109938353300095,-0.049981940537691116
1775722026328388900,11.056388916015624,-0.1126309409737587,-0.0632932186126709,-0.07643458992242813
1775722026338401800,11.06640185546875,-0.09902218729257584,-0.03965473547577858,-0.09363061934709549
1775722026348415700,11.076415771484376,-0.09546127170324326,-0.027775971218943596,-0.10339856147766113
1775722026358428700,11.0864287109375,-0.09313181042671204,-0.010468353517353535,-0.10965565592050552
1775722026368441900,11.09644189453125,-0.09634570777416229,-0.008776979520916939,-0.11124689877033234
1775722026378455000,11.106455078125,-0.09696995466947556,-0.012181032449007034,-0.11179710179567337
1775722026388467700,11.1164677734375,-0.0883125513792038,-0.018868230283260345,-0.11570210009813309
1775722026398481000,11.12648095703125,-0.07609982788562775,-0.019901003688573837,-0.11979378014802933
1775722026408493800,11.136493896484374,-0.07219243794679642,-0.01901550218462944,-0.12857875227928162
1775722026418506800,11.1465068359375,-0.07521645724773407,-0.03699982911348343,-0.1369517296552658
1775722026428519700,11.156519775390626,-0.07826843857765198,-0.04519703984260559,-0.14010730385780334
1775722026438532900,11.166532958984375,-0.07920480519533157,-0.0012322446564212441,-0.13046187162399292
1775722026448546000,11.176546142578125,-0.08270926028490067,0.015157647430896759,-0.10968948155641556
1775722026458558700,11.186558837890624,-0.08273376524448395,0.0201587975025177,-0.0787813663482666
1775722026468572000,11.196572021484375,-0.0695926621556282,0.03689037263393402,-0.046425823122262955
1775722026478585600,11.206585693359376,-0.04905702546238899,0.05507710203528404,-0.018804579973220825
1775722026488598800,11.216598876953125,-0.02311677113175392,0.06228627637028694,-0.0012295814231038094
1775722026498612000,11.226612060546875,-0.004595817066729069,0.06849357485771179,0.01480451226234436
1775722026508625000,11.236625,0.0034530546981841326,0.07899468392133713,0.027667313814163208
1775722026518637800,11.246637939453125,0.007156180217862129,0.0969071015715599,0.04169631376862526
1775722026528650800,11.256650634765625,0.008221178315579891,0.09513530135154724,0.05921512097120285
1775722026538664000,11.266663818359374,0.008555404841899872,0.07249870151281357,0.0676695927977562
1775722026548676600,11.276676513671875,0.016351010650396347,0.055986303836107254,0.06789196282625198
1775722026558689800,11.286689697265626,0.030525950714945793,0.03567144647240639,0.05233431234955788
1775722026568702700,11.29670263671875,0.036745764315128326,0.00612367270514369,0.026851853355765343
1775722026578716000,11.3067158203125,0.0448276586830616,-0.004532434046268463,-0.006825149059295654
1775722026588728800,11.316728759765626,0.04398689791560173,-0.010189786553382874,-0.03819532319903374
1775722026598742800,11.32674267578125,0.030545126646757126,-0.019949739798903465,-0.061281997710466385
1775722026608755700,11.336755615234376,0.015603194013237953,0.00782356783747673,-0.07138576358556747
1775722026618769000,11.346768798828125,-0.013290504924952984,0.04647029563784599,-0.06776013970375061
1775722026628781800,11.35678173828125,-0.036383308470249176,0.058997541666030884,-0.0473020002245903
1775722026638795000,11.366794921875,-0.053340718150138855,0.055517587810754776,-0.026739735156297684
1775722026648807700,11.3768076171875,-0.05306428298354149,0.025897642597556114,-0.004817125853151083
1775722026658820900,11.38682080078125,-0.04459649696946144,-0.0012663330417126417,0.01937609538435936
1775722026668833800,11.396833740234374,-0.04006992280483246,-0.017007213085889816,0.04574405401945114
1775722026678846700,11.4068466796875,-0.0380893275141716,-0.021676000207662582,0.07027363032102585
1775722026688859600,11.416859619140626,-0.03262824937701225,0.010010556317865849,0.09223885089159012
1775722026698872800,11.426872802734374,-0.028315793722867966,0.034507643431425095,0.10992996394634247
1775722026708886000,11.436885986328125,-0.02971821464598179,0.040948230773210526,0.11515535414218903
1775722026718898700,11.446898681640626,-0.028388764709234238,0.02478683926165104,0.10524439811706543
1775722026728913000,11.456912841796875,-0.029278259724378586,0.0037436054553836584,0.0853055790066719
1775722026738925800,11.46692578125,-0.03425304591655731,0.0006748450105078518,0.05757274851202965
1775722026748938800,11.476938720703124,-0.042576223611831665,-0.007473628968000412,0.022834209725260735
1775722026758952000,11.486951904296875,-0.044742438942193985,-0.0355428121984005,-0.024294953793287277
1775722026768964900,11.49696484375,-0.04321112111210823,-0.07133623212575912,-0.06520164012908936
1775722026778977800,11.506977783203125,-0.04466067999601364,-0.08116116374731064,-0.07784312963485718
1775722026788990700,11.51699072265625,-0.05353859066963196,-0.06192914769053459,-0.06357551366090775
1775722026799004000,11.52700390625,-0.06627143174409866,-0.06526768952608109,-0.03266553580760956
1775722026809016800,11.537016845703125,-0.08320461213588715,-0.07232745736837387,0.0014921691035851836
1775722026819029800,11.54702978515625,-0.09400852024555206,-0.08383231610059738,0.023086942732334137
1775722026829043000,11.55704296875,-0.09404047578573227,-0.08570265024900436,0.03408074006438255
1775722026839055600,11.5670556640625,-0.09751404076814651,-0.06416992843151093,0.04649985581636429
1775722026849069600,11.577069580078126,-0.11074648797512054,-0.06886322051286697,0.04969644919037819
1775722026859082500,11.58708251953125,-0.12015463411808014,-0.09730204939842224,0.04345240071415901
1775722026869095700,11.597095703125,-0.10854937881231308,-0.09773481637239456,0.02323261834681034
1775722026879108600,11.607108642578124,-0.0934537872672081,-0.12384098768234253,-0.015585084445774555
1775722026889121500,11.61712158203125,-0.07790971547365189,-0.13828010857105255,-0.06724108755588531
1775722026899134700,11.627134765625,-0.05861351266503334,-0.1317220777273178,-0.11278247088193893
1775722026909147400,11.6371474609375,-0.03472841903567314,-0.1319098323583603,-0.1536811739206314
1775722026919160600,11.64716064453125,-0.00899482611566782,-0.16235482692718506,-0.1740705966949463
1775722026929173500,11.657173583984376,0.012286227196455002,-0.18737149238586426,-0.1714354008436203
1775722026939186700,11.667186767578125,0.02628779597580433,-0.21004803478717804,-0.1476360559463501
1775722026949199600,11.67719970703125,0.037207022309303284,-0.2152089774608612,-0.11555695533752441
1775722026959212500,11.687212646484374,0.0394696444272995,-0.1896146684885025,-0.08474418520927429
1775722026969226500,11.6972265625,0.02219744771718979,-0.16586673259735107,-0.05269357189536095
1775722026979239400,11.707239501953126,-0.0056951697915792465,-0.14417022466659546,-0.02040434069931507
1775722026989252600,11.717252685546875,-0.037036847323179245,-0.1212790235877037,0.0018546254141256213
1775722026999265800,11.727265869140625,-0.056051019579172134,-0.09183990955352783,0.012776249088346958
1775722027009278500,11.737278564453124,-0.06203673779964447,-0.05874587222933769,0.01449958048760891
1775722027019291600,11.747291748046875,-0.04890922084450722,-0.04772331193089485,0.009923204779624939
1775722027029304600,11.7573046875,-0.04662955179810524,-0.04454802721738815,0.008341020904481411
1775722027039317500,11.7673173828125,-0.08199180662631989,-0.029401831328868866,0.01347532868385315
1775722027049330400,11.777330322265625,-0.1443108320236206,0.05602305382490158,0.021639514714479446
1775722027059343600,11.787343505859376,-0.2158752977848053,0.2251787930727005,0.04249712824821472
1775722027069356800,11.797356689453125,-0.2885622978210449,0.3968088626861572,0.06376699358224869
1775722027079369500,11.807369384765625,-0.3509548306465149,0.5365164279937744,0.09092484414577484
1775722027089383700,11.8173837890625,-0.3921922743320465,0.6614184379577637,0.1306125968694687
1775722027099396400,11.827396240234375,-0.4224500358104706,0.6996097564697266,0.18457889556884766
1775722027109409500,11.837409423828126,-0.44730666279792786,0.6772839426994324,0.2506103813648224
1775722027119422700,11.847422607421874,-0.47408527135849,0.5788788199424744,0.32244834303855896
1775722027129435600,11.857435546875,-0.4901728928089142,0.4988180696964264,0.3829127550125122
1775722027139448600,11.867448486328126,-0.48450249433517456,0.4242548644542694,0.42366552352905273
1775722027149461500,11.87746142578125,-0.46443238854408264,0.3039303421974182,0.43982264399528503
1775722027159474700,11.887474609375,-0.43776455521583557,0.18051518499851227,0.45514941215515137
1775722027169487400,11.8974873046875,-0.4008779227733612,0.1776200532913208,0.48459917306900024
1775722027179500500,11.90750048828125,-0.36560699343681335,0.2660665810108185,0.518983781337738
1775722027189513700,11.917513671875,-0.3349668085575104,0.40756458044052124,0.5415540933609009
1775722027199526700,11.927526611328124,-0.3068872392177582,0.5129666328430176,0.537969172000885
1775722027209540600,11.93754052734375,-0.2780561149120331,0.5527476072311401,0.5045563578605652
1775722027219553500,11.947553466796874,-0.22989684343338013,0.515853226184845,0.45841869711875916
1775722027229566500,11.95756640625,-0.1715073138475418,0.3770889639854431,0.40471047163009644
1775722027239579600,11.96757958984375,-0.1128581091761589,0.18519169092178345,0.3705008327960968
1775722027249592600,11.977592529296874,-0.05722653865814209,0.05444220453500748,0.35832032561302185
1775722027259605800,11.987605712890625,-0.029169335961341858,-0.050209905952215195,0.3610529899597168
1775722027269618400,11.997618408203126,-0.020084494724869728,-0.14500220119953156,0.3677998483181
1775722027279631600,12.007631591796875,-0.005821936298161745,-0.17040689289569855,0.36618784070014954
1775722027289644500,12.01764453125,0.0022327941842377186,-0.1837565153837204,0.35003790259361267
1775722027299657500,12.027657470703126,-0.014990135096013546,-0.17065216600894928,0.3297342360019684
1775722027309670400,12.03767041015625,-0.04224652424454689,-0.1256444752216339,0.3022240400314331
1775722027319683600,12.04768359375,-0.06584292650222778,-0.09596115350723267,0.25906404852867126
1775722027329697500,12.057697509765624,-0.06964512169361115,-0.08511755615472794,0.20650604367256165
1775722027339710500,12.06771044921875,-0.04246703162789345,-0.10723244398832321,0.15037991106510162
1775722027349723600,12.0777236328125,-0.011919243261218071,-0.1640014499425888,0.1100977435708046
1775722027359736600,12.087736572265625,0.011464109644293785,-0.24224458634853363,0.0979931429028511
1775722027369749500,12.09774951171875,0.028425250202417374,-0.3641582429409027,0.11065647006034851
1775722027379762700,12.1077626953125,0.04163745790719986,-0.4399201273918152,0.13758155703544617
1775722027389775600,12.117775634765625,0.06039836257696152,-0.3885565400123596,0.16891445219516754
1775722027399788500,12.12778857421875,0.07673898339271545,-0.2843973636627197,0.18998245894908905
1775722027409801500,12.137801513671874,0.091268390417099,-0.13811446726322174,0.20328360795974731
1775722027419814700,12.147814697265625,0.10428885370492935,-0.023618776351213455,0.20947545766830444
1775722027429827300,12.157827392578126,0.10934566706418991,0.014210893772542477,0.2047233134508133
1775722027439841500,12.167841552734375,0.1182803064584732,0.0016500946367159486,0.18551473319530487
1775722027449854700,12.177854736328126,0.13604837656021118,-0.04978193715214729,0.14615188539028168
1775722027459867400,12.187867431640624,0.16145813465118408,-0.11835327744483948,0.1019122526049614
1775722027469880600,12.197880615234375,0.18036231398582458,-0.19085490703582764,0.06915111094713211
1775722027479893800,12.207893798828126,0.17128732800483704,-0.2543840706348419,0.05421902984380722
1775722027489906400,12.217906494140625,0.13428030908107758,-0.2696533203125,0.056300822645425797
1775722027499919600,12.227919677734375,0.09275790303945541,-0.2529204189777374,0.04872865602374077
