time,seconds_elapsed,z,y,x
1774656492142830600,0.06183056640625,0.007024944759905338,-0.006414080038666725,-0.01740964688360691
1774656492159620000,0.0786201171875,-0.016187917441129684,0.0027488914784044027,0.018631376326084137
1774656492176409600,0.09540966796875,-0.004581485874950886,0.003970621153712273,-0.016798781231045723
1774656492193199000,0.11219921875,0.014966187067329884,-0.004581485874950886,0.0027488914784044027
1774656492209988600,0.128988525390625,-0.012522728182375431,0.005803215317428112,-0.006414080038666725
1774656492226778000,0.145778076171875,0.01740964688360691,-0.0009162971982732415,-0.00946840364485979
1774656492243567600,0.162567626953125,-0.021685699000954628,0.008857538923621178,0.011911863461136818
1774656492260357000,0.179357177734375,0.019853105768561363,-0.005192350596189499,-0.015577051788568497
1774656492277146600,0.196146728515625,-0.007024944759905338,0.000305432389723137,0.010690134018659592
1774656492293936000,0.21293603515625,0.0021380267571657896,0.003359756199643016,-0.019242240116000175
1774656492310725600,0.2297255859375,-0.007024944759905338,0.000305432389723137,0.029016077518463135
1774656492327515100,0.24651513671875,0.005803215317428112,-0.0015271619195118546,-0.01740964688360691
1774656492344304600,0.2633046875,0.000305432389723137,-0.0027488914784044027,0.016187917441129684
1774656492361094100,0.28009423828125,0.0015271619195118546,0.0009162971982732415,-0.006414080038666725
1774656492377883600,0.296883544921875,-0.006414080038666725,0.003359756199643016,0.018631376326084137
1774656492394673200,0.313673095703125,0.003359756199643016,-0.0027488914784044027,0.006414080038666725
1774656492411462700,0.330462646484375,0.0021380267571657896,-0.0021380267571657896,-0.003970621153712273
1774656492428252200,0.347252197265625,-0.0015271619195118546,-0.000305432389723137,0.010079269297420979
1774656492445041700,0.364041748046875,-0.0027488914784044027,0.0027488914784044027,-0.0009162971982732415
1774656492461831200,0.3808310546875,0.0015271619195118546,-0.000305432389723137,0.02107483521103859
1774656492478620700,0.39762060546875,0.0015271619195118546,0.0009162971982732415,-0.016187917441129684
1774656492495410200,0.41441015625,0.0015271619195118546,-0.0015271619195118546,0.011911863461136818
1774656492512199700,0.43119970703125,-0.0027488914784044027,0.003970621153712273,-0.0021380267571657896
1774656492528989200,0.4479892578125,-0.000305432389723137,0.0015271619195118546,0.007024944759905338
1774656492545778700,0.46477880859375,0.000305432389723137,-0.0009162971982732415,-0.000305432389723137
1774656492562568200,0.481568115234375,0.0015271619195118546,0.0009162971982732415,-0.008246674202382565
1774656492579357700,0.498357666015625,-0.011911863461136818,0.003970621153712273,0.010079269297420979
1774656492596147200,0.515147216796875,0.007024944759905338,-0.0015271619195118546,-0.000305432389723137
1774656492612936700,0.531936767578125,-0.007635809946805239,0.003970621153712273,-0.008857538923621178
1774656492629726200,0.548726318359375,-0.0015271619195118546,-0.0009162971982732415,-0.007024944759905338
1774656492646515700,0.565515625,0.0015271619195118546,0.000305432389723137,-0.0015271619195118546
1774656492663305200,0.58230517578125,-0.014966187067329884,0.010079269297420979,-0.005192350596189499
1774656492680094700,0.5990947265625,0.010690134018659592,-0.005192350596189499,-0.016187917441129684
1774656492696884200,0.61588427734375,-0.007635809946805239,0.008246674202382565,-0.011911863461136818
1774656492713673700,0.632673828125,-0.028405211865901947,0.014966187067329884,0.023518294095993042
1774656492730463200,0.649463134765625,0.03695731982588768,-0.013133592903614044,-0.03145953640341759
1774656492747252700,0.666252685546875,-0.02779434807598591,0.011300998739898205,0.03023780696094036
1774656492764042200,0.683042236328125,-0.0027488914784044027,0.0015271619195118546,-0.016798781231045723
1774656492780831700,0.699831787109375,0.02412915788590908,-0.004581485874950886,-0.023518294095993042
1774656492797621200,0.716621337890625,-0.07116574794054031,0.022907428443431854,0.004581485874950886
1774656492814410800,0.73341064453125,0.07238747924566269,-0.026572618633508682,-0.06261363625526428
1774656492831200300,0.7502001953125,-0.04428769648075104,0.01435532234609127,0.03756818547844887
1774656492847989800,0.76698974609375,0.003359756199643016,-0.000305432389723137,-0.054672397673130035
1774656492864779300,0.783779296875,0.032070402055978775,-0.015577051788568497,0.0412333719432354
1774656492881568800,0.80056884765625,-0.05100720748305321,0.015577051788568497,-0.016187917441129684
1774656492898358300,0.817358154296875,0.05711585655808449,-0.021685699000954628,-0.028405211865901947
1774656492915147800,0.834147705078125,-0.04306596517562866,0.013133592903614044,0.03634645417332649
1774656492931937300,0.850937255859375,0.021685699000954628,-0.005192350596189499,-0.02779434807598591
1774656492948726800,0.867726806640625,0.011911863461136818,-0.010690134018659592,0.003970621153712273
1774656492965516300,0.884516357421875,-0.019853105768561363,0.005192350596189499,-0.04001164436340332
1774656492982305800,0.901305908203125,0.029016077518463135,-0.013744457624852657,-0.011300998739898205
1774656492999095300,0.91809521484375,-0.010690134018659592,0.0027488914784044027,-0.032681263983249664
1774656493015884800,0.934884765625,0.0009162971982732415,-0.0021380267571657896,-0.0015271619195118546
1774656493032674300,0.95167431640625,0.013744457624852657,-0.007024944759905338,0.02107483521103859
1774656493049463800,0.9684638671875,-0.006414080038666725,0.007024944759905338,-0.019853105768561363
1774656493066253300,0.98525341796875,0.00946840364485979,-0.005803215317428112,0.02718348242342472
1774656493083043000,1.00204296875,-0.0027488914784044027,-0.0009162971982732415,0.012522728182375431
1774656493099832300,1.018832275390625,-0.005192350596189499,0.0021380267571657896,0.0009162971982732415
1774656493116622000,1.0356220703125,0.016187917441129684,-0.004581485874950886,-0.02779434807598591
1774656493133411300,1.052411376953125,-0.005192350596189499,-0.000305432389723137,0.011911863461136818
1774656493150200800,1.069200927734375,0.011911863461136818,-0.003359756199643016,0.003970621153712273
1774656493166990300,1.085990234375,-0.00946840364485979,0.006414080038666725,-0.0015271619195118546
1774656493183780000,1.102780029296875,0.003970621153712273,-0.0015271619195118546,0.05345066636800766
1774656493200569600,1.119569580078125,0.008857538923621178,0.0027488914784044027,0.010690134018659592
1774656493217359000,1.136359130859375,-0.007024944759905338,0.003359756199643016,0.06505709886550903
1774656493234148600,1.153148681640625,0.003359756199643016,0.0027488914784044027,0.029016077518463135
1774656493250938000,1.169938232421875,-0.012522728182375431,0.003970621153712273,0.06261363625526428
1774656493267727600,1.1867275390625,0.003970621153712273,-0.0009162971982732415,0.041844237595796585
1774656493284517000,1.20351708984375,-0.011300998739898205,0.003970621153712273,0.060781046748161316
1774656493301306600,1.220306640625,-0.005192350596189499,0.004581485874950886,0.06383536756038666
1774656493318096100,1.23709619140625,0.000305432389723137,0.003970621153712273,0.06627883017063141
1774656493334885600,1.2538857421875,-0.0021380267571657896,0.0021380267571657896,0.09437860548496246
1774656493351675100,1.270675048828125,0.008246674202382565,-0.000305432389723137,0.07360920310020447
1774656493368464600,1.287464599609375,-0.004581485874950886,0.003359756199643016,0.09682206809520721
1774656493385254100,1.304254150390625,0.006414080038666725,-0.0021380267571657896,0.10354158282279968
1774656493402043600,1.321043701171875,0.004581485874950886,-0.003359756199643016,0.09865466505289078
1774656493418833200,1.337833251953125,0.000305432389723137,-0.0015271619195118546,0.09071341902017593
1774656493435622700,1.35462255859375,0.0027488914784044027,-0.0027488914784044027,0.07849612087011337
1774656493452412200,1.371412109375,0.0015271619195118546,-0.004581485874950886,0.0821613147854805
1774656493469201700,1.38820166015625,0.014966187067329884,-0.010079269297420979,0.0766635313630104
1774656493485991200,1.4049912109375,0.004581485874950886,-0.004581485874950886,0.09010255336761475
1774656493502780700,1.42178076171875,0.008246674202382565,-0.004581485874950886,0.08888082206249237
1774656493519570200,1.438570068359375,0.008857538923621178,-0.003970621153712273,0.08460476994514465
1774656493536359700,1.455359619140625,0.010079269297420979,-0.004581485874950886,0.07544180005788803
1774656493553149200,1.472149169921875,0.014966187067329884,-0.007635809946805239,0.06566796451807022
1774656493569938700,1.488938720703125,-0.0009162971982732415,-0.000305432389723137,0.05283980444073677
1774656493586728200,1.505728271484375,0.013133592903614044,-0.005192350596189499,0.0772743970155716
1774656493603517700,1.522517578125,0.021685699000954628,-0.004581485874950886,0.05100720748305321
1774656493620307200,1.53930712890625,0.005803215317428112,-0.003359756199643016,0.05528326332569122
1774656493637096700,1.5560966796875,0.003359756199643016,-0.0015271619195118546,0.05589412897825241
1774656493653886200,1.57288623046875,-0.000305432389723137,-0.0021380267571657896,0.035735588520765305
1774656493670675700,1.58967578125,0.01435532234609127,-0.011300998739898205,0.038789913058280945
1774656493687465200,1.60646533203125,0.007024944759905338,-0.007635809946805239,0.03145953640341759
1774656493704254700,1.623254638671875,0.005192350596189499,-0.0021380267571657896,0.022296564653515816
1774656493721044200,1.640044189453125,0.0009162971982732415,-0.0027488914784044027,0.03145953640341759
1774656493737833700,1.656833740234375,0.0015271619195118546,-0.004581485874950886,0.008857538923621178
1774656493754623200,1.673623291015625,0.010079269297420979,-0.008857538923621178,-0.018631376326084137
1774656493771412700,1.690412841796875,-0.004581485874950886,-0.000305432389723137,0.012522728182375431
1774656493788202200,1.7072021484375,0.005192350596189499,0.000305432389723137,-0.013133592903614044
1774656493804991700,1.72399169921875,0.007635809946805239,-0.003970621153712273,0.02107483521103859
1774656493821781200,1.74078125,0.01740964688360691,-0.00946840364485979,0.010690134018659592
1774656493838570800,1.75757080078125,0.0009162971982732415,-0.000305432389723137,0.010079269297420979
1774656493855360300,1.7743603515625,0.005803215317428112,-0.0015271619195118546,0.010690134018659592
1774656493872149800,1.791149658203125,0.01740964688360691,-0.008857538923621178,-0.0009162971982732415
1774656493888939300,1.807939208984375,-0.000305432389723137,-0.003359756199643016,-0.041844237595796585
1774656493905728800,1.824728759765625,0.012522728182375431,-0.007635809946805239,-0.000305432389723137
1774656493922518300,1.841518310546875,-0.008246674202382565,0.0021380267571657896,0.0308486707508564
1774656493939307800,1.858307861328125,0.005192350596189499,0.000305432389723137,0.05283980444073677
1774656493956097300,1.87509716796875,0.013133592903614044,-0.005803215317428112,0.061391908675432205
1774656493972886800,1.89188671875,0.006414080038666725,-0.006414080038666725,0.016187917441129684
1774656493989676300,1.90867626953125,0.019242240116000175,-0.011911863461136818,0.012522728182375431
1774656494006465800,1.9254658203125,0.0021380267571657896,-0.007635809946805239,0.06444623321294785
1774656494023255300,1.94225537109375,0.011911863461136818,-0.005803215317428112,0.10231985151767731
1774656494040044800,1.959044921875,0.01435532234609127,-0.007024944759905338,0.11759147047996521
1774656494056834300,1.975834228515625,0.007024944759905338,-0.008857538923621178,0.060781046748161316
1774656494073623800,1.992623779296875,0.03145953640341759,-0.021685699000954628,-0.03940077871084213
1774656494090413300,2.009413330078125,-0.0021380267571657896,-0.005803215317428112,0.0009162971982732415
1774656494107202800,2.026202880859375,-0.0204639695584774,0.016187917441129684,0.2263254076242447
1774656494123992000,2.042991943359375,-0.007635809946805239,0.007024944759905338,0.0565049909055233
1774656494140781800,2.05978173828125,0.03695731982588768,-0.024740023538470268,-0.023518294095993042
1774656494157571300,2.0765712890625,0.05039634555578232,-0.019853105768561363,0.13652828335762024
1774656494174360800,2.09336083984375,-0.028405211865901947,0.02107483521103859,0.04734202101826668
1774656494191150000,2.110150146484375,0.022907428443431854,-0.0015271619195118546,0.13775001466274261
1774656494207939800,2.12693994140625,0.012522728182375431,-0.008246674202382565,0.09926552325487137
1774656494224729000,2.14372900390625,0.044898562133312225,-0.005192350596189499,0.032681263983249664
1774656494241518800,2.160518798828125,0.005192350596189499,0.011911863461136818,0.1591302752494812
1774656494258308000,2.17730810546875,-0.003359756199643016,0.008857538923621178,0.11331541836261749
1774656494275097600,2.19409765625,0.03695731982588768,-0.008246674202382565,0.21227550506591797
1774656494291887400,2.210887451171875,-0.003359756199643016,0.011911863461136818,0.17195843160152435
1774656494308676900,2.2276767578125,0.025961752980947495,0.010079269297420979,0.022907428443431854
1774656494325466400,2.24446630859375,0.03329212963581085,-0.013744457624852657,0.17623448371887207
1774656494342255600,2.261255615234375,0.10415244847536087,0.019853105768561363,0.6661480665206909
1774656494359045400,2.27804541015625,0.11087195575237274,-0.048563748598098755,2.581820011138916
1774656494375834600,2.294834716796875,-0.08521563559770584,-0.2629773020744324,1.5738930702209473
1774656494392624000,2.3116240234375,-0.0766635313630104,-0.04917461425065994,-0.9782999157905579
1774656494409413600,2.32841357421875,-0.03329212963581085,0.06261363625526428,-1.4572179317474365
1774656494426203100,2.345203125,-0.03329212963581085,-0.19394956529140472,-1.4181225299835205
1774656494442992600,2.36199267578125,0.03329212963581085,-0.16340632736682892,-0.45051276683807373
1774656494459782100,2.3787822265625,-0.11636973917484283,0.044898562133312225,-0.9471458196640015
1774656494476571600,2.395571533203125,-0.05528326332569122,-0.15729768574237823,-1.8292346000671387
1774656494493361200,2.412361083984375,0.03329212963581085,-0.14080433547496796,-0.8860593438148499
1774656494510150700,2.429150634765625,-0.015577051788568497,-0.0565049909055233,0.3588830530643463
1774656494526940200,2.445940185546875,0.003970621153712273,-0.19639302790164948,-0.013744457624852657
1774656494543729700,2.462729736328125,-0.06017018109560013,-0.10598503798246384,0.27397283911705017
1774656494560519200,2.479519287109375,0.03023780696094036,-0.06811141967773438,-0.003359756199643016
1774656494577308700,2.49630859375,0.018631376326084137,-0.19822561740875244,0.12736530601978302
1774656494594098200,2.51309814453125,-0.14080433547496796,-0.08093958348035812,0.32039856910705566
1774656494610887700,2.5298876953125,-0.005803215317428112,-0.0766635313630104,-0.24342961609363556
1774656494627677200,2.54667724609375,0.04673115536570549,-0.18784092366695404,0.10965022444725037
1774656494644466700,2.563466796875,-0.08582650125026703,-0.09193515032529831,0.2886336147785187
1774656494661256200,2.580256103515625,-0.07605266571044922,-0.05345066636800766,-0.1029307171702385
1774656494678045700,2.597045654296875,-0.04367683082818985,-0.1029307171702385,0.42424559593200684
1774656494694835200,2.613835205078125,-0.07910698652267456,-0.0668896958231926,-0.10903936624526978
1774656494711624700,2.630624755859375,-0.0015271619195118546,-0.08826996386051178,-0.04550942778587341
1774656494728414200,2.647414306640625,-0.07544180005788803,-0.06017018109560013,-0.06811141967773438
1774656494745203700,2.66420361328125,-0.06322450190782547,-0.03145953640341759,-0.10476330667734146
1774656494761993200,2.6809931640625,-0.041844237595796585,-0.021685699000954628,0.1432477980852127
1774656494778782700,2.69778271484375,-0.0461202897131443,-0.0308486707508564,0.08338304609060287
1774656494795572200,2.714572265625,-0.000305432389723137,-0.032681263983249664,-0.03817904740571976
1774656494812361700,2.73136181640625,-0.06994401663541794,0.015577051788568497,-0.12247838824987411
1774656494829151200,2.748151123046875,-0.048563748598098755,0.01740964688360691,-0.15241076052188873
1774656494845940700,2.764940673828125,-0.015577051788568497,0.02107483521103859,0.03634645417332649
1774656494862730200,2.781730224609375,-0.04001164436340332,0.04673115536570549,0.06017018109560013
1774656494879519700,2.798519775390625,-0.026572618633508682,0.04734202101826668,-0.032070402055978775
1774656494896309200,2.815309326171875,-0.010079269297420979,0.04978547990322113,0.03817904740571976
1774656494913098800,2.8320986328125,-0.02107483521103859,0.061391908675432205,-0.019853105768561363
1774656494929888300,2.84888818359375,-0.04367683082818985,0.07422006875276566,-0.06566796451807022
1774656494946677800,2.865677734375,-0.05345066636800766,0.08338304609060287,-0.022907428443431854
1774656494963467300,2.88246728515625,-0.04673115536570549,0.09193515032529831,-0.05345066636800766
1774656494980256800,2.8992568359375,-0.08399390429258347,0.11148282140493393,0.0015271619195118546
1774656494997046300,2.91604638671875,-0.07238747924566269,0.11881320178508759,0.010079269297420979
1774656495013835800,2.932835693359375,-0.05039634555578232,0.11087195575237274,0.0925460159778595
1774656495030625300,2.949625244140625,-0.07116574794054031,0.12125665694475174,0.17562362551689148
1774656495047414800,2.966414794921875,-0.06383536756038666,0.11575887352228165,0.3277289569377899
1774656495064204300,2.983204345703125,-0.06872228533029556,0.10842850059270859,0.3442223072052002
1774656495080993800,2.999993896484375,-0.061391908675432205,0.10842850059270859,0.07483093440532684
1774656495097783600,3.016783447265625,-0.05039634555578232,0.10720676928758621,-0.0461202897131443
1774656495114572800,3.03357275390625,-0.06017018109560013,0.10109812021255493,0.12736530601978302
1774656495131362600,3.050362548828125,-0.04367683082818985,0.09560033679008484,0.1597411334514618
1774656495148151800,3.06715185546875,-0.02412915788590908,0.0925460159778595,0.129197895526886
1774656495164941600,3.083941650390625,-0.018631376326084137,0.07971785217523575,0.2098320573568344
1774656495181731000,3.10073095703125,-0.02107483521103859,0.08032871782779694,0.2214384824037552
1774656495198520600,3.1175205078125,-0.003359756199643016,0.0772743970155716,0.11759147047996521
1774656495215310000,3.13431005859375,0.013133592903614044,0.06627883017063141,0.17256930470466614
1774656495232099600,3.151099609375,0.013744457624852657,0.06383536756038666,0.2929096519947052
1774656495248889000,3.16788916015625,0.0308486707508564,0.060781046748161316,0.2629773020744324
1774656495265678600,3.1846787109375,0.04428769648075104,0.048563748598098755,0.2098320573568344
1774656495282468000,3.201468017578125,0.03145953640341759,0.04550942778587341,0.18723005056381226
1774656495299257600,3.218257568359375,0.035124726593494415,0.044898562133312225,0.1493564397096634
1774656495316047000,3.235047119140625,0.02718348242342472,0.04428769648075104,0.17745621502399445
1774656495332836600,3.251836669921875,0.0204639695584774,0.047952886670827866,0.1744018942117691
1774656495349626000,3.268626220703125,0.04550942778587341,0.035124726593494415,0.13469567894935608
1774656495366415600,3.28541552734375,0.0308486707508564,0.035735588520765305,0.1340848207473755
1774656495383205000,3.302205078125,0.010079269297420979,0.04245510324835777,0.1542433500289917
1774656495399994600,3.31899462890625,0.03023780696094036,0.03634645417332649,0.16829325258731842
1774656495416784100,3.3357841796875,0.025350889191031456,0.03756818547844887,0.2678641974925995
1774656495433573600,3.35257373046875,0.004581485874950886,0.04306596517562866,0.21716243028640747
1774656495450363100,3.369363037109375,0.013133592903614044,0.03634645417332649,0.1029307171702385
1774656495467152600,3.386152587890625,0.011911863461136818,0.026572618633508682,0.11698060482740402
1774656495483942100,3.402942138671875,0.0204639695584774,0.029626941308379173,0.06200277432799339
1774656495500731600,3.419731689453125,0.016187917441129684,0.0308486707508564,0.13103049993515015
1774656495517521200,3.436521240234375,-0.03329212963581085,0.054672397673130035,0.12125665694475174
1774656495534310700,3.453310546875,-0.013744457624852657,0.04245510324835777,0.17684535682201385
1774656495551100200,3.47010009765625,0.01435532234609127,0.03023780696094036,0.07849612087011337
1774656495567889700,3.4868896484375,-0.019853105768561363,0.03695731982588768,0.07055488228797913
1774656495584679200,3.50367919921875,-0.04001164436340332,0.04245510324835777,0.05345066636800766
1774656495601468700,3.52046875,-0.035124726593494415,0.04428769648075104,-0.007024944759905338
1774656495618258400,3.537258544921875,-0.024740023538470268,0.03817904740571976,0.047952886670827866
1774656495635048000,3.5540478515625,-0.048563748598098755,0.047952886670827866,-0.0015271619195118546
1774656495651837400,3.57083740234375,-0.04734202101826668,0.04245510324835777,-0.012522728182375431
1774656495668627000,3.587626953125,-0.021685699000954628,0.028405211865901947,-0.04062250629067421
1774656495685416400,3.60441650390625,-0.012522728182375431,0.019853105768561363,-0.09498947113752365
1774656495702206000,3.6212060546875,-0.016187917441129684,0.01740964688360691,-0.17623448371887207
1774656495718995500,3.637995361328125,-0.03756818547844887,0.019853105768561363,-0.3631591200828552
1774656495735785000,3.654784912109375,-0.006414080038666725,0.005192350596189499,-0.5952877402305603
1774656495752574500,3.671574462890625,0.000305432389723137,0.0009162971982732415,-0.8396336436271667
1774656495769364000,3.688364013671875,-0.013133592903614044,0.008246674202382565,-1.0235038995742798
1774656495786153500,3.705153564453125,0.013133592903614044,-0.003359756199643016,-0.82436203956604
1774656495802943000,3.72194287109375,0.02779434807598591,-0.023518294095993042,-0.3075704276561737
1774656495819732500,3.738732421875,0.035124726593494415,-0.0412333719432354,-0.013133592903614044
1774656495836522000,3.75552197265625,0.04734202101826668,-0.032681263983249664,-0.20616686344146729
1774656495853311500,3.7723115234375,0.032681263983249664,-0.023518294095993042,-0.16279546916484833
1774656495870101000,3.78910107421875,0.02718348242342472,-0.029016077518463135,-0.1182023361325264
1774656495886890500,3.805890380859375,0.038789913058280945,-0.029016077518463135,-0.11636973917484283
1774656495903680000,3.822679931640625,0.019853105768561363,-0.012522728182375431,-0.10965022444725037
1774656495920469500,3.839469482421875,0.029016077518463135,-0.016798781231045723,-0.11026109009981155
1774656495937259000,3.856259033203125,0.01802051067352295,-0.014966187067329884,-0.0772743970155716
1774656495954048500,3.873048583984375,-0.007635809946805239,0.000305432389723137,-0.11514800786972046
1774656495970838000,3.889838134765625,0.012522728182375431,-0.007024944759905338,-0.16279546916484833
1774656495987627500,3.90662744140625,0.007024944759905338,-0.008246674202382565,-0.06383536756038666
1774656496004417000,3.9234169921875,-0.016187917441129684,0.011300998739898205,-0.09621120244264603
1774656496021206500,3.94020654296875,-0.0009162971982732415,0.005192350596189499,-0.0925460159778595
1774656496037996000,3.95699609375,-0.003359756199643016,-0.0009162971982732415,-0.06872228533029556
1774656496054785800,3.973785888671875,-0.013133592903614044,0.00946840364485979,-0.10231985151767731
1774656496071575000,3.990574951171875,-0.026572618633508682,0.022907428443431854,-0.04001164436340332
1774656496088364800,4.00736474609375,-0.025350889191031456,0.022296564653515816,-0.06017018109560013
1774656496105154300,4.024154296875,0.013133592903614044,0.007635809946805239,-0.032681263983249664
1774656496121943800,4.04094384765625,-0.022296564653515816,0.029016077518463135,-0.06383536756038666
1774656496138733300,4.0577333984375,-0.011911863461136818,0.026572618633508682,-0.04306596517562866
1774656496155522800,4.074522705078125,0.013133592903614044,0.01740964688360691,0.0009162971982732415
1774656496172312300,4.091312255859375,-0.0308486707508564,0.04062250629067421,-0.04673115536570549
1774656496189101800,4.108101806640625,-0.007635809946805239,0.02718348242342472,-0.038789913058280945
1774656496205891300,4.124891357421875,0.008857538923621178,0.016798781231045723,-0.06994401663541794
1774656496222680800,4.141680908203125,-0.008246674202382565,0.02718348242342472,-0.03817904740571976
1774656496239470300,4.15847021484375,-0.008857538923621178,0.03695731982588768,-0.01740964688360691
1774656496256259800,4.175259765625,-0.008246674202382565,0.032070402055978775,-0.029626941308379173
1774656496273049300,4.19204931640625,0.006414080038666725,0.024740023538470268,-0.03634645417332649
1774656496289838800,4.2088388671875,-0.011300998739898205,0.03756818547844887,-0.035124726593494415
1774656496306628400,4.22562841796875,-0.014966187067329884,0.03817904740571976,-0.0461202897131443
1774656496323417900,4.24241796875,0.007024944759905338,0.022907428443431854,-0.021685699000954628
1774656496340207400,4.259207275390625,0.01740964688360691,0.015577051788568497,-0.06200277432799339
1774656496356996900,4.275996826171875,0.0204639695584774,0.016187917441129684,-0.016798781231045723
1774656496373786400,4.292786376953125,-0.016798781231045723,0.03145953640341759,-0.04306596517562866
1774656496390575900,4.309575927734375,0.025961752980947495,0.008857538923621178,-0.038789913058280945
1774656496407365400,4.326365478515625,0.03817904740571976,-0.0021380267571657896,-0.024740023538470268
1774656496424155000,4.34315478515625,0.03329212963581085,0.0027488914784044027,-0.0412333719432354
1774656496440944400,4.3599443359375,0.04917461425065994,-0.0015271619195118546,0.026572618633508682
1774656496457734000,4.37673388671875,0.029016077518463135,0.004581485874950886,-0.028405211865901947
1774656496474523400,4.3935234375,0.035124726593494415,-0.0009162971982732415,0.019853105768561363
1774656496491313000,4.41031298828125,0.028405211865901947,0.004581485874950886,-0.015577051788568497
1774656496508102400,4.427102294921875,0.025961752980947495,0.003970621153712273,-0.013133592903614044
1774656496524892000,4.443891845703125,0.026572618633508682,-0.000305432389723137,-0.02412915788590908
1774656496541681400,4.460681396484375,0.01802051067352295,0.003359756199643016,-0.01802051067352295
1774656496558471000,4.477470947265625,0.018631376326084137,0.006414080038666725,0.05345066636800766
1774656496575260400,4.494260498046875,-0.0027488914784044027,0.018631376326084137,0.010079269297420979
1774656496592050000,4.5110498046875,-0.007635809946805239,0.016187917441129684,0.051618073135614395
1774656496608839400,4.52783935546875,0.000305432389723137,0.004581485874950886,-0.010690134018659592
1774656496625629000,4.54462890625,0.010079269297420979,-0.003970621153712273,-0.044898562133312225
1774656496642418400,4.56141845703125,0.011911863461136818,0.0027488914784044027,0.04978547990322113
1774656496659208000,4.5782080078125,-0.01740964688360691,0.016187917441129684,-0.004581485874950886
1774656496675997400,4.59499755859375,-0.0015271619195118546,0.013133592903614044,0.04428769648075104
1774656496692787000,4.611786865234375,-0.02779434807598591,0.013744457624852657,0.044898562133312225
1774656496709576400,4.628576416015625,-0.021685699000954628,0.014966187067329884,0.005192350596189499
1774656496726366000,4.645365966796875,0.014966187067329884,-0.007635809946805239,0.061391908675432205
1774656496743155500,4.662155517578125,0.010079269297420979,0.003359756199643016,0.019853105768561363
1774656496759945000,4.678945068359375,-0.04978547990322113,0.025961752980947495,0.05955931544303894
1774656496776734500,4.695734375,-0.026572618633508682,0.011911863461136818,0.010690134018659592
1774656496793524000,4.71252392578125,0.032070402055978775,-0.013744457624852657,0.005192350596189499
1774656496810313500,4.7293134765625,0.007635809946805239,-0.005803215317428112,0.018631376326084137
1774656496827103000,4.74610302734375,-0.016798781231045723,0.0027488914784044027,-0.0766635313630104
1774656496843892500,4.762892578125,0.018631376326084137,-0.0204639695584774,-0.09560033679008484
1774656496860682000,4.779681884765625,0.02107483521103859,-0.007635809946805239,-0.12064579129219055
1774656496877471500,4.796471435546875,-0.0009162971982732415,0.008246674202382565,-0.029626941308379173
1774656496894261000,4.813260986328125,-0.005803215317428112,0.012522728182375431,0.129197895526886
1774656496911050500,4.830050537109375,-0.004581485874950886,0.011911863461136818,-0.11148282140493393
1774656496927840000,4.846840087890625,0.06444623321294785,-0.016187917441129684,-0.08093958348035812
1774656496944629500,4.86362939453125,0.0015271619195118546,0.0015271619195118546,0.0021380267571657896
1774656496961419000,4.8804189453125,-0.007635809946805239,0.02107483521103859,-0.11636973917484283
1774656496978208800,4.897208740234375,-0.01740964688360691,0.010079269297420979,-0.09193515032529831
1774656496994998000,4.913998046875,0.032070402055978775,-0.008857538923621178,-0.2409861534833908
1774656497011787500,4.93078759765625,0.022907428443431854,0.005192350596189499,-0.12980876863002777
1774656497028577000,4.947576904296875,-0.04734202101826668,0.041844237595796585,-0.032681263983249664
1774656497045366500,4.964366455078125,-0.03451386094093323,0.035735588520765305,-0.11209368705749512
1774656497062156000,4.981156005859375,0.015577051788568497,0.0027488914784044027,-0.17745621502399445
1774656497078945500,4.997945556640625,-0.006414080038666725,0.025350889191031456,-0.1487455666065216
1774656497095735000,5.014735107421875,-0.0565049909055233,0.06200277432799339,-0.09132428467273712
1774656497112524500,5.031524658203125,-0.05711585655808449,0.05222893878817558,-0.1127045527100563
1774656497129314000,5.04831396484375,-0.025961752980947495,0.022907428443431854,-0.1902843713760376
1774656497146103600,5.065103515625,0.04734202101826668,-0.003970621153712273,-0.21166464686393738
1774656497162893000,5.08189306640625,-0.04673115536570549,0.04245510324835777,-0.12370011955499649
1774656497179682600,5.0986826171875,-0.06261363625526428,0.054672397673130035,-0.16096286475658417
1774656497196472000,5.11547216796875,0.0015271619195118546,0.0204639695584774,-0.17867794632911682
1774656497213261600,5.132261474609375,-0.003359756199643016,0.007635809946805239,-0.21960589289665222
1774656497230051000,5.149051025390625,0.019242240116000175,0.016798781231045723,-0.1945604383945465
1774656497246840600,5.165840576171875,-0.08399390429258347,0.057726722210645676,-0.16218459606170654
1774656497263630000,5.182630126953125,0.010690134018659592,0.010079269297420979,-0.24342961609363556
1774656497280419600,5.199419677734375,0.01802051067352295,-0.008857538923621178,-0.18784092366695404
1774656497297209000,5.216208984375,-0.010079269297420979,0.006414080038666725,-0.29962918162345886
1774656497313998600,5.23299853515625,0.003970621153712273,0.007024944759905338,-0.21166464686393738
1774656497330788000,5.2497880859375,-0.04001164436340332,0.01740964688360691,-0.20250166952610016
1774656497347577600,5.26657763671875,0.05833758786320686,-0.024740023538470268,-0.26358816027641296
1774656497364367000,5.2833671875,-0.006414080038666725,-0.011300998739898205,-0.20738859474658966
1774656497381156600,5.300156494140625,0.000305432389723137,-0.010079269297420979,-0.2519817352294922
1774656497397946000,5.316946044921875,0.029626941308379173,-0.026572618633508682,-0.2263254076242447
1774656497414735600,5.333735595703125,0.004581485874950886,-0.01435532234609127,-0.21777328848838806
1774656497431525000,5.350525146484375,0.01435532234609127,-0.019853105768561363,-0.2562577724456787
1774656497448314600,5.367314697265625,0.03329212963581085,-0.03329212963581085,-0.27091851830482483
1774656497465104100,5.384104248046875,0.02107483521103859,-0.029016077518463135,-0.2257145345211029
1774656497481893600,5.4008935546875,0.016187917441129684,-0.016798781231045723,-0.17623448371887207
1774656497498683100,5.41768310546875,-0.0027488914784044027,-0.007024944759905338,-0.1737910360097885
1774656497515472600,5.43447265625,0.028405211865901947,-0.029626941308379173,-0.19150610268115997
1774656497532262100,5.45126220703125,0.035735588520765305,-0.028405211865901947,-0.25870123505592346
1774656497549051600,5.4680517578125,-0.008857538923621178,-0.012522728182375431,-0.16829325258731842
1774656497565841200,5.484841064453125,0.016798781231045723,-0.0204639695584774,-0.18784092366695404
1774656497582630700,5.501630615234375,0.02779434807598591,-0.023518294095993042,-0.21471896767616272
1774656497599420200,5.518420166015625,0.023518294095993042,-0.010690134018659592,-0.17745621502399445
1774656497616209700,5.535209716796875,0.01435532234609127,0.0027488914784044027,-0.1945604383945465
1774656497632999200,5.551999267578125,0.004581485874950886,0.007024944759905338,-0.14141519367694855
1774656497649788700,5.56878857421875,0.03145953640341759,0.000305432389723137,-0.12003492563962936
1774656497666578200,5.585578125,0.006414080038666725,0.015577051788568497,-0.14630211889743805
1774656497683367700,5.60236767578125,-0.004581485874950886,0.032070402055978775,-0.12064579129219055
1774656497700157200,5.6191572265625,0.01802051067352295,0.0204639695584774,-0.10415244847536087
1774656497716946700,5.63594677734375,0.029626941308379173,0.01435532234609127,-0.08338304609060287
1774656497733736200,5.652736083984375,0.004581485874950886,0.032681263983249664,-0.07971785217523575
1774656497750525700,5.669525634765625,0.005803215317428112,0.03329212963581085,-0.06566796451807022
1774656497767315200,5.686315185546875,0.018631376326084137,0.026572618633508682,-0.0021380267571657896
1774656497784104700,5.703104736328125,0.02107483521103859,0.023518294095993042,-0.02779434807598591
1774656497800894200,5.719894287109375,0.02412915788590908,0.021685699000954628,0.008246674202382565
1774656497817683700,5.73668359375,0.00946840364485979,0.035735588520765305,0.014966187067329884
1774656497834473200,5.75347314453125,0.03756818547844887,0.032070402055978775,0.07055488228797913
1774656497851262700,5.7702626953125,0.016798781231045723,0.03756818547844887,0.06994401663541794
1774656497868052200,5.78705224609375,0.019242240116000175,0.03145953640341759,-0.005803215317428112
1774656497884841700,5.803841796875,0.041844237595796585,0.01435532234609127,-0.014966187067329884
1774656497901631200,5.82063134765625,0.029626941308379173,0.0204639695584774,0.038789913058280945
1774656497918421000,5.8374208984375,0.025350889191031456,0.021685699000954628,0.04245510324835777
1774656497935210200,5.854210205078125,0.041844237595796585,0.011911863461136818,0.06566796451807022
1774656497952000000,5.871,0.03940077871084213,0.015577051788568497,0.06444623321294785
1774656497968789500,5.88778955078125,0.048563748598098755,0.019242240116000175,0.13041962683200836
1774656497985579000,5.9045791015625,0.032681263983249664,0.02107483521103859,0.12431098520755768
1774656498002368500,5.921368408203125,0.05528326332569122,0.006414080038666725,0.1279761642217636
1774656498019158000,5.938157958984375,0.03756818547844887,0.024740023538470268,0.09621120244264603
1774656498035947500,5.954947509765625,0.032070402055978775,0.02779434807598591,0.11759147047996521
1774656498052737000,5.971737060546875,0.044898562133312225,0.015577051788568497,0.0870482325553894
1774656498069526500,5.988526611328125,0.04673115536570549,0.003970621153712273,0.10048725455999374
1774656498086316000,6.00531591796875,0.06200277432799339,-0.0015271619195118546,0.12125665694475174
1774656498103105500,6.02210546875,0.04917461425065994,0.007024944759905338,0.1945604383945465
1774656498119895000,6.03889501953125,0.09987638890743256,-0.008246674202382565,0.21899501979351044
1774656498136684500,6.0556845703125,0.21655155718326569,-0.06444623321294785,0.041844237595796585
1774656498153474000,6.07247412109375,0.07544180005788803,-0.0461202897131443,0.24404047429561615
1774656498170263600,6.089263671875,0.09010255336761475,-0.0009162971982732415,0.10965022444725037
1774656498187053000,6.106052978515625,0.10354158282279968,-0.015577051788568497,0.06750056147575378
1774656498203842600,6.122842529296875,0.09315688163042068,-0.025961752980947495,0.23915356397628784
1774656498220632000,6.139632080078125,0.008857538923621178,0.03756818547844887,0.06933315098285675
1774656498237421600,6.156421630859375,-0.02779434807598591,0.051618073135614395,0.21227550506591797
1774656498254211000,6.173211181640625,-0.000305432389723137,0.026572618633508682,0.1695149689912796
1774656498271000600,6.19000048828125,-0.003359756199643016,0.025961752980947495,0.09926552325487137
1774656498287790000,6.2067900390625,-0.0308486707508564,0.04245510324835777,0.20127993822097778
1774656498304579600,6.22357958984375,0.03634645417332649,0.023518294095993042,0.14691297709941864
1774656498321369000,6.240369140625,0.11881320178508759,-0.0204639695584774,0.08826996386051178
1774656498338158600,6.25715869140625,0.03145953640341759,0.008857538923621178,0.19394956529140472
1774656498354948000,6.273947998046875,-0.008246674202382565,0.05222893878817558,0.10109812021255493
1774656498371737600,6.290737548828125,0.023518294095993042,0.022907428443431854,0.19333870708942413
1774656498388527400,6.30752734375,0.0461202897131443,0.008857538923621178,0.1487455666065216
1774656498405316900,6.32431689453125,0.029626941308379173,0.024740023538470268,0.15668681263923645
1774656498422106400,6.3411064453125,-0.032070402055978775,0.0461202897131443,0.23915356397628784
1774656498438895900,6.357895751953125,0.03145953640341759,0.016187917441129684,0.20738859474658966
1774656498455685400,6.374685302734375,0.013133592903614044,0.01435532234609127,0.2788597643375397
1774656498472475000,6.391474853515625,-0.06750056147575378,0.05711585655808449,0.09804379940032959
1774656498489264400,6.408264404296875,-0.0308486707508564,0.03145953640341759,0.20616686344146729
1774656498506054000,6.425053955078125,-0.0027488914784044027,0.014966187067329884,0.21227550506591797
1774656498522843400,6.441843505859375,-0.03634645417332649,0.03634645417332649,0.1951712965965271
1774656498539633000,6.4586328125,-0.05222893878817558,0.0412333719432354,0.20127993822097778
1774656498556422400,6.47542236328125,-0.05894844979047775,0.0308486707508564,0.2049451321363449
1774656498573212000,6.4922119140625,-0.023518294095993042,0.022296564653515816,0.2263254076242447
1774656498590001400,6.50900146484375,-0.05222893878817558,0.03634645417332649,0.2208276242017746
1774656498606791000,6.525791015625,-0.08460476994514465,0.04734202101826668,0.24831652641296387
1774656498623580400,6.542580322265625,-0.016798781231045723,0.01802051067352295,0.21777328848838806
1774656498640370000,6.559369873046875,-0.032681263983249664,0.024740023538470268,0.2519817352294922
1774656498657159400,6.576159423828125,-0.08765909820795059,0.057726722210645676,0.2464839369058609
1774656498673949000,6.592948974609375,-0.07544180005788803,0.04428769648075104,0.23182319104671478
1774656498690738400,6.609738525390625,-0.02107483521103859,0.008857538923621178,0.12186752259731293
1774656498707528000,6.62652783203125,-0.029016077518463135,0.01740964688360691,0.19639302790164948
1774656498724317400,6.6433173828125,-0.12247838824987411,0.06261363625526428,0.17195843160152435
1774656498741107000,6.66010693359375,-0.04917461425065994,0.007635809946805239,0.11087195575237274
1774656498757896400,6.676896484375,-0.016798781231045723,-0.010079269297420979,0.07971785217523575
1774656498774686000,6.69368603515625,-0.04367683082818985,0.014966187067329884,0.0565049909055233
1774656498791475500,6.710475341796875,-0.04917461425065994,0.004581485874950886,0.2971857190132141
1774656498808265000,6.727264892578125,-0.09376774728298187,0.02412915788590908,0.29596397280693054
1774656498825054500,6.744054443359375,-0.006414080038666725,-0.019853105768561363,0.05222893878817558
1774656498841844000,6.760843994140625,0.000305432389723137,-0.03329212963581085,0.06444623321294785
1774656498858633500,6.777633544921875,-0.08277218043804169,-0.0009162971982732415,0.14508038759231567
1774656498875423000,6.794423095703125,-0.029016077518463135,-0.01435532234609127,0.011300998739898205
1774656498892212500,6.81121240234375,-0.014966187067329884,-0.035124726593494415,0.07299833744764328
1774656498909002000,6.828001953125,-0.00946840364485979,-0.03634645417332649,0.07422006875276566
1774656498925791500,6.84479150390625,-0.02107483521103859,-0.02718348242342472,0.07544180005788803
1774656498942581200,6.861581298828125,-0.024740023538470268,-0.03390299528837204,0.1389717310667038
1774656498959370500,6.87837060546875,0.012522728182375431,-0.057726722210645676,0.0974329337477684
1774656498976160300,6.89516015625,0.010690134018659592,-0.057726722210645676,0.04550942778587341
1774656498992949500,6.911949462890625,-0.006414080038666725,-0.048563748598098755,0.054672397673130035
1774656499009739300,6.9287392578125,-0.004581485874950886,-0.04917461425065994,0.025961752980947495
1774656499026528800,6.94552880859375,0.013744457624852657,-0.05955931544303894,0.035735588520765305
1774656499043318300,6.962318359375,0.003359756199643016,-0.0565049909055233,0.03390299528837204
1774656499060107800,6.979107666015625,0.005192350596189499,-0.061391908675432205,-0.022296564653515816
1774656499076897300,6.995897216796875,0.035735588520765305,-0.07849612087011337,-0.044898562133312225
1774656499093686800,7.012686767578125,0.012522728182375431,-0.06200277432799339,-0.04428769648075104
1774656499110476300,7.029476318359375,0.0021380267571657896,-0.05894844979047775,-0.007024944759905338
1774656499127265800,7.046265869140625,0.03390299528837204,-0.07971785217523575,-0.02412915788590908
1774656499144055300,7.06305517578125,0.0308486707508564,-0.07544180005788803,-0.05100720748305321
1774656499160844800,7.0798447265625,0.005192350596189499,-0.060781046748161316,-0.04734202101826668
1774656499177634300,7.09663427734375,0.018631376326084137,-0.06566796451807022,-0.04550942778587341
1774656499194423800,7.113423828125,0.0204639695584774,-0.06322450190782547,-0.06994401663541794
1774656499211213300,7.13021337890625,-0.01740964688360691,-0.032681263983249664,-0.0204639695584774
1774656499228002800,7.1470029296875,-0.018631376326084137,-0.019242240116000175,0.08093958348035812
1774656499244792300,7.163792236328125,0.003359756199643016,-0.029016077518463135,0.09560033679008484
1774656499261581800,7.180581787109375,0.018631376326084137,-0.03695731982588768,0.3039052188396454
1774656499278371300,7.197371337890625,0.011300998739898205,-0.04306596517562866,0.5897899270057678
1774656499295160800,7.214160888671875,0.0015271619195118546,-0.05589412897825241,0.35277441143989563
1774656499311950300,7.230950439453125,0.0308486707508564,-0.044898562133312225,-0.3094030022621155
1774656499328739800,7.24773974609375,0.041844237595796585,-0.05711585655808449,-0.14141519367694855
1774656499345529300,7.264529296875,0.011911863461136818,-0.05589412897825241,0.14508038759231567
1774656499362318800,7.28131884765625,0.013744457624852657,-0.02779434807598591,-0.13164135813713074
1774656499379108400,7.2981083984375,0.014966187067329884,-0.044898562133312225,-0.06933315098285675
1774656499395897900,7.31489794921875,0.04550942778587341,-0.06383536756038666,-0.06872228533029556
1774656499412687400,7.331687255859375,0.054672397673130035,-0.04917461425065994,-0.22693626582622528
1774656499429476900,7.348476806640625,0.014966187067329884,-0.022907428443431854,-0.3295615613460541
1774656499446266400,7.365266357421875,0.01802051067352295,-0.022296564653515816,-0.05589412897825241
1774656499463056000,7.382055908203125,-0.03940077871084213,0.000305432389723137,-0.022296564653515816
1774656499479845400,7.398845458984375,0.035735588520765305,-0.03817904740571976,-0.18173226714134216
1774656499496635000,7.415634765625,0.06383536756038666,-0.04734202101826668,-0.23793183267116547
1774656499513424400,7.43242431640625,-0.022296564653515816,0.005803215317428112,-0.38881543278694153
1774656499530214000,7.4492138671875,0.0015271619195118546,-0.007635809946805239,-0.12553271651268005
1774656499547003400,7.46600341796875,-0.05283980444073677,0.010079269297420979,-0.047952886670827866
1774656499563793000,7.48279296875,0.03145953640341759,-0.019853105768561363,-0.18173226714134216
1774656499580582400,7.49958251953125,0.04917461425065994,-0.03023780696094036,-0.1536324918270111
1774656499597372000,7.516371826171875,-0.04062250629067421,0.003359756199643016,-0.11698060482740402
1774656499614161400,7.533161376953125,0.01802051067352295,-0.012522728182375431,-0.1542433500289917
1774656499630951000,7.549950927734375,-0.018631376326084137,-0.000305432389723137,-0.1444695144891739
1774656499647740400,7.566740478515625,0.005803215317428112,-0.004581485874950886,-0.12553271651268005
1774656499664530000,7.583530029296875,0.022907428443431854,-0.012522728182375431,-0.19089524447917938
1774656499681319400,7.6003193359375,-0.0204639695584774,-0.007635809946805239,-0.18295399844646454
1774656499698109000,7.61710888671875,0.03695731982588768,-0.024740023538470268,-0.21166464686393738
1774656499714898400,7.6338984375,0.035735588520765305,-0.01802051067352295,-0.23487751185894012
1774656499731688000,7.65068798828125,0.008857538923621178,-0.016798781231045723,-0.2977965772151947
1774656499748477400,7.6674775390625,0.05100720748305321,-0.0308486707508564,-0.2715294063091278
1774656499765267000,7.684266845703125,-0.010690134018659592,0.00946840364485979,-0.609948456287384
1774656499782056400,7.701056396484375,0.003970621153712273,0.00946840364485979,-0.5335903763771057
1774656499798846000,7.717845947265625,0.016187917441129684,-0.023518294095993042,-0.07360920310020447
1774656499815635500,7.734635498046875,0.03634645417332649,-0.008246674202382565,-0.21410810947418213
1774656499832425000,7.751425048828125,-0.01802051067352295,0.025350889191031456,-0.27519458532333374
1774656499849214500,7.76821435546875,-0.04734202101826668,0.0308486707508564,-0.08399390429258347
1774656499866004000,7.78500390625,0.006414080038666725,0.010690134018659592,-0.2764163017272949
1774656499882793500,7.80179345703125,0.026572618633508682,0.0015271619195118546,-0.22999058663845062
1774656499899583000,7.8185830078125,-0.0821613147854805,0.05833758786320686,-0.28924447298049927
1774656499916372500,7.83537255859375,-0.028405211865901947,0.02779434807598591,-0.1945604383945465
1774656499933162200,7.852162353515625,-0.007635809946805239,0.016187917441129684,-0.20738859474658966
1774656499949951700,7.86895166015625,-0.05955931544303894,0.032681263983249664,-0.25503605604171753
1774656499966741200,7.8857412109375,-0.028405211865901947,0.022907428443431854,-0.24037529528141022
1774656499983530800,7.90253076171875,-0.054672397673130035,0.024740023538470268,-0.25503605604171753
1774656500000320300,7.9193203125,0.0027488914784044027,0.0027488914784044027,-0.16768237948417664
1774656500017109800,7.93610986328125,-0.05894844979047775,0.035735588520765305,-0.2977965772151947
1774656500033899300,7.952899169921875,-0.04306596517562866,0.025961752980947495,-0.24220788478851318
1774656500050688800,7.969688720703125,-0.011911863461136818,0.011911863461136818,-0.21655155718326569
1774656500067478300,7.986478271484375,-0.057726722210645676,0.03940077871084213,-0.22937972843647003
1774656500084267800,8.003267822265625,-0.04367683082818985,0.035124726593494415,-0.2507599890232086
1774656500101057300,8.020057373046875,-0.024740023538470268,0.0204639695584774,-0.2617555558681488
1774656500117846800,8.0368466796875,-0.029626941308379173,0.029626941308379173,-0.22754712402820587
1774656500134636300,8.05363623046875,-0.05833758786320686,0.04978547990322113,-0.2159406989812851
1774656500151425800,8.07042578125,-0.048563748598098755,0.04062250629067421,-0.21838416159152985
1774656500168215300,8.08721533203125,-0.029626941308379173,0.035124726593494415,-0.21655155718326569
1774656500185004800,8.1040048828125,-0.04245510324835777,0.04673115536570549,-0.25931209325790405
1774656500201794300,8.120794189453125,-0.05100720748305321,0.035735588520765305,-0.27397283911705017
1774656500218583800,8.137583740234374,-0.010079269297420979,0.023518294095993042,-0.14691297709941864
1774656500235373300,8.154373291015625,-0.03634645417332649,0.04062250629067421,-0.21349723637104034
1774656500252162800,8.171162841796875,-0.032681263983249664,0.04367683082818985,-0.1695149689912796
1774656500268952300,8.187952392578126,-0.05100720748305321,0.04062250629067421,-0.19394956529140472
1774656500285742000,8.2047421875,0.02107483521103859,-0.0009162971982732415,-0.17623448371887207
1774656500302531600,8.221531494140624,-0.03023780696094036,0.032070402055978775,-0.0974329337477684
1774656500319321000,8.238321044921875,-0.054672397673130035,0.03940077871084213,-0.016798781231045723
1774656500336110600,8.255110595703124,0.008857538923621178,0.003970621153712273,-0.05833758786320686
1774656500352900000,8.271900146484375,-0.014966187067329884,0.011300998739898205,-0.032070402055978775
1774656500369689600,8.288689697265625,0.0015271619195118546,0.016187917441129684,0.12614357471466064
1774656500386479000,8.30547900390625,-0.029626941308379173,0.019853105768561363,0.19700388610363007
1774656500403268600,8.3222685546875,0.011911863461136818,0.0015271619195118546,0.08888082206249237
1774656500420058000,8.33905810546875,0.010690134018659592,0.010079269297420979,-0.08093958348035812
1774656500436847600,8.35584765625,-0.021685699000954628,0.021685699000954628,0.0668896958231926
1774656500453637000,8.37263720703125,0.0027488914784044027,0.011911863461136818,0.231212317943573
1774656500470426600,8.389426513671875,0.006414080038666725,-0.0015271619195118546,0.17562362551689148
1774656500487216000,8.406216064453124,0.008857538923621178,0.012522728182375431,-0.09193515032529831
1774656500504005600,8.423005615234375,0.0021380267571657896,0.011300998739898205,0.025350889191031456
1774656500520795100,8.439795166015625,0.01802051067352295,0.005192350596189499,0.1945604383945465
1774656500537584600,8.456584716796876,0.006414080038666725,0.013133592903614044,0.09437860548496246
1774656500554374100,8.4733740234375,0.023518294095993042,0.00946840364485979,0.07971785217523575
1774656500571163600,8.49016357421875,0.011300998739898205,0.013133592903614044,0.15057817101478577
1774656500587953200,8.506953125,0.010690134018659592,0.011300998739898205,0.1805105358362198
1774656500604743000,8.523742919921874,0.011300998739898205,0.005192350596189499,0.2617555558681488
1774656500621532200,8.5405322265625,0.010079269297420979,0.005803215317428112,0.12370011955499649
1774656500638322000,8.557322021484374,0.04978547990322113,-0.010690134018659592,0.13713914155960083
1774656500655111400,8.574111328125,0.02412915788590908,-0.004581485874950886,0.19333870708942413
1774656500671901000,8.59090087890625,0.05406153202056885,-0.02412915788590908,0.09498947113752365
1774656500688690400,8.6076904296875,0.12003492563962936,-0.05345066636800766,0.19761475920677185
1774656500705480000,8.62447998046875,0.21349723637104034,-0.10476330667734146,0.00946840364485979
1774656500722269400,8.64126953125,0.06505709886550903,-0.07299833744764328,0.15241076052188873
1774656500739059000,8.658058837890625,0.11209368705749512,-0.03145953640341759,0.016798781231045723
1774656500755848400,8.674848388671874,0.0974329337477684,-0.04306596517562866,0.1182023361325264
1774656500772638000,8.691637939453125,0.07360920310020447,-0.03451386094093323,0.23548837006092072
1774656500789427500,8.708427490234374,0.013133592903614044,0.019853105768561363,0.09132428467273712
1774656500806217000,8.725217041015625,-0.01740964688360691,0.03145953640341759,0.24342961609363556
1774656500823006500,8.74200634765625,0.03329212963581085,0.003359756199643016,0.27580544352531433
1774656500839796000,8.7587958984375,-0.028405211865901947,0.023518294095993042,0.1847866028547287
1774656500856585500,8.77558544921875,-0.00946840364485979,0.010690134018659592,0.07605266571044922
1774656500873375000,8.792375,0.11759147047996521,-0.0412333719432354,0.12492185086011887
1774656500890164500,8.80916455078125,0.08949168771505356,-0.02718348242342472,0.1230892539024353
1774656500906954000,8.8259541015625,0.003970621153712273,-0.0021380267571657896,0.24220788478851318
1774656500923743500,8.842743408203125,0.03756818547844887,0.005192350596189499,0.20127993822097778
1774656500940533000,8.859532958984374,0.03390299528837204,-0.012522728182375431,0.2055560052394867
1774656500957322500,8.876322509765625,0.09315688163042068,-0.03695731982588768,0.1798996776342392
1774656500974112000,8.893112060546875,-0.022296564653515816,0.02412915788590908,0.2562577724456787
1774656500990901500,8.909901611328126,-0.013133592903614044,0.01802051067352295,0.27947062253952026
1774656501007691300,8.926691162109375,0.07116574794054031,-0.02718348242342472,0.17562362551689148
1774656501024480500,8.94348046875,-0.012522728182375431,0.007024944759905338,0.17745621502399445
1774656501041270300,8.960270263671875,-0.018631376326084137,0.019853105768561363,0.18784092366695404
1774656501058059800,8.977059814453124,-0.04734202101826668,0.018631376326084137,0.2617555558681488
1774656501074849300,8.993849365234375,0.007024944759905338,-0.006414080038666725,0.13469567894935608
1774656501091638800,9.010638671875,-0.013744457624852657,0.006414080038666725,0.23548837006092072
1774656501108428300,9.02742822265625,-0.07483093440532684,0.044898562133312225,0.17134757339954376
1774656501125217800,9.0442177734375,-0.035124726593494415,0.019853105768561363,0.22815799713134766
1774656501142007300,9.06100732421875,-0.05528326332569122,0.021685699000954628,0.13713914155960083
1774656501158796800,9.077796875,-0.032681263983249664,0.016187917441129684,0.12186752259731293
1774656501175586300,9.09458642578125,-0.09315688163042068,0.03329212963581085,0.07422006875276566
1774656501192375800,9.111375732421875,-0.054672397673130035,0.007635809946805239,-0.051618073135614395
1774656501209165300,9.128165283203124,-0.012522728182375431,-0.0015271619195118546,0.007635809946805239
1774656501225954800,9.144954833984375,-0.07116574794054031,0.008857538923621178,0.1805105358362198
1774656501242744300,9.161744384765624,-0.05345066636800766,0.008246674202382565,0.10354158282279968
1774656501259533800,9.178533935546875,-0.07544180005788803,0.013133592903614044,0.04734202101826668
1774656501276323300,9.1953232421875,-0.02412915788590908,-0.022907428443431854,0.03390299528837204
1774656501293112800,9.21211279296875,-0.016798781231045723,-0.015577051788568497,0.0015271619195118546
1774656501309902300,9.22890234375,-0.08093958348035812,0.010690134018659592,0.04001164436340332
1774656501326691800,9.24569189453125,-0.005192350596189499,-0.02412915788590908,-0.05222893878817558
1774656501343481300,9.2624814453125,-0.016187917441129684,-0.026572618633508682,-0.05528326332569122
1774656501360270800,9.279270751953124,-0.016798781231045723,-0.02412915788590908,0.02412915788590908
1774656501377060400,9.296060302734375,0.010690134018659592,-0.0308486707508564,0.09865466505289078
1774656501393849900,9.312849853515624,-0.04428769648075104,-0.022296564653515816,0.00946840364485979
1774656501410639400,9.329639404296875,0.061391908675432205,-0.06933315098285675,0.05894844979047775
1774656501427428900,9.346428955078125,0.025350889191031456,-0.05345066636800766,0.08582650125026703
1774656501444218400,9.36321826171875,-0.012522728182375431,-0.04428769648075104,-0.057726722210645676
1774656501461008000,9.3800078125,0.07238747924566269,-0.08093958348035812,0.0412333719432354
1774656501477797400,9.39679736328125,-0.0027488914784044027,-0.04917461425065994,-0.018631376326084137
1774656501494587000,9.4135869140625,0.04734202101826668,-0.06322450190782547,-0.02718348242342472
1774656501511376400,9.43037646484375,0.032070402055978775,-0.060781046748161316,0.035124726593494415
1774656501528166000,9.447165771484375,0.03390299528837204,-0.05406153202056885,0.013744457624852657
1774656501544955400,9.463955322265624,0.061391908675432205,-0.05100720748305321,0.06017018109560013
1774656501561745000,9.480744873046875,-0.01802051067352295,-0.01802051067352295,0.10231985151767731
1774656501578534400,9.497534423828125,0.06200277432799339,-0.060781046748161316,0.029016077518463135
1774656501595324000,9.514323974609376,0.1029307171702385,-0.07422006875276566,0.02779434807598591
1774656501612113400,9.531113525390625,0.008246674202382565,-0.024740023538470268,-0.01802051067352295
1774656501628903000,9.54790283203125,0.04550942778587341,-0.03695731982588768,0.013133592903614044
1774656501645692400,9.5646923828125,0.0461202897131443,-0.0461202897131443,0.013744457624852657
1774656501662482000,9.58148193359375,0.08643736690282822,-0.05100720748305321,0.023518294095993042
1774656501679271400,9.598271484375,0.03817904740571976,-0.022296564653515816,0.05283980444073677
1774656501696061000,9.61506103515625,0.01802051067352295,-0.008246674202382565,0.1383608728647232
1774656501712850400,9.631850341796875,0.07055488228797913,-0.029016077518463135,0.19150610268115997
1774656501729640000,9.648639892578124,0.07299833744764328,-0.035124726593494415,0.37171122431755066
1774656501746429400,9.665429443359375,0.08338304609060287,-0.041844237595796585,0.8164207935333252
1774656501763219000,9.682218994140625,0.05222893878817558,-0.038789913058280945,0.952643632888794
1774656501780008400,9.699008544921876,0.11514800786972046,-0.06383536756038666,0.5751292109489441
1774656501796798000,9.7157978515625,0.11087195575237274,-0.032070402055978775,-0.2159406989812851
1774656501813587700,9.732587646484374,0.0974329337477684,-0.047952886670827866,0.029626941308379173
1774656501830377000,9.749376953125,0.129197895526886,-0.06444623321294785,0.19394956529140472
1774656501847166500,9.76616650390625,0.09926552325487137,-0.02718348242342472,-0.07788526266813278
1774656501863956000,9.7829560546875,0.06933315098285675,-0.015577051788568497,0.13958260416984558
1774656501880745500,9.799745361328124,0.032681263983249664,0.005192350596189499,0.035124726593494415
1774656501897535000,9.816534912109375,0.05711585655808449,-0.008857538923621178,-0.08093958348035812
1774656501914324500,9.833324462890625,0.05222893878817558,-0.007024944759905338,-0.33017241954803467
1774656501931114000,9.850114013671876,0.00946840364485979,0.03390299528837204,-0.6423243284225464
1774656501947903700,9.86690380859375,0.004581485874950886,0.03634645417332649,-0.2733619809150696
1774656501964693000,9.88369287109375,-0.012522728182375431,0.022296564653515816,0.22327107191085815
1774656501981482500,9.900482421875,-0.012522728182375431,0.04673115536570549,-0.026572618633508682
1774656501998272300,9.917272216796874,0.008857538923621178,0.03390299528837204,-0.06750056147575378
1774656502015061500,9.9340615234375,-0.010690134018659592,0.028405211865901947,0.08338304609060287
1774656502031851300,9.950851318359375,-0.005192350596189499,0.038789913058280945,-0.05283980444073677
1774656502048640500,9.967640625,-0.008857538923621178,0.03451386094093323,0.0015271619195118546
1774656502065430300,9.98443017578125,-0.0308486707508564,0.038789913058280945,-0.02107483521103859
1774656502082219500,10.001219482421876,-0.0027488914784044027,0.032070402055978775,-0.07360920310020447
1774656502099009300,10.01800927734375,-0.013133592903614044,0.0308486707508564,-0.0717766135931015
1774656502115798500,10.034798583984376,-0.010079269297420979,0.03023780696094036,-0.06872228533029556
1774656502132588000,10.051588134765625,-0.015577051788568497,0.03329212963581085,-0.1127045527100563
1774656502149377500,10.06837744140625,0.0027488914784044027,0.026572618633508682,-0.129197895526886
1774656502166167300,10.085167236328125,-0.02412915788590908,0.038789913058280945,-0.0870482325553894
1774656502182956500,10.10195654296875,-0.019853105768561363,0.04001164436340332,-0.06566796451807022
1774656502199746000,10.11874609375,-0.013744457624852657,0.04062250629067421,-0.09926552325487137
1774656502216535600,10.13553564453125,-0.04550942778587341,0.04245510324835777,-0.2257145345211029
1774656502233325000,10.152324951171876,0.026572618633508682,0.010079269297420979,-0.272751122713089
1774656502250114600,10.169114501953125,-0.000305432389723137,0.03695731982588768,-0.5494728684425354
1774656502266904000,10.185904052734376,-0.028405211865901947,0.054672397673130035,-0.2776380479335785
1774656502283693600,10.202693603515625,-0.08277218043804169,0.051618073135614395,0.11392628401517868
1774656502300483000,10.219483154296874,-0.06933315098285675,0.0668896958231926,-0.29413139820098877
1774656502317272600,10.2362724609375,0.06750056147575378,-0.007024944759905338,-0.1957821547985077
1774656502334062000,10.25306201171875,-0.04306596517562866,0.021685699000954628,-0.168904110789299
1774656502350851600,10.2698515625,-0.06200277432799339,0.041844237595796585,-0.3344484567642212
1774656502367641000,10.28664111328125,-0.016798781231045723,0.04367683082818985,-0.3277289569377899
1774656502384430600,10.3034306640625,-0.07238747924566269,0.0412333719432354,-0.08399390429258347
1774656502401220000,10.32022021484375,-0.01740964688360691,0.025961752980947495,-0.2214384824037552
1774656502418009600,10.337009521484376,-0.041844237595796585,0.0565049909055233,-0.2831358313560486
1774656502434799000,10.353799072265625,-0.11331541836261749,0.06322450190782547,-0.1389717310667038
1774656502451588600,10.370588623046874,0.02718348242342472,0.0015271619195118546,-0.1542433500289917
1774656502468378000,10.387378173828125,-0.05711585655808449,0.05283980444073677,-0.3124573230743408
1774656502485167600,10.404167724609374,-0.12247838824987411,0.060781046748161316,-0.17318016290664673
1774656502501957000,10.42095703125,0.0009162971982732415,0.013133592903614044,-0.21716243028640747
1774656502518746600,10.43774658203125,-0.061391908675432205,0.03023780696094036,-0.18845178186893463
1774656502535536000,10.4545361328125,-0.0461202897131443,0.018631376326084137,-0.24465134739875793
1774656502552325600,10.47132568359375,-0.04734202101826668,0.013133592903614044,-0.18661919236183167
1774656502569115100,10.488115234375,-0.07788526266813278,0.014966187067329884,-0.28008151054382324
1774656502585904600,10.504904541015625,0.008857538923621178,-0.035124726593494415,-0.2367101013660431
1774656502602694100,10.521694091796874,-0.06261363625526428,0.010079269297420979,-0.2660316228866577
1774656502619483600,10.538483642578125,-0.06933315098285675,0.007635809946805239,-0.17562362551689148
1774656502636273200,10.555273193359374,-0.041844237595796585,-0.005192350596189499,-0.22327107191085815
1774656502653062700,10.572062744140625,-0.035735588520765305,-0.018631376326084137,-0.25442516803741455
1774656502669852200,10.58885205078125,-0.004581485874950886,-0.02718348242342472,-0.1805105358362198
1774656502686641700,10.6056416015625,-0.07849612087011337,0.019853105768561363,-0.2202167510986328
1774656502703431200,10.62243115234375,-0.04306596517562866,-0.008246674202382565,-0.12980876863002777
1774656502720220700,10.639220703125,-0.013744457624852657,-0.029626941308379173,-0.3124573230743408
1774656502737010200,10.65601025390625,-0.01740964688360691,-0.022907428443431854,-0.13530655205249786
1774656502753799700,10.672799560546874,-0.07299833744764328,0.006414080038666725,-0.20677772164344788
1774656502770589200,10.689589111328125,-0.03756818547844887,-0.014966187067329884,-0.08949168771505356
1774656502787378700,10.706378662109374,-0.04001164436340332,-0.005192350596189499,-0.19944734871387482
1774656502804168200,10.723168212890625,-0.016798781231045723,-0.022907428443431854,-0.129197895526886
1774656502820957700,10.739957763671875,-0.0461202897131443,0.000305432389723137,-0.11209368705749512
1774656502837747200,10.756747314453126,-0.08338304609060287,0.011911863461136818,-0.08521563559770584
1774656502854536700,10.77353662109375,0.004581485874950886,-0.022296564653515816,-0.08277218043804169
1774656502871326200,10.790326171875,-0.05039634555578232,-0.006414080038666725,-0.11942406743764877
1774656502888115700,10.80711572265625,-0.03817904740571976,-0.00946840364485979,-0.11514800786972046
1774656502904905200,10.8239052734375,-0.021685699000954628,-0.006414080038666725,-0.06383536756038666
1774656502921694700,10.84069482421875,-0.044898562133312225,0.0027488914784044027,-0.0766635313630104
1774656502938484200,10.857484130859374,0.0009162971982732415,-0.011300998739898205,-0.03817904740571976
1774656502955273500,10.8742734375,-0.05345066636800766,0.012522728182375431,-0.041844237595796585
1774656502972063200,10.891063232421875,-0.013744457624852657,-0.0021380267571657896,-0.04673115536570549
1774656502988852500,10.9078525390625,-0.022907428443431854,0.005803215317428112,0.007024944759905338
1774656503005642000,10.92464208984375,-0.03817904740571976,0.006414080038666725,-0.04306596517562866
1774656503022431500,10.941431396484376,0.019242240116000175,-0.016187917441129684,-0.10048725455999374
1774656503039221000,10.958220947265625,-0.03451386094093323,0.01435532234609127,0.003970621153712273
1774656503056010500,10.975010498046874,-0.028405211865901947,0.021685699000954628,-0.03695731982588768
1774656503072800000,10.991800048828125,-0.014966187067329884,0.008246674202382565,-0.022296564653515816
1774656503089589500,11.008589599609374,0.006414080038666725,0.003970621153712273,0.025961752980947495
1774656503106379000,11.02537890625,0.011300998739898205,0.008857538923621178,-0.004581485874950886
1774656503123168500,11.04216845703125,0.09682206809520721,-0.03695731982588768,-0.0027488914784044027
1774656503139958000,11.0589580078125,0.16157373785972595,-0.08155044913291931,-0.1536324918270111
1774656503156747500,11.07574755859375,-0.015577051788568497,-0.038789913058280945,0.13164135813713074
1774656503173537000,11.092537109375,0.09071341902017593,-0.0027488914784044027,-0.3069595396518707
1774656503190326500,11.109326416015625,-0.018631376326084137,0.000305432389723137,-0.3087921440601349
1774656503207116000,11.126115966796876,0.00946840364485979,0.003359756199643016,-0.10415244847536087
1774656503223905500,11.142905517578125,-0.011300998739898205,0.054672397673130035,-0.06017018109560013
1774656503240695000,11.159695068359374,-0.14996729791164398,0.10842850059270859,-0.03695731982588768
1774656503257484500,11.176484619140625,-0.02779434807598591,0.051618073135614395,-0.03940077871084213
1774656503274274000,11.193274169921875,-0.08155044913291931,0.06811141967773438,-0.11759147047996521
1774656503291063600,11.2100634765625,-0.07299833744764328,0.04917461425065994,-0.0021380267571657896
1774656503307853000,11.22685302734375,0.06750056147575378,0.008246674202382565,-0.06200277432799339
1774656503324642600,11.243642578125,0.00946840364485979,0.021685699000954628,-0.024740023538470268
1774656503341432000,11.26043212890625,-0.05833758786320686,0.048563748598098755,0.1328630894422531
1774656503358221600,11.2772216796875,0.0015271619195118546,0.05345066636800766,0.09437860548496246
1774656503375010800,11.2940107421875,-0.003359756199643016,0.019853105768561363,0.2257145345211029
1774656503391800600,11.310800537109374,0.022296564653515816,-0.005803215317428112,0.33200499415397644
1774656503408589800,11.32758984375,-0.04550942778587341,0.05100720748305321,0.22693626582622528
1774656503425379300,11.34437939453125,-0.02412915788590908,0.029016077518463135,0.022907428443431854
1774656503442168800,11.3611689453125,0.03390299528837204,-0.015577051788568497,0.13713914155960083
1774656503458958300,11.377958251953125,-0.019242240116000175,0.03023780696094036,0.13775001466274261
1774656503475747800,11.394747802734376,-0.0027488914784044027,0.03390299528837204,0.1701258420944214
1774656503492537300,11.411537353515625,-0.05589412897825241,0.041844237595796585,0.19333870708942413
1774656503509326800,11.428326904296876,0.032070402055978775,0.004581485874950886,0.1536324918270111
1774656503526116400,11.445116455078125,0.02779434807598591,0.00946840364485979,0.17806708812713623
1774656503542905900,11.46190576171875,-0.06017018109560013,0.0461202897131443,0.3399462401866913
1774656503559695400,11.4786953125,-0.016798781231045723,0.03145953640341759,0.19272783398628235
1774656503576484900,11.49548486328125,0.005192350596189499,0.016187917441129684,0.03451386094093323
1774656503593274400,11.5122744140625,0.013744457624852657,0.007024944759905338,0.19150610268115997
1774656503610064000,11.52906396484375,-0.02107483521103859,0.035124726593494415,0.07971785217523575
1774656503626853400,11.545853271484376,-0.015577051788568497,0.02718348242342472,0.18295399844646454
1774656503643643000,11.562642822265625,0.0204639695584774,0.010690134018659592,0.13775001466274261
1774656503660432400,11.579432373046876,0.029016077518463135,-0.004581485874950886,0.21655155718326569
1774656503677222000,11.596221923828125,0.013133592903614044,0.018631376326084137,0.18295399844646454
1774656503694011400,11.613011474609374,-0.02107483521103859,0.03756818547844887,0.34788748621940613
1774656503710801000,11.62980078125,0.03145953640341759,-0.0027488914784044027,0.3552178740501404
1774656503727590400,11.64659033203125,0.04978547990322113,0.003970621153712273,0.07483093440532684
1774656503744380000,11.6633798828125,-0.007024944759905338,0.02107483521103859,0.09682206809520721
1774656503761169400,11.68016943359375,0.03145953640341759,-0.005803215317428112,0.26358816027641296
1774656503777959000,11.696958984375,0.0308486707508564,0.007024944759905338,0.09315688163042068
1774656503794748200,11.713748046875,0.04245510324835777,-0.012522728182375431,0.29901832342147827
1774656503811538000,11.730537841796876,0.04062250629067421,-0.003359756199643016,0.17073670029640198
1774656503828327200,11.7473271484375,0.023518294095993042,-0.000305432389723137,0.19883649051189423
1774656503845116700,11.76411669921875,0.05589412897825241,-0.01740964688360691,0.2965748608112335
1774656503861906200,11.78090625,0.05955931544303894,-0.025350889191031456,0.2971857190132141
1774656503878695700,11.79769580078125,0.05100720748305321,-0.0204639695584774,0.1744018942117691
1774656503895485200,11.814485107421875,0.04917461425065994,-0.01740964688360691,0.20861032605171204
1774656503912274700,11.831274658203125,0.029016077518463135,-0.011300998739898205,0.2202167510986328
1774656503929064200,11.848064208984376,0.06322450190782547,-0.032070402055978775,0.15241076052188873
1774656503945853700,11.864853759765625,0.06994401663541794,-0.03329212963581085,0.189673513174057
1774656503962643200,11.881643310546876,0.041844237595796585,-0.018631376326084137,0.2055560052394867
1774656503979432700,11.8984326171875,0.0412333719432354,-0.003970621153712273,0.16218459606170654
1774656503996222200,11.91522216796875,-0.0021380267571657896,0.0021380267571657896,0.1597411334514618
1774656504013011700,11.93201171875,0.08093958348035812,-0.03329212963581085,0.18112140893936157
1774656504029801200,11.94880126953125,0.03756818547844887,0.0009162971982732415,0.17562362551689148
1774656504046590700,11.9655908203125,-0.029016077518463135,0.035735588520765305,0.20922118425369263
1774656504063380200,11.982380126953124,0.00946840364485979,0.019242240116000175,0.2971857190132141
1774656504080169700,11.999169677734375,-0.02107483521103859,0.03390299528837204,0.20738859474658966
1774656504096959200,12.015959228515625,0.018631376326084137,0.016798781231045723,0.34055712819099426
1774656504113748700,12.032748779296876,-0.029016077518463135,0.03329212963581085,0.3637699782848358
1774656504130538200,12.049538330078125,0.015577051788568497,-0.003359756199643016,0.5763509273529053
1774656504147327700,12.06632763671875,0.0717766135931015,-0.032070402055978775,0.5097666382789612
1774656504164117200,12.0831171875,-0.003359756199643016,0.00946840364485979,0.1487455666065216
1774656504180906500,12.099906494140624,0.0204639695584774,-0.004581485874950886,0.18234314024448395
1774656504197696000,12.116696044921875,0.01802051067352295,-0.018631376326084137,0.22937972843647003
1774656504214485500,12.133485595703124,0.0565049909055233,-0.01802051067352295,0.038789913058280945
1774656504231275000,12.15027490234375,0.061391908675432205,-0.0308486707508564,0.31612253189086914
1774656504248064500,12.167064453125,0.0027488914784044027,0.005803215317428112,0.13530655205249786
1774656504264854000,12.18385400390625,0.038789913058280945,-0.011300998739898205,0.17134757339954376
1774656504281643500,12.2006435546875,0.013133592903614044,-0.00946840364485979,0.0772743970155716
1774656504298433000,12.21743310546875,0.029626941308379173,-0.004581485874950886,-0.08765909820795059
1774656504315222500,12.234222412109375,-0.013744457624852657,0.016187917441129684,-0.18600831925868988
1774656504332012000,12.251011962890624,-0.023518294095993042,0.008246674202382565,-0.2153298407793045
1774656504348801500,12.267801513671875,0.03756818547844887,-0.02107483521103859,-0.14996729791164398
1774656504365591000,12.284591064453124,0.008857538923621178,-0.004581485874950886,0.005192350596189499
1774656504382380500,12.301380615234375,-0.014966187067329884,0.004581485874950886,0.189673513174057
1774656504399170000,12.318170166015625,-0.016798781231045723,0.005192350596189499,0.12614357471466064
1774656504415959600,12.33495947265625,0.003359756199643016,-0.004581485874950886,0.051618073135614395
1774656504432749000,12.3517490234375,0.010690134018659592,-0.013744457624852657,0.08826996386051178
1774656504449538600,12.36853857421875,-0.02412915788590908,0.005803215317428112,0.05100720748305321
1774656504466328000,12.385328125,0.004581485874950886,-0.011300998739898205,0.0717766135931015
1774656504483117600,12.40211767578125,-0.0027488914784044027,-0.011300998739898205,0.038789913058280945
1774656504499906800,12.41890673828125,-0.012522728182375431,-0.003970621153712273,0.04978547990322113
1774656504516696600,12.435696533203124,-0.008857538923621178,-0.0015271619195118546,0.06505709886550903
1774656504533485800,12.45248583984375,-0.029016077518463135,0.0027488914784044027,0.03756818547844887
1774656504550275300,12.469275390625,-0.026572618633508682,-0.015577051788568497,-0.04062250629067421
1774656504567064800,12.48606494140625,0.025350889191031456,-0.04367683082818985,-0.13164135813713074
1774656504583854300,12.502854248046875,0.0021380267571657896,-0.013133592903614044,-0.5702422857284546
1774656504600643800,12.519643798828126,-0.02718348242342472,0.003970621153712273,-0.8530726432800293
1774656504617433300,12.536433349609375,-0.026572618633508682,-0.008857538923621178,-0.3643808364868164
1774656504634222800,12.553222900390624,-0.0772743970155716,-0.006414080038666725,-0.03390299528837204
1774656504651012400,12.570012451171875,0.016798781231045723,-0.032070402055978775,-0.006414080038666725
1774656504667801900,12.5868017578125,-0.016798781231045723,-0.022296564653515816,-0.09376774728298187
1774656504684591400,12.60359130859375,-0.06017018109560013,-0.010690134018659592,-0.01740964688360691
1774656504701380900,12.620380859375,-0.016187917441129684,-0.0308486707508564,-0.016187917441129684
1774656504718170400,12.63717041015625,-0.028405211865901947,-0.02779434807598591,-0.08888082206249237
1774656504734959900,12.6539599609375,-0.024740023538470268,-0.029626941308379173,-0.05406153202056885
1774656504751749400,12.670749267578126,-0.06627883017063141,-0.019853105768561363,-0.05955931544303894
1774656504768539000,12.687538818359375,-0.03145953640341759,-0.024740023538470268,-0.0870482325553894
1774656504785328400,12.704328369140624,-0.013133592903614044,-0.02107483521103859,-0.029626941308379173
1774656504802117600,12.72111767578125,-0.12125665694475174,0.007635809946805239,-0.06505709886550903
1774656504818907100,12.7379072265625,-0.013744457624852657,-0.041844237595796585,-0.09926552325487137
1774656504835696600,12.754696533203125,-0.010690134018659592,-0.026572618633508682,-0.09804379940032959
1774656504852486100,12.771486083984374,-0.11026109009981155,0.01802051067352295,-0.10231985151767731
1774656504869275600,12.788275634765625,-0.05528326332569122,-0.013744457624852657,-0.03145953640341759
1774656504886065200,12.805065185546875,-0.04367683082818985,-0.013133592903614044,-0.11698060482740402
1774656504902854700,12.821854736328126,-0.029016077518463135,-0.0204639695584774,-0.05589412897825241
1774656504919644200,12.83864404296875,-0.08399390429258347,0.014966187067329884,-0.17806708812713623
1774656504936433700,12.85543359375,-0.09621120244264603,0.016798781231045723,-0.09621120244264603
1774656504953223200,12.87222314453125,-0.02779434807598591,-0.004581485874950886,-0.07910698652267456
1774656504970012700,12.8890126953125,-0.06811141967773438,0.01435532234609127,-0.1340848207473755
1774656504986802200,12.90580224609375,-0.0821613147854805,0.01802051067352295,-0.07055488228797913
1774656505003591700,12.922591796875,-0.06383536756038666,0.007635809946805239,-0.20372340083122253
1774656505020381200,12.939381103515625,-0.011911863461136818,-0.021685699000954628,-0.19150610268115997
1774656505037170700,12.956170654296875,-0.06261363625526428,0.014966187067329884,-0.21838416159152985
1774656505053960200,12.972960205078126,-0.0717766135931015,0.0308486707508564,-0.22754712402820587
1774656505070749700,12.989749755859375,-0.06872228533029556,0.0204639695584774,-0.19883649051189423
1774656505087539000,13.0065390625,-0.038789913058280945,0.012522728182375431,-0.2684750556945801
1774656505104328400,13.023328369140625,-0.04428769648075104,0.03023780696094036,-0.1493564397096634
1774656505121118000,13.040117919921874,-0.09987638890743256,0.05589412897825241,-0.1737910360097885
1774656505137907500,13.056907470703125,-0.04978547990322113,0.03145953640341759,-0.17867794632911682
1774656505154697000,13.073697021484374,-0.05039634555578232,0.029626941308379173,-0.2049451321363449
1774656505171486500,13.090486572265625,-0.024740023538470268,0.022296564653515816,-0.21471896767616272
1774656505188276000,13.10727587890625,-0.06627883017063141,0.04673115536570549,-0.17256930470466614
1774656505205065500,13.1240654296875,-0.035124726593494415,0.029016077518463135,-0.18356487154960632
1774656505221855000,13.14085498046875,-0.003359756199643016,0.01435532234609127,-0.2684750556945801
1774656505238644500,13.15764453125,-0.041844237595796585,0.024740023538470268,-0.15546508133411407
1774656505255434000,13.17443408203125,-0.016798781231045723,0.016798781231045723,-0.2611446976661682
1774656505272223500,13.191223388671874,-0.015577051788568497,0.012522728182375431,-0.24953825771808624
1774656505289013000,13.208012939453125,-0.014966187067329884,0.012522728182375431,-0.3039052188396454
1774656505305802500,13.224802490234374,-0.003970621153712273,0.023518294095993042,-0.2409861534833908
1774656505322592000,13.241592041015625,-0.02412915788590908,0.0308486707508564,-0.15057817101478577
1774656505339381500,13.258381591796875,0.0308486707508564,0.004581485874950886,-0.27458372712135315
1774656505356171000,13.2751708984375,0.008246674202382565,0.012522728182375431,-0.2257145345211029
1774656505372960300,13.291960205078125,-0.004581485874950886,0.02412915788590908,-0.25503605604171753
1774656505389750000,13.30875,0.013133592903614044,0.016187917441129684,-0.20250166952610016
1774656505406539300,13.325539306640625,0.00946840364485979,0.007635809946805239,-0.23304490745067596
1774656505423328800,13.342328857421874,0.05589412897825241,-0.010690134018659592,-0.23365578055381775
1774656505440118300,13.3591181640625,0.011300998739898205,0.008246674202382565,-0.22693626582622528
1774656505456907800,13.37590771484375,0.03756818547844887,0.005803215317428112,-0.10354158282279968
1774656505473697300,13.392697265625,0.19089524447917938,-0.08032871782779694,-0.09560033679008484
1774656505490486800,13.40948681640625,0.16279546916484833,-0.10231985151767731,-0.31551164388656616
1774656505507276300,13.4262763671875,0.03329212963581085,-0.03756818547844887,-0.09132428467273712
1774656505524065800,13.443065673828125,0.09865466505289078,-0.021685699000954628,-0.38698282837867737
1774656505540855300,13.459855224609376,0.015577051788568497,-0.0461202897131443,0.041844237595796585
1774656505557644800,13.476644775390625,0.0461202897131443,-0.0021380267571657896,-0.061391908675432205
1774656505574434300,13.493434326171876,-0.05833758786320686,0.05589412897825241,-0.08826996386051178
1774656505591223800,13.510223876953125,-0.04306596517562866,0.03390299528837204,0.17684535682201385
1774656505608013300,13.527013427734374,0.00946840364485979,-0.005192350596189499,0.3704894781112671
1774656505624802800,13.543802734375,-0.044898562133312225,-0.0015271619195118546,0.4621191918849945
1774656505641592000,13.560592041015624,0.02779434807598591,-0.019853105768561363,0.0461202897131443
1774656505658381800,13.5773818359375,0.10842850059270859,-0.026572618633508682,-0.3546070158481598
1774656505675171000,13.594171142578125,-0.022296564653515816,-0.01802051067352295,-0.0009162971982732415
1774656505691960600,13.610960693359376,-0.016187917441129684,0.010690134018659592,-0.04306596517562866
1774656505708750000,13.62775,0.05528326332569122,-0.01435532234609127,0.01435532234609127
1774656505725539600,13.64453955078125,0.012522728182375431,-0.028405211865901947,0.1389717310667038
1774656505742329000,13.6613291015625,0.010690134018659592,0.0027488914784044027,0.02412915788590908
1774656505759118600,13.67811865234375,0.013133592903614044,0.004581485874950886,0.32528549432754517
1774656505775908000,13.694908203125,0.021685699000954628,-0.029016077518463135,0.8084795475006104
1774656505792697600,13.711697509765624,0.01435532234609127,-0.021685699000954628,0.6221657991409302
1774656505809487000,13.728487060546875,0.003970621153712273,0.014966187067329884,0.10476330667734146
1774656505826276600,13.745276611328125,-0.025961752980947495,0.023518294095993042,0.05222893878817558
1774656505843066000,13.762066162109376,0.014966187067329884,-0.013744457624852657,0.3271180987358093
1774656505859855600,13.778855712890625,-0.02107483521103859,0.013744457624852657,0.10598503798246384
1774656505876645000,13.79564501953125,-0.035735588520765305,0.01740964688360691,-0.03145953640341759
1774656505893434600,13.8124345703125,-0.010690134018659592,0.0021380267571657896,0.0308486707508564
1774656505910224100,13.82922412109375,-0.021685699000954628,0.013133592903614044,0.1340848207473755
1774656505927013600,13.846013671875,-0.012522728182375431,0.013133592903614044,0.19150610268115997
1774656505943803100,13.86280322265625,-0.0204639695584774,0.015577051788568497,0.24281874299049377
1774656505960592400,13.87959228515625,-0.05100720748305321,0.025961752980947495,0.20861032605171204
1774656505977382100,13.896382080078125,0.015577051788568497,-0.008246674202382565,0.0870482325553894
1774656505994171400,13.91317138671875,-0.011911863461136818,0.0021380267571657896,0.12247838824987411
1774656506010961000,13.9299609375,-0.03756818547844887,0.0204639695584774,0.2006690800189972
1774656506027750400,13.94675048828125,0.003359756199643016,0.0027488914784044027,0.14080433547496796
1774656506044540000,13.963539794921875,-0.01802051067352295,-0.0015271619195118546,0.1389717310667038
1774656506061329400,13.980329345703124,0.026572618633508682,-0.013744457624852657,0.1279761642217636
1774656506078119000,13.997118896484375,-0.005803215317428112,0.0015271619195118546,0.19883649051189423
1774656506094908400,14.013908447265624,-0.007635809946805239,0.003359756199643016,0.27580544352531433
1774656506111698000,14.030697998046875,0.016798781231045723,-0.018631376326084137,0.2049451321363449
1774656506128487400,14.0474873046875,0.03695731982588768,-0.03023780696094036,0.06383536756038666
1774656506145277000,14.06427685546875,0.04306596517562866,-0.029626941308379173,0.20799945294857025
1774656506162066400,14.08106640625,0.016798781231045723,-0.01435532234609127,0.15118902921676636
1774656506178856000,14.09785595703125,0.04428769648075104,-0.02718348242342472,0.18112140893936157
1774656506195645400,14.1146455078125,0.04367683082818985,-0.03329212963581085,0.21349723637104034
1774656506212435000,14.13143505859375,0.05894844979047775,-0.03634645417332649,0.16035200655460358
1774656506229224400,14.148224365234375,0.06444623321294785,-0.03817904740571976,0.1847866028547287
1774656506246014000,14.165013916015624,0.0565049909055233,-0.035124726593494415,0.16340632736682892
1774656506262803500,14.181803466796875,0.06261363625526428,-0.03817904740571976,0.16829325258731842
1774656506279592700,14.1985927734375,0.060781046748161316,-0.03634645417332649,0.12675444781780243
1774656506296382500,14.215382568359376,0.07116574794054031,-0.03451386094093323,0.1438586562871933
1774656506313171700,14.232171630859375,0.05833758786320686,-0.03145953640341759,0.1432477980852127
1774656506329961200,14.248961181640626,0.08399390429258347,-0.0412333719432354,0.14080433547496796
1774656506346750700,14.265750732421875,0.05711585655808449,-0.032070402055978775,0.07605266571044922
1774656506363540200,14.282540283203126,0.0821613147854805,-0.04245510324835777,0.08582650125026703
1774656506380329700,14.299329833984375,0.06444623321294785,-0.02718348242342472,0.12370011955499649
1774656506397119200,14.316119140625,0.03451386094093323,-0.01802051067352295,0.06383536756038666
1774656506413908700,14.33290869140625,0.08399390429258347,-0.04428769648075104,0.015577051788568497
1774656506430698200,14.3496982421875,0.061391908675432205,-0.03695731982588768,-0.0461202897131443
1774656506447487700,14.36648779296875,0.05955931544303894,-0.03329212963581085,-0.15607595443725586
1774656506464277200,14.38327734375,0.03634645417332649,-0.00946840364485979,-0.0821613147854805
1774656506481066800,14.400066650390626,-0.008857538923621178,0.010690134018659592,0.17318016290664673
1774656506497856300,14.416856201171875,0.035735588520765305,-0.010690134018659592,0.07360920310020447
1774656506514645800,14.433645751953126,0.06322450190782547,-0.019242240116000175,0.06627883017063141
1774656506531435300,14.450435302734375,-0.007635809946805239,0.005192350596189499,0.1230892539024353
1774656506548224800,14.467224853515624,0.0308486707508564,-0.019853105768561363,0.2055560052394867
1774656506565014300,14.48401416015625,0.011300998739898205,-0.008857538923621178,0.12431098520755768
1774656506581803800,14.5008037109375,0.01435532234609127,-0.007635809946805239,0.17867794632911682
1774656506598593300,14.51759326171875,0.0204639695584774,-0.019242240116000175,0.0870482325553894
1774656506615382800,14.5343828125,0.01435532234609127,-0.022907428443431854,0.054672397673130035
1774656506632172300,14.55117236328125,0.05894844979047775,-0.03756818547844887,0.06566796451807022
1774656506648961500,14.56796142578125,0.044898562133312225,-0.04245510324835777,0.03023780696094036
1774656506665751000,14.5847509765625,0.05222893878817558,-0.03634645417332649,0.02412915788590908
1774656506682540500,14.60154052734375,0.0021380267571657896,-0.00946840364485979,0.10170898586511612
1774656506699330000,14.618330078125,-0.021685699000954628,-0.000305432389723137,0.06994401663541794
1774656506716119600,14.63511962890625,0.0412333719432354,-0.03023780696094036,-0.06017018109560013
1774656506732909000,14.651908935546874,0.006414080038666725,-0.01740964688360691,-0.1542433500289917
1774656506749698600,14.668698486328125,-0.021685699000954628,0.01435532234609127,-0.3338375985622406
1774656506766488000,14.685488037109375,-0.004581485874950886,0.005192350596189499,-0.06383536756038666
1774656506783277600,14.702277587890626,-0.05711585655808449,0.005192350596189499,0.08277218043804169
1774656506800067000,14.719067138671875,0.032070402055978775,-0.016798781231045723,-0.010079269297420979
1774656506816856600,14.735856689453126,0.003359756199643016,-0.0021380267571657896,-0.032681263983249664
1774656506833646000,14.75264599609375,-0.06383536756038666,0.016798781231045723,0.019853105768561363
1774656506850435600,14.769435546875,-0.011911863461136818,0.0021380267571657896,0.016187917441129684
1774656506867225000,14.78622509765625,-0.03451386094093323,0.012522728182375431,-0.0766635313630104
1774656506884014600,14.8030146484375,-0.011911863461136818,-0.006414080038666725,0.008246674202382565
1774656506900804000,14.81980419921875,-0.022296564653515816,0.011911863461136818,-0.051618073135614395
1774656506917593600,14.836593505859375,-0.054672397673130035,0.022296564653515816,-0.025961752980947495
1774656506934383000,14.853383056640626,-0.00946840364485979,-0.0015271619195118546,-0.04245510324835777
1774656506951172600,14.870172607421875,-0.022907428443431854,0.011911863461136818,-0.028405211865901947
1774656506967962000,14.886962158203126,-0.054672397673130035,0.016187917441129684,-0.04978547990322113
1774656506984751600,14.903751708984375,0.014966187067329884,-0.019242240116000175,-0.07971785217523575
1774656507001540900,14.920540771484376,-0.019853105768561363,-0.008246674202382565,-0.24281874299049377
1774656507018330600,14.93733056640625,-0.032681263983249664,0.013744457624852657,-0.6435460448265076
1774656507035119900,14.954119873046874,-0.025350889191031456,0.01435532234609127,-0.78648841381073
1774656507051909400,14.970909423828125,-0.04062250629067421,0.011300998739898205,-0.3124573230743408
1774656507068699000,14.987698974609375,-0.04550942778587341,-0.00946840364485979,-0.07238747924566269
1774656507085488400,15.00448828125,0.012522728182375431,-0.02107483521103859,-0.16584978997707367
1774656507102278100,15.021278076171875,-0.01435532234609127,0.0015271619195118546,-0.14508038759231567
1774656507119067400,15.0380673828125,-0.03817904740571976,0.008857538923621178,-0.024740023538470268
1774656507135857000,15.05485693359375,-0.044898562133312225,0.007635809946805239,-0.03756818547844887
1774656507152646400,15.071646484375,-0.0204639695584774,-0.0015271619195118546,-0.18723005056381226
1774656507169436000,15.088435791015625,0.01435532234609127,-0.03329212963581085,-0.08399390429258347
1774656507186225400,15.105225341796874,-0.03329212963581085,-0.0009162971982732415,-0.20433427393436432
1774656507203015000,15.122014892578125,-0.021685699000954628,-0.0027488914784044027,-0.047952886670827866
1774656507219804400,15.138804443359374,-0.03695731982588768,-0.003359756199643016,-0.15241076052188873
1774656507236594000,15.155593994140625,0.005803215317428112,-0.028405211865901947,-0.22327107191085815
1774656507253383400,15.172383544921875,-0.012522728182375431,-0.007024944759905338,-0.05528326332569122
1774656507270173000,15.1891728515625,-0.07422006875276566,0.01740964688360691,-0.1230892539024353
1774656507286962400,15.20596240234375,0.003970621153712273,-0.023518294095993042,-0.0870482325553894
1774656507303752000,15.222751953125,-0.03390299528837204,-0.008857538923621178,-0.18845178186893463
1774656507320541400,15.23954150390625,-0.008857538923621178,-0.011300998739898205,-0.13591741025447845
1774656507337331000,15.2563310546875,-0.048563748598098755,0.019242240116000175,-0.07483093440532684
1774656507354120400,15.273120361328125,-0.06566796451807022,0.016798781231045723,-0.07544180005788803
1774656507370910000,15.289909912109374,0.010690134018659592,-0.019242240116000175,-0.1750127524137497
1774656507387699500,15.306699462890625,-0.038789913058280945,-0.0015271619195118546,-0.20372340083122253
1774656507404489000,15.323489013671875,-0.03756818547844887,0.014966187067329884,-0.09071341902017593
1774656507421278500,15.340278564453126,-0.04673115536570549,0.032070402055978775,-0.15546508133411407
1774656507438068000,15.35706787109375,-0.03940077871084213,-0.0009162971982732415,-0.1493564397096634
1774656507454857500,15.373857421875,0.008857538923621178,-0.007024944759905338,-0.23365578055381775
1774656507471647000,15.39064697265625,-0.05589412897825241,0.032070402055978775,-0.13775001466274261
1774656507488436700,15.407436767578124,-0.029626941308379173,0.0204639695584774,-0.1230892539024353
1774656507505226200,15.424226318359375,-0.025961752980947495,0.01740964688360691,-0.17256930470466614
1774656507522015700,15.441015625,-0.01802051067352295,0.006414080038666725,-0.1597411334514618
1774656507538805200,15.45780517578125,0.005803215317428112,0.011300998739898205,-0.21471896767616272
1774656507555594800,15.4745947265625,-0.06383536756038666,0.05039634555578232,-0.1847866028547287
1774656507572384300,15.49138427734375,-0.02779434807598591,0.03634645417332649,-0.1798996776342392
1774656507589173800,15.508173828125,0.014966187067329884,0.008246674202382565,-0.16829325258731842
1774656507605963300,15.52496337890625,-0.035124726593494415,0.0412333719432354,-0.18295399844646454
1774656507622752800,15.541752685546875,-0.014966187067329884,0.032070402055978775,-0.1493564397096634
1774656507639542300,15.558542236328124,-0.004581485874950886,0.03145953640341759,-0.16768237948417664
1774656507656331800,15.575331787109375,-0.03329212963581085,0.048563748598098755,-0.10598503798246384
1774656507673121300,15.592121337890624,0.011911863461136818,0.0412333719432354,-0.023518294095993042
1774656507689910800,15.608910888671875,-0.0412333719432354,0.06200277432799339,-0.04245510324835777
1774656507706700300,15.6257001953125,0.011911863461136818,0.028405211865901947,0.05100720748305321
1774656507723489800,15.64248974609375,0.025350889191031456,0.032070402055978775,-0.019242240116000175
1774656507740279300,15.659279296875,-0.022296564653515816,0.051618073135614395,-0.03695731982588768
1774656507757068800,15.67606884765625,0.03023780696094036,0.023518294095993042,0.1536324918270111
1774656507773858300,15.6928583984375,0.0015271619195118546,0.03756818547844887,0.1701258420944214
1774656507790647800,15.709647705078124,0.012522728182375431,0.04245510324835777,0.013744457624852657
1774656507807437300,15.726437255859375,0.016798781231045723,0.04001164436340332,0.011300998739898205
1774656507824226800,15.743226806640624,0.0015271619195118546,0.029626941308379173,0.022907428443431854
1774656507841016300,15.760016357421875,0.06627883017063141,0.007024944759905338,0.010690134018659592
1774656507857805800,15.776805908203125,0.007635809946805239,0.035124726593494415,0.013744457624852657
1774656507874595300,15.79359521484375,0.01740964688360691,0.02412915788590908,0.04734202101826668
1774656507891384800,15.810384765625,0.1340848207473755,-0.02779434807598591,0.035735588520765305
1774656507908174300,15.82717431640625,0.23243404924869537,-0.08399390429258347,-0.08155044913291931
1774656507924963800,15.8439638671875,-0.004581485874950886,-0.048563748598098755,0.2464839369058609
1774656507941753600,15.860753662109374,0.12370011955499649,0.0009162971982732415,-0.2562577724456787
1774656507958542800,15.87754296875,0.035735588520765305,-0.000305432389723137,-0.057726722210645676
1774656507975332600,15.89433251953125,0.025961752980947495,-0.025350889191031456,0.32100942730903625
1774656507992121900,15.911121826171875,0.04550942778587341,0.05406153202056885,-0.2525925934314728
1774656508008911600,15.92791162109375,-0.1340848207473755,0.08949168771505356,0.19272783398628235
1774656508025701000,15.944701171875,-0.00946840364485979,0.035124726593494415,0.11698060482740402
1774656508042490600,15.96149072265625,0.0027488914784044027,0.03634645417332649,-0.07055488228797913
1774656508059280100,15.978280029296876,-0.11636973917484283,0.061391908675432205,0.06200277432799339
1774656508076069600,15.995069580078125,-0.0027488914784044027,0.016187917441129684,-0.02779434807598591
1774656508092859100,16.011859130859374,0.06811141967773438,0.0027488914784044027,-0.0668896958231926
1774656508109648600,16.028648681640625,-0.005192350596189499,0.019242240116000175,0.016187917441129684
1774656508126438100,16.045438232421876,-0.025961752980947495,0.029016077518463135,0.10965022444725037
1774656508143227600,16.0622275390625,-0.019242240116000175,0.04550942778587341,-0.015577051788568497
1774656508160017200,16.07901708984375,0.0021380267571657896,0.022296564653515816,0.11575887352228165
1774656508176806700,16.095806640625,0.007024944759905338,0.015577051788568497,0.10720676928758621
1774656508193596200,16.11259619140625,-0.0412333719432354,0.05222893878817558,0.10842850059270859
1774656508210385700,16.1293857421875,-0.026572618633508682,0.03451386094093323,0.2782489061355591
1774656508227175200,16.146175048828123,0.0027488914784044027,0.011300998739898205,0.06444623321294785
1774656508243964700,16.162964599609374,-0.008246674202382565,0.035124726593494415,0.007024944759905338
1774656508260754200,16.179754150390625,-0.0565049909055233,0.054672397673130035,0.1951712965965271
1774656508277543700,16.196543701171876,-0.04978547990322113,0.05283980444073677,0.1805105358362198
1774656508294333200,16.213333251953124,0.008246674202382565,0.019853105768561363,0.14813470840454102
1774656508311122700,16.230122802734375,-0.01802051067352295,0.032681263983249664,0.17073670029640198
1774656508327912200,16.246912109375,-0.05039634555578232,0.05100720748305321,0.14752385020256042
1774656508344701700,16.26370166015625,-0.022296564653515816,0.02779434807598591,0.12553271651268005
1774656508361491500,16.280491455078124,-0.0021380267571657896,0.01802051067352295,0.12125665694475174
1774656508378280700,16.29728076171875,0.000305432389723137,0.013744457624852657,0.1536324918270111
1774656508395070500,16.314070556640626,-0.01740964688360691,0.026572618633508682,0.07971785217523575
1774656508411860000,16.33085986328125,-0.018631376326084137,0.014966187067329884,0.11636973917484283
1774656508428649500,16.3476494140625,0.028405211865901947,-0.0027488914784044027,0.13041962683200836
1774656508445439000,16.36443896484375,0.016187917441129684,-0.0021380267571657896,0.11759147047996521
1774656508462228500,16.381228515625,0.016187917441129684,-0.005803215317428112,0.06383536756038666
1774656508479018000,16.39801806640625,0.005192350596189499,0.0021380267571657896,0.08338304609060287
1774656508495807500,16.414807373046877,0.015577051788568497,-0.018631376326084137,-0.011300998739898205
1774656508512597000,16.431596923828124,0.06933315098285675,-0.04978547990322113,-0.22388194501399994
1774656508529386500,16.448386474609375,0.02718348242342472,-0.011300998739898205,-0.2971857190132141
1774656508546176000,16.465176025390626,0.01740964688360691,-0.015577051788568497,-0.07849612087011337
1774656508562965500,16.481965576171874,0.054672397673130035,-0.03756818547844887,0.07971785217523575
1774656508579755000,16.498755126953125,0.0412333719432354,-0.018631376326084137,0.05406153202056885
1774656508596544500,16.51554443359375,0.06261363625526428,-0.03329212963581085,0.0412333719432354
1774656508613334000,16.532333984375,0.04245510324835777,-0.021685699000954628,0.003970621153712273
1774656508630123500,16.54912353515625,0.02412915788590908,-0.018631376326084137,0.016187917441129684
1774656508646913000,16.5659130859375,0.08888082206249237,-0.04550942778587341,-0.04917461425065994
1774656508663702500,16.58270263671875,0.03817904740571976,-0.022296564653515816,-0.003359756199643016
1774656508680492000,16.599491943359375,0.032681263983249664,-0.014966187067329884,-0.022296564653515816
1774656508697281500,16.616281494140626,0.04550942778587341,-0.019853105768561363,-0.04673115536570549
1774656508714071300,16.6330712890625,0.02107483521103859,-0.015577051788568497,0.00946840364485979
1774656508730860800,16.64986083984375,0.057726722210645676,-0.021685699000954628,-0.04001164436340332
1774656508747650300,16.666650390625,0.016798781231045723,-0.0015271619195118546,-0.008246674202382565
1774656508764439800,16.683439697265626,0.011911863461136818,-0.005803215317428112,-0.007024944759905338
1774656508781229300,16.700229248046874,0.04428769648075104,-0.01802051067352295,-0.038789913058280945
1774656508798018800,16.717018798828125,0.0027488914784044027,0.007024944759905338,-0.008246674202382565
1774656508814808300,16.733808349609376,0.008246674202382565,0.00946840364485979,-0.025961752980947495
1774656508831597800,16.750597900390623,0.004581485874950886,0.008246674202382565,-0.01435532234609127
1774656508848387300,16.76738720703125,0.019242240116000175,-0.0027488914784044027,-0.06566796451807022
1774656508865176800,16.7841767578125,0.01740964688360691,0.0021380267571657896,-0.03390299528837204
1774656508881966300,16.80096630859375,-0.015577051788568497,0.026572618633508682,-0.005803215317428112
1774656508898755800,16.817755859375,-0.015577051788568497,0.03817904740571976,-0.035124726593494415
1774656508915545300,16.83454541015625,-0.012522728182375431,0.0308486707508564,0.013744457624852657
1774656508932334800,16.8513349609375,0.013744457624852657,0.029016077518463135,-0.0015271619195118546
1774656508949124400,16.868124267578125,-0.029016077518463135,0.044898562133312225,-0.01435532234609127
1774656508965913900,16.884913818359376,-0.007024944759905338,0.03940077871084213,0.02779434807598591
1774656508982703400,16.901703369140623,-0.03023780696094036,0.05894844979047775,0.01435532234609127
1774656508999492900,16.918492919921874,-0.01435532234609127,0.05039634555578232,0.06811141967773438
1774656509016282400,16.935282470703125,0.016187917441129684,0.048563748598098755,0.17562362551689148
1774656509033071900,16.95207177734375,-0.026572618633508682,0.07422006875276566,0.4248564541339874
1774656509049861600,16.968861572265624,0.032681263983249664,0.014966187067329884,1.2440260648727417
1774656509066651100,16.985651123046875,0.0204639695584774,0.004581485874950886,1.4205660820007324
1774656509083440600,17.002440673828126,-0.0027488914784044027,0.04001164436340332,0.7907644510269165
1774656509100230100,17.019230224609377,0.026572618633508682,0.04306596517562866,0.05406153202056885
1774656509117019600,17.03601953125,-0.007024944759905338,0.03390299528837204,-0.0015271619195118546
1774656509133809200,17.05280908203125,0.026572618633508682,0.010079269297420979,0.18112140893936157
1774656509150598700,17.0695986328125,0.05345066636800766,0.00946840364485979,0.007024944759905338
1774656509167388200,17.08638818359375,0.02107483521103859,0.006414080038666725,0.08521563559770584
1774656509184177700,17.103177734375,0.05955931544303894,-0.0027488914784044027,0.1328630894422531
1774656509200967200,17.11996728515625,0.011300998739898205,0.016187917441129684,0.025961752980947495
1774656509217756700,17.136756591796875,0.032681263983249664,-0.003359756199643016,-0.014966187067329884
1774656509234546200,17.153546142578126,0.04306596517562866,-0.003359756199643016,-0.06750056147575378
1774656509251335700,17.170335693359377,-0.011911863461136818,0.025961752980947495,-0.11331541836261749
1774656509268125200,17.187125244140624,0.04917461425065994,-0.010079269297420979,0.02412915788590908
1774656509284914700,17.203914794921875,0.023518294095993042,0.003359756199643016,0.05528326332569122
1774656509301704200,17.2207041015625,-0.025350889191031456,0.02718348242342472,0.02107483521103859
1774656509318493700,17.23749365234375,0.005803215317428112,0.003359756199643016,0.03390299528837204
1774656509335283200,17.254283203125,-0.007635809946805239,0.003970621153712273,-0.0308486707508564
1774656509352072700,17.27107275390625,0.011911863461136818,0.0009162971982732415,0.023518294095993042
1774656509368862500,17.287862548828127,-0.01435532234609127,0.013744457624852657,0.012522728182375431
1774656509385652000,17.30465185546875,-0.03145953640341759,0.013133592903614044,0.04306596517562866
1774656509402441500,17.32144140625,-0.008246674202382565,0.003970621153712273,-0.023518294095993042
1774656509419231000,17.33823095703125,-0.02107483521103859,0.005803215317428112,0.016798781231045723
1774656509436020500,17.3550205078125,-0.03390299528837204,0.00946840364485979,-0.006414080038666725
1774656509452810000,17.37181005859375,-0.000305432389723137,-0.006414080038666725,-0.005803215317428112
1774656509469599500,17.388599609375,-0.011911863461136818,-0.007024944759905338,0.007635809946805239
1774656509486389000,17.405388916015625,-0.02107483521103859,-0.003359756199643016,-0.011300998739898205
1774656509503178500,17.422178466796876,-0.02107483521103859,-0.007635809946805239,0.010690134018659592
1774656509519968000,17.438968017578127,-0.018631376326084137,-0.010079269297420979,-0.032681263983249664
1774656509536757500,17.455757568359374,-0.010690134018659592,-0.01802051067352295,-0.014966187067329884
1774656509553547000,17.472547119140625,-0.0204639695584774,-0.014966187067329884,-0.021685699000954628
1774656509570336500,17.48933642578125,-0.004581485874950886,-0.026572618633508682,-0.06017018109560013
1774656509587126000,17.5061259765625,0.005192350596189499,-0.035124726593494415,-0.04978547990322113
1774656509603915500,17.52291552734375,-0.022296564653515816,-0.02107483521103859,-0.11453714966773987
1774656509620705000,17.539705078125,-0.016798781231045723,-0.01740964688360691,-0.14202606678009033
1774656509637494500,17.55649462890625,-0.03023780696094036,-0.015577051788568497,-0.11026109009981155
1774656509654284300,17.5732841796875,0.003359756199643016,-0.041844237595796585,-0.12980876863002777
1774656509671073800,17.59007373046875,0.00946840364485979,-0.03634645417332649,-0.1029307171702385
1774656509687863300,17.60686328125,-0.028405211865901947,-0.022296564653515816,-0.09376774728298187
1774656509704652800,17.62365283203125,0.006414080038666725,-0.03451386094093323,-0.08643736690282822
1774656509721442300,17.6404423828125,-0.03817904740571976,-0.013744457624852657,-0.1029307171702385
1774656509738231800,17.657231689453123,0.0009162971982732415,-0.03145953640341759,-0.08338304609060287
1774656509755021300,17.674021240234374,0.005192350596189499,-0.03451386094093323,-0.11392628401517868
1774656509771810800,17.690810791015625,-0.026572618633508682,-0.02107483521103859,-0.129197895526886
1774656509788600300,17.707600341796876,0.010079269297420979,-0.041844237595796585,-0.10231985151767731
1774656509805389800,17.724389892578124,0.0009162971982732415,-0.044898562133312225,-0.1951712965965271
1774656509822179300,17.741179443359375,0.02412915788590908,-0.048563748598098755,-0.1591302752494812
1774656509838968800,17.75796875,-0.0021380267571657896,-0.03329212963581085,-0.18112140893936157
1774656509855758300,17.77475830078125,-0.02107483521103859,-0.025350889191031456,-0.17318016290664673
1774656509872547800,17.7915478515625,-0.0204639695584774,-0.029626941308379173,-0.23365578055381775
1774656509889337300,17.80833740234375,0.012522728182375431,-0.04367683082818985,-0.2733619809150696
1774656509906126800,17.825126953125,0.0015271619195118546,-0.02412915788590908,-0.33139413595199585
1774656509922916400,17.841916259765625,-0.04062250629067421,-0.018631376326084137,-0.12492185086011887
1774656509939706000,17.8587060546875,-0.03145953640341759,-0.018631376326084137,-0.19639302790164948
1774656509956495400,17.875495361328124,0.0021380267571657896,-0.035735588520765305,-0.20738859474658966
1774656509973285000,17.89228515625,0.013133592903614044,-0.03940077871084213,-0.16829325258731842
1774656509990074600,17.90907470703125,-0.03940077871084213,-0.00946840364485979,-0.18173226714134216
1774656510006864100,17.925864013671877,-0.041844237595796585,-0.003970621153712273,-0.1127045527100563
1774656510023653600,17.942653564453124,-0.04917461425065994,-0.018631376326084137,-0.27947062253952026
1774656510040443100,17.959443115234375,0.04367683082818985,-0.07116574794054031,-0.24404047429561615
1774656510057232600,17.976232666015626,-0.019242240116000175,-0.029626941308379173,-0.23854269087314606
1774656510074022100,17.993022216796874,-0.07910698652267456,0.005803215317428112,-0.23548837006092072
1774656510090811600,18.009811767578125,-0.024740023538470268,-0.019853105768561363,-0.1951712965965271
1774656510107601200,18.02660107421875,-0.011911863461136818,-0.041844237595796585,-0.210442915558815
1774656510124390700,18.043390625,0.000305432389723137,-0.047952886670827866,-0.32039856910705566
1774656510141180200,18.06018017578125,-0.02779434807598591,-0.03390299528837204,-0.18356487154960632
1774656510157969700,18.0769697265625,-0.04734202101826668,-0.019242240116000175,-0.2672533392906189
1774656510174759200,18.09375927734375,0.003970621153712273,-0.05528326332569122,-0.2000582218170166
1774656510191548700,18.110548583984375,-0.029016077518463135,-0.03329212963581085,-0.25992295145988464
1774656510208338200,18.127338134765626,-0.03390299528837204,-0.0204639695584774,-0.24220788478851318
1774656510225128000,18.1441279296875,-0.03817904740571976,-0.02412915788590908,-0.21471896767616272
1774656510241917400,18.16091748046875,-0.013133592903614044,-0.041844237595796585,-0.2611446976661682
1774656510258707000,18.17770703125,0.003359756199643016,-0.044898562133312225,-0.2788597643375397
1774656510275496400,18.194496337890627,-0.041844237595796585,-0.022296564653515816,-0.29046618938446045
1774656510292286000,18.211285888671874,-0.03023780696094036,-0.01435532234609127,-0.2660316228866577
1774656510309075500,18.228075439453125,-0.03695731982588768,-0.023518294095993042,-0.2666424810886383
1774656510325865000,18.244864990234376,0.019853105768561363,-0.04062250629067421,-0.2605338394641876
1774656510342654500,18.261654541015623,-0.025350889191031456,-0.005192350596189499,-0.210442915558815
1774656510359444000,18.27844384765625,-0.05100720748305321,0.006414080038666725,-0.1792888194322586
1774656510376233500,18.2952333984375,-0.008857538923621178,-0.01802051067352295,-0.2782489061355591
1774656510393023000,18.31202294921875,-0.011911863461136818,-0.0204639695584774,-0.3069595396518707
1774656510409812500,18.3288125,0.006414080038666725,-0.022296564653515816,-0.21655155718326569
1774656510426602000,18.34560205078125,-0.038789913058280945,0.02412915788590908,-0.23732095956802368
1774656510443391500,18.3623916015625,-0.05100720748305321,0.028405211865901947,-0.24831652641296387
1774656510460181000,18.379180908203125,0.012522728182375431,-0.013133592903614044,-0.2055560052394867
1774656510476970500,18.395970458984376,-0.011911863461136818,0.008857538923621178,-0.23548837006092072
1774656510493760000,18.412760009765623,-0.03451386094093323,0.018631376326084137,-0.0974329337477684
1774656510510549500,18.429549560546874,-0.018631376326084137,0.011300998739898205,-0.13225223124027252
1774656510527339300,18.44633935546875,-0.029016077518463135,0.011300998739898205,-0.2409861534833908
1774656510544128800,18.463128662109376,0.015577051788568497,-0.008857538923621178,-0.1945604383945465
1774656510560918300,18.479918212890624,0.000305432389723137,0.003970621153712273,-0.054672397673130035
1774656510577707800,18.496707763671875,-0.02779434807598591,0.0308486707508564,0.005803215317428112
1774656510594497300,18.513497314453126,-0.018631376326084137,0.01802051067352295,0.051618073135614395
1774656510611286800,18.530286865234373,0.02779434807598591,0.004581485874950886,-0.05894844979047775
1774656510628076300,18.547076171875,-0.007024944759905338,0.029016077518463135,0.06872228533029556
1774656510644865800,18.56386572265625,-0.018631376326084137,0.02779434807598591,0.16829325258731842
1774656510661655300,18.5806552734375,0.022296564653515816,0.015577051788568497,0.02779434807598591
1774656510678444800,18.59744482421875,-0.013744457624852657,0.028405211865901947,-0.0974329337477684
1774656510695234300,18.614234375,0.03451386094093323,0.003970621153712273,0.019853105768561363
1774656510712023800,18.63102392578125,-0.019242240116000175,0.04001164436340332,-0.10109812021255493
1774656510728813300,18.647813232421875,-0.013744457624852657,0.03390299528837204,-0.008246674202382565
1774656510745603000,18.66460302734375,0.038789913058280945,0.016798781231045723,0.07238747924566269
1774656510762392600,18.681392578125,-0.008857538923621178,0.041844237595796585,0.06261363625526428
1774656510779182000,18.69818212890625,0.005803215317428112,0.035735588520765305,0.11759147047996521
1774656510795971600,18.7149716796875,0.006414080038666725,0.02718348242342472,0.05894844979047775
1774656510812761000,18.731760986328126,0.02107483521103859,0.022296564653515816,0.01435532234609127
1774656510829550600,18.748550537109374,0.035735588520765305,0.00946840364485979,0.0821613147854805
1774656510846340000,18.765340087890625,0.1597411334514618,-0.038789913058280945,0.03329212963581085
1774656510863129600,18.782129638671876,0.06627883017063141,-0.03145953640341759,-0.03329212963581085
1774656510879919000,18.798919189453127,0.0308486707508564,-0.019853105768561363,0.14019346237182617
1774656510896708600,18.81570849609375,0.12186752259731293,-0.0015271619195118546,-0.189673513174057
1774656510913498000,18.832498046875,0.0009162971982732415,-0.011300998739898205,0.20372340083122253
1774656510930287600,18.84928759765625,0.06200277432799339,0.013133592903614044,0.09437860548496246
1774656510947077000,18.8660771484375,-0.006414080038666725,0.07299833744764328,-0.0021380267571657896
1774656510963867000,18.882866943359375,-0.07605266571044922,0.07544180005788803,0.30085089802742004
1774656510980656400,18.899656494140626,-0.013133592903614044,0.05222893878817558,0.06322450190782547
1774656510997446000,18.91644580078125,-0.035735588520765305,0.05222893878817558,0.038789913058280945
1774656511014235400,18.9332353515625,-0.03390299528837204,0.04245510324835777,0.3020726442337036
1774656511031025000,18.95002490234375,0.048563748598098755,0.01740964688360691,0.40714138746261597
1774656511047814400,18.966814453125,0.047952886670827866,0.025350889191031456,0.057726722210645676
1774656511064604000,18.98360400390625,-0.032681263983249664,0.026572618633508682,0.10354158282279968
1774656511081393400,19.000393310546876,0.02107483521103859,0.041844237595796585,0.20861032605171204
1774656511098183000,19.017182861328124,-0.016187917441129684,0.044898562133312225,0.05894844979047775
1774656511114972400,19.033972412109375,0.013133592903614044,0.006414080038666725,0.291687935590744
1774656511131762000,19.050761962890626,0.022907428443431854,0.02779434807598591,0.2208276242017746
1774656511148551400,19.067551513671877,-0.008246674202382565,0.035735588520765305,0.40286532044410706
1774656511165341000,19.0843408203125,0.016187917441129684,0.005803215317428112,0.7351757884025574
1774656511182130700,19.101130615234375,0.019242240116000175,0.0027488914784044027,1.0125083923339844
1774656511198920200,19.117920166015626,-0.0027488914784044027,0.01740964688360691,0.5867356061935425
1774656511215709700,19.134709716796873,-0.025350889191031456,0.02779434807598591,0.02779434807598591
1774656511232499200,19.151499267578124,-0.0204639695584774,0.007635809946805239,0.2214384824037552
1774656511249288700,19.168288818359375,0.011911863461136818,-0.008857538923621178,0.25931209325790405
1774656511266078200,19.185078125,-0.012522728182375431,0.00946840364485979,0.11881320178508759
1774656511282867700,19.20186767578125,-0.025961752980947495,0.008857538923621178,0.35643959045410156
1774656511299657200,19.2186572265625,-0.02718348242342472,0.007024944759905338,0.26358816027641296
1774656511316446700,19.23544677734375,-0.015577051788568497,-0.007024944759905338,0.13225223124027252
1774656511333236200,19.252236328125,0.011300998739898205,-0.011911863461136818,0.21838416159152985
1774656511350025700,19.269025634765626,-0.032681263983249664,0.008246674202382565,0.17195843160152435
1774656511366815200,19.285815185546873,-0.035124726593494415,0.0015271619195118546,0.25381430983543396
1774656511383604700,19.302604736328124,-0.01740964688360691,-0.012522728182375431,0.14569124579429626
1774656511400394500,19.31939453125,0.0015271619195118546,-0.032070402055978775,-0.021685699000954628
1774656511417184000,19.33618408203125,-0.024740023538470268,-0.011300998739898205,-0.3271180987358093
1774656511433973500,19.352973388671874,-0.024740023538470268,-0.003359756199643016,-0.33505934476852417
1774656511450763000,19.369762939453125,-0.006414080038666725,-0.03023780696094036,0.08582650125026703
1774656511467552500,19.386552490234376,0.00946840364485979,-0.054672397673130035,0.3039052188396454
1774656511484342000,19.403342041015627,0.010690134018659592,-0.03817904740571976,0.03695731982588768
1774656511501131500,19.420131591796874,0.006414080038666725,-0.04428769648075104,0.22266021370887756
1774656511517921000,19.436921142578125,-0.005192350596189499,-0.044898562133312225,0.2055560052394867
1774656511534710500,19.45371044921875,0.01802051067352295,-0.05222893878817558,0.09682206809520721
1774656511551500000,19.4705,0.025350889191031456,-0.05894844979047775,0.14569124579429626
1774656511568289500,19.48728955078125,-0.007024944759905338,-0.04062250629067421,0.09193515032529831
1774656511585079000,19.5040791015625,0.00946840364485979,-0.047952886670827866,0.11148282140493393
1774656511601868500,19.52086865234375,0.028405211865901947,-0.05345066636800766,0.07299833744764328
1774656511618658000,19.537657958984376,0.007024944759905338,-0.047952886670827866,0.09987638890743256
1774656511635447800,19.55444775390625,0.035124726593494415,-0.051618073135614395,0.13530655205249786
1774656511652237300,19.5712373046875,-0.0021380267571657896,-0.028405211865901947,0.0925460159778595
1774656511669026800,19.58802685546875,0.005192350596189499,-0.035735588520765305,0.13652828335762024
1774656511685816300,19.60481640625,0.04062250629067421,-0.04550942778587341,0.07116574794054031
1774656511702605800,19.621605712890624,0.008857538923621178,-0.032681263983249664,0.08826996386051178
1774656511719395300,19.638395263671875,0.03145953640341759,-0.04428769648075104,0.06200277432799339
1774656511736184800,19.655184814453126,0.012522728182375431,-0.03145953640341759,-0.004581485874950886
1774656511752974300,19.671974365234377,0.0015271619195118546,-0.025350889191031456,-0.03756818547844887
1774656511769763800,19.688763916015624,0.04550942778587341,-0.03390299528837204,-0.10048725455999374
1774656511786553300,19.70555322265625,-0.003970621153712273,-0.00946840364485979,0.019242240116000175
1774656511803342800,19.7223427734375,0.016187917441129684,-0.02107483521103859,0.08888082206249237
1774656511820132600,19.739132568359373,0.023518294095993042,-0.022907428443431854,-0.051618073135614395
1774656511836922000,19.755922119140624,0.022296564653515816,-0.022296564653515816,0.008246674202382565
1774656511853711600,19.772711669921875,0.010690134018659592,-0.0009162971982732415,0.0027488914784044027
1774656511870501000,19.789501220703126,-0.005192350596189499,0.015577051788568497,0.02107483521103859
1774656511887290600,19.80629052734375,0.010079269297420979,0.007635809946805239,0.08460476994514465
1774656511904080100,19.823080078125,-0.0015271619195118546,0.01802051067352295,0.06566796451807022
1774656511920869600,19.83986962890625,0.010690134018659592,0.015577051788568497,0.08277218043804169
1774656511937659100,19.8566591796875,0.007024944759905338,0.006414080038666725,0.12675444781780243
1774656511954448600,19.87344873046875,0.015577051788568497,0.007024944759905338,0.14019346237182617
1774656511971238400,19.89023828125,0.028405211865901947,0.0009162971982732415,0.1640172004699707
1774656511988028000,19.90702783203125,0.023518294095993042,-0.0009162971982732415,0.13103049993515015
1774656512004817400,19.9238173828125,0.025961752980947495,0.000305432389723137,0.08643736690282822
1774656512021607000,19.94060693359375,0.02718348242342472,-0.003359756199643016,0.05955931544303894
1774656512038396400,19.957396484375,0.035124726593494415,-0.011911863461136818,0.09315688163042068
1774656512055186000,19.97418603515625,0.051618073135614395,-0.016798781231045723,0.12675444781780243
1774656512071975400,19.990975341796876,0.0461202897131443,-0.012522728182375431,0.057726722210645676
1774656512088765000,20.007764892578123,0.04917461425065994,-0.02107483521103859,0.11209368705749512
1774656512105554400,20.024554443359374,0.02718348242342472,-0.0027488914784044027,0.07116574794054031
1774656512122344000,20.041343994140625,0.013744457624852657,-0.0015271619195118546,0.1029307171702385
1774656512139133400,20.058133544921876,0.019242240116000175,-0.008246674202382565,0.09315688163042068
1774656512155923000,20.0749228515625,0.038789913058280945,-0.019242240116000175,0.04734202101826668
1774656512172712400,20.09171240234375,0.06017018109560013,-0.035735588520765305,0.0717766135931015
1774656512189502200,20.108502197265626,0.03695731982588768,-0.025961752980947495,0.05833758786320686
1774656512206291700,20.125291748046877,0.023518294095993042,-0.007635809946805239,0.0821613147854805
1774656512223081200,20.142081298828124,-0.00946840364485979,-0.005192350596189499,0.07055488228797913
