time,seconds_elapsed,z,y,x
1775721969368890400,0.051890380859375,-0.9962005615234375,-0.0348358154296875,0.067626953125
1775721969378903000,0.061903076171875,-1.0057373046875,-0.0380401611328125,0.0382080078125
1775721969388917200,0.071917236328125,-1.026702880859375,-0.0340728759765625,0.0110015869140625
1775721969398930400,0.081930419921875,-1.032867431640625,-0.0332489013671875,0.0137481689453125
1775721969408943000,0.091943115234375,-1.006683349609375,-0.033111572265625,0.0271759033203125
1775721969418956300,0.101956298828125,-0.9888153076171875,-0.0368804931640625,0.0211029052734375
1775721969428969200,0.11196923828125,-0.9830474853515625,-0.0436859130859375,0.001495361328125
1775721969438982100,0.121982177734375,-0.9727630615234375,-0.02587890625,-0.0102386474609375
1775721969448996400,0.131996337890625,-0.9868316650390625,-0.001129150390625,-0.0078582763671875
1775721969459009300,0.14200927734375,-0.9810791015625,-0.00347900390625,-0.00421142578125
1775721969469022200,0.152022216796875,-0.97589111328125,-0.020233154296875,-0.0083770751953125
1775721969479035100,0.16203515625,-0.9763031005859375,-0.0261383056640625,0.001922607421875
1775721969489048300,0.17204833984375,-1.00946044921875,-0.014801025390625,-0.00970458984375
1775721969499062300,0.182062255859375,-1.0144500732421875,-0.0059814453125,-0.0112762451171875
1775721969509075200,0.1920751953125,-0.996124267578125,-0.0047149658203125,0.0026397705078125
1775721969519088400,0.20208837890625,-1.003662109375,0.0009307861328125,0.009124755859375
1775721969529101300,0.212101318359375,-1.0011749267578125,0.012786865234375,0.0218963623046875
1775721969539114200,0.2221142578125,-1.0025482177734375,0.0159454345703125,0.0283660888671875
1775721969549127400,0.23212744140625,-1.0039520263671875,0.0080108642578125,0.0320587158203125
1775721969559141000,0.24214111328125,-0.9904327392578125,0.0052642822265625,0.0321044921875
1775721969569154300,0.252154296875,-0.98828125,0.0096435546875,0.0316162109375
1775721969579167500,0.26216748046875,-0.99176025390625,0.0095062255859375,0.0363311767578125
1775721969589180200,0.27218017578125,-0.9875946044921875,0.00640869140625,0.03521728515625
1775721969599193300,0.282193359375,-0.9807891845703125,0.0080718994140625,0.035491943359375
1775721969609207000,0.29220703125,-0.97589111328125,0.00750732421875,0.04327392578125
1775721969619220200,0.30222021484375,-0.972320556640625,0.0081787109375,0.050811767578125
1775721969629233400,0.3122333984375,-0.968994140625,0.0098724365234375,0.05230712890625
1775721969639246300,0.322246337890625,-0.9845733642578125,0.006805419921875,0.0524749755859375
1775721969649259300,0.33225927734375,-0.9911956787109375,0.00042724609375,0.0543212890625
1775721969659272200,0.342272216796875,-0.9925537109375,-0.0018768310546875,0.05718994140625
1775721969669286100,0.3522861328125,-1.00030517578125,-0.0030517578125,0.0561981201171875
1775721969679299300,0.36229931640625,-1.005645751953125,-0.0031890869140625,0.0542755126953125
1775721969689312300,0.372312255859375,-1.0017242431640625,-0.008148193359375,0.0509796142578125
1775721969699325400,0.382325439453125,-0.9989471435546875,-0.01214599609375,0.0440216064453125
1775721969709338000,0.392338134765625,-1.0059051513671875,-0.01153564453125,0.03631591796875
1775721969719351300,0.402351318359375,-1.0067596435546875,-0.0116424560546875,0.02886962890625
1775721969729365200,0.412365234375,-1.000396728515625,-0.0139007568359375,0.0273895263671875
1775721969739378200,0.422378173828125,-0.9902801513671875,-0.019989013671875,0.0255126953125
1775721969749391400,0.432391357421875,-0.9934234619140625,-0.022674560546875,0.0247802734375
1775721969759404300,0.442404296875,-0.9954376220703125,-0.023651123046875,0.0239410400390625
1775721969769417200,0.452417236328125,-0.9896392822265625,-0.0212554931640625,0.0233154296875
1775721969779431700,0.462431640625,-0.9920806884765625,-0.01666259765625,0.0230255126953125
1775721969789444400,0.4724443359375,-0.9988250732421875,-0.016021728515625,0.020477294921875
1775721969799457500,0.48245751953125,-0.9941253662109375,-0.0142669677734375,0.0228118896484375
1775721969809470700,0.492470703125,-0.995880126953125,-0.009429931640625,0.023284912109375
1775721969819483400,0.5024833984375,-1.003082275390625,-0.007110595703125,0.0296783447265625
1775721969829496600,0.51249658203125,-0.99993896484375,-0.005401611328125,0.0352935791015625
1775721969839510500,0.522510498046875,-1.007354736328125,-0.0039825439453125,0.041656494140625
1775721969849523500,0.5325234375,-1.0232086181640625,-0.002044677734375,0.0412445068359375
1775721969859536600,0.54253662109375,-1.030670166015625,0.004058837890625,0.040435791015625
1775721969869549600,0.552549560546875,-1.01611328125,0.004974365234375,0.03765869140625
1775721969879562500,0.5625625,-0.9965972900390625,0.0031585693359375,0.037994384765625
1775721969889576400,0.572576416015625,-0.993408203125,0.001129150390625,0.037200927734375
1775721969899589600,0.582589599609375,-0.9898681640625,-0.000946044921875,0.0355682373046875
1775721969909602600,0.5926025390625,-0.9864959716796875,0.0050811767578125,0.0380706787109375
1775721969919615500,0.602615478515625,-0.98919677734375,0.007354736328125,0.039337158203125
1775721969929628700,0.612628662109375,-0.9948272705078125,0.0041961669921875,0.04083251953125
1775721969939641600,0.6226416015625,-0.9965057373046875,0.0055389404296875,0.0429534912109375
1775721969949655600,0.632655517578125,-0.998504638671875,0.007293701171875,0.04547119140625
1775721969959668700,0.642668701171875,-1.0029144287109375,0.009490966796875,0.0421142578125
1775721969969681400,0.652681396484375,-1.0038299560546875,0.00927734375,0.039154052734375
1775721969979694600,0.662694580078125,-0.999786376953125,0.00958251953125,0.0396575927734375
1775721969989707500,0.67270751953125,-0.9909820556640625,0.0126190185546875,0.040496826171875
1775721969999720400,0.682720458984375,-0.9869384765625,0.010650634765625,0.041168212890625
1775721970009734700,0.692734619140625,-0.9990081787109375,0.0090484619140625,0.0435791015625
1775721970019747600,0.70274755859375,-1.0159454345703125,0.0076904296875,0.0452117919921875
1775721970029760500,0.712760498046875,-1.0177764892578125,0.0079345703125,0.0445098876953125
1775721970039773400,0.7227734375,-1.0174102783203125,0.009796142578125,0.04681396484375
1775721970049786600,0.73278662109375,-1.0191650390625,0.009307861328125,0.047607421875
1775721970059800600,0.742800537109375,-1.0131378173828125,0.006072998046875,0.0498046875
1775721970069813500,0.7528134765625,-1.0013885498046875,0.00396728515625,0.046661376953125
1775721970079826700,0.76282666015625,-0.9944610595703125,0.0074005126953125,0.04248046875
1775721970089839400,0.77283935546875,-0.996826171875,0.00787353515625,0.04296875
1775721970099852500,0.7828525390625,-0.9966583251953125,0.0045928955078125,0.0401153564453125
1775721970109865700,0.79286572265625,-0.9903106689453125,0.0037689208984375,0.0393218994140625
1775721970119879400,0.80287939453125,-0.9879302978515625,0.00311279296875,0.0387420654296875
1775721970129892600,0.812892578125,-0.986083984375,0.0066070556640625,0.03643798828125
1775721970139905500,0.822905517578125,-0.9843292236328125,0.0085296630859375,0.0315399169921875
1775721970149918500,0.83291845703125,-0.9993133544921875,0.008392333984375,0.0268707275390625
1775721970159931600,0.842931640625,-1.0167694091796875,0.003570556640625,0.0278472900390625
1775721970169944600,0.852944580078125,-1.0151214599609375,0.0010986328125,0.0210113525390625
1775721970179958500,0.86295849609375,-1.018096923828125,0.0073089599609375,0.0139617919921875
1775721970189971500,0.872971435546875,-1.02105712890625,0.0064697265625,0.01654052734375
1775721970199984600,0.882984619140625,-1.0141448974609375,0.008056640625,0.0269775390625
1775721970209997600,0.89299755859375,-1.0091094970703125,0.0101165771484375,0.032623291015625
1775721970220010500,0.903010498046875,-1.012481689453125,0.0102386474609375,0.0340118408203125
1775721970230024700,0.913024658203125,-1.0121917724609375,0.0090484619140625,0.03466796875
1775721970240037400,0.923037353515625,-0.997833251953125,0.0086212158203125,0.035888671875
1775721970250050600,0.933050537109375,-0.989532470703125,0.0077362060546875,0.0394287109375
1775721970260063700,0.943063720703125,-0.9814605712890625,0.0038909912109375,0.0417327880859375
1775721970270076400,0.953076416015625,-0.975189208984375,0.0039215087890625,0.046478271484375
1775721970280089600,0.963089599609375,-0.9797515869140625,0.0023956298828125,0.0477447509765625
1775721970290103600,0.973103515625,-0.9964599609375,0.0023345947265625,0.0476837158203125
1775721970300116500,0.983116455078125,-1.0075531005859375,0.004608154296875,0.04644775390625
1775721970310129700,0.993129638671875,-1.014892578125,0.0083465576171875,0.04583740234375
1775721970320142600,1.003142578125,-1.0153045654296875,0.0090484619140625,0.046630859375
1775721970330155500,1.013155517578125,-1.0089569091796875,0.0055389404296875,0.0472412109375
1775721970340169500,1.02316943359375,-1.0021209716796875,0.0079803466796875,0.04254150390625
1775721970350182700,1.0331826171875,-1.00262451171875,0.0121917724609375,0.03753662109375
1775721970360195600,1.043195556640625,-1.00372314453125,0.0132293701171875,0.035552978515625
1775721970370208500,1.05320849609375,-1.0037078857421875,0.0147552490234375,0.034576416015625
1775721970380221700,1.0632216796875,-1.002777099609375,0.0117340087890625,0.03753662109375
1775721970390234400,1.073234375,-0.9948883056640625,0.010223388671875,0.0384521484375
1775721970400248600,1.08324853515625,-0.9920501708984375,0.0103607177734375,0.0387115478515625
1775721970410261500,1.093261474609375,-0.9917449951171875,0.0117645263671875,0.038116455078125
1775721970420274400,1.1032744140625,-0.9910888671875,0.0102081298828125,0.0417327880859375
1775721970430287600,1.11328759765625,-1.0024566650390625,0.0094757080078125,0.0489959716796875
1775721970440300500,1.123300537109375,-1.0194244384765625,0.00738525390625,0.053253173828125
1775721970450313500,1.1333134765625,-1.022918701171875,0.008056640625,0.0537567138671875
1775721970460327700,1.14332763671875,-1.0196075439453125,0.0102691650390625,0.0525665283203125
1775721970470340600,1.153340576171875,-1.0141754150390625,0.01104736328125,0.050567626953125
1775721970480353500,1.163353515625,-1.00787353515625,0.00946044921875,0.05157470703125
1775721970490366500,1.173366455078125,-1.0117340087890625,0.00823974609375,0.055267333984375
1775721970500379600,1.183379638671875,-1.02716064453125,0.0063629150390625,0.0614013671875
1775721970510392600,1.193392578125,-1.0379791259765625,0.004547119140625,0.05810546875
1775721970520406500,1.203406494140625,-1.0480499267578125,0.0057220458984375,0.052581787109375
1775721970530419700,1.213419677734375,-1.04901123046875,0.0035400390625,0.0458984375
1775721970540432400,1.223432373046875,-1.045684814453125,0.003143310546875,0.03936767578125
1775721970550445600,1.233445556640625,-1.0517578125,0.001708984375,0.0344085693359375
1775721970560458800,1.243458740234375,-1.0491943359375,0.002685546875,0.0322265625
1775721970570472400,1.253472412109375,-1.036376953125,0.003692626953125,0.031707763671875
1775721970580485600,1.263485595703125,-1.0279693603515625,0.005615234375,0.027862548828125
1775721970590498600,1.27349853515625,-1.0388946533203125,0.007537841796875,0.026336669921875
1775721970600511500,1.283511474609375,-1.0596771240234375,0.00286865234375,0.02740478515625
1775721970610524700,1.293524658203125,-1.0889892578125,-0.0050048828125,0.028839111328125
1775721970620537600,1.30353759765625,-1.124725341796875,-0.0070343017578125,0.0295867919921875
1775721970630551600,1.313551513671875,-1.153594970703125,0.0010528564453125,0.0293731689453125
1775721970640564500,1.323564453125,-1.1506805419921875,0.014190673828125,0.0181732177734375
1775721970650577700,1.33357763671875,-1.1337432861328125,0.0281219482421875,-0.0073699951171875
1775721970660590600,1.343590576171875,-1.1260986328125,0.03143310546875,-0.0429840087890625
1775721970670603500,1.353603515625,-1.128204345703125,0.026580810546875,-0.0807952880859375
1775721970680616700,1.36361669921875,-1.128173828125,0.0289764404296875,-0.1068878173828125
1775721970690630400,1.37363037109375,-1.1546173095703125,0.032196044921875,-0.0943756103515625
1775721970700643600,1.3836435546875,-1.1679229736328125,0.027008056640625,-0.0502166748046875
1775721970710656800,1.39365673828125,-1.1576690673828125,0.02154541015625,0.0052947998046875
1775721970720669400,1.40366943359375,-1.126495361328125,0.0206146240234375,0.0403594970703125
1775721970730682600,1.4136826171875,-1.098480224609375,0.023345947265625,0.0505218505859375
1775721970740696300,1.4236962890625,-1.076141357421875,0.0224151611328125,0.049713134765625
1775721970750709500,1.43370947265625,-1.0595245361328125,0.015594482421875,0.0438079833984375
1775721970760722700,1.44372265625,-1.0502777099609375,0.0135650634765625,0.0320892333984375
1775721970770735600,1.453735595703125,-1.0518646240234375,0.0130767822265625,0.015106201171875
1775721970780748300,1.463748291015625,-1.0743408203125,0.0055389404296875,0.0036468505859375
1775721970790761200,1.47376123046875,-1.1116485595703125,-0.0041046142578125,0.001983642578125
1775721970800775200,1.483775146484375,-1.159820556640625,-0.0069580078125,0.020294189453125
1775721970810788400,1.493788330078125,-1.170440673828125,-0.009857177734375,0.05377197265625
1775721970820801300,1.50380126953125,-1.1468505859375,-0.0030517578125,0.082611083984375
1775721970830814500,1.513814453125,-1.1061553955078125,-0.00421142578125,0.0910491943359375
1775721970840827100,1.5238271484375,-1.069976806640625,-0.0030059814453125,0.08343505859375
1775721970850840300,1.53384033203125,-1.031097412109375,0.0048980712890625,0.0742340087890625
1775721970860854300,1.543854248046875,-1.005035400390625,0.0157012939453125,0.0717010498046875
1775721970870867200,1.5538671875,-1.004974365234375,0.02667236328125,0.0758209228515625
1775721970880880400,1.56388037109375,-1.0075225830078125,0.034027099609375,0.0718994140625
1775721970890893300,1.573893310546875,-1.0105133056640625,0.0418853759765625,0.0580291748046875
1775721970900906200,1.58390625,-1.0284423828125,0.04205322265625,0.048828125
1775721970910919200,1.593919189453125,-1.0522613525390625,0.0273895263671875,0.04571533203125
1775721970920933000,1.60393310546875,-1.072662353515625,0.01348876953125,0.047607421875
1775721970930946300,1.6139462890625,-1.0658721923828125,0.0167694091796875,0.0431365966796875
1775721970940959200,1.623959228515625,-1.0320281982421875,0.034332275390625,0.0309295654296875
1775721970950972400,1.633972412109375,-1.00286865234375,0.0583343505859375,0.0391845703125
1775721970960985000,1.643985107421875,-0.9784698486328125,0.0709381103515625,0.05841064453125
1775721970970999300,1.653999267578125,-0.944183349609375,0.07073974609375,0.0678558349609375
1775721970981012200,1.66401220703125,-0.92071533203125,0.0717620849609375,0.0598602294921875
1775721970991025200,1.674025146484375,-0.9303131103515625,0.0731658935546875,0.05157470703125
1775721971001038300,1.684038330078125,-0.922760009765625,0.07257080078125,0.054656982421875
1775721971011051500,1.694051513671875,-0.90728759765625,0.0740966796875,0.0609283447265625
1775721971021064200,1.704064208984375,-0.9170074462890625,0.0800018310546875,0.058135986328125
1775721971031078400,1.714078369140625,-0.9419403076171875,0.0844268798828125,0.0546112060546875
1775721971041091300,1.72409130859375,-0.9882965087890625,0.083282470703125,0.0564422607421875
1775721971051104300,1.734104248046875,-1.0242919921875,0.0781402587890625,0.06634521484375
1775721971061117400,1.744117431640625,-1.028778076171875,0.071624755859375,0.07513427734375
1775721971071130400,1.75413037109375,-1.031005859375,0.0605621337890625,0.0844268798828125
1775721971081144300,1.764144287109375,-1.01727294921875,0.0468597412109375,0.1022186279296875
1775721971091157200,1.7741572265625,-0.987274169921875,0.0367889404296875,0.1192779541015625
1775721971101170200,1.784170166015625,-0.9588470458984375,0.0478057861328125,0.1190185546875
1775721971111183400,1.794183349609375,-0.936614990234375,0.07568359375,0.1035919189453125
1775721971121196300,1.8041962890625,-0.9253997802734375,0.0923309326171875,0.08319091796875
1775721971131209500,1.81420947265625,-0.945404052734375,0.090087890625,0.0715179443359375
1775721971141223200,1.82422314453125,-0.954833984375,0.07977294921875,0.0550689697265625
1775721971151236400,1.834236328125,-0.9629058837890625,0.07293701171875,0.0284423828125
1775721971161249300,1.844249267578125,-0.97479248046875,0.0629425048828125,0.0058441162109375
1775721971171262200,1.85426220703125,-0.9625701904296875,0.048309326171875,-0.0040283203125
1775721971181275400,1.864275390625,-0.9450225830078125,0.0383758544921875,-0.001922607421875
1775721971191288300,1.874288330078125,-0.9512939453125,0.0250091552734375,0.0015716552734375
1775721971201302300,1.88430224609375,-0.966156005859375,0.0142059326171875,0.0082244873046875
1775721971211315500,1.8943154296875,-0.96820068359375,0.0125885009765625,0.0207061767578125
1775721971221328400,1.904328369140625,-0.962310791015625,0.023529052734375,0.0292816162109375
1775721971231341300,1.91434130859375,-0.9598541259765625,0.0343017578125,0.0360107421875
1775721971241354200,1.924354248046875,-0.9499053955078125,0.0427703857421875,0.0374908447265625
1775721971251367400,1.934367431640625,-0.9497528076171875,0.049224853515625,0.0320892333984375
1775721971261381400,1.94438134765625,-0.956756591796875,0.0585174560546875,0.0249481201171875
1775721971271394300,1.954394287109375,-0.9621429443359375,0.063751220703125,0.0265655517578125
1775721971281407200,1.9644072265625,-0.9792938232421875,0.0562591552734375,0.0503692626953125
1775721971291420200,1.974420166015625,-0.99322509765625,0.039764404296875,0.0802459716796875
1775721971301433300,1.984433349609375,-0.996551513671875,0.02435302734375,0.0830535888671875
1775721971311446300,1.9944462890625,-0.9994354248046875,0.009735107421875,0.0685882568359375
1775721971321460200,2.004460205078125,-1.002899169921875,-0.0045623779296875,0.0603790283203125
1775721971331473400,2.014473388671875,-1.0291900634765625,-0.0250701904296875,0.0693359375
1775721971341486300,2.024486328125,-1.038726806640625,-0.0357513427734375,0.0819091796875
1775721971351499300,2.034499267578125,-1.024261474609375,-0.03094482421875,0.085906982421875
1775721971361512200,2.04451220703125,-0.97442626953125,-0.0181427001953125,0.0768890380859375
1775721971371526100,2.054526123046875,-0.9171600341796875,-0.0063018798828125,0.0656890869140625
1775721971381539300,2.064539306640625,-0.875885009765625,-0.0034637451171875,0.05963134765625
1775721971391552300,2.07455224609375,-0.85565185546875,-0.0063629150390625,0.0581207275390625
1775721971401565400,2.0845654296875,-0.851959228515625,-0.00750732421875,0.041778564453125
1775721971411578400,2.094578369140625,-0.86224365234375,-0.0111236572265625,0.0152587890625
1775721971421591300,2.10459130859375,-0.8887481689453125,-0.009307861328125,-0.006256103515625
1775721971431605200,2.114605224609375,-0.9166259765625,-0.0059356689453125,-0.022216796875
1775721971441618200,2.1246181640625,-0.92596435546875,0.0001678466796875,-0.0189971923828125
1775721971451631400,2.13463134765625,-0.9096221923828125,-0.001220703125,-0.0084228515625
1775721971461644300,2.144644287109375,-0.8836212158203125,-0.010345458984375,-0.00653076171875
1775721971471657200,2.1546572265625,-0.8608551025390625,-0.01318359375,-0.0167999267578125
1775721971481670400,2.16467041015625,-0.8553314208984375,-0.0163726806640625,-0.0240936279296875
1775721971491684000,2.17468408203125,-0.8659210205078125,-0.02606201171875,-0.024810791015625
1775721971501697300,2.184697265625,-0.8573760986328125,-0.0311126708984375,-0.021148681640625
1775721971511710500,2.19471044921875,-0.8414459228515625,-0.023590087890625,-0.013031005859375
1775721971521723400,2.204723388671875,-0.83685302734375,-0.01068115234375,0.0006561279296875
1775721971531736300,2.214736328125,-0.846588134765625,-0.00531005859375,0.01116943359375
1775721971541750300,2.224750244140625,-0.8660736083984375,-0.0078887939453125,0.0140380859375
1775721971551763200,2.23476318359375,-0.8864898681640625,-0.0249176025390625,0.012664794921875
1775721971561776400,2.2447763671875,-0.9106292724609375,-0.052459716796875,0.0145416259765625
1775721971571789300,2.254789306640625,-0.942108154296875,-0.0796356201171875,0.0186309814453125
1775721971581802500,2.264802490234375,-0.9859771728515625,-0.0941619873046875,0.0087890625
1775721971591815200,2.274815185546875,-1.0338287353515625,-0.08740234375,-0.0118408203125
1775721971601829400,2.284829345703125,-1.063720703125,-0.0634765625,-0.0219268798828125
1775721971611842300,2.29484228515625,-1.06402587890625,-0.040924072265625,-0.015289306640625
1775721971621855200,2.304855224609375,-1.050994873046875,-0.0350189208984375,0.00390625
1775721971631868400,2.314868408203125,-1.030609130859375,-0.0423431396484375,0.0264892578125
1775721971641881300,2.32488134765625,-1.0174713134765625,-0.04852294921875,0.0397491455078125
1775721971651894300,2.334894287109375,-1.0233917236328125,-0.0545196533203125,0.042633056640625
1775721971661908500,2.344908447265625,-1.053009033203125,-0.0596771240234375,0.048065185546875
1775721971671921200,2.354921142578125,-1.0520782470703125,-0.0573883056640625,0.0508270263671875
1775721971681934300,2.364934326171875,-1.0359039306640625,-0.0438385009765625,0.0458831787109375
1775721971691947300,2.374947265625,-1.019866943359375,-0.03033447265625,0.040313720703125
1775721971701960400,2.38496044921875,-0.9989776611328125,-0.0241241455078125,0.041229248046875
1775721971711973000,2.39497314453125,-0.9929962158203125,-0.0219268798828125,0.0405731201171875
1775721971721987300,2.4049873046875,-0.9935302734375,-0.02325439453125,0.0363922119140625
1775721971732000300,2.415000244140625,-0.9788970947265625,-0.0221405029296875,0.0350494384765625
1775721971742013200,2.42501318359375,-0.965301513671875,-0.0170440673828125,0.037445068359375
1775721971752026400,2.4350263671875,-0.9557952880859375,-0.006103515625,0.0415802001953125
1775721971762039300,2.445039306640625,-0.9505462646484375,0.004241943359375,0.0417327880859375
1775721971772053200,2.45505322265625,-0.94232177734375,0.0082550048828125,0.0387115478515625
1775721971782066700,2.465066650390625,-0.9384613037109375,0.0110321044921875,0.038238525390625
1775721971792079600,2.47507958984375,-0.93865966796875,0.0107421875,0.042236328125
1775721971802092800,2.4850927734375,-0.954071044921875,0.0087890625,0.0489044189453125
1775721971812105700,2.495105712890625,-0.9774017333984375,0.008026123046875,0.0470428466796875
1775721971822118700,2.50511865234375,-1.002349853515625,0.006134033203125,0.0403289794921875
1775721971832132600,2.515132568359375,-1.0270233154296875,0.0078582763671875,0.0367889404296875
1775721971842145800,2.525145751953125,-1.046966552734375,0.011322021484375,0.0460205078125
1775721971852158700,2.53515869140625,-1.055328369140625,0.009521484375,0.064422607421875
1775721971862171600,2.545171630859375,-1.0354766845703125,0.005340576171875,0.0749969482421875
1775721971872184800,2.555184814453125,-1.0064239501953125,0.001953125,0.0668487548828125
1775721971882197500,2.565197509765625,-0.98797607421875,-0.003814697265625,0.055938720703125
1775721971892211700,2.575211669921875,-0.9812774658203125,-0.0057525634765625,0.0564117431640625
1775721971902225000,2.585224853515625,-0.992706298828125,-0.0045166015625,0.0651092529296875
1775721971912237600,2.595237548828125,-1.001007080078125,0.002655029296875,0.066864013671875
1775721971922250800,2.605250732421875,-0.9971160888671875,0.013580322265625,0.0618438720703125
1775721971932263700,2.615263671875,-0.9964752197265625,0.01593017578125,0.056793212890625
1775721971942276600,2.625276611328125,-0.99285888671875,0.0097808837890625,0.049224853515625
1775721971952290800,2.635290771484375,-0.9903106689453125,-0.0055694580078125,0.047119140625
1775721971962303700,2.6453037109375,-0.9766998291015625,-0.0196075439453125,0.048370361328125
1775721971972316700,2.655316650390625,-0.9625091552734375,-0.027099609375,0.0433197021484375
1775721971982329600,2.66532958984375,-0.9581451416015625,-0.02191162109375,0.034576416015625
1775721971992342800,2.6753427734375,-0.948455810546875,-0.0134735107421875,0.0318450927734375
1775721972002355500,2.68535546875,-0.9552001953125,-0.0153961181640625,0.0376434326171875
1775721972012369700,2.69536962890625,-0.9726715087890625,-0.0255126953125,0.0518341064453125
1775721972022382800,2.7053828125,-0.991424560546875,-0.0350494384765625,0.0595703125
1775721972032395500,2.7153955078125,-0.99896240234375,-0.0364837646484375,0.0544891357421875
1775721972042408700,2.72540869140625,-1.00152587890625,-0.0375518798828125,0.0419769287109375
1775721972052421600,2.735421630859375,-0.9835662841796875,-0.039581298828125,0.0317230224609375
1775721972062435600,2.745435546875,-0.9589080810546875,-0.03814697265625,0.0306243896484375
1775721972072448800,2.75544873046875,-0.9445648193359375,-0.036651611328125,0.0328369140625
1775721972082461700,2.765461669921875,-0.9395751953125,-0.039215087890625,0.0317840576171875
1775721972092474600,2.775474609375,-0.9397125244140625,-0.0449371337890625,0.0296783447265625
1775721972102487600,2.785487548828125,-0.9385223388671875,-0.0525970458984375,0.035186767578125
1775721972112500700,2.795500732421875,-0.9296722412109375,-0.0557708740234375,0.036407470703125
1775721972122514700,2.8055146484375,-0.93035888671875,-0.0531005859375,0.0301513671875
1775721972132527600,2.815527587890625,-0.9426422119140625,-0.0478973388671875,0.0280609130859375
1775721972142540800,2.825540771484375,-0.954254150390625,-0.0509033203125,0.0305938720703125
1775721972152553500,2.835553466796875,-0.9602203369140625,-0.0593719482421875,0.0248870849609375
1775721972162566700,2.845566650390625,-0.9755096435546875,-0.0631561279296875,0.012298583984375
1775721972172579800,2.855579833984375,-0.9766387939453125,-0.0738067626953125,-0.005340576171875
1775721972182593500,2.865593505859375,-0.9613037109375,-0.08477783203125,-0.019500732421875
1775721972192606700,2.875606689453125,-0.948883056640625,-0.08935546875,-0.0186767578125
1775721972202620000,2.885619873046875,-0.935272216796875,-0.092926025390625,-0.0088653564453125
1775721972212632600,2.895632568359375,-0.927215576171875,-0.09698486328125,0.0054473876953125
1775721972222645800,2.905645751953125,-0.9431610107421875,-0.102294921875,0.0203094482421875
1775721972232658700,2.91565869140625,-0.9489593505859375,-0.1136932373046875,0.0258331298828125
1775721972242672600,2.925672607421875,-0.9522247314453125,-0.123260498046875,0.0289306640625
1775721972252685800,2.935685791015625,-0.9578704833984375,-0.122100830078125,0.0332794189453125
1775721972262698800,2.94569873046875,-0.9375152587890625,-0.1185455322265625,0.03717041015625
1775721972272711700,2.955711669921875,-0.9022979736328125,-0.10919189453125,0.04248046875
1775721972282724600,2.965724609375,-0.8793487548828125,-0.0970001220703125,0.048736572265625
1775721972292737800,2.97573779296875,-0.886444091796875,-0.0904541015625,0.0613555908203125
1775721972302751700,2.985751708984375,-0.89837646484375,-0.08251953125,0.065338134765625
1775721972312764700,2.9957646484375,-0.8932647705078125,-0.0635986328125,0.067169189453125
1775721972322777900,3.00577783203125,-0.865509033203125,-0.0456695556640625,0.0751495361328125
1775721972332790500,3.01579052734375,-0.8294219970703125,-0.0216827392578125,0.0921173095703125
1775721972342803700,3.0258037109375,-0.8118896484375,-0.019073486328125,0.11639404296875
1775721972352817700,3.035817626953125,-0.7746429443359375,-0.0269622802734375,0.131988525390625
1775721972362830600,3.04583056640625,-0.773345947265625,-0.021575927734375,0.1406707763671875
1775721972372843800,3.05584375,-0.812286376953125,-0.0258941650390625,0.1307373046875
1775721972382856700,3.065856689453125,-0.858001708984375,-0.03369140625,0.1122283935546875
1775721972392869600,3.07586962890625,-0.891204833984375,-0.0279998779296875,0.1032257080078125
1775721972402882600,3.085882568359375,-0.8922271728515625,-0.019561767578125,0.1036224365234375
1775721972412896500,3.095896484375,-0.8762969970703125,0.0003204345703125,0.1114654541015625
1775721972422909700,3.10590966796875,-0.8574676513671875,0.0109710693359375,0.1169586181640625
1775721972432922600,3.115922607421875,-0.8615264892578125,-0.0016021728515625,0.12322998046875
1775721972442935800,3.125935791015625,-0.881439208984375,-0.033355712890625,0.1211090087890625
1775721972452948500,3.135948486328125,-0.90447998046875,-0.0622100830078125,0.1197967529296875
1775721972462961700,3.145961669921875,-0.9510498046875,-0.074493408203125,0.118133544921875
1775721972472975600,3.1559755859375,-1.0283355712890625,-0.073333740234375,0.1175537109375
1775721972482988500,3.165988525390625,-1.0802459716796875,-0.0646514892578125,0.1083526611328125
1775721972493001700,3.176001708984375,-1.1033782958984375,-0.0602264404296875,0.0932464599609375
1775721972503014700,3.1860146484375,-1.055267333984375,-0.073455810546875,0.0636444091796875
1775721972513027600,3.196027587890625,-0.983245849609375,-0.0732269287109375,0.0453948974609375
1775721972523040800,3.206040771484375,-0.91192626953125,-0.0553436279296875,0.043304443359375
1775721972533054500,3.216054443359375,-0.872955322265625,-0.0572509765625,0.050537109375
1775721972543067600,3.226067626953125,-0.888763427734375,-0.0629119873046875,0.07733154296875
1775721972553080600,3.23608056640625,-0.8973541259765625,-0.07281494140625,0.1062774658203125
1775721972563093800,3.24609375,-0.8809051513671875,-0.0781097412109375,0.1185302734375
1775721972573106700,3.256106689453125,-0.8716583251953125,-0.067962646484375,0.12225341796875
1775721972583119600,3.26611962890625,-0.886383056640625,-0.0616912841796875,0.1279296875
1775721972593133600,3.276133544921875,-0.9258270263671875,-0.0602874755859375,0.1366424560546875
1775721972603146800,3.286146728515625,-0.9560089111328125,-0.0546112060546875,0.134521484375
1775721972613159700,3.29615966796875,-0.960174560546875,-0.0442047119140625,0.130706787109375
1775721972623172900,3.3061728515625,-0.94281005859375,-0.0366668701171875,0.1385040283203125
1775721972633185500,3.316185546875,-0.9407196044921875,-0.032073974609375,0.159271240234375
1775721972643198700,3.32619873046875,-0.936920166015625,-0.0285491943359375,0.175079345703125
1775721972653212700,3.336212646484375,-0.9196929931640625,-0.01092529296875,0.168426513671875
1775721972663225600,3.3462255859375,-0.9108428955078125,0.0126953125,0.1479339599609375
1775721972673238800,3.35623876953125,-0.93218994140625,0.03314208984375,0.1369476318359375
1775721972683251700,3.366251708984375,-0.959991455078125,0.0417022705078125,0.1380157470703125
1775721972693264600,3.3762646484375,-0.973114013671875,0.040985107421875,0.1309661865234375
1775721972703278800,3.38627880859375,-0.9976348876953125,0.043853759765625,0.1068267822265625
1775721972713291500,3.39629150390625,-1.014434814453125,0.04730224609375,0.064605712890625
1775721972723304700,3.4063046875,-1.0479888916015625,0.05328369140625,0.0187530517578125
1775721972733317600,3.416317626953125,-1.0748443603515625,0.0577850341796875,-0.0184783935546875
1775721972743330800,3.426330810546875,-1.0628509521484375,0.06524658203125,-0.039825439453125
1775721972753343500,3.436343505859375,-1.059722900390625,0.068359375,-0.0459136962890625
1775721972763357700,3.446357666015625,-1.0749053955078125,0.0614776611328125,-0.04248046875
1775721972773370600,3.45637060546875,-1.114501953125,0.0648651123046875,-0.036346435546875
1775721972783383800,3.4663837890625,-1.167327880859375,0.0770111083984375,-0.0237274169921875
1775721972793397000,3.47639697265625,-1.1658782958984375,0.0880889892578125,-0.0113525390625
1775721972803410000,3.486409912109375,-1.1479644775390625,0.0975189208984375,-0.008819580078125
1775721972813422800,3.4964228515625,-1.167449951171875,0.0861663818359375,-0.00244140625
1775721972823437000,3.50643701171875,-1.1840362548828125,0.0591888427734375,0.0104217529296875
1775721972833449700,3.51644970703125,-1.180419921875,0.035552978515625,0.0253143310546875
1775721972843463000,3.526462890625,-1.204071044921875,0.0164337158203125,0.0296630859375
1775721972853475800,3.536475830078125,-1.2456817626953125,0.000823974609375,0.0398101806640625
1775721972863489000,3.546489013671875,-1.2536163330078125,-0.0179290771484375,0.059967041015625
1775721972873502000,3.556501953125,-1.2457275390625,-0.0493621826171875,0.080810546875
1775721972883516000,3.566515869140625,-1.2531280517578125,-0.07977294921875,0.095245361328125
1775721972893528800,3.57652880859375,-1.264678955078125,-0.098968505859375,0.102996826171875
1775721972903542000,3.5865419921875,-1.276580810546875,-0.10205078125,0.1162109375
1775721972913555000,3.596554931640625,-1.2543182373046875,-0.0921783447265625,0.1223297119140625
1775721972923568000,3.606568115234375,-1.20184326171875,-0.0684814453125,0.10736083984375
1775721972933580800,3.616580810546875,-1.149444580078125,-0.047760009765625,0.0847015380859375
1775721972943595000,3.626594970703125,-1.115142822265625,-0.04522705078125,0.074951171875
1775721972953608000,3.63660791015625,-1.085601806640625,-0.0466156005859375,0.0714111328125
1775721972963620900,3.646620849609375,-1.051788330078125,-0.0381622314453125,0.0604705810546875
1775721972973634000,3.656634033203125,-1.046142578125,-0.0321044921875,0.04400634765625
1775721972983647000,3.66664697265625,-1.0501556396484375,-0.0411529541015625,0.0465850830078125
1775721972993660000,3.676659912109375,-1.037567138671875,-0.05633544921875,0.0666046142578125
1775721973003674000,3.686674072265625,-1.041229248046875,-0.0662078857421875,0.090911865234375
1775721973013686800,3.696686767578125,-1.0609130859375,-0.0648345947265625,0.10882568359375
1775721973023700000,3.706699951171875,-1.075531005859375,-0.0528564453125,0.123565673828125
1775721973033713000,3.716712890625,-1.097259521484375,-0.0396575927734375,0.1338348388671875
1775721973043726000,3.72672607421875,-1.0990447998046875,-0.0288848876953125,0.13336181640625
1775721973053738800,3.73673876953125,-1.066619873046875,-0.0229644775390625,0.12841796875
1775721973063753000,3.7467529296875,-1.01727294921875,-0.022491455078125,0.113677978515625
1775721973073766000,3.756765869140625,-0.9884796142578125,-0.0180816650390625,0.0921783447265625
1775721973083778800,3.76677880859375,-0.9917755126953125,-0.0062408447265625,0.0706939697265625
1775721973093792000,3.7767919921875,-0.9985809326171875,0.005096435546875,0.0615692138671875
1775721973103805000,3.786804931640625,-0.9967498779296875,0.0142822265625,0.0640106201171875
1775721973113817900,3.79681787109375,-1.0095367431640625,0.0222015380859375,0.0689849853515625
1775721973123832000,3.80683203125,-1.03369140625,0.02984619140625,0.0652008056640625
1775721973133844700,3.8168447265625,-1.03118896484375,0.038116455078125,0.0417327880859375
1775721973143858000,3.82685791015625,-1.0103759765625,0.04315185546875,0.0103759765625
1775721973153870800,3.836870849609375,-1.0013427734375,0.0389251708984375,-0.013153076171875
1775721973163884000,3.846884033203125,-0.99560546875,0.02825927734375,-0.017578125
1775721973173898000,3.85689794921875,-0.993377685546875,0.027435302734375,-0.0054168701171875
1775721973183911000,3.866910888671875,-0.9967193603515625,0.033050537109375,0.00164794921875
1775721973193923800,3.876923828125,-1.0063323974609375,0.0323638916015625,0.0001678466796875
1775721973203936800,3.886936767578125,-1.0114898681640625,0.030364990234375,-0.0048828125
1775721973213950000,3.896949951171875,-1.023193359375,0.033843994140625,-0.0097198486328125
1775721973223963100,3.906963134765625,-1.0335693359375,0.0338134765625,-0.0078277587890625
1775721973233976800,3.916976806640625,-1.02978515625,0.0310821533203125,-0.004425048828125
1775721973243990000,3.926989990234375,-1.0191497802734375,0.0330810546875,0.006622314453125
1775721973254002700,3.937002685546875,-1.0038909912109375,0.036712646484375,0.0205535888671875
1775721973264016000,3.947015869140625,-1.0002899169921875,0.0421600341796875,0.030181884765625
1775721973274029000,3.957029052734375,-0.999481201171875,0.0455169677734375,0.0377044677734375
1775721973284042000,3.9670419921875,-0.9986114501953125,0.044158935546875,0.0394134521484375
1775721973294056000,3.977055908203125,-1.006256103515625,0.0417633056640625,0.0398101806640625
1775721973304069000,3.987069091796875,-1.030426025390625,0.0416717529296875,0.043609619140625
1775721973314081800,3.997081787109375,-1.0323028564453125,0.0453033447265625,0.04656982421875
1775721973324095000,4.007094970703125,-1.0196990966796875,0.0520172119140625,0.0470428466796875
1775721973334108000,4.01710791015625,-1.0247344970703125,0.052093505859375,0.0467987060546875
1775721973344121000,4.02712109375,-1.01593017578125,0.041107177734375,0.0444793701171875
1775721973354135000,4.037135009765625,-1.0081787109375,0.0316925048828125,0.0443878173828125
1775721973364148000,4.04714794921875,-1.012725830078125,0.024444580078125,0.043212890625
1775721973374161000,4.057160888671875,-1.027435302734375,0.020965576171875,0.0372161865234375
1775721973384173800,4.067173828125,-1.0287933349609375,0.02337646484375,0.0310516357421875
1775721973394187000,4.07718701171875,-1.0270538330078125,0.0262298583984375,0.0276641845703125
1775721973404200000,4.087199951171875,-1.0255126953125,0.0257110595703125,0.0258026123046875
1775721973414214000,4.0972138671875,-1.0081939697265625,0.0231475830078125,0.020233154296875
1775721973424227000,4.10722705078125,-0.985015869140625,0.026580810546875,0.010162353515625
1775721973434239700,4.11723974609375,-0.9801025390625,0.033660888671875,0.003997802734375
1775721973444253000,4.1272529296875,-0.9862823486328125,0.037689208984375,-0.0006103515625
1775721973454265900,4.137265869140625,-0.9874267578125,0.0417022705078125,-0.0015106201171875
1775721973464279000,4.147279052734375,-0.9954986572265625,0.0448455810546875,0.000335693359375
1775721973474293000,4.15729296875,-1.0030517578125,0.0506591796875,0.0016632080078125
1775721973484306000,4.167305908203125,-1.0045928955078125,0.05145263671875,0.0057373046875
1775721973494318800,4.17731884765625,-0.9998626708984375,0.048980712890625,0.0093994140625
1775721973504331800,4.187331787109375,-0.99127197265625,0.0475921630859375,0.0133056640625
1775721973514345000,4.197344970703125,-0.989593505859375,0.0458984375,0.01416015625
1775721973524358100,4.207358154296875,-0.9934234619140625,0.0449066162109375,0.0213165283203125
1775721973534371800,4.217371826171875,-0.9954376220703125,0.04547119140625,0.0386962890625
1775721973544385000,4.227385009765625,-1.0044708251953125,0.0465240478515625,0.0529327392578125
1775721973554397700,4.237397705078125,-1.0104827880859375,0.04638671875,0.0575103759765625
1775721973564411000,4.247410888671875,-1.0240631103515625,0.04144287109375,0.060546875
1775721973574424000,4.257424072265625,-1.034332275390625,0.0388946533203125,0.059112548828125
1775721973584437000,4.26743701171875,-1.03985595703125,0.0349273681640625,0.0554351806640625
1775721973594451000,4.277450927734375,-1.0519561767578125,0.0357513427734375,0.0596466064453125
1775721973604463900,4.2874638671875,-1.070556640625,0.036041259765625,0.0657501220703125
1775721973614476800,4.297476806640625,-1.0831756591796875,0.0345611572265625,0.070953369140625
1775721973624490000,4.307489990234375,-1.070098876953125,0.0392913818359375,0.0674285888671875
1775721973634503000,4.3175029296875,-1.0488433837890625,0.0399322509765625,0.0622406005859375
1775721973644516000,4.32751611328125,-1.0286865234375,0.0330963134765625,0.05322265625
1775721973654529800,4.33752978515625,-1.01776123046875,0.0273284912109375,0.04376220703125
1775721973664543000,4.34754296875,-1.0240478515625,0.026824951171875,0.036590576171875
1775721973674556000,4.357555908203125,-1.0454864501953125,0.0253448486328125,0.031158447265625
1775721973684568800,4.36756884765625,-1.066741943359375,0.023712158203125,0.023345947265625
1775721973694582000,4.37758203125,-1.0887298583984375,0.0231781005859375,0.0184326171875
1775721973704595000,4.387594970703125,-1.1092987060546875,0.0146026611328125,0.0195770263671875
1775721973714609000,4.39760888671875,-1.1058349609375,0.0095672607421875,0.01953125
1775721973724622000,4.4076220703125,-1.090484619140625,0.0160369873046875,0.0224609375
1775721973734634800,4.417634765625,-1.081787109375,0.0185546875,0.0246429443359375
1775721973744648000,4.42764794921875,-1.0738067626953125,0.015472412109375,0.0242919921875
1775721973754660900,4.437660888671875,-1.0842132568359375,0.0142364501953125,0.0276031494140625
1775721973764674800,4.4476748046875,-1.1034698486328125,0.013885498046875,0.033294677734375
1775721973774688000,4.45768798828125,-1.1124420166015625,0.0220489501953125,0.0474700927734375
1775721973784701000,4.467700927734375,-1.114013671875,0.0377655029296875,0.062713623046875
1775721973794713900,4.4777138671875,-1.0922698974609375,0.0486602783203125,0.0723114013671875
1775721973804726800,4.487726806640625,-1.0642852783203125,0.0535736083984375,0.075164794921875
1775721973814739700,4.49773974609375,-1.056884765625,0.05084228515625,0.070892333984375
1775721973824753000,4.5077529296875,-1.072509765625,0.0452728271484375,0.0659942626953125
1775721973834766800,4.517766845703125,-1.0938262939453125,0.043182373046875,0.065155029296875
1775721973844779800,4.52777978515625,-1.1206512451171875,0.0414886474609375,0.0648345947265625
1775721973854793000,4.53779296875,-1.1186676025390625,0.0476531982421875,0.0657501220703125
1775721973864805600,4.5478056640625,-1.102508544921875,0.0581512451171875,0.0711669921875
1775721973874818800,4.55781884765625,-1.0848846435546875,0.0628814697265625,0.07696533203125
1775721973884832800,4.567832763671875,-1.070831298828125,0.063751220703125,0.0816650390625
1775721973894845700,4.577845703125,-1.0614471435546875,0.0646514892578125,0.079376220703125
1775721973904859000,4.58785888671875,-1.05706787109375,0.070068359375,0.0684356689453125
1775721973914871800,4.597871826171875,-1.0655059814453125,0.0796966552734375,0.05596923828125
1775721973924884700,4.607884765625,-1.0923919677734375,0.0836334228515625,0.0522308349609375
1775721973934898000,4.61789794921875,-1.1081390380859375,0.08489990234375,0.0555419921875
1775721973944911600,4.62791162109375,-1.118377685546875,0.08001708984375,0.06341552734375
1775721973954924800,4.6379248046875,-1.1170501708984375,0.0749053955078125,0.0734100341796875
1775721973964937700,4.647937744140625,-1.0982208251953125,0.06732177734375,0.0831146240234375
1775721973974951000,4.657950927734375,-1.084808349609375,0.064483642578125,0.0827484130859375
1775721973984963800,4.6679638671875,-1.067352294921875,0.0607757568359375,0.085296630859375
1775721973994976800,4.677976806640625,-1.0365142822265625,0.0576019287109375,0.083740234375
1775721974004990700,4.68799072265625,-1.0089874267578125,0.0548095703125,0.076019287109375
1775721974015003600,4.698003662109375,-0.992095947265625,0.05657958984375,0.068756103515625
1775721974025016800,4.708016845703125,-0.9745941162109375,0.0587615966796875,0.0743865966796875
1775721974035030000,4.718030029296875,-0.9748687744140625,0.0557403564453125,0.0841064453125
1775721974045042700,4.728042724609375,-0.9541015625,0.0453643798828125,0.0861053466796875
1775721974055056000,4.738055908203125,-0.929046630859375,0.0437164306640625,0.0751800537109375
1775721974065069800,4.74806982421875,-0.9138336181640625,0.0412445068359375,0.0529937744140625
1775721974075082800,4.758082763671875,-0.906829833984375,0.030517578125,0.0400848388671875
1775721974085096000,4.768095947265625,-0.9104461669921875,0.016937255859375,0.045318603515625
1775721974095108900,4.77810888671875,-0.92413330078125,0.0082244873046875,0.0667266845703125
1775721974105121800,4.788121826171875,-0.9380645751953125,0.00933837890625,0.08331298828125
1775721974115134700,4.798134765625,-0.949859619140625,0.0129547119140625,0.080596923828125
1775721974125148700,4.808148681640625,-0.9458770751953125,0.0157470703125,0.0644073486328125
1775721974135161900,4.818161865234375,-0.9346771240234375,0.01251220703125,0.0464630126953125
1775721974145174800,4.8281748046875,-0.9323272705078125,0.0063934326171875,0.02899169921875
1775721974155188000,4.83818798828125,-0.9402618408203125,0.0083770751953125,0.020355224609375
1775721974165200600,4.84820068359375,-0.959228515625,0.012481689453125,0.019256591796875
1775721974175213800,4.8582138671875,-0.994964599609375,0.0226898193359375,0.022308349609375
1775721974185227800,4.868227783203125,-1.0297393798828125,0.0316925048828125,0.024200439453125
1775721974195240700,4.87824072265625,-1.061065673828125,0.0304412841796875,0.021942138671875
1775721974205254000,4.88825390625,-1.092681884765625,0.0213775634765625,0.016265869140625
1775721974215266800,4.898266845703125,-1.102783203125,0.010894775390625,0.0089569091796875
1775721974225279700,4.90827978515625,-1.08636474609375,0.002349853515625,-0.0037994384765625
1775721974235293000,4.91829296875,-1.0694580078125,-0.00152587890625,-0.007171630859375
1775721974245306600,4.928306640625,-1.0456695556640625,-0.0057220458984375,0.00408935546875
1775721974255319800,4.93831982421875,-1.01763916015625,-0.0076141357421875,0.0301971435546875
1775721974265332700,4.948332763671875,-1.0000457763671875,-0.0136566162109375,0.0480804443359375
1775721974275346000,4.958345947265625,-0.98388671875,-0.02789306640625,0.0469512939453125
1775721974285358800,4.96835888671875,-0.9864044189453125,-0.0354461669921875,0.0366058349609375
1775721974295371800,4.978371826171875,-0.996826171875,-0.0330810546875,0.0272369384765625
1775721974305385700,4.9883857421875,-1.006072998046875,-0.0196380615234375,0.0262298583984375
1775721974315398700,4.998398681640625,-1.0054931640625,-0.01239013671875,0.028778076171875
1775721974325411800,5.008411865234375,-1.0001373291015625,-0.012176513671875,0.034149169921875
1775721974335425000,5.018425048828125,-0.9967193603515625,-0.01959228515625,0.0431365966796875
1775721974345437700,5.028437744140625,-0.9910125732421875,-0.0294189453125,0.054046630859375
1775721974355451000,5.038450927734375,-0.985321044921875,-0.0340576171875,0.065582275390625
1775721974365464600,5.048464599609375,-1.00994873046875,-0.034759521484375,0.07867431640625
1775721974375477800,5.058477783203125,-1.009429931640625,-0.0267486572265625,0.079345703125
1775721974385491000,5.068490966796875,-1.0153350830078125,-0.0061187744140625,0.06988525390625
1775721974395503900,5.07850390625,-1.0291748046875,0.018707275390625,0.0505218505859375
1775721974405516800,5.088516845703125,-1.0194244384765625,0.03387451171875,0.0299835205078125
1775721974415529700,5.09852978515625,-0.988800048828125,0.0335845947265625,0.0203704833984375
1775721974425543700,5.108543701171875,-0.9510955810546875,0.0260009765625,0.0162353515625
1775721974435556900,5.118556884765625,-0.922515869140625,0.0256195068359375,0.00445556640625
1775721974445569800,5.12856982421875,-0.9278106689453125,0.03875732421875,-0.0056304931640625
1775721974455583000,5.1385830078125,-0.93194580078125,0.0415802001953125,0.008026123046875
1775721974465595600,5.148595703125,-0.9339752197265625,0.0292510986328125,0.035797119140625
1775721974475608800,5.15860888671875,-0.9340057373046875,0.0054931640625,0.0538177490234375
1775721974485622800,5.168622802734375,-0.9395751953125,-0.00848388671875,0.0660858154296875
1775721974495635700,5.1786357421875,-0.9566650390625,-0.011077880859375,0.077789306640625
1775721974505649000,5.18864892578125,-0.97186279296875,-0.001068115234375,0.0818023681640625
1775721974515661800,5.198661865234375,-0.9755096435546875,0.00726318359375,0.0749359130859375
1775721974525674800,5.2086748046875,-0.9716796875,0.0018310546875,0.0706939697265625
1775721974535687700,5.218687744140625,-0.9488067626953125,-0.01666259765625,0.0756988525390625
1775721974545701600,5.22870166015625,-0.925994873046875,-0.0386962890625,0.0846405029296875
1775721974555714800,5.23871484375,-0.930816650390625,-0.0444183349609375,0.09130859375
1775721974565727700,5.248727783203125,-0.948822021484375,-0.03216552734375,0.090576171875
1775721974575741000,5.258740966796875,-0.966766357421875,-0.0119476318359375,0.1005401611328125
1775721974585753900,5.26875390625,-0.985626220703125,0.007781982421875,0.1101837158203125
1775721974595766800,5.278766845703125,-0.9777069091796875,0.0162353515625,0.1112823486328125
1775721974605780700,5.28878076171875,-0.96954345703125,0.0172271728515625,0.1089019775390625
1775721974615793700,5.298793701171875,-0.97674560546875,0.0113067626953125,0.1028594970703125
1775721974625806800,5.308806884765625,-0.9769134521484375,-0.00091552734375,0.1039276123046875
1775721974635820000,5.318820068359375,-0.97283935546875,-0.01995849609375,0.1078338623046875
1775721974645832700,5.328832763671875,-0.9771728515625,-0.0490875244140625,0.103057861328125
1775721974655846000,5.338845947265625,-0.98095703125,-0.0685272216796875,0.0746917724609375
1775721974665859600,5.348859619140625,-0.9824676513671875,-0.06103515625,0.0296173095703125
1775721974675872800,5.358872802734375,-0.985076904296875,-0.0380401611328125,0.0071563720703125
1775721974685886000,5.368885986328125,-0.980072021484375,-0.0145416259765625,0.0205841064453125
1775721974695899000,5.37889892578125,-0.9626922607421875,-0.0078125,0.052215576171875
1775721974705911800,5.388911865234375,-0.934051513671875,-0.0214691162109375,0.0847625732421875
1775721974715924700,5.3989248046875,-0.899566650390625,-0.0454864501953125,0.117034912109375
1775721974725938700,5.408938720703125,-0.876739501953125,-0.0754241943359375,0.1354827880859375
1775721974735952000,5.418951904296875,-0.8643035888671875,-0.105712890625,0.1307373046875
1775721974745964800,5.42896484375,-0.863494873046875,-0.1156463623046875,0.119476318359375
1775721974755978000,5.43897802734375,-0.869293212890625,-0.1024322509765625,0.100372314453125
1775721974765990700,5.44899072265625,-0.862213134765625,-0.0793914794921875,0.0710296630859375
1775721974776003800,5.45900390625,-0.85430908203125,-0.063079833984375,0.0456695556640625
1775721974786017000,5.46901708984375,-0.8520965576171875,-0.0611724853515625,0.030670166015625
1775721974796030000,5.479030029296875,-0.8467864990234375,-0.067291259765625,0.022064208984375
1775721974806043100,5.489043212890625,-0.8314056396484375,-0.080963134765625,0.028350830078125
1775721974816056000,5.49905615234375,-0.821990966796875,-0.0957489013671875,0.04144287109375
1775721974826069000,5.509069091796875,-0.82928466796875,-0.102294921875,0.04803466796875
1775721974836083000,5.5190830078125,-0.8456878662109375,-0.0987091064453125,0.04913330078125
1775721974846096100,5.52909619140625,-0.871337890625,-0.089385986328125,0.0453033447265625
1775721974856109000,5.539109130859375,-0.9000091552734375,-0.0793304443359375,0.0426177978515625
1775721974866122000,5.5491220703125,-0.921356201171875,-0.069488525390625,0.03717041015625
1775721974876135200,5.55913525390625,-0.9476470947265625,-0.0636749267578125,0.0251312255859375
1775721974886148000,5.569148193359375,-0.9620819091796875,-0.0584259033203125,0.0137939453125
1775721974896161000,5.5791611328125,-0.9618682861328125,-0.059417724609375,0.0094757080078125
1775721974906175200,5.58917529296875,-0.963226318359375,-0.066070556640625,0.017669677734375
1775721974916188000,5.59918798828125,-0.9679718017578125,-0.0742645263671875,0.029022216796875
1775721974926201000,5.609201171875,-0.9783477783203125,-0.08038330078125,0.0435791015625
1775721974936214000,5.619214111328125,-0.99444580078125,-0.0797576904296875,0.0593109130859375
1775721974946227200,5.629227294921875,-1.0184478759765625,-0.0753173828125,0.0728759765625
1775721974956241200,5.6392412109375,-1.04815673828125,-0.0707550048828125,0.080963134765625
1775721974966254000,5.649254150390625,-1.0688934326171875,-0.0605621337890625,0.0744171142578125
1775721974976267000,5.65926708984375,-1.0521087646484375,-0.0434112548828125,0.0630645751953125
1775721974986280000,5.669280029296875,-1.0222625732421875,-0.0326385498046875,0.0526580810546875
1775721974996293000,5.679293212890625,-1.003326416015625,-0.03485107421875,0.048095703125
1775721975006306000,5.68930615234375,-1.0022735595703125,-0.0487823486328125,0.052886962890625
1775721975016320000,5.699320068359375,-1.0011444091796875,-0.0562744140625,0.0611114501953125
1775721975026333200,5.709333251953125,-1.00445556640625,-0.0565643310546875,0.06640625
1775721975036345900,5.719345947265625,-1.0088348388671875,-0.0572357177734375,0.0659027099609375
1775721975046359000,5.729359130859375,-1.0087432861328125,-0.0557403564453125,0.0659027099609375
1775721975056372200,5.739372314453125,-0.997833251953125,-0.0560760498046875,0.069091796875
1775721975066385200,5.74938525390625,-0.979461669921875,-0.053375244140625,0.0680694580078125
1775721975076399000,5.759399169921875,-0.969085693359375,-0.0501556396484375,0.0550537109375
1775721975086412000,5.769412109375,-0.9663543701171875,-0.0501708984375,0.0342254638671875
1775721975096425000,5.779425048828125,-0.9704132080078125,-0.054351806640625,0.01885986328125
1775721975106438100,5.789438232421875,-0.97882080078125,-0.0594024658203125,0.0193634033203125
1775721975116451000,5.799451171875,-0.9894866943359375,-0.06463623046875,0.030731201171875
1775721975126464300,5.80946435546875,-0.995635986328125,-0.0689697265625,0.0406036376953125
1775721975136478000,5.81947802734375,-0.998931884765625,-0.0653533935546875,0.0441741943359375
1775721975146491100,5.8294912109375,-1.0077972412109375,-0.0615386962890625,0.04443359375
1775721975156504000,5.839504150390625,-1.0030517578125,-0.061370849609375,0.0426483154296875
1775721975166517000,5.84951708984375,-0.9845123291015625,-0.06378173828125,0.032196044921875
1775721975176530200,5.8595302734375,-0.97509765625,-0.06646728515625,0.0194244384765625
1775721975186543000,5.869543212890625,-0.970977783203125,-0.070068359375,0.0065460205078125
1775721975196557000,5.87955712890625,-0.9615325927734375,-0.06988525390625,0.0031280517578125
1775721975206570200,5.8895703125,-0.9601287841796875,-0.063812255859375,0.004119873046875
1775721975216583000,5.8995830078125,-0.9585418701171875,-0.0630340576171875,0.0074005126953125
1775721975226596000,5.90959619140625,-0.9523468017578125,-0.0647430419921875,0.0106048583984375
1775721975236609000,5.919609130859375,-0.941375732421875,-0.068206787109375,0.015289306640625
1775721975246622200,5.929622314453125,-0.9378509521484375,-0.075927734375,0.02093505859375
1775721975256635000,5.939634765625,-0.945953369140625,-0.0867156982421875,0.0184173583984375
1775721975266649000,5.949649169921875,-0.9621429443359375,-0.096221923828125,0.016357421875
1775721975276662000,5.959662109375,-0.98553466796875,-0.09918212890625,0.0237884521484375
1775721975286675000,5.969675048828125,-1.0010986328125,-0.0977935791015625,0.03973388671875
1775721975296688000,5.979688232421875,-0.99554443359375,-0.090179443359375,0.050994873046875
1775721975306701000,5.989701171875,-0.9750518798828125,-0.081878662109375,0.0520172119140625
1775721975316715000,5.999715087890625,-0.947265625,-0.07818603515625,0.0462799072265625
1775721975326728200,6.009728271484375,-0.9224090576171875,-0.0786590576171875,0.0346221923828125
1775721975336740900,6.019740966796875,-0.896331787109375,-0.078887939453125,0.0235748291015625
1775721975346754000,6.029754150390625,-0.8873443603515625,-0.0782012939453125,0.0226898193359375
1775721975356767000,6.03976708984375,-0.892608642578125,-0.08642578125,0.0366058349609375
1775721975366780200,6.0497802734375,-0.90789794921875,-0.0904541015625,0.049835205078125
1775721975376794000,6.059794189453125,-0.929901123046875,-0.0893707275390625,0.058258056640625
1775721975386807000,6.06980712890625,-0.94677734375,-0.089508056640625,0.055450439453125
1775721975396820000,6.079820068359375,-0.955810546875,-0.0883941650390625,0.051177978515625
1775721975406833000,6.0898330078125,-0.9589080810546875,-0.0850372314453125,0.050262451171875
1775721975416846000,6.09984619140625,-0.95098876953125,-0.0808258056640625,0.053192138671875
1775721975426859300,6.109859375,-0.94622802734375,-0.0758209228515625,0.0620574951171875
1775721975436872000,6.119871826171875,-0.94329833984375,-0.0772552490234375,0.070709228515625
1775721975446886100,6.12988623046875,-0.9265899658203125,-0.08013916015625,0.0719146728515625
1775721975456899000,6.139899169921875,-0.91156005859375,-0.0791015625,0.067535400390625
1775721975466912000,6.149912109375,-0.889251708984375,-0.0753631591796875,0.054473876953125
1775721975476925200,6.15992529296875,-0.860382080078125,-0.076385498046875,0.044403076171875
1775721975486938000,6.169938232421875,-0.8417816162109375,-0.0846405029296875,0.042144775390625
1775721975496952000,6.1799521484375,-0.8358154296875,-0.097137451171875,0.0455169677734375
1775721975506965200,6.18996533203125,-0.8496246337890625,-0.1041259765625,0.0451202392578125
1775721975516978000,6.19997802734375,-0.8719635009765625,-0.1038055419921875,0.04766845703125
1775721975526991000,6.2099912109375,-0.8929443359375,-0.1013031005859375,0.0715484619140625
1775721975537004000,6.220004150390625,-0.904632568359375,-0.0997772216796875,0.110382080078125
1775721975547017200,6.230017333984375,-0.9033355712890625,-0.092071533203125,0.1440277099609375
1775721975557030000,6.24002978515625,-0.881195068359375,-0.0831146240234375,0.1497802734375
1775721975567044000,6.250044189453125,-0.839508056640625,-0.0704498291015625,0.13116455078125
1775721975577057000,6.26005712890625,-0.80364990234375,-0.0601959228515625,0.0991058349609375
1775721975587070000,6.270070068359375,-0.79437255859375,-0.0555267333984375,0.0698089599609375
1775721975597083100,6.280083251953125,-0.779541015625,-0.0562744140625,0.0517578125
1775721975607096000,6.290095947265625,-0.764984130859375,-0.051849365234375,0.0451812744140625
1775721975617109000,6.30010888671875,-0.7639617919921875,-0.049407958984375,0.056365966796875
1775721975627123200,6.310123291015625,-0.765106201171875,-0.0606231689453125,0.0778961181640625
1775721975637136000,6.320135986328125,-0.76995849609375,-0.0795135498046875,0.0949554443359375
1775721975647149000,6.330149169921875,-0.7895050048828125,-0.089447021484375,0.10382080078125
1775721975657162000,6.340161865234375,-0.8263702392578125,-0.0872955322265625,0.1095733642578125
1775721975667175200,6.350175048828125,-0.8482513427734375,-0.075469970703125,0.1067352294921875
1775721975677188000,6.36018798828125,-0.861053466796875,-0.0627899169921875,0.106597900390625
1775721975687202000,6.3702021484375,-0.87396240234375,-0.0543975830078125,0.1012725830078125
1775721975697215000,6.380215087890625,-0.87542724609375,-0.0524139404296875,0.0917816162109375
1775721975707228000,6.390227783203125,-0.8444976806640625,-0.0428619384765625,0.0835723876953125
1775721975717241000,6.400240966796875,-0.8165283203125,-0.0277099609375,0.074249267578125
1775721975727254300,6.410254150390625,-0.80999755859375,-0.021881103515625,0.0718994140625
1775721975737267000,6.420266845703125,-0.8131256103515625,-0.01953125,0.082183837890625
1775721975747281200,6.43028125,-0.8390350341796875,-0.0154876708984375,0.103851318359375
1775721975757293800,6.4402939453125,-0.870147705078125,-0.005126953125,0.1333770751953125
1775721975767307000,6.45030712890625,-0.89752197265625,0.022735595703125,0.1540069580078125
1775721975777320200,6.4603203125,-0.925872802734375,0.061859130859375,0.1537017822265625
1775721975787333400,6.47033349609375,-0.95550537109375,0.103790283203125,0.1535186767578125
1775721975797346300,6.48034619140625,-0.9803619384765625,0.1378326416015625,0.1561126708984375
1775721975807360300,6.4903603515625,-1.0270233154296875,0.1690216064453125,0.15093994140625
1775721975817373200,6.500373291015625,-1.0778961181640625,0.1795806884765625,0.1591033935546875
1775721975827386000,6.51038623046875,-1.1795501708984375,0.1916351318359375,0.153472900390625
1775721975837399300,6.5203994140625,-1.2678985595703125,0.205352783203125,0.16815185546875
1775721975847412200,6.530412109375,-1.3574066162109375,0.192413330078125,0.1817474365234375
1775721975857425200,6.540425048828125,-1.5023651123046875,0.1981353759765625,0.1907501220703125
1775721975867439400,6.550439453125,-1.57489013671875,0.2028045654296875,0.19439697265625
1775721975877452300,6.560452392578125,-1.56683349609375,0.19671630859375,0.1866302490234375
1775721975887465200,6.57046533203125,-1.52923583984375,0.172607421875,0.1707916259765625
1775721975897478400,6.580478515625,-1.47662353515625,0.1273956298828125,0.150390625
1775721975907491300,6.5904912109375,-1.4056243896484375,0.0741119384765625,0.1358795166015625
1775721975917504300,6.600504150390625,-1.339080810546875,0.029052734375,0.1199188232421875
1775721975927518500,6.6105185546875,-1.287078857421875,0.0042572021484375,0.1065216064453125
1775721975937531100,6.62053125,-1.2506866455078125,-0.0147705078125,0.0994415283203125
1775721975947544300,6.63054443359375,-1.2197723388671875,-0.0388031005859375,0.099365234375
1775721975957557200,6.64055712890625,-1.1980133056640625,-0.07000732421875,0.1033782958984375
1775721975967570400,6.6505703125,-1.1851348876953125,-0.1033172607421875,0.1017608642578125
1775721975977583000,6.6605830078125,-1.1849365234375,-0.1321258544921875,0.0999603271484375
1775721975987597300,6.670597412109375,-1.2018890380859375,-0.1509246826171875,0.09954833984375
1775721975997610200,6.6806103515625,-1.1983795166015625,-0.1632080078125,0.0984344482421875
1775721976007623200,6.690623046875,-1.1764068603515625,-0.164215087890625,0.0945587158203125
1775721976017636400,6.70063623046875,-1.1512603759765625,-0.1530609130859375,0.088836669921875
1775721976027649300,6.710649169921875,-1.1328277587890625,-0.1397552490234375,0.0857391357421875
1775721976037662200,6.720662109375,-1.109649658203125,-0.128753662109375,0.0784454345703125
1775721976047676400,6.730676513671875,-1.0759429931640625,-0.118499755859375,0.064300537109375
1775721976057689000,6.740689208984375,-1.0529632568359375,-0.1034698486328125,0.04742431640625
1775721976067702300,6.750702392578125,-1.048370361328125,-0.085906982421875,0.0258941650390625
1775721976077715200,6.760715087890625,-1.0380859375,-0.0663909912109375,0.0080718994140625
1775721976087728400,6.770728271484375,-1.0179443359375,-0.0460205078125,-0.0074462890625
1775721976097741300,6.7807412109375,-1.0118865966796875,-0.0249481201171875,-0.0224609375
1775721976107755300,6.79075537109375,-1.0054779052734375,-0.003662109375,-0.028656005859375
1775721976117768200,6.800768310546875,-0.9914398193359375,0.0175323486328125,-0.023681640625
1775721976127781000,6.810781005859375,-0.985565185546875,0.03863525390625,-0.017547607421875
1775721976137794300,6.820794189453125,-0.974029541015625,0.0550994873046875,-0.0179290771484375
1775721976147807200,6.83080712890625,-0.9628448486328125,0.0727386474609375,-0.01971435546875
1775721976157820200,6.840820068359375,-0.9589080810546875,0.0879364013671875,-0.0187835693359375
1775721976167834400,6.85083447265625,-0.9763336181640625,0.0967864990234375,-0.00933837890625
1775721976177847000,6.860846923828125,-0.9873809814453125,0.09991455078125,-0.000701904296875
1775721976187860200,6.870860107421875,-0.9806671142578125,0.1068267822265625,0.0035858154296875
1775721976197873400,6.880873291015625,-0.9652557373046875,0.1208953857421875,0.0134124755859375
1775721976207886300,6.89088623046875,-0.946533203125,0.1355743408203125,0.02130126953125
1775721976217899300,6.900899169921875,-0.9402923583984375,0.13958740234375,0.031646728515625
1775721976227913200,6.910913330078125,-0.9419708251953125,0.1367645263671875,0.042724609375
1775721976237926100,6.920926025390625,-0.9441070556640625,0.1317138671875,0.052978515625
1775721976247939300,6.930939208984375,-0.9571533203125,0.1228179931640625,0.059234619140625
1775721976257952300,6.9409521484375,-0.98004150390625,0.1098175048828125,0.0654754638671875
1775721976267965400,6.95096533203125,-1.0095367431640625,0.0948486328125,0.0709381103515625
1775721976277978000,6.96097802734375,-1.029541015625,0.0811767578125,0.0725555419921875
1775721976287992300,6.970992431640625,-1.0498046875,0.071197509765625,0.070709228515625
1775721976298005200,6.981005126953125,-1.0518798828125,0.060791015625,0.067413330078125
1775721976308018200,6.99101806640625,-1.0343475341796875,0.04595947265625,0.0672607421875
1775721976318031400,7.00103125,-1.0125732421875,0.0239105224609375,0.0660247802734375
1775721976328044300,7.011044189453125,-0.9962158203125,0.00750732421875,0.066253662109375
1775721976338057200,7.02105712890625,-1.0009002685546875,-0.00677490234375,0.0657958984375
1775721976348071400,7.031071533203125,-1.023223876953125,-0.0253753662109375,0.0713043212890625
1775721976358084000,7.041083984375,-1.0397491455078125,-0.036865234375,0.067352294921875
1775721976368097300,7.05109716796875,-1.054107666015625,-0.0442047119140625,0.057281494140625
1775721976378110200,7.061110107421875,-1.0616607666015625,-0.0478363037109375,0.04473876953125
1775721976388123400,7.071123291015625,-1.0627593994140625,-0.0523529052734375,0.0328826904296875
1775721976398136000,7.081135986328125,-1.0675811767578125,-0.0540924072265625,0.0186614990234375
1775721976408150300,7.091150390625,-1.0823516845703125,-0.051971435546875,0.0078887939453125
1775721976418163200,7.1011630859375,-1.072998046875,-0.0438690185546875,0.0024566650390625
1775721976428176100,7.111176025390625,-1.0501708984375,-0.0341339111328125,0.00042724609375
1775721976438189300,7.121189208984375,-1.0359649658203125,-0.02459716796875,0.002471923828125
1775721976448202500,7.131202392578125,-1.0202178955078125,-0.0132598876953125,0.007537841796875
1775721976458215200,7.141215087890625,-1.0012664794921875,0.0020599365234375,0.010162353515625
1775721976468229400,7.1512294921875,-0.984527587890625,0.0128326416015625,0.0097198486328125
1775721976478242000,7.161241943359375,-0.9842071533203125,0.026153564453125,0.0119476318359375
1775721976488255200,7.171255126953125,-0.9835205078125,0.0339813232421875,0.01495361328125
1775721976498268400,7.181268310546875,-0.9732208251953125,0.039794921875,0.0224456787109375
1775721976508281300,7.19128125,-0.9615325927734375,0.046173095703125,0.0303192138671875
1775721976518294300,7.201294189453125,-0.9625701904296875,0.0516510009765625,0.0369110107421875
1775721976528307200,7.21130712890625,-0.95635986328125,0.0555267333984375,0.04644775390625
1775721976538321200,7.221321044921875,-0.946685791015625,0.062164306640625,0.0514984130859375
1775721976548334300,7.231334228515625,-0.9451904296875,0.066925048828125,0.052032470703125
1775721976558347300,7.24134716796875,-0.9429168701171875,0.0674896240234375,0.05450439453125
1775721976568360400,7.2513603515625,-0.9397125244140625,0.0676727294921875,0.0620269775390625
1775721976578373000,7.261373046875,-0.9476165771484375,0.0691070556640625,0.0671539306640625
1775721976588386300,7.27138623046875,-0.969757080078125,0.0682830810546875,0.0723114013671875
1775721976598400300,7.281400146484375,-0.9802093505859375,0.062744140625,0.07073974609375
1775721976608413200,7.2914130859375,-0.977752685546875,0.057830810546875,0.0638885498046875
1775721976618426400,7.30142626953125,-0.9687957763671875,0.056243896484375,0.0512542724609375
1775721976628439300,7.311439208984375,-0.956390380859375,0.057769775390625,0.040435791015625
1775721976638452200,7.3214521484375,-0.945953369140625,0.0563507080078125,0.0323486328125
1775721976648465200,7.331465087890625,-0.9482269287109375,0.05145263671875,0.0320587158203125
1775721976658479000,7.34147900390625,-0.9619903564453125,0.04473876953125,0.033599853515625
1775721976668492300,7.3514921875,-0.97784423828125,0.0373687744140625,0.03460693359375
1775721976678505200,7.361505126953125,-0.9915618896484375,0.0336456298828125,0.033172607421875
1775721976688518400,7.371518310546875,-0.9970245361328125,0.028839111328125,0.0300445556640625
1775721976698531000,7.381531005859375,-1.000030517578125,0.02252197265625,0.0279541015625
1775721976708544300,7.391544189453125,-1.0091400146484375,0.01568603515625,0.02862548828125
1775721976718558200,7.40155810546875,-1.0220184326171875,0.007232666015625,0.0303955078125
1775721976728571100,7.411571044921875,-1.0258026123046875,0.0024566650390625,0.030029296875
1775721976738584300,7.421584228515625,-1.010284423828125,-0.00067138671875,0.029815673828125
1775721976748597200,7.43159716796875,-1.00201416015625,-0.0043792724609375,0.0269775390625
1775721976758610200,7.441610107421875,-0.999420166015625,-0.003814697265625,0.0262603759765625
1775721976768623400,7.451623291015625,-0.995147705078125,-0.00506591796875,0.0312347412109375
1775721976778637000,7.461636962890625,-0.997802734375,-0.0069122314453125,0.0382537841796875
1775721976788650500,7.471650390625,-1.0087127685546875,-0.004486083984375,0.04193115234375
1775721976798663700,7.48166357421875,-1.020233154296875,-0.0011749267578125,0.0472412109375
1775721976808676600,7.491676513671875,-1.0283050537109375,-0.0001068115234375,0.04669189453125
1775721976818689500,7.501689453125,-1.0278167724609375,-0.0015411376953125,0.0475006103515625
1775721976828702500,7.511702392578125,-1.0279541015625,0.0004119873046875,0.0460205078125
1775721976838716400,7.52171630859375,-1.023529052734375,0.003173828125,0.0433349609375
1775721976848729600,7.5317294921875,-1.0294036865234375,0.00738525390625,0.042144775390625
1775721976858742500,7.541742431640625,-1.0477294921875,0.0101776123046875,0.038055419921875
1775721976868755500,7.55175537109375,-1.04290771484375,0.01416015625,0.035736083984375
1775721976878768400,7.561768310546875,-1.0368499755859375,0.01995849609375,0.0406494140625
1775721976888781600,7.571781494140625,-1.0283966064453125,0.026336669921875,0.0421600341796875
1775721976898795500,7.58179541015625,-1.015899658203125,0.0313262939453125,0.042694091796875
1775721976908808400,7.591808349609375,-1.0047760009765625,0.0358734130859375,0.0415191650390625
1775721976918821600,7.601821533203125,-0.995697021484375,0.0409088134765625,0.0386810302734375
1775721976928834600,7.61183447265625,-0.99822998046875,0.0482940673828125,0.0352935791015625
1775721976938847500,7.621847412109375,-1.0101318359375,0.055328369140625,0.0310211181640625
1775721976948860400,7.6318603515625,-1.0156402587890625,0.0587921142578125,0.0283050537109375
1775721976958873600,7.64187353515625,-1.0196685791015625,0.062103271484375,0.02685546875
1775721976968887600,7.651887451171875,-1.0243682861328125,0.0633544921875,0.025787353515625
1775721976978900500,7.661900390625,-1.0185089111328125,0.062652587890625,0.0302734375
1775721976988913700,7.67191357421875,-1.011199951171875,0.05908203125,0.0372161865234375
1775721976998926300,7.68192626953125,-1.006683349609375,0.05462646484375,0.0394744873046875
1775721977008939500,7.691939453125,-1.0084075927734375,0.0506744384765625,0.04034423828125
1775721977018952700,7.70195263671875,-1.017578125,0.0510406494140625,0.04241943359375
1775721977028966400,7.71196630859375,-1.0397796630859375,0.0485992431640625,0.0480194091796875
1775721977038979600,7.7219794921875,-1.0549163818359375,0.0453948974609375,0.05810546875
1775721977048992500,7.731992431640625,-1.0583343505859375,0.0400543212890625,0.0704345703125
1775721977059005400,7.74200537109375,-1.0638885498046875,0.0356903076171875,0.0814208984375
1775721977069018600,7.7520185546875,-1.0680389404296875,0.034942626953125,0.0826568603515625
1775721977079031600,7.762031494140625,-1.0845947265625,0.03521728515625,0.07611083984375
1775721977089045500,7.77204541015625,-1.0873870849609375,0.0341644287109375,0.068756103515625
1775721977099058400,7.782058349609375,-1.0947723388671875,0.0330047607421875,0.0615386962890625
1775721977109071600,7.792071533203125,-1.0989227294921875,0.0290985107421875,0.0587310791015625
1775721977119084500,7.80208447265625,-1.0931854248046875,0.0297088623046875,0.0594482421875
1775721977129097500,7.812097412109375,-1.0767974853515625,0.0313873291015625,0.0618438720703125
1775721977139110700,7.822110595703125,-1.0662994384765625,0.0342559814453125,0.0635986328125
1775721977149124600,7.83212451171875,-1.069488525390625,0.0382080078125,0.0600738525390625
1775721977159137500,7.842137451171875,-1.06744384765625,0.041961669921875,0.0602569580078125
1775721977169150500,7.852150390625,-1.06591796875,0.0492401123046875,0.0657958984375
1775721977179163400,7.862163330078125,-1.0652923583984375,0.051971435546875,0.06890869140625
1775721977189176600,7.872176513671875,-1.0565338134765625,0.056304931640625,0.06707763671875
1775721977199189500,7.882189453125,-1.042816162109375,0.063232421875,0.062957763671875
1775721977209203500,7.892203369140625,-1.033172607421875,0.069610595703125,0.0574493408203125
1775721977219216600,7.902216552734375,-1.02734375,0.072235107421875,0.058013916015625
1775721977229229600,7.9122294921875,-1.02783203125,0.0691986083984375,0.06268310546875
1775721977239242500,7.922242431640625,-1.0320892333984375,0.0670166015625,0.0726165771484375
1775721977249255400,7.93225537109375,-1.0363922119140625,0.05963134765625,0.0800628662109375
1775721977259268600,7.9422685546875,-1.0356292724609375,0.05157470703125,0.078765869140625
1775721977269282600,7.952282470703125,-1.0371856689453125,0.0494384765625,0.0748748779296875
1775721977279295500,7.96229541015625,-1.037109375,0.0452423095703125,0.0707855224609375
1775721977289308700,7.97230859375,-1.0323944091796875,0.04412841796875,0.0694732666015625
1775721977299321300,7.9823212890625,-1.03497314453125,0.0414276123046875,0.0685272216796875
1775721977309334500,7.99233447265625,-1.0261383056640625,0.0332489013671875,0.067718505859375
1775721977319347700,8.00234765625,-1.0118560791015625,0.0286712646484375,0.0633544921875
1775721977329361400,8.012361328125,-1.002655029296875,0.0259857177734375,0.0575408935546875
1775721977339374600,8.02237451171875,-0.99920654296875,0.0232391357421875,0.05328369140625
1775721977349387500,8.032387451171875,-1.0142059326171875,0.0168304443359375,0.0536041259765625
1775721977359400400,8.042400390625,-1.038726806640625,0.0097503662109375,0.0576019287109375
1775721977369413600,8.05241357421875,-1.0639801025390625,0.0041656494140625,0.061492919921875
1775721977379426600,8.062426513671875,-1.079254150390625,-0.00030517578125,0.068450927734375
1775721977389439500,8.072439453125,-1.073760986328125,-0.0007476806640625,0.07305908203125
1775721977399453400,8.082453369140625,-1.0523681640625,-0.0047760009765625,0.07745361328125
1775721977409466600,8.092466552734376,-1.0287933349609375,-0.0054473876953125,0.0794677734375
1775721977419479600,8.1024794921875,-1.0166778564453125,-0.0020904541015625,0.0791015625
1775721977429492500,8.112492431640625,-1.0092926025390625,0.0021820068359375,0.07476806640625
1775721977439505700,8.122505615234376,-1.0144805908203125,0.00543212890625,0.0755462646484375
1775721977449518300,8.132518310546875,-1.0265045166015625,0.0009765625,0.083221435546875
1775721977459532500,8.142532470703125,-1.0255584716796875,0.0018463134765625,0.097503662109375
1775721977469545700,8.152545654296874,-1.033966064453125,0.0069427490234375,0.1085357666015625
1775721977479558400,8.162558349609375,-1.03302001953125,0.0098419189453125,0.121673583984375
1775721977489571600,8.172571533203126,-1.0364532470703125,0.0079345703125,0.1372528076171875
1775721977499584500,8.18258447265625,-1.049835205078125,0.0025177001953125,0.1507568359375
1775721977509597400,8.192597412109375,-1.0633392333984375,0.0037078857421875,0.164154052734375
1775721977519611600,8.202611572265624,-1.06689453125,0.008941650390625,0.1670074462890625
1775721977529624600,8.21262451171875,-1.0587158203125,0.012176513671875,0.1619415283203125
1775721977539637500,8.222637451171876,-1.04498291015625,0.02105712890625,0.152984619140625
1775721977549650400,8.232650390625,-1.0149688720703125,0.0296478271484375,0.1490478515625
1775721977559663600,8.24266357421875,-0.9907073974609375,0.0292816162109375,0.1554107666015625
1775721977569676300,8.25267626953125,-0.98486328125,0.0256805419921875,0.1646728515625
1775721977579690500,8.2626904296875,-0.9727783203125,0.019683837890625,0.1706695556640625
1775721977589703700,8.27270361328125,-0.963623046875,0.0221405029296875,0.1686859130859375
1775721977599716400,8.28271630859375,-0.9532012939453125,0.0258026123046875,0.1654815673828125
1775721977609729500,8.2927294921875,-0.9441986083984375,0.0260162353515625,0.15692138671875
1775721977619742500,8.302742431640626,-0.9347381591796875,0.025848388671875,0.15008544921875
1775721977629755400,8.31275537109375,-0.930389404296875,0.02471923828125,0.1414031982421875
1775721977639769600,8.32276953125,-0.93743896484375,0.02813720703125,0.1255950927734375
1775721977649782500,8.332782470703124,-0.9374237060546875,0.0321807861328125,0.108917236328125
1775721977659795500,8.34279541015625,-0.9390869140625,0.0391693115234375,0.10003662109375
1775721977669808600,8.35280859375,-0.9369049072265625,0.047821044921875,0.0902252197265625
1775721977679821600,8.362821533203125,-0.946044921875,0.0539398193359375,0.078643798828125
1775721977689834500,8.37283447265625,-0.972930908203125,0.0535736083984375,0.0742645263671875
1775721977699848400,8.382848388671874,-0.9714813232421875,0.0465545654296875,0.074615478515625
1775721977709861600,8.392861572265625,-0.959442138671875,0.0438385009765625,0.078125
1775721977719874600,8.40287451171875,-0.9546966552734375,0.0429840087890625,0.082763671875
1775721977729887500,8.412887451171875,-0.95159912109375,0.0382080078125,0.0879974365234375
1775721977739900700,8.422900634765625,-0.9582672119140625,0.028900146484375,0.0831756591796875
1775721977749913300,8.432913330078126,-0.9568023681640625,0.0173797607421875,0.0716400146484375
1775721977759926500,8.442926513671875,-0.9537353515625,0.0090789794921875,0.06231689453125
1775721977769940700,8.452940673828126,-0.95947265625,0.0059356689453125,0.0515289306640625
1775721977779953400,8.462953369140624,-0.9723052978515625,0.00286865234375,0.050933837890625
1775721977789966300,8.47296630859375,-0.982025146484375,0.004486083984375,0.0623626708984375
1775721977799979500,8.4829794921875,-0.9841461181640625,0.0037078857421875,0.08367919921875
1775721977809992200,8.4929921875,-0.9891510009765625,0.0034942626953125,0.1040802001953125
1775721977820005400,8.50300537109375,-0.9910430908203125,0.008392333984375,0.1166534423828125
1775721977830019600,8.51301953125,-0.9792327880859375,0.014434814453125,0.1181640625
1775721977840032300,8.5230322265625,-0.9716796875,0.0106353759765625,0.116851806640625
1775721977850045400,8.53304541015625,-0.9853515625,-0.00335693359375,0.1115875244140625
1775721977860058400,8.543058349609375,-1.0057830810546875,-0.0187225341796875,0.1081695556640625
1775721977870071300,8.5530712890625,-1.020050048828125,-0.01806640625,0.114593505859375
1775721977880084200,8.563084228515624,-1.0335693359375,-0.0031280517578125,0.1363677978515625
1775721977890098400,8.573098388671875,-1.0466766357421875,0.0138092041015625,0.160858154296875
1775721977900111400,8.583111328125,-1.0519256591796875,0.0271453857421875,0.1738739013671875
1775721977910124300,8.593124267578125,-1.0501708984375,0.03704833984375,0.1685333251953125
1775721977920137500,8.603137451171875,-1.0355377197265625,0.041900634765625,0.148895263671875
1775721977930150100,8.613150146484376,-1.0113525390625,0.0397186279296875,0.12542724609375
1775721977940163300,8.623163330078125,-0.9865264892578125,0.0311126708984375,0.1084442138671875
1775721977950177500,8.633177490234376,-0.9615631103515625,0.0164642333984375,0.094024658203125
1775721977960190200,8.643190185546874,-0.945037841796875,0.0027618408203125,0.084197998046875
1775721977970203400,8.653203369140625,-0.9388580322265625,-0.0080718994140625,0.0818634033203125
1775721977980216300,8.66321630859375,-0.942779541015625,-0.01763916015625,0.085418701171875
1775721977990229200,8.673229248046875,-0.9504852294921875,-0.0216064453125,0.100311279296875
1775721978000242400,8.683242431640625,-0.959442138671875,-0.016357421875,0.1118927001953125
1775721978010256400,8.69325634765625,-0.9527130126953125,-0.006500244140625,0.1102447509765625
1775721978020269300,8.703269287109375,-0.94293212890625,0.0011138916015625,0.1005859375
1775721978030282500,8.713282470703126,-0.94854736328125,0.0050201416015625,0.0861968994140625
1775721978040295400,8.72329541015625,-0.9523162841796875,0.0015869140625,0.072174072265625
1775721978050308400,8.733308349609375,-0.9434661865234375,-0.00848388671875,0.0660552978515625
1775721978060321300,8.7433212890625,-0.9459228515625,-0.021881103515625,0.0703277587890625
1775721978070334500,8.75333447265625,-0.96148681640625,-0.028228759765625,0.089080810546875
1775721978080348400,8.763348388671876,-0.969757080078125,-0.0277862548828125,0.1197509765625
1775721978090361300,8.773361328125,-0.9696502685546875,-0.01409912109375,0.1434326171875
1775721978100374500,8.78337451171875,-0.9687957763671875,0.00946044921875,0.152618408203125
1775721978110387200,8.79338720703125,-0.96881103515625,0.028839111328125,0.160064697265625
1775721978120400400,8.803400390625,-0.966094970703125,0.0309600830078125,0.164520263671875
1775721978130413300,8.813413330078125,-0.96771240234375,0.0225372314453125,0.1663818359375
1775721978140427300,8.82342724609375,-0.9789886474609375,0.0150146484375,0.165802001953125
1775721978150440400,8.8334404296875,-1.0010223388671875,0.017913818359375,0.158172607421875
1775721978160453400,8.843453369140626,-1.017974853515625,0.0289306640625,0.1422119140625
1775721978170466300,8.85346630859375,-1.0229339599609375,0.043792724609375,0.124603271484375
1775721978180479200,8.863479248046875,-1.0159912109375,0.05010986328125,0.1175079345703125
1775721978190492400,8.873492431640624,-1.00469970703125,0.0372772216796875,0.1239013671875
1775721978200506400,8.88350634765625,-1.0010833740234375,0.0122222900390625,0.141571044921875
1775721978210519300,8.893519287109376,-0.994842529296875,-0.0074920654296875,0.1639404296875
1775721978220532500,8.903532470703125,-0.99114990234375,-0.0161285400390625,0.1785888671875
1775721978230545400,8.91354541015625,-0.99176025390625,-0.0150146484375,0.1756134033203125
1775721978240558300,8.923558349609374,-0.9970550537109375,-0.016204833984375,0.1591339111328125
1775721978250571500,8.933571533203125,-1.0083770751953125,-0.023590087890625,0.1446990966796875
1775721978260585200,8.943585205078126,-1.00128173828125,-0.03515625,0.131591796875
1775721978270598400,8.953598388671875,-0.972564697265625,-0.041900634765625,0.11749267578125
1775721978280611300,8.963611328125,-0.9425811767578125,-0.0420989990234375,0.1020355224609375
1775721978290624300,8.973624267578124,-0.9210357666015625,-0.0419921875,0.0927734375
1775721978300637400,8.983637451171875,-0.9034423828125,-0.0363922119140625,0.1015167236328125
1775721978310650400,8.993650390625,-0.88873291015625,-0.0341033935546875,0.11968994140625
1775721978320663600,9.00366357421875,-0.8787384033203125,-0.03717041015625,0.130462646484375
1775721978330677200,9.01367724609375,-0.8648834228515625,-0.0413360595703125,0.1374359130859375
1775721978340690400,9.0236904296875,-0.8564300537109375,-0.0464935302734375,0.1365509033203125
1775721978350703400,9.033703369140625,-0.8568115234375,-0.0583953857421875,0.13262939453125
1775721978360716300,9.04371630859375,-0.865081787109375,-0.077392578125,0.1308135986328125
1775721978370729500,9.0537294921875,-0.889434814453125,-0.0937957763671875,0.1355743408203125
1775721978380742400,9.063742431640625,-0.9078521728515625,-0.1025390625,0.13726806640625
1775721978390756400,9.07375634765625,-0.924591064453125,-0.0966033935546875,0.1358795166015625
1775721978400769500,9.08376953125,-0.9336700439453125,-0.0823822021484375,0.124237060546875
1775721978410782500,9.093782470703125,-0.9248809814453125,-0.0627899169921875,0.1021728515625
1775721978420795400,9.10379541015625,-0.9060516357421875,-0.043243408203125,0.0808258056640625
1775721978430808300,9.113808349609375,-0.888702392578125,-0.03021240234375,0.069244384765625
1775721978440821500,9.123821533203126,-0.886932373046875,-0.0283966064453125,0.07440185546875
1775721978450835500,9.13383544921875,-0.9117584228515625,-0.0366363525390625,0.0958251953125
1775721978460848400,9.143848388671875,-0.95111083984375,-0.0436553955078125,0.118927001953125
1775721978470861300,9.153861328125,-0.971343994140625,-0.0364532470703125,0.12359619140625
1775721978480874200,9.163874267578125,-0.97930908203125,-0.0156097412109375,0.1139678955078125
1775721978490887400,9.173887451171876,-0.9789886474609375,0.003753662109375,0.1004791259765625
1775721978500900400,9.183900390625,-0.9739990234375,0.0127716064453125,0.094329833984375
1775721978510914300,9.193914306640625,-0.97430419921875,0.0095977783203125,0.1007080078125
1775721978520927500,9.203927490234374,-0.9899139404296875,0.0012054443359375,0.1097564697265625
1775721978530940400,9.2139404296875,-0.9951934814453125,-0.00640869140625,0.1146240234375
1775721978540953300,9.223953369140625,-0.9966888427734375,-0.007293701171875,0.1054534912109375
1775721978550966500,9.233966552734374,-1.00726318359375,-0.0077972412109375,0.0858306884765625
1775721978560979500,9.2439794921875,-1.0229949951171875,-0.01312255859375,0.0677337646484375
1775721978570992400,9.253992431640626,-1.03472900390625,-0.0284576416015625,0.0627899169921875
1775721978581006300,9.26400634765625,-1.0446014404296875,-0.043212890625,0.0733795166015625
1775721978591019500,9.27401953125,-1.0634918212890625,-0.0503082275390625,0.088623046875
1775721978601032400,9.284032470703124,-1.0723876953125,-0.0479583740234375,0.0932159423828125
1775721978611045400,9.29404541015625,-1.0687408447265625,-0.046234130859375,0.084686279296875
1775721978621058600,9.30405859375,-1.0506439208984375,-0.0497589111328125,0.07147216796875
1775721978631071200,9.3140712890625,-1.0184478759765625,-0.0497589111328125,0.0579833984375
1775721978641085400,9.32408544921875,-0.990020751953125,-0.0481109619140625,0.0537872314453125
1775721978651098400,9.334098388671874,-0.98028564453125,-0.0437469482421875,0.0641326904296875
1775721978661111300,9.344111328125,-0.9787445068359375,-0.0381317138671875,0.079193115234375
1775721978671124500,9.35412451171875,-0.9796905517578125,-0.0373687744140625,0.0866546630859375
1775721978681137400,9.364137451171874,-0.9789276123046875,-0.041595458984375,0.0868682861328125
1775721978691150300,9.374150390625,-0.977203369140625,-0.0402679443359375,0.0807037353515625
1775721978701164500,9.38416455078125,-0.97283935546875,-0.0252532958984375,0.0722808837890625
1775721978711177500,9.394177490234375,-0.958099365234375,-0.0162200927734375,0.0747222900390625
1775721978721190400,9.4041904296875,-0.9417572021484375,-0.012176513671875,0.085052490234375
1775721978731203300,9.414203369140624,-0.9295196533203125,-0.0048980712890625,0.0960540771484375
1775721978741216500,9.424216552734375,-0.9243316650390625,0.0043182373046875,0.0997314453125
1775721978751229200,9.434229248046876,-0.922698974609375,0.00518798828125,0.093780517578125
1775721978761242400,9.444242431640625,-0.9193572998046875,0.003997802734375,0.0892333984375
1775721978771256300,9.45425634765625,-0.9148101806640625,0.0070953369140625,0.0885009765625
1775721978781269200,9.464269287109374,-0.9250946044921875,0.009307861328125,0.0955352783203125
1775721978791282700,9.47428271484375,-0.942901611328125,0.00531005859375,0.1073760986328125
1775721978801296000,9.4842958984375,-0.947265625,-0.002105712890625,0.12017822265625
1775721978811308500,9.49430859375,-0.9527130126953125,-0.008880615234375,0.1241607666015625
1775721978821321700,9.50432177734375,-0.9480133056640625,-0.0118865966796875,0.1110992431640625
1775721978831335700,9.514335693359374,-0.9365692138671875,-0.018798828125,0.1036376953125
1775721978841348600,9.5243486328125,-0.938934326171875,-0.0337982177734375,0.109222412109375
1775721978851361800,9.53436181640625,-0.9521331787109375,-0.0514984130859375,0.1207122802734375
1775721978861374700,9.544374755859375,-0.9691314697265625,-0.069580078125,0.136260986328125
1775721978871387600,9.5543876953125,-0.9871673583984375,-0.0864105224609375,0.147247314453125
1775721978881400600,9.564400634765626,-0.999725341796875,-0.0947418212890625,0.1439971923828125
1775721978891414500,9.57441455078125,-0.994842529296875,-0.0912017822265625,0.13079833984375
1775721978901427700,9.584427734375,-0.9662322998046875,-0.0795135498046875,0.11383056640625
1775721978911440600,9.594440673828124,-0.927032470703125,-0.0789947509765625,0.098419189453125
1775721978921453800,9.604453857421875,-0.8983154296875,-0.0926055908203125,0.0891876220703125
1775721978931466500,9.614466552734376,-0.891082763671875,-0.1071014404296875,0.08551025390625
1775721978941479700,9.624479736328125,-0.900970458984375,-0.10589599609375,0.0862884521484375
1775721978951493600,9.63449365234375,-0.9223785400390625,-0.09747314453125,0.0942535400390625
1775721978961506600,9.644506591796874,-0.9370269775390625,-0.08880615234375,0.1002960205078125
1775721978971519700,9.654519775390625,-0.941192626953125,-0.0833740234375,0.103973388671875
1775721978981532700,9.66453271484375,-0.9370574951171875,-0.0780792236328125,0.102264404296875
1775721978991545600,9.674545654296875,-0.92047119140625,-0.07135009765625,0.097198486328125
1775721979001558800,9.684558837890625,-0.895172119140625,-0.060638427734375,0.09051513671875
1775721979011571700,9.69457177734375,-0.8755035400390625,-0.0454559326171875,0.08697509765625
1775721979021585700,9.704585693359375,-0.846282958984375,-0.0383148193359375,0.0848846435546875
1775721979031598600,9.7145986328125,-0.81365966796875,-0.039306640625,0.0787353515625
1775721979041611800,9.72461181640625,-0.7882080078125,-0.04461669921875,0.0687408447265625
1775721979051624700,9.734624755859375,-0.785125732421875,-0.03802490234375,0.055267333984375
1775721979061637600,9.7446376953125,-0.8046875,-0.0103759765625,0.04925537109375
1775721979071650800,9.75465087890625,-0.843658447265625,0.0243377685546875,0.0564422607421875
1775721979081664500,9.76466455078125,-0.8790283203125,0.048431396484375,0.077362060546875
1775721979091677700,9.774677734375,-0.8996734619140625,0.0505828857421875,0.094512939453125
1775721979101691000,9.78469091796875,-0.9133758544921875,0.03533935546875,0.0993804931640625
1775721979111703600,9.79470361328125,-0.913177490234375,0.011627197265625,0.088958740234375
1775721979121716700,9.804716796875,-0.900360107421875,-0.0113983154296875,0.0748748779296875
1775721979131729700,9.814729736328125,-0.8946990966796875,-0.0227508544921875,0.0652008056640625
1775721979141743600,9.82474365234375,-0.8974456787109375,-0.0184478759765625,0.0624847412109375
1775721979151756800,9.8347568359375,-0.9046173095703125,0.0000762939453125,0.0670318603515625
1775721979161769700,9.844769775390626,-0.9040374755859375,0.0223236083984375,0.0809783935546875
1775721979171782700,9.85478271484375,-0.904449462890625,0.0417022705078125,0.0953826904296875
1775721979181795600,9.864795654296875,-0.9111328125,0.0351104736328125,0.1031951904296875
1775721979191808800,9.874808837890624,-0.907989501953125,0.01348876953125,0.106048583984375
1775721979201822700,9.88482275390625,-0.919189453125,-0.0079193115234375,0.09820556640625
1775721979211835600,9.894835693359376,-0.9558868408203125,-0.023284912109375,0.0937957763671875
1775721979221848800,9.904848876953125,-0.9940948486328125,-0.027496337890625,0.0991363525390625
1775721979231861500,9.914861572265625,-1.006744384765625,-0.0236968994140625,0.113525390625
1775721979241874700,9.924874755859374,-1.0079345703125,-0.0020294189453125,0.131195068359375
1775721979251887600,9.9348876953125,-1.01446533203125,0.033966064453125,0.142486572265625
1775721979261900500,9.944900634765625,-1.0234222412109375,0.0616607666015625,0.1377716064453125
1775721979271914800,9.954914794921875,-1.009429931640625,0.0680694580078125,0.116119384765625
1775721979281927700,9.964927734375,-0.994964599609375,0.059356689453125,0.0922698974609375
1775721979291940600,9.974940673828126,-0.9919891357421875,0.053802490234375,0.0743560791015625
1775721979301953800,9.984953857421875,-0.9990386962890625,0.0559539794921875,0.06640625
1775721979311966700,9.994966796875,-0.99786376953125,0.0558624267578125,0.0676422119140625
1775721979321979600,10.004979736328124,-0.9795684814453125,0.0477447509765625,0.07073974609375
1775721979331993600,10.01499365234375,-0.9497222900390625,0.03607177734375,0.05963134765625
1775721979342006800,10.0250068359375,-0.91815185546875,0.03558349609375,0.0255889892578125
1775721979352019700,10.035019775390625,-0.89813232421875,0.0467376708984375,-0.02252197265625
1775721979362032600,10.04503271484375,-0.8888397216796875,0.0572052001953125,-0.063995361328125
1775721979372045800,10.0550458984375,-0.87823486328125,0.0632171630859375,-0.0926055908203125
1775721979382058500,10.06505859375,-0.872894287109375,0.0782928466796875,-0.112548828125
1775721979392072700,10.07507275390625,-0.8772735595703125,0.1013946533203125,-0.130859375
1775721979402086000,10.0850859375,-0.896820068359375,0.134490966796875,-0.1544036865234375
1775721979412098600,10.0950986328125,-0.922454833984375,0.165313720703125,-0.1689605712890625
1775721979422111700,10.10511181640625,-0.9454193115234375,0.1773834228515625,-0.1624603271484375
1775721979432124700,10.115124755859375,-0.976593017578125,0.1723785400390625,-0.138763427734375
1775721979442137600,10.1251376953125,-1.0160980224609375,0.16748046875,-0.1027374267578125
1775721979452150500,10.135150634765624,-1.0612030029296875,0.1787109375,-0.048980712890625
1775721979462164700,10.145164794921875,-1.0849761962890625,0.198974609375,0.00653076171875
1775721979472177700,10.155177734375,-1.08111572265625,0.20965576171875,0.020416259765625
1775721979482190600,10.165190673828125,-1.116607666015625,0.2208099365234375,-0.0073089599609375
1775721979492203800,10.175203857421875,-1.1943817138671875,0.2406463623046875,-0.0489501953125
1775721979502216700,10.185216796875,-1.2452545166015625,0.25640869140625,-0.072021484375
1775721979512229600,10.195229736328125,-1.25537109375,0.2487030029296875,-0.07696533203125
1775721979522243800,10.205243896484374,-1.26416015625,0.2388916015625,-0.06732177734375
1775721979532256500,10.215256591796875,-1.2617340087890625,0.2308197021484375,-0.0575408935546875
1775721979542269700,10.225269775390625,-1.250335693359375,0.2157745361328125,-0.0481414794921875
1775721979552282600,10.23528271484375,-1.2478485107421875,0.1934051513671875,-0.029296875
1775721979562295600,10.245295654296875,-1.24993896484375,0.1683349609375,-0.000701904296875
1775721979572308700,10.255308837890626,-1.263214111328125,0.142181396484375,0.03515625
1775721979582322700,10.26532275390625,-1.292327880859375,0.1204986572265625,0.0729217529296875
1775721979592335600,10.275335693359375,-1.2977294921875,0.100677490234375,0.1063232421875
1775721979602348500,10.2853486328125,-1.239288330078125,0.0892181396484375,0.12841796875
1775721979612361700,10.29536181640625,-1.1726531982421875,0.0788116455078125,0.138092041015625
1775721979622374700,10.305374755859376,-1.127166748046875,0.0600738525390625,0.13555908203125
1775721979632387600,10.3153876953125,-1.1024627685546875,0.044219970703125,0.1350860595703125
1775721979642400800,10.32540087890625,-1.1147308349609375,0.034912109375,0.14031982421875
1775721979652414500,10.33541455078125,-1.15875244140625,0.029296875,0.1465606689453125
1775721979662427600,10.345427734375,-1.1778411865234375,0.0275115966796875,0.1529541015625
1775721979672440800,10.35544091796875,-1.1691436767578125,0.0270538330078125,0.1500091552734375
1775721979682453800,10.365453857421874,-1.150177001953125,0.0242462158203125,0.1272735595703125
1775721979692466700,10.375466796875,-1.1085052490234375,0.019561767578125,0.10089111328125
1775721979702479600,10.385479736328126,-1.087890625,0.0098114013671875,0.079559326171875
1775721979712493600,10.39549365234375,-1.0815887451171875,0.0029449462890625,0.0607757568359375
1775721979722506800,10.4055068359375,-1.0543212890625,0.006561279296875,0.0497589111328125
1775721979732519700,10.415519775390624,-1.030975341796875,0.0196075439453125,0.04034423828125
1775721979742532600,10.42553271484375,-1.0185394287109375,0.0316925048828125,0.0305023193359375
1775721979752545500,10.435545654296876,-1.0127105712890625,0.04248046875,0.0243072509765625
1775721979762558700,10.445558837890625,-1.0197296142578125,0.0606536865234375,0.0156402587890625
1775721979772572700,10.45557275390625,-1.0237884521484375,0.0827789306640625,0.0078582763671875
1775721979782585600,10.465585693359374,-1.0210418701171875,0.1011505126953125,0.0072021484375
1775721979792598300,10.475598388671875,-1.0354156494140625,0.1074066162109375,0.014801025390625
1775721979802611200,10.485611083984375,-1.0229339599609375,0.1094818115234375,0.036102294921875
1775721979812624100,10.4956240234375,-0.98309326171875,0.116119384765625,0.04901123046875
1775721979822637000,10.505636962890625,-0.9575958251953125,0.12744140625,0.04296875
1775721979832650200,10.515650146484376,-0.94378662109375,0.1427154541015625,0.02288818359375
1775721979842664200,10.525664306640625,-0.94488525390625,0.159576416015625,0.003936767578125
1775721979852677000,10.535677001953125,-0.954132080078125,0.1736297607421875,-0.006072998046875
1775721979862690300,10.545690185546874,-0.9586181640625,0.18572998046875,-0.01202392578125
1775721979872703000,10.555702880859375,-0.9754791259765625,0.1918182373046875,-0.01495361328125
1775721979882716200,10.565716064453126,-0.9814453125,0.1876220703125,-0.0101318359375
1775721979892729000,10.57572900390625,-0.9590301513671875,0.1733551025390625,-0.000213623046875
1775721979902743000,10.585742919921875,-0.95367431640625,0.1606597900390625,0.0053863525390625
1775721979912756200,10.595756103515624,-0.967376708984375,0.154998779296875,0.0051422119140625
1775721979922769200,10.60576904296875,-0.980621337890625,0.1558685302734375,0.000030517578125
1775721979932782000,10.615781982421876,-0.9816131591796875,0.1563262939453125,-0.0060272216796875
1775721979942795000,10.625794921875,-0.9915008544921875,0.1563873291015625,-0.0090179443359375
1775721979952808200,10.63580810546875,-1.01092529296875,0.14794921875,-0.007904052734375
1775721979962822100,10.645822265625,-1.032562255859375,0.1339569091796875,0.00677490234375
1775721979972835000,10.6558349609375,-1.021820068359375,0.1256103515625,0.022369384765625
1775721979982848300,10.66584814453125,-1.0051727294921875,0.1234893798828125,0.022186279296875
1775721979992861000,10.67586083984375,-1.001495361328125,0.1227569580078125,0.0160064697265625
1775721980002874000,10.6858740234375,-0.9917449951171875,0.120849609375,0.0121612548828125
1775721980012887300,10.69588720703125,-0.9839019775390625,0.1236114501953125,0.0108489990234375
1775721980022900200,10.705900146484375,-0.991943359375,0.135284423828125,0.0089263916015625
1775721980032914200,10.7159140625,-1.0010223388671875,0.143218994140625,0.0120391845703125
1775721980042927000,10.725927001953124,-1.0041351318359375,0.1410369873046875,0.0145111083984375
1775721980052940000,10.73593994140625,-0.9970855712890625,0.13385009765625,0.0134735107421875
1775721980062953200,10.745953125,-0.983978271484375,0.1342926025390625,0.0109100341796875
1775721980072966100,10.755966064453125,-0.9708099365234375,0.12860107421875,0.010650634765625
1775721980082979300,10.765979248046875,-0.9675750732421875,0.12158203125,0.012664794921875
1775721980092993000,10.775992919921874,-0.9737701416015625,0.1147613525390625,0.0224609375
1775721980103006200,10.786006103515625,-0.99212646484375,0.1103973388671875,0.0384368896484375
1775721980113019100,10.79601904296875,-1.0058135986328125,0.1069793701171875,0.0526580810546875
1775721980123032000,10.806031982421874,-1.0082244873046875,0.11083984375,0.060272216796875
1775721980133045200,10.816045166015625,-1.0045318603515625,0.11737060546875,0.06048583984375
1775721980143058200,10.82605810546875,-1.0110321044921875,0.1122894287109375,0.0616455078125
1775721980153072000,10.836072021484375,-1.0084991455078125,0.105804443359375,0.06646728515625
1775721980163085300,10.846085205078126,-0.9950714111328125,0.105926513671875,0.0694580078125
1775721980173098000,10.856097900390624,-0.9882659912109375,0.1092987060546875,0.067840576171875
1775721980183111200,10.866111083984375,-0.989593505859375,0.1142425537109375,0.0640716552734375
1775721980193124000,10.8761240234375,-0.9856719970703125,0.1179351806640625,0.06573486328125
1775721980203137300,10.88613720703125,-0.976959228515625,0.12286376953125,0.0637969970703125
1775721980213150000,10.89614990234375,-0.9826507568359375,0.1257781982421875,0.0527801513671875
1775721980223164200,10.9061640625,-0.9897308349609375,0.1253662109375,0.0480804443359375
1775721980233177000,10.916177001953125,-0.9852447509765625,0.1305694580078125,0.0482635498046875
1775721980243190000,10.92618994140625,-0.981414794921875,0.135955810546875,0.0522308349609375
1775721980253203200,10.936203125,-0.9897003173828125,0.1367645263671875,0.057830810546875
1775721980263216000,10.946216064453125,-0.9950714111328125,0.134033203125,0.065704345703125
1775721980273229000,10.95622900390625,-0.98699951171875,0.134735107421875,0.075775146484375
1775721980283243300,10.9662431640625,-0.981414794921875,0.1362457275390625,0.0809783935546875
1775721980293256000,10.976255859375,-0.9904327392578125,0.1366729736328125,0.082275390625
1775721980303269000,10.98626904296875,-1.0023040771484375,0.1415252685546875,0.0770111083984375
1775721980313282300,10.9962822265625,-1.0121612548828125,0.1471405029296875,0.0727386474609375
1775721980323295200,11.006295166015626,-1.01025390625,0.1497955322265625,0.07733154296875
1775721980333308200,11.01630810546875,-1.0109405517578125,0.1434783935546875,0.0770416259765625
1775721980343321000,11.026321044921875,-1.011322021484375,0.1341552734375,0.077880859375
1775721980353335000,11.0363349609375,-1.00592041015625,0.1323699951171875,0.077056884765625
1775721980363348200,11.04634814453125,-0.9940948486328125,0.136138916015625,0.078277587890625
1775721980373361200,11.056361083984376,-0.9863128662109375,0.1382293701171875,0.0767059326171875
1775721980383374300,11.066374267578125,-0.9885711669921875,0.1397705078125,0.071563720703125
1775721980393387000,11.076386962890625,-0.9801025390625,0.1399993896484375,0.0593719482421875
1775721980403400200,11.086400146484374,-0.9747467041015625,0.13885498046875,0.0423126220703125
1775721980413414100,11.0964140625,-0.973388671875,0.1374664306640625,0.0244903564453125
1775721980423427000,11.106427001953126,-0.96728515625,0.1356048583984375,0.01519775390625
1775721980433440300,11.116440185546875,-0.9745330810546875,0.1321868896484375,0.01593017578125
1775721980443453200,11.126453125,-0.9874267578125,0.125396728515625,0.0229644775390625
1775721980453466000,11.136466064453124,-1.000152587890625,0.1240692138671875,0.0363922119140625
1775721980463479000,11.14647900390625,-1.00042724609375,0.1284942626953125,0.0425567626953125
1775721980473493000,11.156492919921876,-0.99090576171875,0.1309814453125,0.0403289794921875
1775721980483506200,11.166506103515625,-0.9853363037109375,0.130889892578125,0.0336761474609375
1775721980493519000,11.17651904296875,-0.98114013671875,0.1251373291015625,0.02728271484375
1775721980503532300,11.1865322265625,-0.981842041015625,0.1171112060546875,0.0313568115234375
1775721980513545000,11.196544921875,-0.9980621337890625,0.114654541015625,0.043609619140625
1775721980523558100,11.20655810546875,-1.0160064697265625,0.1202545166015625,0.0561981201171875
1775721980533571300,11.2165712890625,-1.0252532958984375,0.1262969970703125,0.067474365234375
1775721980543585000,11.2265849609375,-1.02581787109375,0.12481689453125,0.0681304931640625
1775721980553598200,11.23659814453125,-1.022369384765625,0.1210784912109375,0.0541534423828125
1775721980563611100,11.246611083984375,-1.021453857421875,0.1229400634765625,0.038604736328125
1775721980573624000,11.2566240234375,-1.027252197265625,0.12445068359375,0.0321502685546875
1775721980583637200,11.26663720703125,-1.0281982421875,0.1285858154296875,0.03826904296875
1775721980593650200,11.276650146484375,-1.024322509765625,0.1334991455078125,0.051055908203125
1775721980603664100,11.2866640625,-1.0295867919921875,0.13446044921875,0.0573883056640625
1775721980613677000,11.296677001953125,-1.0359649658203125,0.1302947998046875,0.054107666015625
1775721980623690200,11.306690185546875,-1.0424041748046875,0.1277923583984375,0.046417236328125
1775721980633703200,11.316703125,-1.0417938232421875,0.1307220458984375,0.037689208984375
1775721980643716000,11.326716064453125,-1.0348358154296875,0.1353912353515625,0.031951904296875
1775721980653729300,11.336729248046876,-1.032135009765625,0.13330078125,0.031463623046875
1775721980663743000,11.346742919921875,-1.03173828125,0.131103515625,0.0322265625
1775721980673756200,11.356756103515625,-1.0323944091796875,0.1279449462890625,0.024383544921875
1775721980683769300,11.366769287109374,-1.04412841796875,0.12689208984375,0.0124053955078125
1775721980693782000,11.376781982421875,-1.0628509521484375,0.1267852783203125,0.0113372802734375
1775721980703795200,11.386795166015625,-1.068328857421875,0.121124267578125,0.0250091552734375
1775721980713808100,11.39680810546875,-1.070220947265625,0.116241455078125,0.0376129150390625
1775721980723821000,11.406821044921875,-1.0695953369140625,0.1170654296875,0.042877197265625
1775721980733835300,11.416835205078126,-1.066009521484375,0.1215667724609375,0.0467071533203125
1775721980743848200,11.42684814453125,-1.0721282958984375,0.1284027099609375,0.05706787109375
1775721980753861000,11.436861083984375,-1.074249267578125,0.131317138671875,0.0597686767578125
1775721980763874000,11.4468740234375,-1.071563720703125,0.1290435791015625,0.0527801513671875
1775721980773887200,11.45688720703125,-1.080596923828125,0.11968994140625,0.046417236328125
1775721980783900000,11.46689990234375,-1.091064453125,0.1121978759765625,0.0449676513671875
1775721980793914000,11.4769140625,-1.0980072021484375,0.1105499267578125,0.0484161376953125
1775721980803927300,11.48692724609375,-1.0926361083984375,0.111572265625,0.0546875
1775721980813940200,11.496940185546874,-1.084625244140625,0.110931396484375,0.0606231689453125
1775721980823953200,11.506953125,-1.0798187255859375,0.1092987060546875,0.0677337646484375
1775721980833966300,11.51696630859375,-1.0751953125,0.1041412353515625,0.07049560546875
1775721980843979000,11.52697900390625,-1.0609283447265625,0.1031646728515625,0.0664825439453125
1775721980853993200,11.5369931640625,-1.0470733642578125,0.10693359375,0.0622406005859375
1775721980864006400,11.54700634765625,-1.0320892333984375,0.1115875244140625,0.0650787353515625
1775721980874019000,11.55701904296875,-1.019805908203125,0.1193084716796875,0.0670013427734375
1775721980884032300,11.5670322265625,-1.0131683349609375,0.12481689453125,0.062286376953125
1775721980894045200,11.577045166015624,-1.0304412841796875,0.1200408935546875,0.056396484375
1775721980904058000,11.58705810546875,-1.0443267822265625,0.1158294677734375,0.0524444580078125
1775721980914071000,11.597071044921876,-1.054168701171875,0.1186065673828125,0.054473876953125
1775721980924085200,11.607085205078125,-1.0805206298828125,0.1246337890625,0.0541534423828125
1775721980934098200,11.61709814453125,-1.096527099609375,0.1378021240234375,0.0484619140625
1775721980944111000,11.627111083984374,-1.1095123291015625,0.150634765625,0.045013427734375
1775721980954124300,11.637124267578125,-1.1067352294921875,0.159271240234375,0.048614501953125
1775721980964137000,11.647136962890626,-1.08966064453125,0.1630859375,0.0566864013671875
1775721980974150100,11.657150146484375,-1.0703887939453125,0.15576171875,0.064483642578125
1775721980984164400,11.667164306640625,-1.036224365234375,0.1448211669921875,0.0658111572265625
1775721980994177000,11.677177001953124,-1.0113067626953125,0.1378936767578125,0.063079833984375
1775721981004190200,11.687190185546875,-1.00677490234375,0.13653564453125,0.0641326904296875
1775721981014203100,11.697203125,-1.0024261474609375,0.1410064697265625,0.066497802734375
1775721981024216000,11.707216064453124,-0.993927001953125,0.1432647705078125,0.069671630859375
1775721981034229200,11.717229248046875,-0.983917236328125,0.142730712890625,0.0830535888671875
1775721981044242200,11.7272421875,-0.9777374267578125,0.13739013671875,0.1036224365234375
1775721981054256000,11.737256103515625,-0.982147216796875,0.131134033203125,0.12353515625
1775721981064269000,11.74726904296875,-0.9881439208984375,0.1243896484375,0.1254730224609375
1775721981074282200,11.7572822265625,-0.994110107421875,0.11279296875,0.1075897216796875
1775721981084295200,11.767295166015625,-1.000335693359375,0.100982666015625,0.08575439453125
1775721981094308000,11.77730810546875,-0.9904632568359375,0.0943450927734375,0.0693206787109375
1775721981104321300,11.7873212890625,-0.9833984375,0.0923309326171875,0.0611724853515625
1775721981114335000,11.7973349609375,-0.9688262939453125,0.0865478515625,0.0541534423828125
1775721981124348200,11.80734814453125,-0.959686279296875,0.079742431640625,0.050079345703125
1775721981134361300,11.817361328125,-0.9548492431640625,0.079010009765625,0.0501556396484375
1775721981144374000,11.8273740234375,-0.94775390625,0.083282470703125,0.0494232177734375
1775721981154387200,11.83738720703125,-0.9407196044921875,0.092010498046875,0.0496826171875
1775721981164400000,11.847400146484375,-0.94073486328125,0.1009521484375,0.0637359619140625
1775721981174414000,11.8574140625,-0.980377197265625,0.109405517578125,0.0926055908203125
1775721981184427300,11.86742724609375,-1.0211334228515625,0.1111602783203125,0.1221923828125
1775721981194440200,11.877440185546876,-1.0201263427734375,0.0969085693359375,0.1475372314453125
1775721981204453000,11.887453125,-1.0089263916015625,0.0756683349609375,0.1529541015625
1775721981214466000,11.897466064453125,-1.006561279296875,0.06298828125,0.1288299560546875
1775721981224479200,11.907479248046876,-1.0083465576171875,0.0584869384765625,0.0974884033203125
1775721981234492200,11.9174921875,-1.0082855224609375,0.053466796875,0.0751953125
1775721981244506000,11.927506103515626,-1.0056304931640625,0.0522613525390625,0.069580078125
1775721981254519300,11.937519287109374,-1.00640869140625,0.060028076171875,0.0764617919921875
1775721981264532000,11.947531982421875,-0.9977264404296875,0.06463623046875,0.0837860107421875
1775721981274545200,11.957545166015626,-1.00238037109375,0.0633544921875,0.089599609375
1775721981284558000,11.96755810546875,-1.0158233642578125,0.06011962890625,0.0907440185546875
1775721981294571300,11.9775712890625,-1.0102386474609375,0.0520477294921875,0.0835113525390625
1775721981304585200,11.987585205078124,-1.0146026611328125,0.04364013671875,0.064544677734375
1775721981314598100,11.99759814453125,-1.0093536376953125,0.0387420654296875,0.040435791015625
1775721981324611000,12.007611083984376,-0.9942626953125,0.04071044921875,0.0286865234375
1775721981334624300,12.017624267578125,-0.9913787841796875,0.0395965576171875,0.0272369384765625
1775721981344637200,12.02763720703125,-0.9922027587890625,0.0379180908203125,0.0334320068359375
1775721981354650400,12.037650390625,-0.982757568359375,0.0381927490234375,0.0424041748046875
1775721981364663000,12.0476630859375,-0.9746246337890625,0.0460357666015625,0.0516357421875
1775721981374677200,12.05767724609375,-0.9642181396484375,0.05169677734375,0.05279541015625
1775721981384690200,12.067690185546875,-0.95465087890625,0.0522308349609375,0.0394287109375
1775721981394703000,12.077703125,-0.9677276611328125,0.0499725341796875,0.023162841796875
1775721981404716300,12.08771630859375,-1.0001220703125,0.0484161376953125,0.018096923828125
1775721981414729200,12.097729248046875,-1.0079345703125,0.0388641357421875,0.023773193359375
1775721981424742100,12.1077421875,-1.00439453125,0.029571533203125,0.0348663330078125
1775721981434756400,12.11775634765625,-1.0105743408203125,0.0233917236328125,0.0379486083984375
1775721981444769000,12.12776904296875,-1.015960693359375,0.02423095703125,0.026519775390625
1775721981454782200,12.1377822265625,-1.0129241943359375,0.034423828125,0.0136871337890625
1775721981464795100,12.147795166015625,-1.0098876953125,0.050689697265625,-0.00201416015625
1775721981474808300,12.157808349609375,-1.0044097900390625,0.0642852783203125,-0.01458740234375
1775721981484821000,12.167821044921874,-1.001373291015625,0.0689239501953125,-0.017059326171875
1775721981494834200,12.177834228515625,-0.9981689453125,0.064483642578125,-0.01025390625
1775721981504848100,12.18784814453125,-0.9905242919921875,0.0518646240234375,-0.000762939453125
1775721981514861000,12.197861083984375,-0.98779296875,0.0381011962890625,0.0152435302734375
1775721981524874200,12.207874267578125,-0.99029541015625,0.03045654296875,0.032623291015625
1775721981534887200,12.21788720703125,-0.998016357421875,0.0268096923828125,0.0468597412109375
1775721981544900000,12.227900146484375,-1.0168304443359375,0.02490234375,0.0544586181640625
1775721981554913300,12.237913330078126,-1.0275421142578125,0.0296783447265625,0.058990478515625
1775721981564927000,12.247927001953125,-1.0260772705078125,0.0412445068359375,0.066864013671875
1775721981574940200,12.257940185546875,-1.0296630859375,0.044189453125,0.07568359375
1775721981584953000,12.267953125,-1.0322265625,0.0319366455078125,0.0845794677734375
1775721981594966300,12.27796630859375,-1.023223876953125,0.011810302734375,0.08892822265625
1775721981604979200,12.287979248046875,-1.00421142578125,-0.000335693359375,0.085784912109375
1775721981614992100,12.2979921875,-0.9726104736328125,-0.00286865234375,0.0774078369140625
1775721981625005300,12.30800537109375,-0.942901611328125,-0.0036468505859375,0.06988525390625
1775721981635019000,12.31801904296875,-0.9259033203125,-0.0102386474609375,0.0757293701171875
1775721981645032200,12.3280322265625,-0.9200439453125,-0.0214080810546875,0.0881195068359375
1775721981655045400,12.33804541015625,-0.9219970703125,-0.0354766845703125,0.1039886474609375
1775721981665058000,12.34805810546875,-0.92645263671875,-0.0428619384765625,0.1254730224609375
1775721981675071200,12.3580712890625,-0.9348602294921875,-0.038421630859375,0.134307861328125
1775721981685084200,12.368084228515626,-0.9580535888671875,-0.01995849609375,0.13482666015625
1775721981695098000,12.37809814453125,-0.975341796875,-0.003021240234375,0.1341400146484375
1775721981705111300,12.388111328125,-0.9566497802734375,-0.0067291259765625,0.1292266845703125
1775721981715124200,12.398124267578124,-0.940643310546875,-0.0264434814453125,0.1304931640625
1775721981725137200,12.40813720703125,-0.9371185302734375,-0.0479888916015625,0.1264190673828125
1775721981735150000,12.418150146484376,-0.937255859375,-0.0657196044921875,0.112945556640625
1775721981745163300,12.428163330078124,-0.951416015625,-0.0771636962890625,0.1006011962890625
1775721981755176200,12.43817626953125,-0.94586181640625,-0.08709716796875,0.0880279541015625
1775721981765190100,12.448190185546874,-0.9408111572265625,-0.0875701904296875,0.0787811279296875
1775721981775203300,12.458203369140625,-0.95135498046875,-0.0820159912109375,0.07666015625
1775721981785216000,12.468216064453125,-0.9591522216796875,-0.0709075927734375,0.0770416259765625
1775721981795229200,12.478229248046874,-0.9610595703125,-0.056488037109375,0.079071044921875
1775721981805242400,12.488242431640625,-0.9444580078125,-0.0338287353515625,0.0809173583984375
1775721981815255300,12.49825537109375,-0.9244537353515625,-0.013580322265625,0.0747222900390625
1775721981825269200,12.508269287109375,-0.9097900390625,0.001434326171875,0.0570220947265625
1775721981835282400,12.518282470703125,-0.8979339599609375,0.0113525390625,0.040496826171875
1775721981845295000,12.528295166015624,-0.8802642822265625,0.01385498046875,0.023162841796875
1775721981855308300,12.538308349609375,-0.8656768798828125,0.011138916015625,0.012115478515625
1775721981865321500,12.548321533203126,-0.870025634765625,0.00994873046875,0.01019287109375
1775721981875334100,12.558334228515625,-0.88043212890625,0.005767822265625,0.017578125
1775721981885347300,12.568347412109375,-0.89422607421875,0.0093536376953125,0.0317535400390625
1775721981895361300,12.578361328125,-0.9083099365234375,0.021453857421875,0.04345703125
1775721981905374200,12.588374267578125,-0.927520751953125,0.0286102294921875,0.0536651611328125
1775721981915387400,12.598387451171876,-0.9407196044921875,0.0310211181640625,0.0624237060546875
1775721981925400300,12.608400390625,-0.9362335205078125,0.02557373046875,0.0696563720703125
1775721981935413200,12.618413330078125,-0.9243011474609375,0.013427734375,0.0698089599609375
1775721981945426200,12.62842626953125,-0.9142608642578125,0.001373291015625,0.063507080078125
1775721981955440400,12.6384404296875,-0.9117584228515625,-0.009033203125,0.0580902099609375
1775721981965453300,12.648453369140626,-0.9235076904296875,-0.01904296875,0.0556182861328125
1775721981975466200,12.65846630859375,-0.93499755859375,-0.0228729248046875,0.058319091796875
1775721981985479400,12.6684794921875,-0.9362945556640625,-0.02337646484375,0.0584869384765625
1775721981995492000,12.6784921875,-0.94476318359375,-0.0221099853515625,0.0573577880859375
1775721982005505300,12.68850537109375,-0.956512451171875,-0.027984619140625,0.0616607666015625
1775721982015518200,12.698518310546875,-0.97283935546875,-0.0431671142578125,0.0672607421875
1775721982025532200,12.7085322265625,-0.9855804443359375,-0.0620880126953125,0.06512451171875
1775721982035545300,12.71854541015625,-0.9966583251953125,-0.0750274658203125,0.0665130615234375
1775721982045558300,12.728558349609376,-1.01690673828125,-0.071807861328125,0.064117431640625
1775721982055571200,12.7385712890625,-1.047637939453125,-0.062103271484375,0.063751220703125
1775721982065584000,12.748584228515625,-1.0384063720703125,-0.0546875,0.063629150390625
1775721982075597300,12.758597412109374,-1.0165557861328125,-0.0513916015625,0.059722900390625
1775721982085611300,12.768611328125,-1.000732421875,-0.0550994873046875,0.0489654541015625
1775721982095624200,12.778624267578126,-0.978240966796875,-0.05657958984375,0.0365447998046875
1775721982105637400,12.788637451171875,-0.9556884765625,-0.053466796875,0.0277862548828125
1775721982115650300,12.798650390625,-0.95147705078125,-0.053924560546875,0.025634765625
1775721982125663200,12.808663330078126,-0.9689483642578125,-0.0559234619140625,0.033966064453125
1775721982135676400,12.818676513671875,-0.983734130859375,-0.0608367919921875,0.0472259521484375
1775721982145689300,12.828689453125,-0.9859619140625,-0.06024169921875,0.0569915771484375
1775721982155703300,12.838703369140624,-0.985260009765625,-0.0564727783203125,0.0541839599609375
1775721982165716500,12.848716552734375,-0.9874420166015625,-0.0507965087890625,0.04583740234375
1775721982175729200,12.858729248046876,-0.98974609375,-0.050018310546875,0.0433807373046875
1775721982185742300,12.868742431640625,-0.9893951416015625,-0.052886962890625,0.047119140625
1775721982195755300,12.87875537109375,-0.9850311279296875,-0.055419921875,0.0435333251953125
1775721982205768400,12.8887685546875,-0.9839324951171875,-0.0490875244140625,0.0437164306640625
1775721982215782400,12.898782470703125,-0.978118896484375,-0.0395355224609375,0.0451812744140625
1775721982225795300,12.90879541015625,-0.9664459228515625,-0.0357208251953125,0.05084228515625
1775721982235808300,12.918808349609375,-0.9626922607421875,-0.0347442626953125,0.0602264404296875
1775721982245821200,12.9288212890625,-0.9595794677734375,-0.037261962890625,0.0632781982421875
1775721982255834400,12.93883447265625,-0.957275390625,-0.0408477783203125,0.060272216796875
1775721982265847300,12.948847412109375,-0.9534454345703125,-0.0489044189453125,0.0605621337890625
1775721982275860200,12.958860107421875,-0.9542083740234375,-0.0542449951171875,0.063995361328125
1775721982285874400,12.96887451171875,-0.96514892578125,-0.058502197265625,0.0647125244140625
1775721982295887000,12.97888720703125,-0.969879150390625,-0.0608978271484375,0.06298828125
1775721982305900300,12.988900390625,-0.9723358154296875,-0.0568389892578125,0.0594940185546875
1775721982315913200,12.998913330078125,-0.9698944091796875,-0.051910400390625,0.058929443359375
1775721982325926400,13.008926513671875,-0.959564208984375,-0.0505218505859375,0.060821533203125
