time,seconds_elapsed,z,y,x
1775706160858050300,0.05305029296875,0.06481470973789692,-0.5288707296133041,0.3894002996027469
1775706160868064300,0.063064208984375,0.24439853895008562,-0.41493923000693317,0.25670886220782996
1775706160878077200,0.0730771484375,0.2875450405036099,-0.3586222995012998,0.25628698353394863
1775706160888090000,0.083090087890625,0.24419216619040815,-0.45112814924120903,0.30561215545609594
1775706160898103300,0.093103271484375,0.2752332376748323,-0.4554571183562279,0.2918042871169746
1775706160908116200,0.1031162109375,0.23178926927838472,-0.415461792576313,0.3955506389260292
1775706160918129200,0.113129150390625,0.3195406545002013,-0.49857496007084845,0.5359544042639434
1775706160928143400,0.123143310546875,-0.16035126894321292,-0.531058595046401,0.6749031484879553
1775706160938156000,0.133156005859375,-0.8066127352386713,-0.4529173707455396,0.8040614433206618
1775706160948169200,0.143169189453125,-0.9378711441557854,-0.511464836782217,0.8662062031969427
1775706160958182400,0.153182373046875,-0.8014800485253334,-0.45602352006733415,0.8631804256349801
1775706160968195000,0.163195068359375,-0.7334785254448651,-0.3823620715290308,0.8815029949195683
1775706160978209300,0.173209228515625,-1.0085189439613371,-0.21944997565448282,0.7548360785111784
1775706160988222200,0.18322216796875,-1.218404899391532,-0.1269990709722042,0.7235439914077519
1775706160998235100,0.193235107421875,-1.071754713944718,0.07077624849081039,0.6121794196799397
1775706161008248300,0.203248291015625,-0.8667097688049078,0.38865094254016874,0.32104470238760113
1775706161018261200,0.21326123046875,-0.7486006912529468,0.6049865855664014,-0.03189692112877965
1775706161028274200,0.223274169921875,-0.7975234198540448,0.8385568565100431,-0.1921457891434431
1775706161038288100,0.2332880859375,-0.8955991056155412,1.0360451757252216,-0.2755160001389682
1775706161048301300,0.24330126953125,-0.765139153599739,1.0874199736535548,-0.47326735420450566
1775706161058314200,0.253314208984375,-0.7120453498590738,1.0873556762456893,-0.7536475993789732
1775706161068327200,0.2633271484375,-0.5877766536988318,1.112341648942232,-1.0784328034691513
1775706161078340400,0.27334033203125,-0.4991251412995159,1.0964093357950448,-1.1032406431198118
1775706161088353300,0.283353271484375,0.007038885660842061,0.9294196152180433,-1.5609700903221964
1775706161098367200,0.2933671875,0.7524528366364538,0.9899877734273671,-1.785841798764467
1775706161108380400,0.30338037109375,1.6997746037699282,0.4618634782671928,-1.2347823259577155
1775706161118393000,0.31339306640625,1.9057449201263486,-1.4602110837608575,1.8498907848268746
1775706161128406300,0.32340625,0.8100370105989277,-2.285804998323321,3.764363055157661
1775706161138419200,0.333419189453125,-1.628247098520398,-2.261387180903554,3.4195708358272907
1775706161148433200,0.34343310546875,-1.786581365085393,-1.9353274268329141,2.273183709420264
1775706161158446300,0.3534462890625,-0.7167763969689607,-0.34080314969420433,0.6545221853688359
1775706161168459300,0.363459228515625,0.34744551031813026,1.030253732842207,-0.34041298133283854
1775706161178472200,0.37347216796875,0.7416920809082687,1.4690870486557484,-0.3101689419776201
1775706161188485000,0.383485107421875,1.0485720643430947,0.9554191488713025,-1.416596982961893
1775706161198498300,0.393498291015625,0.9746126557715237,0.07620587232410907,-2.177899334877729
1775706161208512300,0.40351220703125,0.8872099743895232,0.1759551173210144,-1.5363216790169476
1775706161218525200,0.413525146484375,1.2818525585599243,-0.2449187634319067,-1.2566513356775044
1775706161228538400,0.423538330078125,1.4789387267149985,-0.4328372902691364,-1.4277537522703407
1775706161238551000,0.433551025390625,0.9247061037648469,-0.34825346570014953,-1.3824810706093906
1775706161248564200,0.443564208984375,0.9038613955914974,-0.367851900139451,-1.4547095637351273
1775706161258577400,0.453577392578125,0.3006966186247766,0.5562836371958255,-0.9641884385213255
1775706161268591000,0.463591064453125,-0.20067337899208068,0.6288584595412016,-0.7816296851515769
1775706161278604300,0.473604248046875,-0.30740064630806446,0.7522136210530996,-0.48812400094419717
1775706161288617200,0.4836171875,-0.38606326413452624,0.8056400908142328,-0.11219430055022239
1775706161298630100,0.493630126953125,-0.6697866822570562,0.8872942916721105,-0.1265831836476922
1775706161308643600,0.5036435546875,-0.5085813903003931,1.006262031880021,-0.22441724267303942
1775706161318657300,0.5136572265625,0.04771927109546959,1.134889580836892,-0.24684476305842398
1775706161328670500,0.52367041015625,0.0300637143522501,1.1092349150985479,-0.31911680306494233
1775706161338683400,0.533683349609375,0.11414075844287871,1.0105956771701574,0.2950698647841811
1775706161348696600,0.543696533203125,0.3962767612434923,0.9248726194381713,0.4345820881098509
1775706161358709500,0.55370947265625,0.4070103367038071,0.7523802097916603,0.6722007576614618
1775706161368723500,0.563723388671875,0.23139453433975576,0.4980056357502937,0.783084267874062
1775706161378736400,0.573736328125,0.3349742974102497,0.317845467954874,0.9744938516974448
1775706161388749300,0.583749267578125,0.10838738254792987,0.045377603340148925,1.0212757688775658
1775706161398762500,0.593762451171875,0.11558292007520794,-0.126494044059515,0.704276688618958
1775706161408775700,0.603775634765625,0.13892214847803114,-0.23746026411950588,0.3327428850963712
1775706161418788400,0.613788330078125,0.12680910135805606,-0.2523813543975353,0.29626024361252784
1775706161428802600,0.623802490234375,0.18995543949231505,-0.24785949305891988,0.06629501142352819
1775706161438815500,0.6338154296875,0.4312859691739082,-0.31580782464742657,-0.004250643181800842
1775706161448828400,0.643828369140625,0.5195325540341437,-0.4212292700618505,-0.04347615363299846
1775706161458841600,0.653841552734375,0.14618015678226948,-0.6067378131479024,0.1425625508069992
1775706161468854500,0.6638544921875,0.14532916597612203,-0.629780835083127,0.09425240114629269
1775706161478868500,0.673868408203125,-0.20262568210363388,-0.4249351388424635,-0.12366437359154224
1775706161488881700,0.683881591796875,-0.304727043184638,-0.4769973345130682,-0.2638902981445193
1775706161498894300,0.693894287109375,-0.15531111935153602,-0.6887924115002155,-0.48019145437926053
1775706161508907500,0.703907470703125,-0.12980433765128255,-0.7625368621468543,-0.20625819338709114
1775706161518920400,0.71392041015625,-0.13899652888849376,-0.7799386633247136,-0.24262539179772138
1775706161528934400,0.723934326171875,-0.23398761957287786,-0.35608079832494255,-0.5278627216145396
1775706161538947600,0.733947509765625,-0.3130763538569212,-0.17740765421688556,-0.25999387522786854
1775706161548960500,0.74396044921875,-0.22211729516759512,-0.1640343779027462,-0.22985768016129732
1775706161558973400,0.753973388671875,-0.18616554569005966,-0.07210369770228862,-0.1928667968943715
1775706161568986400,0.763986328125,-0.18866554581224917,-0.09418810373842716,-0.23430384591519832
1775706161579000600,0.77400048828125,-0.24275486339628696,0.09706745856702327,-0.14968290420621633
1775706161589013500,0.784013427734375,-0.3063256374876946,0.3155500504940748,0.1941980454981327
1775706161599026400,0.7940263671875,-0.3093633977483958,0.39110476543307304,0.18999124145805835
1775706161609039600,0.80403955078125,-0.23052432737648484,0.38495910228490826,0.2511073889389634
1775706161619052300,0.81405224609375,-0.24687749628424643,0.37359307413995263,0.2277034247368574
1775706161629066500,0.82406640625,-0.20985621787905692,0.6760889972716569,0.35389322515279054
1775706161639079700,0.83407958984375,-0.3219885591089725,0.6184282509416341,0.35976182492524383
1775706161649092400,0.84409228515625,-0.3449695486586541,0.6148258425354958,0.34926761117875577
1775706161659105500,0.85410546875,-0.5749462520897388,1.1042577112078666,1.0019728102535008
1775706161669118500,0.864118408203125,-0.5984148059606552,1.1115274099498986,1.0106006456062198
1775706161679132400,0.87413232421875,-0.5084866977542638,1.137312424069643,0.9470914655089377
1775706161689145600,0.8841455078125,-0.6535556053590029,1.1198697063595056,0.7924982851684093
1775706161699158500,0.894158447265625,-0.8002619049072265,1.0075351205557583,0.5288648843944073
1775706161709171500,0.90417138671875,-0.8828682919234037,0.8519698803126812,0.28744185412377116
1775706161719184400,0.914184326171875,-0.9177530697565526,0.8799602955222129,0.3331932592123747
1775706161729198300,0.9241982421875,-0.7220142976224422,0.9126122728019952,-0.08193973980098962
1775706161739211500,0.93421142578125,-0.5874941834956408,0.9569628711819648,0.08480623514801264
1775706161749224400,0.944224365234375,-0.6183236215233803,0.9937456646561622,0.15092705904841422
1775706161759237600,0.954237548828125,-0.7333441584754735,0.3079536040157079,0.13600450746566056
1775706161769250300,0.964250244140625,-0.7559533921033144,0.35422026515007016,0.2255553067922592
1775706161779264500,0.974264404296875,-0.30816695450544357,0.26525135736465455,-0.7875202044948935
1775706161789277400,0.98427734375,0.027340938324853778,0.030688568252325056,-0.6175123051404953
1775706161799290400,0.994290283203125,-0.004886566465161741,-0.0366296487390995,-0.5694669438958168
1775706161809303600,1.004303466796875,-0.06612929946780205,0.08628419874608516,-0.9094865419968962
1775706161819316500,1.01431640625,-0.12140519648790359,0.11782850704491138,-0.8432482291966676
1775706161829330400,1.024330322265625,0.3418803870042786,-0.479017442163825,-1.5482713522687555
1775706161839343600,1.034343505859375,0.6766998226463794,-0.5480161595880985,-1.4707280938610434
1775706161849356300,1.044356201171875,0.8543968151986598,-0.4965881701678037,-1.496781111267209
1775706161859369500,1.054369384765625,0.6814215904712677,-0.3401291959553957,-1.611346524862945
1775706161869382400,1.06438232421875,0.6516916381180285,-0.3312210823565721,-1.5905831382974982
1775706161879396400,1.074396240234375,0.4442535872966051,-0.13641279600560666,-0.8017638339027762
1775706161889409500,1.084409423828125,0.6358586936920881,-0.09126490976810454,-0.4067983013883233
1775706161899422500,1.09442236328125,0.6457534802407026,-0.09312427389919757,-0.4111322389394045
1775706161909435400,1.104435302734375,0.06282090557217597,-0.023425299251079557,-0.7591597869291901
1775706161919448300,1.1144482421875,0.10408699107342399,-0.02520458388328552,-0.7620444024547934
1775706161929462500,1.124462646484375,-0.6329658948600292,0.4664040443062782,-0.5438178311154246
1775706161939475500,1.134475341796875,-0.632490678563714,0.42817222106754776,-0.19585107340216634
1775706161949488400,1.14448828125,-0.6975467958420515,0.39374914246201514,0.2577764914393425
1775706161959501600,1.15450146484375,-1.222366204237938,0.4946814597636461,0.2510048053473234
1775706161969514500,1.164514404296875,-1.2117039404481649,0.49698856766223903,0.25759792000204323
1775706161979528400,1.174528564453125,-1.4857728105187415,0.5009808521687984,0.18857289909273384
1775706161989541600,1.184541748046875,-1.0717863511919974,0.6164625038266182,0.11504705963283776
1775706161999554300,1.19455419921875,-0.6662152535110711,0.6913719065994024,0.3296978183120489
1775706162009567500,1.2045673828125,-0.48442836129665373,0.5398492197453976,0.6914613384485244
1775706162019581400,1.21458154296875,-0.5521703566581011,0.5513257225275039,0.7169768879771232
1775706162029594400,1.224594482421875,-0.32643618616759773,0.10454641614556312,1.1464753892123698
1775706162039607600,1.234607666015625,-0.2791080332815647,0.210288764077425,0.9592281857654452
1775706162049620500,1.244620361328125,-0.15545827273726462,0.4361088592857122,0.7444383108764886
1775706162059633400,1.25463330078125,-0.1451251039045397,0.4193225596576929,0.49622050589919087
1775706162069647600,1.264647705078125,-0.2026677676796913,0.4386012606233358,0.5505471393704414
1775706162079660300,1.274660400390625,-0.09695464584231377,0.12417232311367987,0.18866262320280075
1775706162089673500,1.284673583984375,-0.0846130141308531,0.3142886522561312,0.04072188648879528
1775706162099686400,1.294686279296875,0.3215022734293714,0.5002683199852704,0.3076332860201597
1775706162109699600,1.304699462890625,0.8734370312333106,0.6455845534145832,0.8444935530826448
1775706162119713500,1.314713623046875,0.834707779866457,0.6467974363356829,0.8526990713700652
1775706162129726500,1.3247265625,1.0894553519386798,0.30932547689080236,1.2578034283220767
1775706162139739400,1.334739501953125,0.934112814535573,0.2654302210628986,1.1501482325062156
1775706162149752300,1.34475244140625,0.9234662597715854,0.27701778300404545,1.1849512503400443
1775706162159766500,1.3547666015625,0.3505015368878841,0.5263794973194599,1.2288967750504611
1775706162169779500,1.364779541015625,0.3680336864471435,0.5405611674070357,1.2679089350119233
1775706162179792400,1.37479248046875,0.09895601225998252,0.8320885372787713,0.8412567631185054
1775706162189805600,1.3848056640625,0.0004173486292362213,0.6622545331865549,0.4380988640591502
1775706162199818500,1.394818603515625,0.02612345229387283,0.20502806707024573,0.16056407144367693
1775706162209832400,1.40483251953125,0.03704933545589447,-0.2967717002660036,0.2916685319080949
1775706162219845600,1.414845703125,0.04312715753223747,-0.297957110658288,0.28725451485812664
1775706162229858300,1.4248583984375,-0.056325734866596755,-0.6191501354753971,0.7560328870803117
1775706162239871500,1.43487158203125,0.3332815220177173,-0.28385552006959913,1.1614178145393728
1775706162249885400,1.444885498046875,0.3456137648463249,-0.28119185381829737,1.168213758289814
1775706162259898400,1.4548984375,0.5782721816420555,-0.80357497497797,0.6056827511370182
1775706162269911600,1.46491162109375,0.6011281200399622,-0.7978367235869169,0.6211810567811131
1775706162279924500,1.474924560546875,0.6428489909708499,-0.7661018611520528,-0.23118922102600334
1775706162289937400,1.4849375,0.5455097662577405,-0.7019482456713915,-0.33077626119852066
1775706162299951900,1.494951904296875,0.42532852207422256,-0.8196025651931762,-0.11367138736546038
1775706162309964800,1.50496484375,0.2428244397674687,-0.9536667522460222,0.17752894250899554
1775706162319977700,1.514977783203125,0.2613198631346226,-0.9497200604468583,0.18883564168214798
1775706162329991000,1.524990966796875,-0.15013092196835204,-0.8821762180060148,0.1040440195813775
1775706162340003800,1.53500390625,-0.2494435656462796,-0.9564566752254963,-0.033902854123711586
1775706162350017800,1.545017822265625,-0.21568857729434965,-0.9376771559536456,-0.0764227299451828
1775706162360031000,1.555031005859375,-0.15127658487213774,-0.8441618369102477,-0.1766369621053338
1775706162370043600,1.565043701171875,-0.14934064837349578,-0.8426718906134366,-0.17189707410186528
1775706162380056800,1.575056884765625,0.09839141891347244,-0.6408721379399299,-0.32413229313939806
1775706162390071000,1.585071044921875,0.36460488104224203,-0.489200398004055,-0.41198271828889843
1775706162400083700,1.595083740234375,0.3651017246484756,-0.49129766254425045,-0.4188251315295696
1775706162410097000,1.605096923828125,0.6405752008199691,-0.10930793145895004,-0.3767570911288261
1775706162420109800,1.61510986328125,0.6500842029213905,-0.11349486175477504,-0.3907163506373763
1775706162430122800,1.625122802734375,0.3718599667370319,0.3993032694578171,-0.21477993801683187
1775706162440137000,1.635136962890625,0.2096177329480648,0.543110267367959,-0.11503536919504403
1775706162450150000,1.64514990234375,0.030571673007542266,0.615174217581749,-0.04177665623873472
1775706162460162800,1.655162841796875,-0.2026584153294563,0.5724719709306955,-0.04608808969706297
1775706162470175700,1.66517578125,-0.1905330932497978,0.576945316952467,-0.032008418679237365
1775706162480189700,1.675189697265625,-0.3554699729502201,0.4396288501054048,-0.23409517160058022
1775706162490203000,1.685202880859375,-0.4081763117432594,0.34337972218394275,-0.3115364309385419
1775706162500215800,1.6952158203125,-0.3952759136378765,0.29285832621455193,-0.3811868902698159
1775706162510229000,1.70522900390625,-0.42242344828248024,0.21593232292234896,-0.5111696532279253
1775706162520243000,1.715242919921875,-0.424411991751194,0.22399404882490634,-0.4840595279842615
1775706162530256000,1.725255859375,-0.2989467062175274,-0.1296393563479185,-0.47400575148165225
1775706162540268800,1.735268798828125,-0.1407575380784925,-0.1817886457800865,-0.5424006577938795
1775706162550281700,1.74528173828125,-0.05011106160283088,-0.11245265922546387,-0.4544724912330508
1775706162560295000,1.755294921875,-0.01876782883405685,-0.12170038004219531,-0.31640579054057594
1775706162570308900,1.765308837890625,-0.022048179378709756,-0.11901041030585766,-0.30695582515001296
1775706162580321800,1.77532177734375,0.028355147735541684,-0.2736404155254364,-0.039138124428689476
1775706162590335000,1.7853349609375,0.19344985747933385,-0.24292320570051668,0.08375526479035615
1775706162600347600,1.79534765625,0.29805472581386566,-0.17806290325522423,0.13418226047456264
1775706162610361900,1.80536181640625,0.26778233714699745,-0.06832768629491329,0.09613982232809067
1775706162620375000,1.815375,0.26943653409481044,-0.06708616180121899,0.10046031587570906
1775706162630387700,1.8253876953125,-0.11437689615315758,-0.10096680409312248,0.33185850347727536
1775706162640401000,1.83540087890625,-0.2859457703471184,-0.06474222902357578,0.321489669676125
1775706162650414600,1.84541455078125,-0.28337971925139427,-0.06311959625780582,0.3271758986189961
1775706162660427800,1.855427734375,-0.40864977447390555,0.029900048223137854,0.2764022814542055
1775706162670441000,1.86544091796875,-0.4114975651204586,0.030642975544929504,0.27912936833053825
1775706162680454000,1.875453857421875,-0.12924130607419645,0.12952362101376055,0.24327479561716317
1775706162690466800,1.885466796875,-0.07184476363831199,0.09286883783340454,0.36635756992846724
1775706162700480800,1.895480712890625,-0.07812368864417076,0.09407529101371764,0.3708756318747997
1775706162710493700,1.90549365234375,-0.02487726075821556,0.012789923468232154,0.5195636798247695
1775706162720507000,1.9155068359375,-0.03163784093433059,0.016612696626782417,0.5335723314329982
1775706162730519800,1.925519775390625,-0.1352314955328591,-0.05327157146036625,0.23333324731737373
1775706162740533800,1.93553369140625,-0.1451356344317086,0.07411503752470017,-0.10090016859769821
1775706162750546700,1.945546630859375,-0.15520111963842062,0.07908405810892581,-0.08212123384773731
1775706162760559900,1.955559814453125,-0.016132785889040678,0.03563362343907356,-0.24471534981429574
1775706162770572800,1.96557275390625,-0.02140049715889618,0.039144846430420877,-0.23132570688724516
1775706162780586800,1.975586669921875,0.01989010172910057,0.11748480817377567,-0.3650777592509985
1775706162790600000,1.985599853515625,-0.08890928655266761,0.0886877527564764,-0.2798866164386272
1775706162800612900,1.99561279296875,-0.08586977272629738,0.09075345311462879,-0.272270296216011
1775706162810625800,2.005625732421875,-0.12892917138510382,0.1212175649613142,-0.344011590346694
1775706162820639000,2.015638916015625,-0.12519289833307265,0.12352759546935557,-0.3354451297923922
1775706162830652700,2.025652587890625,-0.09924010816467925,-0.03498188153207302,-0.6759314686223864
1775706162840665900,2.035665771484375,-0.14396306525468824,-0.10821370648145676,-0.6613888562679291
1775706162850679000,2.045678955078125,-0.1396656603217125,-0.10826163727641105,-0.6617950989812612
1775706162860691700,2.055691650390625,-0.2697895853161812,-0.09541618422865868,-0.5182014515608548
1775706162870706000,2.065705810546875,-0.267220045355428,-0.09604629882574081,-0.5207303855165839
1775706162880718600,2.075718505859375,-0.23095747636305167,0.019126725274324415,-0.5623652951970696
1775706162890731800,2.085731689453125,-0.046419203081261365,0.10539572645127773,-0.6181061793804168
1775706162900745000,2.095744873046875,-0.047160395103693006,0.10308160429000854,-0.6268447816312313
1775706162910758700,2.105758544921875,0.2077624422038905,0.10380115073621272,-0.4950163908064365
1775706162920771800,2.115771728515625,0.20657003581523894,0.10035247158706187,-0.5079088978663087
1775706162930784800,2.12578466796875,0.3510720302522182,0.08879764287173747,0.006210252816975116
1775706162940797700,2.135797607421875,0.4060451449334621,0.11132044032514095,0.22721417991518972
1775706162950812000,2.14581201171875,0.4086766624808311,0.1091179618448019,0.21894173387140034
1775706162960824800,2.155824951171875,0.41245851910710335,0.04197627046406269,0.5255360322326421
1775706162970837800,2.165837646484375,0.4206710516571998,0.041786885371804236,0.5244780476123094
1775706162980850700,2.1758505859375,0.29514731393456456,0.1319751058191061,0.3827130769237876
1775706162990864600,2.18586474609375,0.2162485492646694,0.16834522683918476,0.2179302187412977
1775706163000877800,2.1958779296875,0.043675471030804325,0.17112696651220322,0.20912819586545228
1775706163010890800,2.205890869140625,0.06022328572783153,0.1706260312527418,0.20688947702795266
1775706163020904000,2.215904052734375,-0.15884849969744683,0.06426350559592246,0.2986734422340989
1775706163030918000,2.22591796875,-0.2455810267329216,0.04855097267925739,0.37240181852877136
1775706163040930800,2.235930908203125,-0.22903087394833563,0.04636018463671207,0.3643058980956673
1775706163050943700,2.24594384765625,-0.26676526905894277,0.02132861923277378,0.4378469351246953
1775706163060956700,2.255956787109375,-0.38144261859655376,-0.20498305888473986,0.2726356223970651
1775706163070969900,2.265969970703125,-0.41292730566263197,-0.3399801428735256,0.301131356780231
1775706163080983800,2.27598388671875,-0.32034020738005636,-0.38464170689880844,0.3642199733778834
1775706163090996700,2.285996826171875,-0.31289632111489774,-0.39171617532968517,0.33917233362197874
1775706163101010000,2.296010009765625,-0.2171416987121105,-0.4008095823675394,0.1699509084701538
1775706163111022600,2.306022705078125,-0.09273848945200443,-0.29497078832387924,0.5385659019365906
1775706163121036800,2.316036865234375,-0.19374270294606685,-0.29283845247030255,1.1725056102648377
1775706163131050000,2.326050048828125,-0.44551907718777656,-0.35786768174171446,1.812607056093216
1775706163141062700,2.336062744140625,-0.43379356808066366,-0.3707937988102436,1.7707725321874022
1775706163151075800,2.346075927734375,-0.6531909367650747,-0.7332447166889905,2.2073718053385614
1775706163161089800,2.35608984375,-1.0663836153656243,-0.7045137122452259,1.4255077269092202
1775706163171102700,2.366102783203125,-1.0800514907121657,-0.8938654867559671,0.6540794100373983
1775706163181116000,2.376115966796875,-1.0975871474027632,-0.89499770565629,0.6498214603319764
1775706163191128800,2.38612890625,-0.8669196121633053,-1.14019002533257,-0.07961042007058858
1775706163201142800,2.396142822265625,-0.4250204790383577,-1.4172013785958288,-0.45086511439085003
1775706163211156000,2.406156005859375,0.30079145730137824,-1.7735522260338068,-0.967011386987567
1775706163221168600,2.416168701171875,0.4276408906698227,-1.7939052782326936,-0.9099410077661275
1775706163231181800,2.426181884765625,0.4039420351743698,-1.8053589846611022,-0.9449079839900135
1775706163241196000,2.436196044921875,0.6930407165944575,-1.6535446213841438,-0.9268608706459402
1775706163251208700,2.446208740234375,0.873622909194231,-1.4869886160492896,-0.7715919830009341
1775706163261222000,2.456221923828125,0.8372551262617111,-1.466812089461088,-0.402388083730638
1775706163271234800,2.46623486328125,0.2691618088066578,-1.3943208537459373,0.20705869611501693
1775706163281248800,2.476248779296875,-0.08756722429394721,-1.1757155122220515,0.2281584750279784
1775706163291262000,2.486261962890625,-0.09663782584494911,-1.1856219892084598,0.20024813931733368
1775706163301275000,2.49627490234375,-0.34386838248372076,-1.004932244580984,0.22563655533492563
1775706163311287000,2.506287109375,-0.6225988146245479,-0.6888637231707573,0.1408566236719489
1775706163321301200,2.51630126953125,-0.6431354066967964,-0.6330792921066284,-0.0270136791318655
1775706163331314200,2.526314208984375,-0.6835095026612281,-0.642852498102188,-0.051717035494744774
1775706163341327000,2.5363271484375,-0.6070259824395179,-0.6641577364593744,-0.19633038135170935
1775706163351340300,2.54634033203125,-0.31946810072064397,-0.576724952200055,-0.05773176573961973
1775706163361354200,2.556354248046875,0.41995325877666473,-0.30404841327071186,0.32298107727766034
1775706163371367200,2.5663671875,0.5078045241763814,-0.23567571879029273,0.5702592633172869
1775706163381380000,2.576380126953125,0.45938620143346487,-0.24568214901983737,0.5500938426449895
1775706163391393300,2.586393310546875,0.43150574940443037,-0.17951660919487475,0.7701005753993988
1775706163401407200,2.5964072265625,0.37855855106022207,-0.16109072566628455,0.9147647746607661
1775706163411420200,2.606420166015625,0.3476782961606979,-0.10475333689451218,0.8416162440806627
1775706163421433000,2.61643310546875,0.28738953941464424,-0.05666705911755562,0.5075356806397437
1775706163431446000,2.626446044921875,0.2574666948378086,-0.05265548538863658,0.5236471497461199
1775706163441460200,2.636460205078125,0.12541143645457922,-0.06266191561818123,-0.10456804345548153
1775706163451473200,2.64647314453125,0.03158515176586807,-0.0707931996256113,-0.4821814591526985
1775706163461486000,2.656486083984375,-0.10425773539729416,-0.10492401728630066,-0.6358303443804383
1775706163471499300,2.666499267578125,-0.13097381982207298,-0.10901625503599643,-0.6408095940977334
1775706163481513200,2.67651318359375,-0.19192418228201566,-0.08280804706811905,0.013066986843943595
1775706163491526100,2.686526123046875,-0.2946189061462879,-0.06253916602134704,0.30033728379309177
1775706163501539300,2.696539306640625,-0.3821556622367352,0.013412439280748367,0.40157092212885614
1775706163511553300,2.70655322265625,-0.4139537261009216,0.012734978410601614,0.40776802320331335
1775706163521566200,2.716566162109375,-0.31262108437009156,0.02425882746577263,0.21473785244077442
1775706163531579100,2.7265791015625,-0.06711480337381362,0.05764964041411876,-0.223000653873384
1775706163541592000,2.736592041015625,-0.0984428385734558,0.05721007995307445,-0.21534487842321395
1775706163551605200,2.746605224609375,-0.48189971960186956,0.03036298955976963,0.18335487218350172
1775706163561619200,2.756619140625,-0.7417758867342025,0.04166413577497005,0.4332283354133367
1775706163571632000,2.766632080078125,-0.7722457707345485,0.04044248502552509,0.4393932877838611
1775706163581645300,2.776645263671875,-0.8170926281988621,0.01719897208213806,0.5752507879942655
1775706163591659000,2.786658935546875,-0.8510708856463431,0.016824878072738646,0.5854539098396897
1775706163601672200,2.796672119140625,-0.6318855522774159,-0.0719435387045145,0.34587621517479417
1775706163611685400,2.806685302734375,-0.5952630639314651,-0.046268999221920966,0.10396423234343528
1775706163621698000,2.816697998046875,-0.6337668359793722,-0.047160395103693006,0.11561404586583375
1775706163631712300,2.826712158203125,-0.36625805507674813,0.1142594163864851,-0.13753303220719099
1775706163641725200,2.83672509765625,-0.4061576653972268,0.11114859088957309,-0.1304077103719115
1775706163651738000,2.846738037109375,-0.1438053904749453,0.06116144792735576,-0.010151391658186912
1775706163661751300,2.856751220703125,0.013289689683914184,0.059413727477192875,0.024248890593647956
1775706163671765000,2.866764892578125,-0.021442601001262662,0.05345628037750721,0.022809505440294742
1775706163681778200,2.876778076171875,0.04402370451316237,0.09651157824993133,0.3053799541354179
1775706163691791400,2.886791259765625,0.01221519232019782,0.09018880496919154,0.3023608985751867
1775706163701804300,2.89680419921875,0.04431728063225746,0.2663333073824644,0.5715437501698732
1775706163711818200,2.906818359375,0.0212241359449923,0.3027835079014301,0.33631080671101804
1775706163721831200,2.9168310546875,-0.0024818799436092374,0.29771336503028867,0.33369594803750513
1775706163731844000,2.926843994140625,-0.029622546456009147,0.27832126681804653,0.21444296114742756
1775706163741857300,2.936857177734375,-0.05337736992239952,0.2720177827596664,0.2088791895404458
1775706163751871200,2.946871337890625,-0.08989026041403413,0.19972469996511935,0.37133769642859693
1775706163761884200,2.95688427734375,-0.13698738102316857,0.11573299607038497,0.6536188067883253
1775706163771897000,2.96689697265625,-0.1618552802979946,0.11049275732934474,0.6520394286423922
1775706163781910300,2.97691015625,-0.10097732548713684,0.12179156545698643,0.09846066649109124
1775706163791924200,2.98692431640625,-0.12235679812431335,0.11480243722200394,0.09077800303399562
1775706163801937200,2.996937255859375,0.09395619467869401,0.03795885151624679,0.1282587156444788
1775706163811950000,3.0069501953125,-0.10012626161575316,-0.0361895037561655,0.40044191809892654
1775706163821964300,3.01696435546875,-0.11556699185371398,-0.04248071285486221,0.3919304026022553
1775706163831977200,3.026977294921875,-0.34226343150511385,-0.2312017882466316,0.6116849141612649
1775706163841990100,3.036990234375,-0.356815688470751,-0.23477964673340318,0.6100219493851066
1775706163852003000,3.047003173828125,-0.3741255735814571,-0.16693886717259884,0.4450964678615331
1775706163862017300,3.057017333984375,-0.47556116423010825,-0.1967331169337034,0.49751580640673637
1775706163872030200,3.0670302734375,-0.4931272160589695,-0.19702771596610544,0.5063473476380109
1775706163882043100,3.077043212890625,-0.5747507295176386,-0.10412322229743003,-0.052713060794770714
1775706163892056300,3.087056396484375,-0.5969698678493499,-0.10574877767264843,-0.04452566268593073
1775706163902070300,3.0970703125,-0.4546832113742828,-0.10934300277233124,-0.4932219086050987
1775706163912083200,3.107083251953125,-0.19626228455156086,-0.16757482698857784,-0.6440975297272205
1775706163922096000,3.11709619140625,-0.20916063683032987,-0.176491123893857,-0.6601829876095057
1775706163932109000,3.127109130859375,-0.008926526038348674,-0.1483048938512802,-0.5395788783714175
1775706163942123300,3.137123291015625,-0.014748364059627055,-0.158726919144392,-0.5633414467528463
1775706163952136200,3.14713623046875,-0.5635796394228935,-0.22334464500546455,-0.12419804207682608
1775706163962149000,3.157149169921875,-0.6564800414383412,-0.12909107481539248,0.049262628079950806
1775706163972162300,3.167162353515625,-0.670027797536552,-0.14001111275851727,0.02925269023030996
1775706163982176300,3.17717626953125,-0.6678443160176277,-0.3877215527355671,0.52153030372262
1775706163992189200,3.187189208984375,-0.6917746421813964,-0.3974491660237312,0.5108797303706407
1775706164002202400,3.197202392578125,-0.7304387193575501,-0.1729571045488119,0.6997355380579828
1775706164012216000,3.207216064453125,-0.7004848951205611,-0.19556641124188898,0.8350207913383841
1775706164022229200,3.217229248046875,-0.7253847969688475,-0.19922844088077543,0.8406865620151162
1775706164032242200,3.2272421875,-0.05654197143316268,-0.10193594138622283,0.48295010543763633
1775706164042255000,3.237255126953125,-0.08276289275214076,-0.10311609108150005,0.49606239272803065
1775706164052269300,3.247269287109375,0.40934652456641196,-0.05254734883904457,0.5126218978628516
1775706164062282000,3.257281982421875,0.6251929227709769,-0.04126432280242443,0.1348375095129013
1775706164072295200,3.267295166015625,0.6209608381591737,-0.03641571372747421,0.14988018034398554
1775706164082308400,3.277308349609375,0.6315929990716278,0.24412790531516074,-0.5656307267338038
1775706164092322000,3.287322021484375,0.38248803599625825,0.2841530417114496,-0.6049070905894041
1775706164102335200,3.297335205078125,-0.055958618587255475,0.2895779893696308,-0.4274380615741014
1775706164112348200,3.30734814453125,-0.24509002834558485,0.28934534965753556,-0.03591360942423343
1775706164122361000,3.317361083984375,-0.2614247848138213,0.28919162040054797,-0.025584815372526645
1775706164132375300,3.327375244140625,-0.5178510306879878,0.3420353218376636,0.19943331580311058
1775706164142388200,3.33738818359375,-0.5292927544176578,0.3402291491985321,0.20236293951421974
1775706164152401200,3.347401123046875,-0.7034297164008021,0.24614099870324133,0.5750394833311439
1775706164162414000,3.3574140625,-0.4812482699558139,0.29278175384700295,0.4361208419844508
1775706164172428000,3.367427978515625,-0.4864259648546576,0.2891810990065336,0.43023996725231406
1775706164182441200,3.377441162109375,0.5471934450283646,0.38314766894876956,-0.13387655552625655
1775706164192454100,3.3874541015625,0.8484764852389692,0.3145885119855404,-0.35581747121363877
1775706164202468000,3.397468017578125,0.8115138051532208,0.19067220945954322,-0.4443272370547056
1775706164212481300,3.407481201171875,0.6857770092017949,0.162884038823843,-0.5353729511141777
1775706164222494200,3.417494140625,0.6858277164757252,0.16190438013672828,-0.5379352028176189
1775706164232507100,3.427507080078125,0.5880417343758046,0.34701544833779335,-0.5014145674109458
1775706164242521300,3.437521240234375,-0.12065510877296327,0.42905192651152607,0.02987842091321945
1775706164252534300,3.4475341796875,-0.12053820439502597,0.4304705611377954,0.0334621246188879
1775706164262547200,3.457547119140625,-0.3190118813857436,0.6431856755793094,0.36373482020944353
1775706164272560000,3.46756005859375,-0.31622838814705606,0.6466822855234146,0.37091830197274683
1775706164282574000,3.477573974609375,-0.14802563851848244,0.7257207509249448,-0.2881745523124933
1775706164292587300,3.487587158203125,-0.07418401110768318,0.7613900301992893,-0.4496618760809302
1775706164302601000,3.49760107421875,0.014367255787551401,0.7127227376639843,-0.30807109291553497
1775706164312615000,3.507614990234375,0.048941141040623186,0.7969266230046749,-0.07849310647845267
1775706164322627800,3.5176279296875,0.045180911724269385,0.7941969057798385,-0.083017013643682
1775706164332640800,3.527640869140625,0.464505809469521,0.8923732023715972,0.09306786753684282
1775706164342653700,3.53765380859375,0.6667091745078564,0.8487135088652372,-0.027179391087591646
1775706164352668000,3.54766796875,0.6499091386154293,0.5935638587981462,-0.09185556913763285
1775706164362680800,3.557680908203125,0.5374700695239008,0.4545657224744558,-0.04902326636612415
1775706164372693800,3.56769384765625,0.5570854550980031,0.45990474541485304,-0.048204351198673244
1775706164382707000,3.57770703125,-0.36180122179836033,0.12362404158115387,0.550797899261117
1775706164392720600,3.587720703125,-0.6670639792948961,0.16492869639396668,0.6130746149539947
1775706164402733800,3.59773388671875,-0.8014633896514773,0.4229653000742197,0.45454438742548225
1775706164412747000,3.6077470703125,-0.813705908370018,0.7313198861062526,0.13029665121287107
1775706164422760700,3.6177607421875,-0.8346224396705627,0.7395499543130397,0.16630173831284045
1775706164432774000,3.62777392578125,-1.0006778020069003,1.0448930835694075,-0.34797435649782416
1775706164442786800,3.637786865234375,-0.4659948789834976,1.15027945767045,-0.6906868469446897
1775706164452799700,3.6477998046875,0.08983107757270335,1.341491180834174,-1.1775856900081039
1775706164462814000,3.65781396484375,0.7168937397383153,1.5728811851292848,-1.7469807377114892
1775706164472826600,3.66782666015625,0.7172928220584989,1.563231313252449,-1.7733403368487952
1775706164482839800,3.67783984375,1.4238392091751098,2.091176744714379,-2.0457406891852616
1775706164492853000,3.68785302734375,1.2434626221500336,2.546393040052056,-2.3151874524131415
1775706164502866700,3.69786669921875,0.9736192608200013,2.839227400869131,-2.5309087629333136
1775706164512879900,3.7078798828125,0.988229239322245,2.8445079716205597,-2.5269997727960347
1775706164522892800,3.717892822265625,0.7952192345649004,2.9689842461168765,-2.7145228705748914
1775706164532906800,3.72790673828125,0.5168146733775735,3.0442297489762304,-2.9753160794869062
1775706164542920000,3.737919921875,0.31981165346130724,3.0347137326121327,-3.164515878306329
1775706164552932900,3.747932861328125,0.4294438484385609,3.125794517984986,-3.467556868100166
1775706164562945800,3.75794580078125,0.47907530983090396,3.053776160478592,-3.662015902622044
1775706164572960000,3.7679599609375,0.4904398766711354,3.0502181757360693,-3.67913450294435
1775706164582972700,3.77797265625,0.3642892392218113,2.719387554001808,-3.3082638395056128
1775706164592985900,3.78798583984375,0.2887342320218682,2.6352970659077166,-2.9080113064989446
1775706164602998800,3.797998779296875,0.2284964748106897,2.4760072521835563,-2.4711805626794696
1775706164613012700,3.8080126953125,0.15426336386427283,2.0060873087108133,-1.9997195272445678
1775706164623026000,3.81802587890625,0.1400093591928482,2.0024352159440517,-1.999836431622505
1775706164633038800,3.828038818359375,-0.18427140250653026,1.249406771376729,-1.2318036024078727
1775706164643052800,3.838052734375,-0.32327421500533815,0.9467828379511832,-0.8881064848378301
1775706164653066000,3.84806591796875,-0.47771351995840666,0.663078709051013,-0.723140963564813
1775706164663079000,3.858078857421875,-0.4173778553307056,0.44777942333519455,-0.6994865317329764
1775706164673091800,3.868091796875,-0.4444400497794151,0.4406155230551958,-0.6994055754512548
1775706164683105800,3.878105712890625,-0.06642945145815611,-0.13489888431131838,-0.6198650057464837
1775706164693118700,3.88811865234375,0.12816256179362534,-0.2897761422902346,-0.49626083790957926
1775706164703132000,3.8981318359375,0.49802755532115695,-0.21957623238265514,-0.33790479790419337
1775706164713145900,3.908145751953125,0.7424027133956551,-0.30783786868155,-0.16463497414439915
1775706164723158800,3.91815869140625,0.7365773682430387,-0.3130366063684225,-0.1737631602346897
1775706164733171700,3.928171630859375,0.4955056356281042,-0.5775806922465563,-0.09167290604710579
1775706164743185000,3.938184814453125,0.2070633722901344,-0.6626683746844529,-0.14491905080527068
1775706164753198800,3.94819873046875,-0.03450798041000962,-0.6930535760760307,-0.4718742924109101
1775706164763211800,3.958211669921875,-0.007792115180939436,-0.6868868701398372,-0.4747711828961968
1775706164773224700,3.968224609375,-0.07100859594196081,-0.5338315668910741,-1.1118526963815092
1775706164783237600,3.978237548828125,-0.28714111761152744,-0.7472416778594255,-0.9417600413531064
1775706164793251800,3.988251953125,-0.65330228818506,-0.5214373647421598,-0.39220220528095956
1775706164803264800,3.9982646484375,-0.9819994050219655,-0.2974000612974167,0.2287991110190749
1775706164813277700,4.008277587890625,-1.241801264809072,-0.21234277399778365,0.7815554508715867
1775706164823292000,4.0182919921875,-1.2343737451568244,-0.21822890942692755,0.7622144983246922
1775706164833304800,4.028304931640625,-1.0107998214401304,0.25160861645936966,1.2804577432006596
1775706164843317800,4.03831787109375,-0.8571288705110549,0.17112521294653416,0.943668797583878
1775706164853331000,4.0483310546875,-0.5847495609626173,0.18119126440882682,0.7279854809865355
1775706164863345000,4.058344970703125,-0.36316125810518857,0.01661386567056179,0.6161719964474439
1775706164873357800,4.06835791015625,-0.371749784360826,0.010887889239192008,0.6076762630417942
1775706164883370800,4.078370849609375,0.29935543314889074,-0.2784779186844826,0.2468698974996805
1775706164893384700,4.088384765625,0.41832594983577726,-0.4815875849127769,0.46221360687911506
1775706164903398000,4.09839794921875,0.42141602480560536,-0.4863461776167154,0.4487883081167936
1775706164913410800,4.108410888671875,0.28647154778689143,-0.7314373750060796,0.8751610785469413
1775706164923423700,4.118423828125,0.29133491603955625,-0.7323369541943073,0.869952403987944
1775706164933438000,4.12843798828125,0.24970424414277076,-0.6294377207338809,0.8760732249557971
1775706164943451000,4.138450927734375,0.23260697886943815,-0.4841933834969997,0.7577385219544172
1775706164953463800,4.1484638671875,0.31967253725156186,-0.32401801910996436,0.4660355032548308
1775706164963477800,4.158477783203125,0.40957054258063436,-0.2453536477178335,0.22630320255011319
1775706164973490700,4.16849072265625,0.42902533076554533,-0.2381383095115423,0.23170184672325847
1775706164983504000,4.17850390625,0.2661523978576064,-0.43988662425875663,0.1542982890471816
1775706164993516800,4.188516845703125,0.13377835584878922,-0.3644324470847845,0.04325257401019335
1775706165003530800,4.19853076171875,0.09799714063256978,-0.3615940087884664,0.021849428236484527
1775706165013544000,4.2085439453125,0.015349544823169707,-0.3106435737520456,0.06773322753310203
1775706165023556600,4.218556640625,0.04191109627336263,-0.2981394814878702,0.08279577210843563
1775706165033569800,4.22856982421875,-0.0382134107992053,-0.16828326751887798,-0.010583353334665297
1775706165043583700,4.238583740234375,-0.10248583035394548,-0.2777303151875734,0.1515574659064412
1775706165053596700,4.2485966796875,-0.3286477247372269,-0.20417934128642082,0.17461217827945946
1775706165063609900,4.25860986328125,-0.5242749262556433,0.0006581716477870941,0.21003128218501804
1775706165073623800,4.268623779296875,-0.491473895893991,0.010943418818712233,0.21765695475786923
1775706165083636700,4.27863671875,-0.8412719606876373,-0.005247837525606155,0.4973685068905353
1775706165093650000,4.28864990234375,-0.8938891598924994,0.13623042517602443,0.3610924890071153
1775706165103662800,4.298662841796875,-0.8985577362254261,0.0334141938239336,0.12928250573426484
1775706165113676800,4.3086767578125,-0.7435996680952608,-0.05092237798571586,-0.14890578235387802
1775706165123690000,4.31868994140625,-0.7358896782398223,-0.0440408017784357,-0.13537205478101969
1775706165133702700,4.32870263671875,-0.4095722961463034,0.30420681870281696,-0.33670915837883947
1775706165143716900,4.338716796875,-0.18569091391563414,0.3391565515309572,-0.24869682066589593
1775706165153729800,4.348729736328125,0.022810674484074114,0.3536702300518751,-0.12540537203997373
1775706165163742700,4.35874267578125,0.17777634139880538,0.5325292521208524,-0.12919307388514278
1775706165173756000,4.368755859375,0.1937187375485897,0.5370440991967916,-0.1259188745200634
1775706165183769600,4.37876953125,0.053511956087499854,0.30865970645844937,-0.1666314086586237
1775706165193782800,4.38878271484375,-0.11528042999729514,0.25620062042474745,-0.3649301674738526
1775706165203796000,4.3987958984375,-0.23313889378905295,-0.12803776637017728,-0.2726595877945423
1775706165213809700,4.4088095703125,-0.4337454911552369,-0.20412030457556246,-0.2629302209407091
1775706165223822800,4.41882275390625,-0.4138752540372312,-0.19818682287335396,-0.2572960144460201
1775706165233835800,4.428835693359375,-0.4203052870847285,-0.11471125180721282,-0.05818038628995418
1775706165243848700,4.4388486328125,-0.476705804220587,-0.041457215026021,0.5180132355123758
1775706165253863000,4.44886279296875,-0.4736111992061138,0.05692600231468677,0.6263593362018466
1775706165263875800,4.458875732421875,-0.5341359566651285,0.18337211557924746,0.5854933650672436
1775706165273888800,4.468888671875,-0.5157435370147228,0.18991408456861972,0.5940481351837515
1775706165283903000,4.478903076171875,-0.47548415347114203,-0.08973930763602256,0.5446835080340504
1775706165293915600,4.48891552734375,-0.5627519564270973,-0.20584990484714508,0.35812224102467294
1775706165303928000,4.498927978515625,-0.33636692081242797,-0.026738953843712804,0.18445435785800218
1775706165313941200,4.508941162109375,-0.0008605623520910739,0.11234744528532027,0.19080197331905363
1775706165323955200,4.518955078125,0.010165858574956655,0.11710369990170001,0.19855974783897398
1775706165333968100,4.528968017578125,0.2523873457469046,0.17667466376721858,0.8615589619129895
1775706165343981300,4.538981201171875,-0.000362549702078104,0.03496025422215462,1.0356386407509446
1775706165353995000,4.5489951171875,-0.13231354399323464,-0.08020107944011688,0.9216489812165498
1775706165364008200,4.55900830078125,-0.1371941556416452,-0.34911154383420945,0.7222285248950123
1775706165374021400,4.569021484375,-0.11379925152882933,-0.3386170378267765,0.7410477916553616
1775706165384034000,4.579033935546875,0.058102791009098285,-0.2546837861210108,0.6159811500504613
1775706165394048300,4.58904833984375,0.14450082539319992,-0.27274083633720875,0.49310062031298874
1775706165404061200,4.599061279296875,0.2739198169887066,-0.11244272235333919,0.27876959510743615
1775706165414074000,4.60907421875,0.4143512009859085,0.07630114939212798,0.1244040860429406
1775706165424088300,4.61908837890625,0.44603228740692136,0.08361936345100403,0.1321080845490098
1775706165434101000,4.62910107421875,0.6288039528749882,0.15962591381072996,0.14128303239047527
1775706165444114200,4.6391142578125,0.49565001253485674,0.052013680353760715,0.28181407736986874
1775706165454128400,4.64912841796875,0.26380875734090803,0.07317571084797382,0.46138446257859467
1775706165464141000,4.65914111328125,-0.007963599290326237,-0.04872983637750149,0.7908134008213877
1775706165474154200,4.669154296875,0.03853051392436027,-0.040162499040365215,0.799063635033369
1775706165484167200,4.679167236328125,-0.6236287421941756,-0.06021744507551193,1.3909694974914193
1775706165494181000,4.68918115234375,-0.7510393896419555,0.013741525104641914,1.5716887604743242
1775706165504194300,4.6991943359375,-0.8643968156874179,0.10110767386853695,1.5272671426847577
1775706165514207200,4.709207275390625,-0.944478725727275,0.14278174651563166,1.3239458795323966
1775706165524221200,4.71922119140625,-0.917031988940388,0.15404080715477467,1.3493135450229048
1775706165534234400,4.729234375,-0.9804537099499255,0.2877040121912956,0.7316673843696713
1775706165544247000,4.7392470703125,-0.917967077833414,0.29874796877503396,0.3804188285067677
1775706165554260200,4.74926025390625,-0.8443512950677424,0.2502560328066349,0.1687432862460613
1775706165564274200,4.759274169921875,-0.8029729174315929,0.19210370356738565,0.14242927981615067
1775706165574287000,4.769287109375,-0.8064122442305087,0.2003805335253477,0.16962182264626025
1775706165584300300,4.77930029296875,-0.638253479874134,0.1432242295861244,0.23659663302749395
1775706165594314000,4.78931396484375,-0.6045568889122456,0.1824514936029911,0.24591566551476715
1775706165604327200,4.7993271484375,-0.5921979042071849,-0.023591887989640233,0.3478159510657191
1775706165614340400,4.80934033203125,-0.5542249511003494,-0.1899012250870466,0.3681009064644575
1775706165624353300,4.819353271484375,-0.5559012868147343,-0.18108488142490387,0.3979182448402047
1775706165634367200,4.8293671875,-0.4473685044467449,-0.2976508211880922,-0.15700082600414753
1775706165644380200,4.839380126953125,-0.3142143449109047,-0.3418365843951702,-0.49673137803077694
1775706165654393000,4.84939306640625,-0.16360409672670065,-0.42215982891023157,-0.637882308474183
1775706165664407300,4.8594072265625,-0.07425422679968177,-0.549352376627922,-0.6038301090076565
1775706165674420200,4.869420166015625,-0.06903678441233932,-0.5437415510088205,-0.5859262035265564
1775706165684433200,4.87943310546875,-0.16307926913499832,-0.7960819888740778,-0.28076310701221224
1775706165694446000,4.889446044921875,-0.19711824379377066,-0.776620332556963,-0.346618850235641
1775706165704460000,4.8994599609375,-0.11532390381284058,-0.729431880402565,-0.44752778666168447
1775706165714473200,4.90947314453125,-0.059308002080395814,-0.6346680226027965,-0.5059019419580698
1775706165724486100,4.919486083984375,-0.036115269476175306,-0.6316314313858747,-0.5023693839177489
1775706165734500000,4.9295,-0.19964104026965795,-0.46155543523132797,-0.14650456643104554
1775706165744513300,4.93951318359375,-0.2975813361484557,-0.35188568472266196,-0.07454056946039199
1775706165754526200,4.949526123046875,-0.30640754361748695,-0.32450726393163204,0.06618132191598415
1775706165764540200,4.9595400390625,-0.37290852594189344,-0.3595394143462181,0.2487485508531332
1775706165774553300,4.96955322265625,-0.3534264844238758,-0.35644612450599666,0.254597569142282
1775706165784566300,4.979566162109375,-0.39253801310658454,-0.2885784569382667,0.31594723311811684
1775706165794579200,4.9895791015625,-0.38517639829739925,-0.2594271812558174,0.475543044051528
1775706165804593200,4.99959326171875,-0.26465872523374856,-0.2314934646695852,0.5852198088228702
1775706165814606000,5.009606201171875,-0.11718721346668898,-0.22571955744326114,0.6110521692156792
1775706165824619300,5.019619384765625,-0.11362170300483702,-0.2228185753047466,0.6207815360695124
1775706165834633200,5.02963330078125,-0.02609064600281417,-0.11919453470110893,0.32637861076146363
1775706165844646100,5.039646240234375,-0.0560708467900753,-0.000180032742023468,0.24897972926050424
1775706165854659000,5.0496591796875,-0.184346513569355,0.09917816711068153,0.28867110365778204
1775706165864672300,5.05967236328125,-0.24081249715685843,0.2877490203768015,0.2139464098021388
1775706165874686200,5.069686279296875,-0.25402261879853905,0.2911877626538277,0.23045827640295027
1775706165884699100,5.07969921875,0.06697101098895072,0.12767127114534377,0.2960504002541303
1775706165894712300,5.08971240234375,0.22388481629677115,-0.028950784674286842,0.3408843982368707
1775706165904726300,5.099726318359375,0.18775887929610907,-0.025366496446728705,0.3658239014431834
1775706165914739200,5.1097392578125,0.40179574386067685,-0.4341168086856603,0.2841225004427135
1775706165924752100,5.119752197265625,0.3461643844664097,-0.4324982675731182,0.31005306051298975
1775706165934766300,5.129766357421875,0.8404257191218435,-1.056391798183322,0.10699307864531873
1775706165944779300,5.139779296875,1.1354968260150402,-1.1416449003159999,0.08641089386567473
1775706165954792200,5.149792236328125,1.3212015492603182,-1.3245014675885438,0.012664251261949538
1775706165964805000,5.15980517578125,1.3906091397464275,-1.3903671476840973,-0.08245221936777233
1775706165974819000,5.169819091796875,1.358577486322075,-1.391470140489936,-0.07139481878057122
1775706165984832300,5.179832275390625,1.5910951794728636,-1.3254331954807042,-0.5044323077969253
1775706165994845200,5.18984521484375,1.3862448070570825,-1.2183774268627166,-0.9499548921160399
1775706166004859100,5.199859130859375,0.8899756397105753,-1.0512748935610055,-1.2315788537412882
1775706166014872000,5.2098720703125,0.019487959802150723,-0.9346937562286853,-1.2010017830394208
1775706166024885200,5.21988525390625,0.08633614812903105,-0.9308791663765906,-1.2137718327634035
1775706166034898200,5.229898193359375,-0.7911363491654395,-0.40844694537818427,-1.04428678823933
1775706166044912000,5.239912109375,-1.247109015828371,-0.03139583973884583,-0.8355247953377664
1775706166054925300,5.24992529296875,-1.198075812590122,-0.03150631437599659,-0.8527259593769907
1775706166064938000,5.25993798828125,-1.715201159352064,0.3904161986470222,-0.4597773196429014
1775706166074952200,5.2699521484375,-1.6960872935593128,0.3880260886400938,-0.47517976369708775
1775706166084965000,5.279965087890625,-1.676868213826418,0.5346230095297098,-0.23474282185435294
1775706166094978000,5.28997802734375,-1.2623147682666778,0.7098124031752348,-0.14071239289566873
1775706166104992300,5.2999921875,-0.7836884443122893,0.8363596387267113,-0.042732349528372286
1775706166115005200,5.310005126953125,-0.3751017251372337,0.8074252206653356,0.09559183305650949
1775706166125018000,5.32001806640625,-0.43803719699978827,0.7975310186386108,0.07934709295928478
1775706166135032000,5.330031982421875,0.9997674091637134,0.5058832372575998,0.35112697530984877
1775706166145045200,5.340045166015625,1.8744740219414233,0.28481179788112637,0.4464151492446661
1775706166155058200,5.35005810546875,1.800166238323599,0.27267010918855666,0.4329243840306997
1775706166165071400,5.3600712890625,3.146184395062923,-0.0897948372155428,0.4280518095582723
1775706166175085000,5.3700849609375,3.132387340378761,-0.09279284998774529,0.4233142596423626
1775706166185098200,5.38009814453125,2.9064462491393086,-0.5199345589637756,-0.0296039878860116
1775706166195111200,5.390111083984375,2.417105565881729,-0.6126701258063316,-0.40275633252114057
1775706166205125000,5.400125,2.5110230359852315,-0.60256491137743,-0.40413755774647
1775706166215138300,5.41013818359375,0.157533325445652,-0.5735469066858291,-0.7605079866677522
1775706166225151200,5.420151123046875,0.2805716760933399,-0.5655599995851517,-0.7708183682799339
1775706166235164200,5.4301640625,-0.8050386177897453,-0.6505898143559694,-0.7027478716164827
1775706166245178000,5.44017822265625,-1.9198972179889677,0.10583002621531486,-0.6657920596629381
1775706166255191000,5.45019091796875,-1.8386732252418994,0.10373334619700908,-0.689403236874938
1775706166265204200,5.460204345703125,-1.8303531406641005,0.004413140267133712,-0.3468859767392278
1775706166275218200,5.47021826171875,-1.7763269514441489,0.00011222820281982422,-0.36996173190027476
1775706166285231000,5.480231201171875,-1.5550293020963668,-0.08543664200603962,-0.18952479299008845
1775706166295244300,5.490244384765625,-1.3725111729979513,-0.16093348927795886,-0.16961656194925306
1775706166305258000,5.500258056640625,-1.3445114054381846,-0.16600830832421778,-0.18998451945632694
1775706166315271200,5.510271240234375,-0.7733820812880993,0.09720715929865836,-0.6027998891770839
1775706166325284000,5.5202841796875,-0.7533972778797149,0.09026654638051985,-0.6280863061249256
1775706166335297000,5.530297119140625,-0.8986299246788024,-0.03967033160924911,-0.3632289165139198
1775706166345311200,5.540311279296875,-0.654596711909771,0.00493044213950634,-0.08755904098749161
1775706166355324000,5.550323974609375,-0.6633259618103504,-0.0021148001968860626,-0.11035042624920606
1775706166365337000,5.560337158203125,-0.43721302113533017,0.02981003185212612,0.2947086302563548
1775706166375351000,5.57035107421875,-0.4492658625006675,0.024629414343833922,0.27867227221280333
1775706166385364000,5.580364013671875,-0.43793549019098277,-0.10329963095486164,0.4965697577282786
1775706166395377200,5.590377197265625,-0.382352098124288,-0.17946049509346484,0.6060080375686288
1775706166405391000,5.60039111328125,-0.38005613267421723,-0.1831926673591137,0.5938052663385868
1775706166415404000,5.610404052734375,-0.5621230108737946,-0.32735096292495725,0.3003571575373411
1775706166425417000,5.6204169921875,-0.552090277159214,-0.32906010493040083,0.29413053810745476
1775706166435431000,5.630430908203125,-0.8386451193153858,-0.2919225066691637,-0.055685062342882154
1775706166445444000,5.640444091796875,-0.9960931045651436,-0.2807809349298477,-0.030412381659448144
1775706166455457000,5.65045703125,-1.019602574968338,-0.2824368854433298,-0.03382920436561108
1775706166465470000,5.660469970703125,-0.6057575699388981,-0.5995347499012946,0.2935056842073798
1775706166475484200,5.670484130859375,-0.6562053161501884,-0.6015080958008766,0.29252164160609245
1775706166485497000,5.6804970703125,-0.17829320487976072,-0.7250462126642465,0.26921353899389505
1775706166495510000,5.690510009765625,0.8875941514015198,-1.2043261051565408,0.34839959617257116
1775706166505524200,5.700524169921875,0.8510580992300063,-1.209544132065773,0.3375032313659787
1775706166515537000,5.710536865234375,1.2446809118986129,-1.381480661395192,0.2005330937385559
1775706166525550000,5.720550048828125,1.2375322091877459,-1.3878016811102627,0.1819964433118701
1775706166535564000,5.73056396484375,0.6315771439153701,-1.3152502396404742,0.05338906036019325
1775706166545577000,5.740576904296875,0.2162883698184043,-1.2289672099381685,0.08346768002063036
1775706166555590100,5.750590087890625,0.21455935406871138,-1.237438685685396,0.05796878936588764
1775706166565603000,5.76060302734375,-0.2414893004398793,-1.015990229690075,0.3503685581579804
1775706166575617000,5.770616943359375,-0.2613011584341526,-1.0252841277360916,0.3258735838487744
1775706166585630200,5.780630126953125,-0.20031331350803375,-0.7749713963061571,0.5674354380682111
1775706166595643100,5.79064306640625,-0.07302552525494248,-0.7659796960771084,0.5210194315910339
1775706166605657000,5.800656982421875,-0.10791326223015785,-0.7755734538525343,0.49964843452125784
1775706166615670000,5.810669921875,0.22056107870154082,-0.6987158396214246,0.4217483254998922
1775706166625683000,5.820682861328125,0.1935971569955349,-0.7087877363026142,0.39840748966187234
1775706166635697200,5.830697265625,0.4838671472173184,-0.6312801337301731,0.15260025295764207
1775706166645710000,5.8407099609375,0.47366022597961127,-0.6043102937400341,0.02126315278112888
1775706166655723000,5.850722900390625,0.4625823671262711,-0.615312164747715,-0.007046703641116619
1775706166665737200,5.8607373046875,0.21145897690057752,-0.5091647431463003,-0.04959785138368606
1775706166675750100,5.870750244140625,0.19736739624924957,-0.5201420642346143,-0.07654927893429994
1775706166685763000,5.88076318359375,0.2855950572133064,-0.271722014683485,0.14168196858018636
1775706166695776000,5.89077587890625,0.47571664705276484,-0.17692951531112194,0.1232847266241908
1775706166705790000,5.9007900390625,0.45605917590260503,-0.1848790130108595,0.10658698206245898
1775706166715803100,5.91080322265625,0.6655459759473801,0.07357727738618851,0.10063070400655269
1775706166725816000,5.920816162109375,0.6520983922880143,0.06840659675002098,0.09016074791848659
1775706166735830000,5.930830078125,0.33823819457702337,0.1810258447140455,0.12238894682824611
1775706166745843200,5.94084326171875,-0.43591530947498974,0.13083996430933476,0.3380471289843321
1775706166755856100,5.950856201171875,-0.44449850196838375,0.124459323361516,0.32343905017822977
1775706166765870000,5.9608701171875,-0.6521744531989098,0.11061258431673049,0.544014814992249
1775706166775883000,5.970883056640625,-0.6668669954180717,0.10456979702115059,0.5320177954673767
1775706166785896000,5.98089599609375,-0.18103702369518576,-0.009861468800902365,0.3972559815391898
1775706166795910100,5.99091015625,0.1704733249090612,-0.14134849884212017,0.4162956130519509
1775706166805923000,6.000923095703125,0.14366276713386178,-0.14537819274961947,0.4131181520596146
1775706166815936000,6.01093603515625,0.7709890486717224,-0.21993337525725362,0.4457385651573538
1775706166825949000,6.020948974609375,0.9223053262334316,-0.3037719344168901,0.3526362108290195
1775706166835963100,6.030963134765625,0.8469592125438153,-0.30017537122964855,0.34721272447556256
1775706166845976000,6.04097607421875,0.5459655837338417,-0.20291443591713904,0.48059009830802674
1775706166855989000,6.050989013671875,0.5563454503856599,-0.20494448044002056,0.4724050382867455
1775706166866003000,6.0610029296875,0.06991130222454667,-0.19312837044000625,0.6041483811765909
1775706166876016000,6.07101611328125,-0.16477555165886879,-0.12348083371818065,0.4930503514304757
1775706166886029000,6.081029052734375,-0.32304537468552585,-0.08139175052940845,0.33473698152303694
1775706166896043000,6.09104296875,-0.5026468126196414,-0.026208207967877387,0.2594359490841627
1775706166906056200,6.10105615234375,-0.4893758276361972,-0.029141923332214353,0.24862317090779543
1775706166916069000,6.111069091796875,-0.7424608733236789,0.18489421057999134,0.33513065701574085
1775706166926082000,6.12108203125,-0.8197170584183185,0.17723288217186928,0.48821723218560215
1775706166936096000,6.131095947265625,-0.6922140565119683,0.14315759409070014,0.3935653103277087
1775706166946109200,6.141109130859375,-0.42778124898858366,0.2355897940725088,0.2498059509515762
1775706166956122000,6.1511220703125,-0.4417874894440174,0.2287269225656986,0.23640111045539378
1775706166966136000,6.161135986328125,0.46343343099765477,0.21646949853897093,0.01868950290083885
1775706166976149000,6.17114892578125,0.6046574266772717,0.27473522502481934,-0.03447860818505287
1775706166986162000,6.181161865234375,0.6097122989140451,0.27101065154373644,-0.04495791662335395
1775706166996176100,6.191176025390625,-0.08555398477539419,0.3133458184480667,0.10786445465236902
1775706167006189000,6.20118896484375,-0.07909165689349174,0.31102877367734905,0.1005363037213683
1775706167016202000,6.211201904296875,-0.6575204904019832,0.2973112139701843,0.4249371846690774
1775706167026216000,6.2212158203125,-0.8208768229126929,0.371442033585906,0.5733876244708895
1775706167036229000,6.23122900390625,-0.9666380236305295,0.42939854799211025,0.605080693590641
1775706167046242000,6.241241943359375,-0.920444354667142,0.4705915591239929,0.3839414496749639
1775706167056256000,6.251256103515625,-0.9412825600344688,0.4715010751843452,0.3916819807991385
1775706167066269200,6.261269287109375,-0.570134540959075,0.4530594095647335,-0.00507072739303112
1775706167076282000,6.2712822265625,-0.4297231037713587,0.38290976853966713,0.035877076806128026
1775706167086295000,6.281294921875,-0.34933600023984906,0.32498131118416784,0.23284166440814733
1775706167096309000,6.29130908203125,-0.23881211711987851,0.3519821308344602,0.30054917297810313
1775706167106322200,6.301322265625,-0.2535059745132923,0.3515677048146725,0.3038514293938875
1775706167116335000,6.311335205078125,0.17134338574185967,0.3803869720637798,0.11437193685024977
1775706167126349000,6.32134912109375,0.0034337738409638404,0.38317338791191574,-0.01099105735272169
1775706167136362000,6.331362060546875,-0.273786545997858,0.257898656514287,-0.06487842262387275
1775706167146375200,6.341375244140625,-0.5690357128717005,0.28577508995532985,-0.19651421348601578
1775706167156389000,6.35138916015625,-0.5801988388556987,0.296724353992939,-0.16541034243106842
1775706167166402000,6.361402099609375,-1.1344426407869905,0.2741594709634781,-0.2507765495494008
1775706167176415000,6.3714150390625,-1.389063956131041,0.24257541517615316,-0.12723755590319633
1775706167186429000,6.381428955078125,-1.313739835077524,0.09614683659076691,0.03138064216971397
1775706167196442000,6.391442138671875,-0.9945055431127547,0.10094050060808658,0.06873246770352125
1775706167206455000,6.401455078125,-1.017630251982063,0.09890987156331539,0.07156476851999759
1775706167216468000,6.411468017578125,-0.430476990878582,0.07621639371812343,0.16896569682508705
1775706167226482200,6.421482177734375,-0.18110826230049132,0.0274362884581089,0.23207915560305117
1775706167236495000,6.4314951171875,-0.2061633547104895,0.027965865290164947,0.24276480026841163
1775706167246508000,6.441508056640625,0.18174422211647032,0.05075578924715519,0.32170155886113644
1775706167256522200,6.451522216796875,0.15922610083818434,0.05588613787293434,0.3439224507585168
1775706167266535200,6.46153515625,-0.20095497241243718,-0.013237667235732078,0.1380024032846093
1775706167276548000,6.471548095703125,-0.24245032749176024,0.0024807108998298644,0.04735942480713129
1775706167286562000,6.48156201171875,-0.31562180055603384,-0.02331190200448036,0.03920885157734155
1775706167296575000,6.491574951171875,-0.48386356702074407,0.01296177290380001,-0.07453735458999872
1775706167306588200,6.501588134765625,-0.49574704316854473,0.016871055302023888,-0.058795595578849315
1775706167316602000,6.51160205078125,-0.7327917122244835,0.004878419691324234,-0.036081367206573484
1775706167326615300,6.521615234375,-0.822002465941757,0.07434943080246448,0.016186580169200895
1775706167336628200,6.531628173828125,-0.7427730080127716,0.17823533721268175,0.05353957474678755
1775706167346642200,6.54164208984375,-0.6107634154021739,0.2205097138404846,0.06355652637034655
1775706167356655400,6.5516552734375,-0.6336601607345044,0.2203273430109024,0.0735293465912342
1775706167366668300,6.561668212890625,-0.1946551416158676,0.20999241147935388,-0.19068974511623382
1775706167376681200,6.57168115234375,-0.13006298858746884,0.18158581668436527,-0.32103432712405916
1775706167386695400,6.5816953125,-0.176364282643795,0.17327917611002921,-0.31370471488833424
1775706167396708400,6.591708251953125,-0.19160393735170364,0.17770751394629478,-0.09802987385839224
1775706167406721300,6.60172119140625,-0.21570245968922971,0.1755272472977638,-0.0921010683313012
1775706167416735500,6.611735595703125,-0.21578356210142371,0.15197510679662227,0.4092825194194913
1775706167426748200,6.621748046875,-0.11777516942247748,0.28461773661375045,0.3634852293625474
1775706167436761300,6.63176123046875,0.02403086392879486,0.26818974890410896,0.33910072969049215
1775706167446775300,6.641775390625,0.06297858035191893,0.27073592625558374,0.22295769151449202
1775706167456788200,6.651788330078125,0.05253434322699904,0.2718529475867748,0.23170652289837598
1775706167466801400,6.661801513671875,-0.12752981684803963,0.3752975399702787,0.30724224087595936
1775706167476815000,6.671815185546875,-0.33768048762902614,0.43373570041358467,0.4426166337445378
1775706167486828300,6.681828369140625,-0.35617592926248903,0.43659810410737987,0.46106268327832217
1775706167496841500,6.691841552734375,-0.20642755860462783,0.5647948604315519,0.20228256775438785
1775706167506855200,6.701855224609375,-0.2341768585346639,0.5648877994120121,0.21850977219492196
1775706167516868400,6.711868408203125,-0.0029568039789795875,0.3308376359969377,0.4975400640651583
1775706167526881300,6.72188134765625,0.24389497334212062,0.24616788671016693,0.7063321598440409
1775706167536894200,6.731894287109375,0.5107929288700223,0.06747603790163993,0.9504667871609329
1775706167546908400,6.741908447265625,0.634676498170197,0.05997311492562293,1.0495040844962
1775706167556921300,6.75192138671875,0.6173664669290184,0.061954644131660457,1.0662839543834328
1775706167566934300,6.761934326171875,0.8111036169171333,-0.14437866031825541,0.6936281610935926
1775706167576948500,6.771948486328125,0.8196221466764807,-0.03266425223946571,0.37880145643800495
1775706167586961200,6.781961181640625,0.48559243663996454,-0.1478910523533821,0.1430047416165471
1775706167596974300,6.791974365234375,0.09012538434416055,-0.1404191090375185,-0.03558101646900177
1775706167606988500,6.801988525390625,0.1041715914838016,-0.12718144180178642,-0.0036152678877115246
1775706167617001200,6.812001220703125,-0.5669418093323707,0.06739654292464256,-0.055145548638701435
1775706167627014400,6.822014404296875,-0.8475112934686243,0.18900690659582614,-0.09760931035876273
1775706167637028000,6.832028076171875,-1.0960255971744657,0.32027123379707334,-0.23379589639306067
1775706167647041300,6.842041259765625,-1.1418509442821145,0.32034079190194603,-0.3339756417617202
1775706167657054500,6.852054443359375,-1.166781387399137,0.3195756527483463,-0.3193292767718434
1775706167667068200,6.862068115234375,-0.504648142504692,0.46480362337231634,-0.04809650691002607
1775706167677081300,6.872081298828125,-0.016044833610951898,0.45155543474256987,-0.04646043014079332
1775706167687094300,6.88209423828125,0.28135376638174053,0.5967378126591444,-0.26324849310964343
1775706167697107200,6.892107177734375,0.4628551196530461,0.7924825030773878,-0.4730208320975303
1775706167707121400,6.902121337890625,0.453437010705471,0.7949497699737549,-0.4577709482565522
1775706167717134300,6.91213427734375,0.3408464043140411,1.069127945637703,-0.6318482890069484
1775706167727147300,6.922147216796875,0.3459565869346261,1.287950729304552,-0.6587997165575623
1775706167737161500,6.932161376953125,0.35123365055471656,1.2950707904428242,-0.6385369729906321
1775706167747174100,6.942174072265625,0.03421118942052126,1.730695665603876,-0.9434937332779169
1775706167757187300,6.952187255859375,0.043215164609253405,1.7406389674693346,-0.9158359110236167
1775706167767201500,6.962201416015625,-0.4941691263273358,2.1121610805541278,-1.5596797582507134
1775706167777214200,6.972214111328125,-0.6841007465526461,2.3359669133305547,-1.8127996560558675
1775706167787227400,6.982227294921875,-0.7534137906230985,2.452928574413061,-2.0107497475638985
1775706167797241000,6.992240966796875,-0.635441052801907,2.5893022074520586,-2.211717725588381
1775706167807254300,7.002254150390625,-0.6529997981071471,2.593277540823817,-2.1826377615764736
1775706167817267500,7.012267333984375,-0.19771233722940088,2.657534616678953,-2.546816233900189
1775706167827281200,7.02228125,-0.0038721652582287785,2.6539450677543877,-2.691877615785599
1775706167837294300,7.03229443359375,0.12335779186040162,2.441492988163233,-2.630397018906474
1775706167847307300,7.042307373046875,0.17903233280926942,2.1670932787030934,-2.4110354521878063
1775706167857321200,7.0523212890625,0.15240458425506948,2.169323229712248,-2.377550969606638
1775706167867334400,7.06233447265625,0.17564970463365315,1.6304600983947515,-1.9236698683954774
1775706167877347300,7.072347412109375,0.2672993759356439,1.410500419652462,-1.8047366149790585
1775706167887360300,7.0823603515625,0.5850014898970722,1.2114356449007988,-1.7625737359017133
1775706167897374500,7.09237451171875,0.9354204630680382,0.8715753290146588,-1.729486435944587
1775706167907387100,7.10238720703125,0.9199753489159047,0.8725164092570543,-1.7093126858353613
1775706167917400300,7.112400390625,1.1812295994684099,0.2416284897148609,-1.5873181451521814
1775706167927414500,7.12241455078125,1.0532269044116138,-0.07013327441215515,-1.4357660860732198
1775706167937427200,7.13242724609375,0.7001508408606052,-0.20958850685358046,-1.3020840302057564
1775706167947440400,7.1424404296875,0.3892401406049728,-0.19298750066459178,-1.0830234922602773
1775706167957454000,7.1524541015625,0.40870121240019797,-0.1868564505636692,-1.07705508537516
1775706167967467300,7.16246728515625,-0.5864739005371928,-0.1762210747808218,-0.7562626041829585
1775706167977480400,7.17248046875,-0.7151876664727926,-0.10720365265607833,-0.7601869380198418
1775706167987494100,7.182494140625,-0.7186126724854112,-0.10857494100928305,-0.7625767557658255
1775706167997507300,7.19250732421875,-0.7989101980373263,-0.42227848685383795,-0.6374645214535296
1775706168007520300,7.202520263671875,-0.8201660442948341,-0.4308867407232523,-0.652306262885034
1775706168017534200,7.2125341796875,-0.1627417077437043,-0.4752238950997591,-0.5513355132691562
1775706168027547400,7.22254736328125,0.2892705308556556,-0.45492111178338523,-0.31012407992258667
1775706168037560300,7.232560302734375,0.6632005818650126,-0.49843642838299274,-0.30783611511588094
1775706168047574300,7.24257421875,0.8541396255671978,-0.6898240926355124,-0.2859204897753894
1775706168057587500,7.25258740234375,0.8549909816995263,-0.6948685165435076,-0.30745617588758467
1775706168067600100,7.26260009765625,0.6184928406104445,-0.6924690541863441,-0.36417876458466053
1775706168077613300,7.27261328125,0.4453241391375661,-0.6030290217578411,-0.38509529588520525
1775706168087627500,7.28262744140625,0.2836360321000218,-0.39611119541823864,-0.37268326581865546
1775706168097640200,7.29264013671875,0.1646433035813272,-0.2586252172231674,-0.3677519468963146
1775706168107653400,7.3026533203125,0.18383184204548597,-0.2576414668828249,-0.38266105447560544
1775706168117667000,7.3126669921875,-0.20876550003290176,-0.3673655779272318,-0.15520546701997517
1775706168127680300,7.32268017578125,-0.35286388210505243,-0.35302024171054364,0.039679976220428945
1775706168137693400,7.332693359375,-0.33377924240678547,-0.31197102296352386,0.15424144429340958
1775706168147707100,7.34270703125,-0.30879560779780146,-0.29426877753436564,0.2429880876302719
1775706168157720300,7.35272021484375,-0.30215076295584437,-0.30086101540625093,0.21224778919070958
1775706168167733200,7.362733154296875,0.1872771601937711,-0.11097557241022586,0.1322939625099301
1775706168177747200,7.372747314453125,0.41764542022570966,-0.09682838911414146,0.10978811619132757
1775706168187760400,7.382760498046875,0.44893853024244307,-0.2360813769817352,0.17954232815802096
1775706168197773300,7.392773193359375,0.4084206418931484,-0.25488953782618046,0.26301673018038274
1775706168207787300,7.402787353515625,0.4059573205195367,-0.25919804867506024,0.24973726962953804
1775706168217800400,7.412800537109375,0.5682651668906211,-0.008598901519179344,0.4587622973814606
1775706168227813000,7.422813232421875,0.6760884127497673,0.049026188975572586,0.5184077877879143
1775706168237827300,7.432827392578125,0.6761763832941651,0.046879824596643443,0.5107628259927034
1775706168247840500,7.442840576171875,0.610049129652977,0.11064414849877356,0.33020138392001386
1775706168257853200,7.452853271484375,0.6171241826057434,0.11012567758262157,0.322418474958837
1775706168267867400,7.462867431640625,0.40057504295930263,-0.1435948164641857,0.10919921038746833
1775706168277880300,7.47288037109375,0.3922127266749739,-0.2041442699730396,0.04297901776582003
1775706168287893200,7.482893310546875,0.3140019442692399,-0.15221066911816597,0.06511135459691286
1775706168297906400,7.492906494140625,0.1620619087859988,-0.039163551130890845,0.1366203012764454
1775706168307920100,7.502920166015625,0.17764745432212947,-0.03844400468468666,0.1265750003412366
1775706168317933600,7.51293359375,-0.21899580214619635,0.08673720321059226,0.2814072501346469
1775706168327946500,7.522946533203125,-0.2748117973923683,0.06887772139310837,0.27347616487443444
1775706168337960400,7.53296044921875,-0.3965370196148753,0.051200610405206674,0.3358233154550195
1775706168347973600,7.5429736328125,-0.460567008715868,0.09744038353264331,0.3189733029410243
1775706168357986600,7.552986572265625,-0.4610018930017948,0.09671382282376288,0.31683453734666106
1775706168368000500,7.56300048828125,-0.2629309515930712,0.1839192280679941,0.3158820589274168
1775706168378013400,7.573013427734375,-0.16663783839941024,0.1313385614812374,0.24580635992139577
1775706168388026400,7.5830263671875,0.009523907409608363,0.011025251883268356,0.1317097328811884
1775706168398040600,7.59304052734375,0.24402736755013466,-0.02055880390405655,0.014885726703703403
1775706168408053500,7.603053466796875,0.24411300000697372,-0.02182955449223518,0.010511164881289005
1775706168418066400,7.61306640625,0.5748889689445495,0.08793839569389819,-0.011892682367563247
1775706168428080600,7.62308056640625,0.5208965358637273,0.2710024682372808,0.04737023846209049
1775706168438093300,7.63309326171875,0.4231552696883678,0.395506215262413,0.1687675439044833
1775706168448106500,7.6431064453125,0.22032368974909186,0.41053135043680666,0.28025428070724007
1775706168458120700,7.65312060546875,0.25364538298398254,0.4181844955384731,0.28119185381829737
1775706168468133400,7.66313330078125,-0.7021512208975851,-0.1706780537009239,0.5396314853414893
1775706168478146600,7.673146484375,-1.0347729638323186,-0.14133037866353987,0.4794581716686487
1775706168488160300,7.68316015625,-1.0078218285426497,-0.135757546967268,0.47915392802506684
1775706168498173400,7.69317333984375,-1.1505648504830897,0.034878421157598496,0.38442952545285225
1775706168508186600,7.7031865234375,-1.139053276387602,0.03637596623897552,0.3814718446910381
1775706168518200300,7.713200439453125,-0.6377323786094784,0.35669045465588567,0.2410606266990304
1775706168528213500,7.723213623046875,-0.48692514654845,0.372919120401144,0.25307664318531753
1775706168538226400,7.733226318359375,-0.3718659580864012,0.31836160078346726,0.27777795372158287
1775706168548239400,7.7432392578125,-0.2738451443172991,0.3085106533765793,0.3585255611285567
1775706168558253600,7.753253662109375,-0.2641059867218137,0.30898528515100476,0.35352205375283957
1775706168568266500,7.7632666015625,-0.3360984791345894,0.09565350011587143,0.26722821039557454
1775706168578279400,7.773279541015625,-0.38619463542923327,0.2615694539815187,0.0807142896592617
1775706168588293600,7.783293701171875,-0.4087226935796439,0.21710955000817775,0.06883738938272
1775706168598306300,7.793306396484375,-0.4787175824344158,0.2954161940038204,0.0070858666077256195
1775706168608319500,7.803319580078125,-0.47055765685439105,0.2951794626384973,0.0009504325926303862
1775706168618333700,7.813333740234375,-0.22192440294399857,0.3268763311505318,-0.05262947416454553
1775706168628346400,7.823346435546875,-0.02465074939280748,0.3053980743139982,-0.2028600753813982
1775706168638359600,7.833359619140625,0.202749454613775,0.36710546568632124,-0.2861182043045759
1775706168648373200,7.843373291015625,0.22421090644598005,0.2863935141146183,-0.16991934428811073
1775706168658386400,7.853386474609375,0.2488742230594158,0.2852560345172882,-0.18878069662451744
1775706168668399600,7.863399658203125,-0.07440525264292955,0.2735392932385206,-0.054234571273624896
1775706168678413300,7.873413330078125,-0.1949251907289028,0.1922159317702055,-0.11602058084011077
1775706168688426500,7.883426513671875,-0.28947642869129775,0.3026473143011331,-0.19464345117807388
1775706168698439400,7.893439453125,-0.37659474017396566,0.2849246106058359,-0.08113193054944276
1775706168708453400,7.903453369140625,-0.35860081832185386,0.28279227475225927,-0.09787088390439748
1775706168718466600,7.913466552734375,-0.2806314434565604,0.15947744525074958,0.12890928850769995
1775706168728479500,7.9234794921875,-0.12998480878472327,0.23517244544327257,0.0383700626656413
1775706168738493400,7.933493408203125,-0.11937924361824989,0.23225451216995716,0.023645956264436243
1775706168748506600,7.943506591796875,0.13310147950053214,0.23699030852019787,-0.009188391844928263
1775706168758519300,7.953519287109375,0.40556817507147785,0.16846563834846018,-0.07436667419821023
1775706168768533500,7.963533447265625,0.5564660080254078,0.11769640509784221,-0.025065467673540114
1775706168778546700,7.973546630859375,0.43619946017861366,0.01831833150088787,0.06784224086552858
1775706168788559400,7.983559326171875,0.45880759782791136,0.02172083342075348,0.06697510264217853
1775706168798573600,7.993573486328125,0.2790283921740949,0.029324294161796566,-0.02896919711381197
1775706168808586200,8.003586181640625,0.3042586950205266,0.03367255249917507,-0.027830256211757658
1775706168818599400,8.013599365234375,0.19610344072803854,-0.3460357896506786,0.05290186136513948
1775706168828612600,8.023612548828124,0.08726546486839652,-0.6046966627091169,0.05394260258972645
1775706168838626300,8.033626220703125,0.05528612615317106,-0.5379390022099018,-0.03180880445390939
1775706168848639500,8.043639404296876,0.12099603116512297,-0.5180407080411911,-0.056878071519732475
1775706168858652700,8.053652587890625,0.14611995102763176,-0.5176385569810867,-0.06665478464663029
1775706168868666400,8.063666259765625,0.195638161303848,-0.37834699066877364,-0.2400628478333354
1775706168878679600,8.073679443359374,0.34018107227310534,-0.21785481541752813,-0.28107641074508427
1775706168888692500,8.0836923828125,0.36268165789470075,-0.21934593075811862,-0.294803322802484
1775706168898706400,8.09370654296875,0.5359666792236268,-0.2437812838345766,-0.3301213044211268
1775706168908719600,8.1037197265625,0.5635036515772343,-0.2469265961229801,-0.35024405499547717
1775706168918732300,8.113732177734375,0.4617418246489018,-0.7837953387528658,0.0730959236100316
1775706168928746500,8.12374658203125,0.28874789522103966,-0.762886406236887,0.20188626191318035
1775706168938759700,8.133759765625,0.3268284003555775,-0.7681593782037496,0.1732277381837368
1775706168948772400,8.1437724609375,0.14931027150154114,-0.49352585998773574,0.3196951874747872
1775706168958786600,8.15378662109375,0.1919920598864555,-0.4996019650310278,0.2887950222983956
1775706168968799500,8.163799560546876,0.02546995682120323,-0.13266484164893627,0.4366191468954086
1775706168978812400,8.1738125,-0.0241864198166877,-0.06944879927933216,0.44802375348508355
1775706168988826600,8.18382666015625,0.020741174733638762,-0.07464519887864589,0.4215019495233893
1775706168998839300,8.19383935546875,-0.05950315932631492,0.3280547272801399,0.22832564828842877
1775706169008852500,8.2038525390625,-0.01433605693168938,0.32378888652920723,0.20589666659831998
1775706169018866400,8.213866455078126,-0.1700853485047817,0.5485089115411043,-0.0010799041911959647
1775706169028879400,8.22387939453125,-0.2061573633611202,0.6142278766423463,-0.003765197752416134
1775706169038892500,8.233892578125,-0.16108020427227018,0.6099883393764496,-0.023882103107869625
1775706169048906500,8.243906494140624,-0.4746329434692859,0.6155524032443761,0.07137830603718757
1775706169058919400,8.25391943359375,-0.43108496670909224,0.6121943249881268,0.055232642400264736
1775706169068932600,8.2639326171875,-0.6548059707462788,0.608778963586688,0.15016162763386964
1775706169078946600,8.273946533203125,-0.7431798352479935,0.49471828464269635,0.10640987192988395
1775706169088959500,8.28395947265625,-0.7095031910955906,0.493543980166316,0.09890636443197727
1775706169098972700,8.29397265625,-0.6951157693028449,0.459061864849925,-0.14513649294823408
1775706169108986400,8.303986328125,-0.6692600280344486,0.4574889164447784,-0.15218904180824755
1775706169118999600,8.31399951171875,-0.7264847210347652,0.31321780815422534,-0.38252602991908785
1775706169129012500,8.324012451171875,-0.6611188071548938,0.2211164475619793,-0.36213936771154404
1775706169139026400,8.3340263671875,-0.648083969014883,0.2173725848585367,-0.3730716806143522
1775706169149039600,8.34403955078125,-0.5325122644534335,-0.012011340311169624,-0.18236264627575874
1775706169159052300,8.35405224609375,-0.5217758029162883,-0.017294249150156975,-0.19686638792455194
1775706169169066500,8.36406640625,-0.42003859897255896,-0.1968938604533672,-0.03703998310565948
1775706169179079400,8.374079345703125,-0.40521395480632777,-0.20108371335864067,0.012560206365585327
1775706169189092400,8.38409228515625,-0.39331071451213206,-0.20653964067697525,-0.002168576210737228
1775706169199106600,8.3941064453125,-0.34485384985711426,-0.23662790494859218,0.1381339207097888
1775706169209119500,8.404119384765625,-0.32930322950389235,-0.24104279878139495,0.1259688511416316
1775706169219132400,8.41413232421875,-0.3865010710299015,-0.254875509300828,0.1051160327270627
1775706169229145600,8.4241455078125,-0.4362345314919948,-0.3759691556215286,0.1118520629838109
1775706169239159600,8.43415966796875,-0.5065490076899528,-0.3239823632746935,0.1312561438947916
1775706169249172500,8.44417236328125,-0.48808746832609173,-0.3297738061577081,0.11605214502215384
1775706169259185700,8.454185546875,-0.4621311892926693,-0.28101941986083984,0.17175240493416785
1775706169269199400,8.464199462890624,-0.18947861576080322,-0.19623510428369045,0.34053806901723144
1775706169279212500,8.474212646484375,-0.092569562625885,-0.11085282281339168,0.33555238955914973
1775706169289225500,8.4842255859375,-0.0769581519961357,-0.11494506056308745,0.3251397166162729
1775706169299239400,8.494239501953125,-0.2475976272523403,-0.11127718570530414,0.4477770852476358
1775706169309252600,8.504252685546875,-0.2320166117608547,-0.11356091272830962,0.4419079009532928
1775706169319265800,8.514265869140624,-0.7316261755764484,0.03623042028844356,0.5685393076568842
1775706169329280000,8.524280029296875,-0.8649474353075027,0.10868716921210288,0.49949996596127744
1775706169339292700,8.534292724609376,-0.8601251297175884,0.10765022737979889,0.496938298779726
1775706169349305900,8.544305908203125,-0.8383528583705425,0.2771633289545774,0.48583267513662576
1775706169359319800,8.55431982421875,-0.8431365855157374,0.2761053443342447,0.4833627778917551
1775706169369332700,8.564332763671874,-0.7387678640246391,0.4060153343170881,0.5313479333817959
1775706169379346000,8.574345947265625,-0.7642226232767104,0.5621650964498519,0.4014484647929668
1775706169389359600,8.584359619140624,-0.7773498158752917,0.5627858586966991,0.40322015064060684
1775706169399372800,8.594372802734375,-0.7481576236605644,0.38956571929752826,0.4633206913381815
1775706169409386000,8.604385986328126,-0.7687444846153259,0.3893324950635433,0.46338995718210935
1775706169419399700,8.614399658203125,-0.7515852600216865,0.2954980270683765,0.8880155916839837
1775706169429412900,8.624412841796875,-0.6072878482460975,0.31404841375946996,1.0254784812644124
1775706169439425800,8.63442578125,-0.6325555604934692,0.31230770757198334,1.022552656945586
1775706169449439700,8.644439697265625,-0.5067173499941826,0.3524146770328283,0.9735656309366225
1775706169459453000,8.654452880859376,-0.5307224949598313,0.35156302863955496,0.9730223178401589
1775706169469465900,8.6644658203125,-0.4869184610793367,0.2997860796511173,0.8261892501071095
1775706169479479800,8.674479736328125,-0.374049622268416,0.1569412047713995,0.8491860948130487
1775706169489493000,8.684492919921874,-0.40512163688037545,0.158932086327672,0.8565630533218384
1775706169499505700,8.694505615234375,0.07747019317150115,0.05082359378635883,0.6408373588874936
1775706169509520000,8.704519775390626,0.048295536613464356,0.05520984604656696,0.6543605650663376
1775706169519532800,8.71453271484375,0.16566168684363364,-0.10082885692715644,0.4974290049061179
1775706169529545700,8.724545654296875,0.15674305185079573,-0.22754034312963484,0.5986047755748033
1775706169539560000,8.734559814453124,0.1417558740666136,-0.22243863607645034,0.6128779233381152
1775706169549572600,8.744572509765625,0.05372800999097526,-0.22750936346948145,0.8418491760537028
1775706169559585800,8.754585693359376,-0.11892338960953056,-0.22929741593003272,0.7787813099831342
1775706169569599700,8.764599853515625,-0.31505963662862774,-0.06381576182842254,0.4769298222348094
1775706169579612700,8.77461279296875,-0.35926461599282916,0.008651508489251137,0.10371434923559426
1775706169589625900,8.7846259765625,-0.36476862023659046,0.01734276446700096,0.12638035455197094
1775706169599639800,8.794639892578125,-0.07984689570758491,0.1351338621109724,-0.26397914547175166
1775706169609652700,8.80465283203125,-0.09097381786704063,0.14131751918196678,-0.24664397978931665
1775706169619666000,8.814666015625,0.13853402594327927,-0.3365338018119335,-0.25799568714797494
1775706169629679900,8.824679931640626,0.11618651199154555,-0.5213882649034262,-0.29818215158581735
1775706169639692800,8.83469287109375,0.10727730241417884,-0.5180903924018144,-0.2883203905239701
1775706169649706000,8.8447060546875,-0.02277056166939437,-0.763643362084031,-0.22092940055727958
1775706169659719700,8.8547197265625,-0.02895246517471969,-0.7610977692544459,-0.21335341234505176
1775706169669732900,8.86473291015625,-0.03393387031648308,-0.8783920232921838,-0.24957448028326032
1775706169679745800,8.874745849609376,0.07503386940266936,-0.8232575805693865,-0.30154373697340486
1775706169689759700,8.884759765625,0.06667875004410743,-0.8210814055740833,-0.29450521663874385
1775706169699773000,8.89477294921875,0.1577460548808798,-0.9728788177162409,-0.3422740990296006
1775706169709785600,8.90478564453125,0.2558557525098324,-0.8973024754673242,-0.4367290370106697
1775706169719799800,8.9147998046875,0.36802312852051106,-0.8866092320173978,-0.37315292915701864
1775706169729812700,8.924812744140626,0.37865554516129196,-0.8809510601252317,-0.29603344911932944
1775706169739825700,8.93482568359375,0.36147177064828573,-0.8780728743404149,-0.2852405446872115
1775706169749838800,8.9448388671875,0.2180138053715229,-0.8643617443740368,-0.21847323957681655
1775706169759852800,8.954852783203124,-0.014691446240618824,-0.8680348799288272,-0.45557548403888937
1775706169769865700,8.96486572265625,-0.067376596115157,-0.8976520195573567,-0.6716027917683124
1775706169779879000,8.97487890625,0.020085341173410414,-0.8417541912466288,-0.774483028267324
1775706169789892900,8.984892822265625,-0.0016085311751812695,-0.8419920916557312,-0.7705559179514646
1775706169799905800,8.99490576171875,0.1878394702516496,-0.7713491141557693,-0.6980944928526878
1775706169809919000,9.0049189453125,0.22282668554596602,-0.7582651761770248,-0.6829068605929612
1775706169819932700,9.0149326171875,0.3925952962517738,-0.6966010394245385,-0.7225783612459897
1775706169829945900,9.02494580078125,0.6050525634746998,-0.7059884609729051,-0.8577639535441994
1775706169839958800,9.034958740234375,0.5869102461278438,-0.7097866842120886,-0.8636047885268926
1775706169849972700,9.04497265625,0.7091163106698543,-0.7047346615195274,-0.8961170650750399
1775706169859986000,9.05498583984375,0.6777190826915204,-0.5891320138305425,-0.8483739016473293
1775706169869998600,9.06499853515625,0.5356430002272129,-0.4182663286030292,-0.7378013570800424
1775706169880012800,9.0750126953125,0.3578909895520657,-0.2987146510273218,-0.5375716302022338
1775706169890025700,9.085025634765625,0.35573527282290157,-0.3062649202764034,-0.5569874015510082
1775706169900038700,9.09503857421875,0.2416892799913883,0.003423544707894325,-0.1986941878736019
1775706169910052900,9.105052978515625,0.23785591237358747,-0.0046212300598621366,-0.21872458398938177
1775706169920065800,9.115065673828125,0.19271094874553382,0.22724983575046062,0.11344167026281356
1775706169930078700,9.12507861328125,0.16987024444937704,0.28672552254796024,0.24834026231318712
1775706169940093000,9.135093017578125,0.16801847910284995,0.2805634927868843,0.2330070841029286
1775706169950105900,9.14510595703125,0.044008726139739156,0.4459790959149599,0.3819675192534923
1775706169960118800,9.155118896484375,0.05502681762985885,0.5179746570676564,0.40286826846301554
1775706169970132700,9.1651328125,-0.003214943458512425,0.5470172116786242,0.3469809615463018
1775706169980145700,9.175145751953124,-0.06990414183139801,0.5626905816286802,0.26436843705028296
1775706169990158800,9.185158935546875,-0.06599946254305541,0.5594704505383968,0.25532179176360364
1775706170000172800,9.1951728515625,-0.15350589656047522,0.5699865838557482,0.19900456899702548
1775706170010185700,9.205185791015625,-0.26733349740095436,0.5594219352215528,0.29133097051680085
1775706170020199000,9.215198974609375,-0.36682957135438915,0.5380623363286257,0.31290538120418787
1775706170030212900,9.225212890625,-0.3733516665995121,0.481511012545228,0.2825622653886676
1775706170040225800,9.235225830078125,-0.38129648812413214,0.4790221183389425,0.2782861955046654
1775706170050238700,9.24523876953125,-0.38065592519827185,0.2888765631020069,0.42993046291172504
1775706170060253000,9.2552529296875,-0.26029819193668663,0.18147241943776607,0.4826981765031814
1775706170070265900,9.265265869140626,-0.1914659901857376,0.10941723705232143,0.42424511075168847
1775706170080278800,9.27527880859375,-0.14861118332147596,0.12475450691580772,0.3886144099220633
1775706170090293000,9.28529296875,-0.15272987068668006,0.12512392475008963,0.3905611600756645
1775706170100306000,9.295305908203124,-0.0743407360393554,-0.06789923174977303,0.2037289671704173
1775706170110318800,9.30531884765625,-0.11266549825854599,-0.19927228002250194,0.22840192839503287
1775706170120332800,9.315332763671876,-0.12501863774470984,-0.32769641536176203,0.21160627641677854
1775706170130345700,9.325345703125,-0.22166356005072593,-0.47052959980368614,0.23095745809674262
1775706170140359000,9.33535888671875,-0.222086753898859,-0.46957449103593824,0.23343612316995857
1775706170150372900,9.345372802734374,-0.39768428995385763,-0.9604735096514224,0.34343028332740066
1775706170160385800,9.3553857421875,-0.3702794926125556,-1.172029517185688,0.39322044241279364
1775706170170398700,9.365398681640626,-0.2471791095793247,-1.3939344847768544,0.34685032090395684
1775706170180412700,9.37541259765625,-0.18056918698772786,-1.5382237132459877,0.24320874464362857
1775706170190425900,9.38542578125,-0.20296338962540028,-1.5440952356278896,0.2346089663416147
1775706170200438800,9.395438720703124,0.1790355476796627,-1.6061714603126047,0.3138905928492546
1775706170210452700,9.40545263671875,0.459762633530423,-1.4768728802263735,0.5786047745972871
1775706170220466000,9.4154658203125,0.6535877540629357,-1.3085188855588434,1.0160738163203
1775706170230478800,9.425478759765625,0.6046411331295967,-1.0542810896396637,1.4457847912624477
1775706170240492800,9.435492919921876,0.573061680452153,-1.0693611698716878,1.4191343924850224
1775706170250506000,9.445506103515624,0.48875148519277567,-0.8198463108211755,1.6287480337798594
1775706170260519000,9.455518798828125,0.27290625603199004,-0.35656712053716183,1.4193947969868779
1775706170270532900,9.465532958984374,0.32139453873857854,-0.17313363015949726,1.049532141546905
1775706170280545800,9.4755458984375,0.44712052103504535,-0.06810147632360458,0.7549477221921086
1775706170290558700,9.485558837890625,0.4080756278477609,-0.07374795777797699,0.7550014982059597
1775706170300573000,9.495572998046875,0.7976642896294593,-0.1503928060412407,0.253448691368103
1775706170310585900,9.5055859375,0.8947802635133266,-0.18683190064430236,0.14281594104617834
1775706170320598800,9.515598876953124,0.9327519745111464,-0.22067337996959685,0.13452332899719477
1775706170330613000,9.525613037109375,0.8697872765541076,-0.22269056501090526,0.08888064498007298
1775706170340625700,9.535625732421876,0.8521534201860428,-0.22367606891691683,0.09327683411240577
1775706170350638800,9.545638916015625,0.7889630967795849,-0.29332711277008056,0.16304653590917587
1775706170360652800,9.55565283203125,0.6752687669299543,-0.4055143990576267,0.1922632780432701
1775706170370665700,9.565665771484374,0.5024351426303386,-0.3990764749646187,0.1528846228569746
1775706170380679000,9.575678955078125,0.3770540282487869,-0.3619797932356596,0.1464841081649065
1775706170390692900,9.58569287109375,0.36948198555931444,-0.35731063238084315,0.16062573850303888
1775706170400705800,9.595705810546875,0.44375382108092304,-0.3251782950609922,-0.02867722842991352
1775706170410719000,9.605718994140625,0.532520776553452,-0.25539105760753156,-0.08580284496992827
1775706170420732700,9.615732666015624,0.5977987198889255,-0.27669103526771066,-0.0993123148843646
1775706170430745900,9.625745849609375,0.5950270632185042,-0.3196528096377849,-0.038866614010930056
1775706170440759000,9.635759033203126,0.593558598101139,-0.32144320018589495,-0.042568683399260045
1775706170450772700,9.645772705078125,0.6817711345613002,-0.17210194902420042,0.18121932145953176
1775706170460786000,9.655785888671875,0.6259364346146583,-0.07022738243639469,0.16910948920994995
1775706170470798800,9.665798828125,0.3783727096319198,-0.0646194794267416,0.2288981874793768
1775706170480812800,9.675812744140625,0.12870470584630966,-0.05023498024344444,0.27876199632287024
1775706170490826000,9.685825927734374,0.15043606066107748,-0.05153378788232803,0.2671972307354212
1775706170500838700,9.695838623046875,-0.3758673026822507,0.00405249026119709,0.6003033961862325
1775706170510852900,9.705852783203126,-0.6249076760888099,0.05352116230726242,0.7612807246059179
1775706170520865800,9.71586572265625,-0.869506706047058,0.13236790452897548,0.7872364191174507
1775706170530878700,9.725878662109375,-1.0278126233004032,0.11710896059870719,0.7122726558089256
1775706170540893000,9.735892822265624,-1.017171110037714,0.1163157643944025,0.7065823352128267
1775706170550905900,9.74590576171875,-1.2465022821068763,0.22367197726368904,0.3404278866410255
1775706170560918800,9.755918701171876,-1.3378969557344913,0.1812701748639345,0.26743220853507516
1775706170570933000,9.76593310546875,-1.2437304793059825,0.1852308951884508,0.0968090998917818
1775706170580946000,9.77594580078125,-1.157977757088095,0.17309797432422636,0.058547466036677355
1775706170590958800,9.785958740234374,-1.1730759574986993,0.16831015552580356,0.05289104771018028
1775706170600972800,9.795972900390625,-0.8482312783062458,0.00008475567400455475,0.32370208502858877
1775706170610985700,9.80598583984375,-0.7152760754086077,-0.08862930056750774,0.34113983430266376
1775706170620999000,9.8159990234375,-0.6498397266410291,-0.23221651824712752,0.291823137947917
1775706170631012900,9.826012939453125,-0.6254783155836164,-0.31186054832637305,0.1654799005359411
1775706170641025800,9.83602587890625,-0.642217561199516,-0.31289515207111834,0.16949790400564668
1775706170651039000,9.8460390625,-0.4678980822563171,-0.3662532327711582,-0.23376316316723822
1775706170661053000,9.856052978515624,-0.38636429290771485,-0.33552959320545195,-0.26868366990089415
1775706170671065900,9.86606591796875,-0.3340975145757198,-0.31165771923065183,-0.28637714750170706
1775706170681078800,9.876078857421875,-0.2133037279844284,-0.3366092051357031,-0.42223815484344956
1775706170691093000,9.886093017578125,-0.22889278065189717,-0.33988194319605824,-0.423494292384386
1775706170701106000,9.89610595703125,-0.16176292583942412,-0.27668343648314475,-0.23475509681403636
1775706170711118800,9.906118896484376,-0.16664952883720396,-0.2766507032573223,0.0010746434941887855
1775706170721131800,9.9161318359375,-0.21359116662368177,-0.33331600880920886,0.1618991194397211
1775706170731146000,9.92614599609375,-0.27576456807255745,-0.3477449316561222,0.15116758980602024
1775706170741159000,9.936158935546874,-0.29075302449837326,-0.3486170383155346,0.15550561901032925
1775706170751171800,9.946171875,-0.327081936725229,-0.3345937736600637,0.05607990687936544
1775706170761185800,9.956185791015624,-0.30081469204649325,-0.22489596610069273,0.12369067707657813
1775706170771198700,9.96619873046875,-0.131208797621727,-0.18251929814219472,0.1318710609227419
1775706170781212000,9.9762119140625,0.05630480167642236,-0.173880064612627,0.2519891402095556
1775706170791225900,9.986225830078125,0.02751695247888565,-0.17387363487184046,0.26522797648906704
1775706170801238800,9.99623876953125,0.17242460510730742,-0.22583704634308813,0.6048883858889341
1775706170811252000,10.006251953125,0.18479440346732734,-0.1785509790331125,0.639208296380937
1775706170821266000,10.016265869140625,0.20599647371098398,-0.04453121564388275,0.4299450759589672
1775706170831278800,10.02627880859375,0.19632687422037123,0.040356560307741166,0.11652882262319325
1775706170841292000,10.0362919921875,0.18451105648130178,0.04594458957314491,0.1358764971718192
1775706170851306000,10.046305908203125,0.033113165050745005,0.076692779058218,-0.23750527230501173
1775706170861319000,10.05631884765625,-0.07043342640250921,0.09332710299491882,-0.1749053160071373
1775706170871331800,10.066331787109375,-0.20839403637200593,0.043429976403713225,-0.07446253578811883
1775706170881345800,10.076345703125,-0.3280392374500632,-0.05057166485190391,0.16322802995592356
1775706170891359000,10.08635888671875,-0.3292643953308463,-0.047986909055709834,0.1701560756534338
1775706170901372000,10.096371826171875,-0.41868981471210714,-0.10929857910871506,0.44205344690382475
1775706170911385900,10.1063857421875,-0.6528945841670036,-0.017701076385378836,0.31962650615274907
1775706170921398800,10.116398681640625,-0.9103624480485916,0.05753273603618145,0.11404752720147371
1775706170931411700,10.12641162109375,-1.052186893839389,0.2091033536851406,0.09665595515668392
1775706170941426000,10.136426025390625,-1.0715420210421085,0.2152688905775547,0.12244330736398697
1775706170951438800,10.14643896484375,-0.7955240627303719,0.10115969631671905,-0.036435879732668396
1775706170961451800,10.15645166015625,-0.5232543510362505,0.20008242736160753,-0.11376432634592056
1775706170971465700,10.1664658203125,-0.3452409860111773,0.21402385895252227,-0.1103445810303092
1775706170981479000,10.17647900390625,-0.2345718492016196,0.31628947068452834,-0.12148527598679065
1775706170991491800,10.186491943359375,-0.2494555300787091,0.32118133437931534,-0.10009732778221368
1775706171001505800,10.196505859375,-0.2156239876255393,0.29497955615222454,-0.12567746697962284
1775706171011519000,10.20651904296875,-0.289678234873712,0.25651450867950915,-0.11476298199445009
1775706171021532000,10.216531982421875,-0.3538599074050784,0.2833960858643055,-0.14763094011247158
1775706171031545900,10.2265458984375,-0.43859746123105287,0.3387035470664501,-0.14733487977534532
1775706171041558800,10.236558837890625,-0.4453101106122136,0.3491127128779888,-0.11493804630041121
1775706171051572000,10.246572021484376,-0.7698395863756538,0.3370516882061958,-0.1938026164397597
1775706171061586000,10.2565859375,-0.7889012835897505,0.22354455149173735,-0.12270108151733874
1775706171071598800,10.266598876953125,-0.7330486095950007,0.2311538574516773,-0.17445348058640955
1775706171081611800,10.27661181640625,-0.689621263539791,0.1442085644483566,-0.2519663438558578
1775706171091626000,10.2866259765625,-0.7137269462704658,0.14835808534324169,-0.22367840700447558
1775706171101639000,10.296638916015626,-0.35056203490346666,0.13140227436721325,-0.32231618362814185
1775706171111651800,10.30665185546875,-0.22173516398221252,0.07155424712598324,-0.14955226356387138
1775706171121666000,10.316666015625,0.01674976700991392,0.13606032930612563,0.14520663557499647
1775706171131678700,10.3266787109375,0.28438977307677266,0.11738485493063926,0.4876937928333878
1775706171141692000,10.33669189453125,0.2733449397101998,0.11898878299593925,0.5004486449882388
1775706171151705900,10.346705810546876,0.32380598379448056,-0.011450783818960189,0.5576224845841526
1775706171161718800,10.35671875,0.28964930104017256,0.04947159465551376,0.485306313174963
1775706171171732000,10.36673193359375,0.32426731769591566,0.1308855570167303,0.6303717867136002
1775706171181745700,10.37674560546875,0.4493281140819192,0.3830272574394941,0.5938277704313397
1775706171191758800,10.3867587890625,0.4485074453487992,0.3807663267701864,0.5877092875510453
1775706171201771800,10.396771728515626,0.584101326186955,0.7999567844808101,0.8019944277882576
1775706171211785700,10.40678564453125,0.5387400894597173,0.9658622169524431,0.8344140576168895
1775706171221799000,10.416798828125,0.343038069139421,1.2707798142731188,0.7405877729281782
1775706171231811800,10.426811767578124,0.03861000890135765,1.4565917242199182,0.6047162441924214
1775706171241825800,10.43682568359375,0.06256020880937575,1.4659440744549035,0.6152215638548135
1775706171251839000,10.4468388671875,-0.25628099218457934,1.6608452997863292,0.18137158941179513
1775706171261852000,10.456851806640625,-0.48789691419005393,1.886332217517495,-0.38763504349589345
1775706171271865900,10.466865966796876,-0.582239916229248,2.3303894054591656,-1.627661699847877
1775706171281879000,10.476879150390625,-0.6150982297360896,2.5557547426372764,-2.0167548331975937
1775706171291891700,10.4868916015625,-0.606404927931726,2.5638036090582608,-1.998200647114217
1775706171301906000,10.496906005859374,-0.8744505921900272,2.587624629628658,-2.562204941689968
1775706171311918600,10.506918701171875,-1.0206585137620567,2.7592764967978,-3.0150609376370907
1775706171321931300,10.51693115234375,-0.9959002123415469,2.760857628509402,-3.345789560301602
1775706171331945500,10.526945556640625,-0.8508636726364492,2.70496681446135,-3.497366899952292
1775706171341958400,10.53695849609375,-0.8699626331210136,2.701835530698299,-3.4931551274761556
1775706171351971300,10.546971435546874,-0.21781521405950188,2.6355449031889435,-3.152306092813611
1775706171361985500,10.556985595703125,-0.07677621955797076,2.1983225297033786,-2.7281647346973417
1775706171371998500,10.56699853515625,-0.06919102512598037,1.973480339616537,-2.354991347274184
1775706171382011400,10.577011474609375,-0.03668780866712332,1.8190677765399217,-1.9982953396603464
1775706171392025300,10.587025390625,-0.05661138340756297,1.8149106568604707,-1.995970403844118
1775706171402038300,10.597038330078124,-0.19986293939203023,1.5284195275902748,-1.5971075716301797
1775706171412051500,10.607051513671875,-0.3452491693176329,1.526020649755001,-1.5349749405831097
1775706171422065400,10.6170654296875,-0.3841910405218601,1.376215872734785,-1.5779764624416828
1775706171432078300,10.627078369140625,-0.48066140997856854,1.1846142734706402,-1.6415516935124992
1775706171442091500,10.637091552734375,-0.4462988293886184,0.9073007223904133,-1.5251985197171567
1775706171452105500,10.64710546875,-0.36655806093662974,0.5682277574896812,-1.2424132592275738
1775706171462118400,10.657118408203125,-0.3211659906797111,0.2747819867759943,-0.8647165491610765
1775706171472131600,10.667131591796876,-0.37889877933263777,0.03796820386648178,-0.5676698313459754
1775706171482145500,10.6771455078125,-0.28913141464591025,-0.0660924745887518,-0.3679597444280982
1775706171492158500,10.687158447265626,-0.1695370669722557,-0.08231880224645137,-0.21647037532180546
1775706171502171400,10.69717138671875,-0.029788989064097403,-0.04239128100574016,-0.21620675594955682
1775706171512185300,10.707185302734375,0.2024234375298023,0.1204851590335369,-0.2273132563754916
1775706171522198500,10.717198486328124,0.5122618323788046,0.07751753944456577,-0.1133136599689722
1775706171532211500,10.72721142578125,0.7199111878633498,-0.22499475030004976,-0.010951894386112689
1775706171542225400,10.737225341796876,0.7370736273273826,-0.4794213467895984,-0.07295797644406557
1775706171552238600,10.747238525390625,0.6204451437219977,-0.5505108990132809,-0.24064649294018745
1775706171562251300,10.757251220703125,0.4514166107937693,-0.390713135766983,-0.26179683299660683
1775706171572265500,10.767265380859374,0.3619450141832232,-0.2668728210866451,-0.18547610212117432
1775706171582278400,10.7772783203125,0.16466916867494583,-0.3506412376195192,-0.024660686264932154
1775706171592291300,10.787291259765626,-0.20123539678901434,-0.30219898601174355,0.02840279540270567
1775706171602305500,10.797305419921875,-0.3384057331636548,-0.058199090990424154,-0.023908991114795206
1775706171612318500,10.807318359375,-0.325331732057035,-0.07097030975818634,0.07527882060706614
1775706171622331400,10.817331298828124,-0.24547815088033675,-0.251648948469758,0.10949205585420131
1775706171632345300,10.827345458984375,-0.119069447016716,-0.3717746265411377,0.11081424436867236
1775706171642358500,10.837358642578126,0.06957184113711118,-0.318216639354825,-0.03227349935621023
1775706171652371500,10.847371337890625,0.4071493067830801,-0.23281097700893877,-0.250097335113585
1775706171662385400,10.857385498046876,0.6914549087077378,-0.1362006145596504,-0.26509499775916334
1775706171672398300,10.8673984375,0.7334092596009373,-0.279812382158637,-0.0048734512552618976
1775706171682411500,10.87741162109375,0.5875856611713767,-0.34024434676766396,0.23846242689937353
1775706171692425500,10.887425537109374,0.4397752728387713,-0.24353110846579074,0.4501613500356674
1775706171702438400,10.8974384765625,0.4381748519048094,-0.2545166128605604,0.541088698412478
1775706171712451600,10.90745166015625,0.3617778409227729,-0.23299860853552817,0.4126178013220429
1775706171722464300,10.91746435546875,0.3218587952494621,-0.14457213706374167,0.20630729322582483
1775706171732478500,10.927478515625,0.17089374227821827,-0.2648866157054901,0.22390023306161164
1775706171742491400,10.937491455078124,-0.08211831123828887,-0.31868542591035365,0.36271482951194045
1775706171752504300,10.94750439453125,-0.07455839737802744,-0.31395372121334075,0.37036622104793787
1775706171762518500,10.9575185546875,-0.177542971034348,-0.04476327083408832,0.14890549009293316
1775706171772531500,10.967531494140625,-0.010770692600309849,-0.037355624926090236,0.07358926008492708
1775706171782544400,10.97754443359375,0.14312982930094004,-0.010963877084851264,0.07423924842625856
1775706171792558300,10.987558349609374,0.2816425201952457,0.045447161445021624,0.04772007481306791
1775706171802571500,10.997571533203125,0.45154579013139007,-0.0000935235023498535,0.0951207084134221
1775706171812584400,11.00758447265625,0.4657327209159732,0.03991115462779998,0.16440613382458685
1775706171822598400,11.017598388671875,0.47124008616060015,0.08603343885540962,0.24574907677620647
1775706171832611300,11.027611328125,0.39181437500715255,0.021132219877839087,0.1936573627501726
1775706171842624500,11.03762451171875,0.2977551583454013,0.07277940500676632,0.03409311599880457
1775706171852638500,11.047638427734375,0.24236001885980366,0.048179216757416723,-0.02204524306952953
1775706171862651400,11.0576513671875,0.07626783164441585,-0.050585693377256394,0.03725333359539509
1775706171872664600,11.06766455078125,-0.002006371386349201,0.030798458367586132,0.1538736338943243
1775706171882678500,11.077678466796876,0.08590805891007185,0.010042086064815521,0.3405278398841619
1775706171892691500,11.08769140625,0.16653963872194288,0.030256022053956985,0.4684840654507279
1775706171902704400,11.097704345703125,0.1816319939136505,0.19715864886939524,0.5058040345415473
1775706171912718600,11.107718505859374,0.19303338563293218,0.20147943467795848,0.5091226575702429
1775706171922731500,11.1177314453125,-0.08153291256576777,0.2066846021056175,0.2468725278481841
1775706171932744400,11.127744384765625,-0.032283728489279746,0.2042541600883007,0.10460282250791787
1775706171942758400,11.13775830078125,0.047539165288209916,0.21273089653253555,0.002163315513730049
1775706171952771300,11.147771240234375,0.07862374712079763,0.19521043741106986,-0.024966975735127923
1775706171962784500,11.157784423828126,0.11469137806296348,0.15006547378301618,0.03815028243511915
1775706171972798500,11.167798583984375,0.16016571977585553,0.1145949319511652,0.09471446570008993
1775706171982811400,11.177811279296876,0.04665507593005895,0.030409166789054868,0.24838556275963783
1775706171992824600,11.187824462890624,-0.10553104326874017,-0.0192103119045496,0.39461452711969613
1775706172002838300,11.19783837890625,-0.22940350665301082,0.009818214181065559,0.46692368426620956
1775706172012851500,11.2078515625,-0.34991380012780426,-0.07324059277772903,0.5438365358158945
1775706172022864400,11.217864501953125,-0.5183189404606818,-0.13056991519629954,0.578213437192142
1775706172032878300,11.22787841796875,-0.6819350929513573,-0.1671452033996582,0.5527054864481091
1775706172042891500,11.2378916015625,-0.769173231421411,-0.22754034312963484,0.2879688006073236
1775706172052904400,11.247904541015625,-0.6680269791081548,-0.1859066024929285,-0.027442718198895454
1775706172062918400,11.25791845703125,-0.3750479491233826,-0.09294599472284316,-0.3001207184329629
1775706172072931600,11.267931640625,0.03902735753059387,0.03942483241558075,-0.36684506118446586
1775706172082944500,11.277944580078126,0.2846946012422442,0.18583470630049703,-0.3609431436643004
1775706172092958500,11.28795849609375,0.40800241648107766,0.16674655947089195,-0.22109277442544698
1775706172102971600,11.2979716796875,0.3631517596244812,0.12132862412035464,-0.12497633297294378
1775706172112984300,11.307984375,0.2468658058464527,0.1869996584266424,-0.19129852466434238
1775706172122998500,11.31799853515625,0.12393968340158462,0.21152444335222242,-0.13134206861257552
1775706172133011500,11.328011474609376,-0.07068973925113678,0.2253682597875595,-0.12894143721163273
1775706172143024400,11.3380244140625,-0.11820318557620048,0.217674198153615,-0.1924085317328572
1775706172153038600,11.34803857421875,-0.16012860263586043,0.29313071341514585,-0.160590082667768
1775706172163051300,11.35805126953125,-0.11012670049592851,0.3269213393360376,-0.049724984894692896
1775706172173064400,11.368064453125,-0.08389204291254282,0.33169512960910796,-0.05602993025779724
1775706172183078400,11.378078369140624,0.14125585212260483,0.20790157667994497,0.04260200114697218
1775706172193091300,11.38809130859375,0.006408990259468555,0.292910348662734,-0.01605184787362814
1775706172203104500,11.3981044921875,-0.023126024043560026,0.3612959026247263,-0.08950082270503043
1775706172213118500,11.408118408203125,0.04758154312521219,0.2923357636451721,-0.0014025602743029594
1775706172223131400,11.41813134765625,0.1393620012000203,0.04970423436760902,0.21595336571037768
1775706172233144600,11.42814453125,0.044751288135349745,-0.04123334314227104,0.2621910930112004
1775706172243158300,11.438158203125,0.08082388751357793,-0.03497019109427929,0.25582564963251353
1775706172253171500,11.44817138671875,-0.30097631234899164,-0.15093816496431828,0.3631535131901502
1775706172263184600,11.4581845703125,-0.441491721367836,-0.09810907657444476,0.3239811942309141
1775706172273198300,11.4681982421875,-0.5810569900549948,-0.0038607670813798904,0.20643618030250072
1775706172283211500,11.47821142578125,-0.6920876536533236,0.04038637092411518,0.10199760844558477
1775706172293224400,11.488224365234375,-0.7384028301045298,0.061599839344620703,0.047158641538023946
1775706172303238400,11.49823828125,-0.7421151286259293,0.09245558085739612,-0.056736324961483474
1775706172313251600,11.50825146484375,-0.7171396773234009,0.17279285389780996,-0.11798691247701644
1775706172323264500,11.518264404296875,-0.5982397416546941,0.1646305902302265,-0.05869622685760259
1775706172333278700,11.52827880859375,-0.4297758568719029,0.17207389197349549,-0.1739440697595477
1775706172343291600,11.538291748046875,-0.24078809336796403,0.057277884492278094,-0.27858722427785393
1775706172353304600,11.5483046875,-0.32015900559425353,-0.16264204676151275,-0.24850977366119623
1775706172363318500,11.558318603515625,-0.4390333684302866,-0.07281389179825783,-0.23692279624193904
1775706172373331500,11.56833154296875,-0.42624870565906164,0.013707038313150404,-0.15873013401478528
1775706172383344600,11.5783447265625,-0.4192484715081751,0.12094459323883056,-0.07133212880790234
1775706172393357600,11.588357666015625,-0.34616906064152714,0.22437691066265106,-0.07070055290609598
1775706172403371500,11.59837158203125,-0.17573066091537476,0.15875672976076602,-0.10075900656133889
1775706172413384700,11.608384765625,-0.19997297563776373,0.187017194083333,-0.116932142727077
1775706172423397600,11.618397705078126,-0.23054376272931693,0.08530395553708076,0.12647241674959658
1775706172433411600,11.62841162109375,-0.2816717462897301,-0.039433015722036356,0.3591282031968236
1775706172443424500,11.638424560546875,-0.3214402775764465,0.02045066735446453,0.40425913829952476
1775706172453437400,11.6484375,-0.19630802338942885,0.05599427442252636,0.3742009769052267
1775706172463451600,11.65845166015625,-0.19779986938238142,0.14770166726112366,0.3106085024386644
1775706172473464600,11.668464599609376,-0.23725275884866714,0.15265607479810714,0.16193945145010946
1775706172483477500,11.6784775390625,-0.16570216498449444,0.15508184064030647,-0.04123889610022306
1775706172493491700,11.68849169921875,-0.12538579055666924,0.25391163270473477,-0.2657791806310415
1775706172503504600,11.698504638671874,-0.06153145028352737,0.13807517625987528,-0.3042193859234452
1775706172513517600,11.708517578125,-0.17276041293293237,0.2081751329243183,-0.29955139411240816
1775706172523531800,11.71853173828125,-0.2870611842431128,0.3456412373751402,-0.23988427639603613
1775706172533544400,11.72854443359375,-0.4178454728424549,0.4346791187435388,-0.2074643543064594
1775706172543557600,11.7385576171875,-0.5344051289953291,0.6313017610400915,-0.26148849769979715
1775706172553571600,11.748571533203124,-0.5429052463151515,0.6536749208897352,-0.2599348385170102
1775706172563584500,11.75858447265625,-0.6450362718820571,0.603389087241888,-0.23171587524861095
1775706172573597700,11.76859765625,-0.595793955937773,0.678418317002058,-0.3333905353501439
1775706172583611400,11.778611328125,-0.26655250309109685,0.6541448764890432,-0.40216362732499833
1775706172593624600,11.78862451171875,-0.030897827088832854,0.6104512807130813,-0.2828857982546091
1775706172603637500,11.798637451171874,0.0683271017730236,0.5867927572280168,-0.35247429826557636
1775706172613651500,11.8086513671875,-0.04288651717677712,0.2041834329396486,-0.16605799268484114
1775706172623664600,11.81866455078125,-0.45477673487663267,-0.33854572615623474,0.2795160295605659
1775706172633677600,11.828677490234375,-0.7134592352449893,-0.37210663497447966,0.395927655544877
1775706172643691500,11.83869140625,-0.8090716726981103,-0.5187380426555872,0.6267620717838406
1775706172653704700,11.84870458984375,-1.0132312863707542,-0.8463134619861841,0.9145502551272511
1775706172663717600,11.858717529296875,-0.9456452122233807,-0.9876280585587024,0.8349138238325715
1775706172673731600,11.868731689453124,-0.625846564374119,-0.9452525596439838,0.6095134153410792
1775706172683744800,11.878744873046875,-0.47542906228303905,-0.9294447496592998,0.25928660374134777
1775706172693757400,11.88875732421875,-0.4532708603583276,-1.345226860231161,-0.05910656122416257
1775706172703771600,11.898771728515625,-0.36754034997224805,-1.862281479844451,-0.18061901747882364
1775706172713784600,11.90878466796875,-0.08874328233599663,-1.9490736281126737,-0.24514964957833288
1775706172723797500,11.918797607421874,0.29735797572135925,-1.9351386262625454,-0.2582201435536146
1775706172733811700,11.928811767578125,0.45820203315019603,-2.0337714344501494,-0.09118483026921749
1775706172743824400,11.938824462890626,0.4805928747870028,-1.9303566526830196,0.09542465979605913
1775706172753837600,11.948837646484375,0.4629201477132737,-1.8587445378899574,0.3283820595383644
1775706172763851500,11.9588515625,0.429926298193261,-1.8574667730391023,0.5329992077201604
1775706172773864400,11.968864501953124,0.4294070966247469,-1.6353876179248095,0.5690221227377653
1775706172783877600,11.978877685546875,0.45629751470312474,-1.4422791212290524,0.632389848537743
1775706172793891600,11.9888916015625,0.3778897484205663,-1.2214455822616814,0.6037745794281363
1775706172803904500,11.998904541015625,0.1709337820276618,-0.9276976137310265,0.4931929747715592
1775706172813917700,12.008917724609375,-0.010859393797069787,-0.8192471758842468,0.50358898884058
1775706172823931400,12.018931396484374,-0.09772957573756574,-0.7144207737535238,0.5555266813486814
1775706172833944600,12.028944580078125,0.033093291306495666,-0.5348305148005486,0.6501601907670498
1775706172843957800,12.038957763671876,0.008019640326499938,-0.5474789839714765,0.625856939637661
1775706172853970400,12.048970458984375,0.4456977947555482,-0.2510924836307764,0.8984130670577287
1775706172863984600,12.058984619140626,0.4582604853391647,-0.06741583214700221,0.917799320051074
1775706172873997600,12.06899755859375,0.4925765964388847,-0.004601356315612793,0.8904054094299674
1775706172884010500,12.079010498046875,0.6936123790025711,0.07739712793529033,0.6706818775311112
1775706172894024700,12.089024658203124,0.8852373591423034,0.11916881573796272,0.4106023698464036
1775706172904037400,12.099037353515625,0.9328184638760983,0.14048691357672213,0.22961773392558096
1775706172914050600,12.109050537109376,0.9138343619428575,0.13834931702613829,0.23212416378855705
1775706172924064500,12.119064453125,1.0267888332106172,0.30301205596029757,-0.04889993224740028
1775706172934077400,12.129077392578125,0.7660616752721369,0.23846622629165648,0.12554711859822273
1775706172944090600,12.139090576171874,0.6400020771071314,0.27072715842723843,0.23154840972721574
1775706172954104600,12.1491044921875,0.640894349771738,0.35704467492103575,0.27680501703619953
1775706172964117500,12.159117431640626,0.4747136074900627,0.4118646448671818,0.34363924990296363
1775706172974130700,12.169130615234375,0.2630349964894354,0.3489963930219412,0.2851066891744733
1775706172984144400,12.179144287109375,0.18666238929629325,0.3279845846533775,0.04512888927608728
1775706172994157600,12.189157470703124,0.18447028607949614,0.3420242159217596,-0.09543371988534927
1775706173004170800,12.199170654296875,0.20665522988066076,0.2876128267765045,-0.16579525009542703
1775706173014184400,12.209184326171876,0.19955708831325172,0.21055179892778395,-0.14625292975753545
1775706173024197600,12.21919775390625,0.12218480255827308,0.15647592534720897,-0.052012803570926185
1775706173034210600,12.22921044921875,0.09860518952831625,0.1073141272932291,-0.01061550203859806
1775706173044224500,12.239224609375,0.005970306581258774,0.1340448978304863,-0.031552199344336986
1775706173054237700,12.24923779296875,-0.025075989067554472,0.07266776132583617,-0.09866934080570935
1775706173064250400,12.25925048828125,-0.008568067989498376,0.01414075355529785,-0.16331600050032138
1775706173074264600,12.2692646484375,0.026631694076955318,0.03764963943660259,-0.1780196486353874
1775706173084277500,12.279277587890626,0.04007379784360528,0.03811725694835186,-0.18227233764380216
1775706173094290400,12.28929052734375,0.06865326498746871,0.021416297516226767,-0.1419879657894373
1775706173104304600,12.2993046875,-0.018190321207046507,-0.020616087049245835,-0.024542612843215465
1775706173114317600,12.309317626953124,-0.19685411296486854,-0.0002986906856298446,0.11358926203995942
1775706173124330500,12.31933056640625,-0.5541198832906782,-0.007851882544159888,0.17215952443033455
1775706173134344700,12.3293447265625,-0.6291515972688794,0.009955576825141907,0.11598287917822599
1775706173144357400,12.339357421875,-0.6240437527358531,0.011205284625291823,0.11728870107978581
1775706173154370600,12.34937060546875,-0.4313068658314645,0.016539631390571595,-0.021961071917414664
1775706173164384500,12.359384521484374,-0.31854923231005666,-0.006973930665850639,-0.014281038808822632
1775706173174397400,12.3693974609375,-0.23501155579313635,-0.06733692169189452,-0.04983107561767101
1775706173184410600,12.37941064453125,-0.17737652842625976,-0.04534896176755428,-0.05594605136662721
1775706173194424600,12.389424560546875,-0.17950769523605703,-0.04468202229142189,-0.05336246461421251
1775706173204437500,12.3994375,-0.15911153454780577,-0.036085458859801293,-0.011072305895388126
1775706173214450700,12.40945068359375,-0.0989652550123632,-0.014745733711123466,-0.08481061906218529
