time,seconds_elapsed,z,y,x
1775710448942204400,0.062204345703125,-0.261505126953125,-0.920166015625,0.3022003173828125
1775710448952218600,0.072218505859375,-0.2451019287109375,-0.927947998046875,0.320709228515625
1775710448962233600,0.082233642578125,-0.2380828857421875,-0.9391632080078125,0.3304901123046875
1775710448972247300,0.092247314453125,-0.2330322265625,-0.9592742919921875,0.3314971923828125
1775710448982262300,0.10226220703125,-0.2185516357421875,-0.96319580078125,0.3043365478515625
1775710448992276500,0.1122763671875,-0.1989288330078125,-0.958770751953125,0.2527313232421875
1775710449002291500,0.12229150390625,-0.19659423828125,-0.937469482421875,0.2071075439453125
1775710449012305400,0.132305419921875,-0.1847991943359375,-0.9167327880859375,0.1738739013671875
1775710449022320400,0.1423203125,-0.1681365966796875,-0.9058990478515625,0.1634979248046875
1775710449032334600,0.15233447265625,-0.18994140625,-0.899749755859375,0.17095947265625
1775710449042348300,0.162348388671875,-0.22900390625,-0.902099609375,0.1919403076171875
1775710449052363500,0.172363525390625,-0.267425537109375,-0.9247894287109375,0.2105865478515625
1775710449062377500,0.18237744140625,-0.27520751953125,-0.9335174560546875,0.208984375
1775710449072392400,0.192392333984375,-0.23089599609375,-0.92169189453125,0.20843505859375
1775710449082406400,0.202406494140625,-0.242401123046875,-0.93572998046875,0.23516845703125
1775710449092421600,0.212421630859375,-0.2726593017578125,-0.9450531005859375,0.250579833984375
1775710449102435300,0.222435302734375,-0.32177734375,-0.93096923828125,0.2582244873046875
1775710449112450300,0.2324501953125,-0.3301239013671875,-0.9342041015625,0.26544189453125
1775710449122464500,0.242464599609375,-0.34576416015625,-0.965606689453125,0.2747955322265625
1775710449132479500,0.2524794921875,-0.3609619140625,-0.9890899658203125,0.269195556640625
1775710449142493400,0.262493408203125,-0.424346923828125,-0.9888916015625,0.2250213623046875
1775710449152507600,0.272507568359375,-0.441619873046875,-0.970611572265625,0.127960205078125
1775710449162522600,0.282522705078125,-0.3809814453125,-0.87115478515625,0.04522705078125
1775710449172536300,0.292536376953125,-0.298248291015625,-0.7186431884765625,0.01544189453125
1775710449182551300,0.30255126953125,-0.227569580078125,-0.6600494384765625,0.006683349609375
1775710449192565500,0.3125654296875,-0.181884765625,-0.67626953125,-0.00048828125
1775710449202580500,0.32258056640625,-0.193359375,-0.6844024658203125,0.007354736328125
1775710449212594200,0.33259423828125,-0.0293426513671875,-0.8100128173828125,0.21673583984375
1775710449222609400,0.342609375,0.1750946044921875,-1.222900390625,0.7886962890625
1775710449232623400,0.352623291015625,-0.0115203857421875,-1.64959716796875,1.233978271484375
1775710449242638300,0.362638427734375,-0.08441162109375,-1.639312744140625,1.1666259765625
1775710449252652300,0.37265234375,-0.1632232666015625,-0.95013427734375,0.42822265625
1775710449262667500,0.38266748046875,-0.1587066650390625,-0.7888641357421875,0.29840087890625
1775710449272681500,0.392681396484375,-0.2077178955078125,-0.9717559814453125,0.26165771484375
1775710449282695200,0.402695068359375,-0.2357635498046875,-0.993255615234375,0.110565185546875
1775710449292710400,0.41271044921875,-0.1987457275390625,-0.999908447265625,0.2042083740234375
1775710449302724400,0.422724365234375,-0.1816558837890625,-0.98846435546875,0.314483642578125
1775710449312739300,0.4327392578125,-0.16131591796875,-0.9369659423828125,0.3086700439453125
1775710449322753500,0.44275341796875,-0.07379150390625,-0.91265869140625,0.2943572998046875
1775710449332768500,0.4527685546875,-0.052154541015625,-0.9093475341796875,0.26763916015625
1775710449342782200,0.4627822265625,-0.06268310546875,-0.8932952880859375,0.1868743896484375
1775710449352797200,0.472797119140625,-0.03839111328125,-0.9482269287109375,0.2106781005859375
1775710449362811400,0.482811279296875,0.0247802734375,-0.9569244384765625,0.1858978271484375
1775710449372826400,0.492826416015625,-0.0145721435546875,-0.9151458740234375,0.1229400634765625
1775710449382840300,0.50284033203125,-0.1140899658203125,-0.898040771484375,0.1461944580078125
1775710449392855300,0.512855224609375,-0.1812896728515625,-0.89288330078125,0.19635009765625
1775710449402869500,0.522869384765625,-0.184478759765625,-0.86846923828125,0.1539306640625
1775710449412883200,0.53288330078125,-0.207061767578125,-0.852935791015625,0.0450592041015625
1775710449422898200,0.542898193359375,-0.22039794921875,-0.882598876953125,0.0161285400390625
1775710449432912400,0.552912353515625,-0.2046966552734375,-0.8910064697265625,0.0114593505859375
1775710449442927400,0.56292724609375,-0.20074462890625,-0.86309814453125,-0.0004730224609375
1775710449452941300,0.57294140625,-0.2272796630859375,-0.798553466796875,-0.00958251953125
1775710449462956500,0.58295654296875,-0.2062225341796875,-0.86138916015625,0.121551513671875
1775710449472970200,0.59297021484375,-0.235809326171875,-0.888916015625,0.1338348388671875
1775710449482985200,0.602985107421875,-0.283477783203125,-0.907806396484375,0.061737060546875
1775710449492999400,0.61299951171875,-0.2794647216796875,-0.92864990234375,0.0164031982421875
1775710449503014400,0.623014404296875,-0.25689697265625,-0.925872802734375,0.00567626953125
1775710449513028400,0.6330283203125,-0.2441864013671875,-0.9295806884765625,0.0204620361328125
1775710449523042600,0.64304248046875,-0.2183837890625,-0.9424285888671875,0.063201904296875
1775710449533057500,0.6530576171875,-0.224151611328125,-0.945526123046875,0.1212921142578125
1775710449543071200,0.6630712890625,-0.2209930419921875,-0.95050048828125,0.143707275390625
1775710449553086200,0.673086181640625,-0.17730712890625,-0.98687744140625,0.093841552734375
1775710449563100400,0.683100341796875,-0.1453094482421875,-0.99468994140625,0.08209228515625
1775710449573115400,0.693115478515625,-0.1401214599609375,-0.941131591796875,0.0746307373046875
1775710449583129300,0.70312939453125,-0.175933837890625,-0.9232025146484375,0.0579681396484375
1775710449593144300,0.713144287109375,-0.2019805908203125,-0.9657440185546875,0.083099365234375
1775710449603158500,0.723158447265625,-0.210601806640625,-0.9534759521484375,0.07470703125
1775710449613173500,0.733173583984375,-0.2324676513671875,-0.9493865966796875,0.047882080078125
1775710449623187200,0.743187255859375,-0.2569122314453125,-0.962310791015625,0.02923583984375
1775710449633201400,0.753201416015625,-0.2377166748046875,-0.9779815673828125,0.0240478515625
1775710449643216400,0.76321630859375,-0.1911468505859375,-0.9925689697265625,0.0277862548828125
1775710449653230300,0.773230224609375,-0.16326904296875,-0.999053955078125,0.0446929931640625
1775710449663245300,0.783245361328125,-0.2018585205078125,-0.98797607421875,0.08038330078125
1775710449673259300,0.79325927734375,-0.2353057861328125,-0.9884490966796875,0.087432861328125
1775710449683274200,0.803274169921875,-0.2375030517578125,-0.9815216064453125,0.08758544921875
1775710449693288400,0.813288330078125,-0.2422027587890625,-0.969329833984375,0.1023406982421875
1775710449703303400,0.823303466796875,-0.248748779296875,-0.9752349853515625,0.1415863037109375
1775710449713317400,0.8333173828125,-0.2285308837890625,-0.97894287109375,0.18212890625
1775710449723332400,0.843332275390625,-0.222686767578125,-0.977294921875,0.1953277587890625
1775710449733346600,0.8533466796875,-0.236480712890625,-0.981475830078125,0.1877899169921875
1775710449743360300,0.8633603515625,-0.2441253662109375,-0.977386474609375,0.1566314697265625
1775710449753375200,0.873375244140625,-0.2581024169921875,-0.9724273681640625,0.1162567138671875
1775710449763389400,0.883389404296875,-0.258758544921875,-0.9770965576171875,0.0957183837890625
1775710449773404400,0.893404296875,-0.259307861328125,-0.9880828857421875,0.0899505615234375
1775710449783418400,0.90341845703125,-0.2677459716796875,-0.991668701171875,0.0864715576171875
1775710449793433300,0.913433349609375,-0.2571563720703125,-0.9956207275390625,0.079620361328125
1775710449803447300,0.923447265625,-0.2643585205078125,-1.0157928466796875,0.0665435791015625
1775710449813462300,0.933462158203125,-0.2784423828125,-1.0261993408203125,0.0470123291015625
1775710449823476200,0.943476318359375,-0.2911376953125,-1.028472900390625,0.0402374267578125
1775710449833491200,0.9534912109375,-0.308746337890625,-1.0248565673828125,0.0404510498046875
1775710449843505400,0.96350537109375,-0.3119049072265625,-1.0232086181640625,0.05621337890625
1775710449853519400,0.973519287109375,-0.306610107421875,-1.010528564453125,0.0746917724609375
1775710449863534300,0.983534423828125,-0.2874603271484375,-0.998565673828125,0.06439208984375
1775710449873548300,0.99354833984375,-0.259918212890625,-1.0031890869140625,0.056671142578125
1775710449883563300,1.003563232421875,-0.23028564453125,-1.0052947998046875,0.061126708984375
1775710449893577200,1.0135771484375,-0.212677001953125,-1.0036773681640625,0.0703582763671875
1775710449903592400,1.023592529296875,-0.2028656005859375,-1.002899169921875,0.0872802734375
1775710449913606400,1.0336064453125,-0.206878662109375,-0.9973297119140625,0.0948486328125
1775710449923621400,1.043621337890625,-0.216400146484375,-0.99688720703125,0.10211181640625
1775710449933635600,1.053635498046875,-0.228790283203125,-0.99493408203125,0.106689453125
1775710449943650600,1.063650634765625,-0.243988037109375,-0.9856414794921875,0.1029205322265625
1775710449953664300,1.073664306640625,-0.254852294921875,-0.9849090576171875,0.10986328125
1775710449963678500,1.083678466796875,-0.265625,-0.986541748046875,0.12396240234375
1775710449973693400,1.093693359375,-0.2674713134765625,-0.9785003662109375,0.1367950439453125
1775710449983707400,1.103707275390625,-0.2749481201171875,-0.9852142333984375,0.14569091796875
1775710449993722400,1.113722412109375,-0.2757568359375,-0.984100341796875,0.1534423828125
1775710450003736300,1.123736328125,-0.262908935546875,-0.9852142333984375,0.15362548828125
1775710450013751300,1.133751220703125,-0.240447998046875,-1.0003814697265625,0.1423492431640625
1775710450023765200,1.14376513671875,-0.2183074951171875,-1.0067596435546875,0.145050048828125
1775710450033780200,1.1537802734375,-0.202117919921875,-0.99945068359375,0.1539764404296875
1775710450043794400,1.16379443359375,-0.190185546875,-0.99908447265625,0.1656494140625
1775710450053809400,1.173809326171875,-0.1839752197265625,-1.0013427734375,0.172454833984375
1775710450063823400,1.1838232421875,-0.18450927734375,-0.9938507080078125,0.1655426025390625
1775710450073837300,1.19383740234375,-0.1743621826171875,-0.99920654296875,0.1527557373046875
1775710450083852300,1.203852294921875,-0.167633056640625,-1.011688232421875,0.147491455078125
1775710450093866200,1.2138662109375,-0.167999267578125,-1.0205841064453125,0.1416473388671875
1775710450103881500,1.223881591796875,-0.177734375,-1.0110626220703125,0.1496734619140625
1775710450113895400,1.2338955078125,-0.1853179931640625,-1.0074310302734375,0.13201904296875
1775710450123910400,1.243910400390625,-0.1944732666015625,-1.02166748046875,0.123992919921875
1775710450133924600,1.253924560546875,-0.200775146484375,-1.02099609375,0.120758056640625
1775710450143939300,1.263939208984375,-0.1929168701171875,-1.0139923095703125,0.1216583251953125
1775710450153953300,1.273953369140625,-0.1855926513671875,-1.0196685791015625,0.1399993896484375
1775710450163967500,1.283967529296875,-0.1834716796875,-1.021270751953125,0.1494140625
1775710450173982500,1.293982421875,-0.1800384521484375,-1.0201873779296875,0.15118408203125
1775710450183996400,1.303996337890625,-0.1848297119140625,-1.0153656005859375,0.1531524658203125
1775710450194012200,1.31401220703125,-0.183868408203125,-1.012298583984375,0.15850830078125
1775710450204026000,1.324026123046875,-0.1703033447265625,-1.0114288330078125,0.1585845947265625
1775710450214041300,1.334041259765625,-0.1745758056640625,-1.01220703125,0.1424713134765625
1775710450224055000,1.344054931640625,-0.1769256591796875,-1.022430419921875,0.1399688720703125
1775710450234070000,1.354070068359375,-0.176055908203125,-1.0252532958984375,0.1446075439453125
1775710450244084200,1.364084228515625,-0.1752166748046875,-1.028900146484375,0.1501922607421875
1775710450254099200,1.37409912109375,-0.17938232421875,-1.0294189453125,0.1475372314453125
1775710450264113200,1.384113037109375,-0.1787261962890625,-1.0289459228515625,0.140625
1775710450274127000,1.394127197265625,-0.172882080078125,-1.0286865234375,0.132568359375
1775710450284142000,1.40414208984375,-0.173004150390625,-1.0264434814453125,0.13165283203125
1775710450294156000,1.414156005859375,-0.1671142578125,-1.0276947021484375,0.1353912353515625
1775710450304171000,1.4241708984375,-0.1533660888671875,-1.0330047607421875,0.1438140869140625
1775710450314185200,1.434185302734375,-0.1450347900390625,-1.0337982177734375,0.1473236083984375
1775710450324200200,1.4442001953125,-0.1313934326171875,-1.0218963623046875,0.1360321044921875
1775710450334214100,1.454214111328125,-0.1294403076171875,-1.01190185546875,0.13531494140625
1775710450344229000,1.46422900390625,-0.1261749267578125,-1.007415771484375,0.1453857421875
1775710450354243000,1.4742431640625,-0.1152496337890625,-1.0129547119140625,0.163909912109375
1775710450364257000,1.484257080078125,-0.1022491455078125,-1.0137786865234375,0.177093505859375
1775710450374272000,1.49427197265625,-0.09381103515625,-1.0037841796875,0.1835174560546875
1775710450384286200,1.5042861328125,-0.0963287353515625,-1.0063018798828125,0.1900482177734375
1775710450394301200,1.51430126953125,-0.0869293212890625,-1.0022430419921875,0.2025604248046875
1775710450404315100,1.524315185546875,-0.0814361572265625,-0.99560546875,0.2073211669921875
1775710450414330000,1.534330078125,-0.073944091796875,-0.98663330078125,0.229339599609375
1775710450424344000,1.544343994140625,-0.093414306640625,-0.974456787109375,0.2369537353515625
1775710450434359000,1.554359130859375,-0.1125335693359375,-0.9693145751953125,0.2199859619140625
1775710450444373200,1.564373291015625,-0.111083984375,-0.9606781005859375,0.205718994140625
1775710450454387200,1.57438720703125,-0.1175079345703125,-0.953277587890625,0.1990814208984375
1775710450464402200,1.584402099609375,-0.126373291015625,-0.954132080078125,0.211700439453125
1775710450474416000,1.594416015625,-0.127410888671875,-0.9459686279296875,0.2255706787109375
1775710450484431000,1.60443115234375,-0.127166748046875,-0.939208984375,0.2333984375
1775710450494445000,1.614445068359375,-0.119659423828125,-0.9369049072265625,0.2338409423828125
1775710450504460000,1.6244599609375,-0.09942626953125,-0.9326934814453125,0.2259063720703125
1775710450514474200,1.63447412109375,-0.0819549560546875,-0.9232177734375,0.219696044921875
1775710450524489200,1.6444892578125,-0.0631256103515625,-0.92803955078125,0.215423583984375
1775710450534503200,1.654503173828125,-0.051239013671875,-0.9334259033203125,0.2071380615234375
1775710450544517000,1.66451708984375,-0.0463714599609375,-0.9371185302734375,0.20404052734375
1775710450554532000,1.674531982421875,-0.04376220703125,-0.94195556640625,0.200408935546875
1775710450564546000,1.684546142578125,-0.0501251220703125,-0.94818115234375,0.20379638671875
1775710450574561000,1.69456103515625,-0.06134033203125,-0.95037841796875,0.201019287109375
1775710450584575200,1.7045751953125,-0.0819854736328125,-0.941741943359375,0.180999755859375
1775710450594590200,1.714590087890625,-0.09014892578125,-0.9408721923828125,0.1711883544921875
1775710450604604000,1.72460400390625,-0.0762176513671875,-0.9488067626953125,0.1765594482421875
1775710450614619100,1.734619140625,-0.0628814697265625,-0.9425201416015625,0.1800537109375
1775710450624633000,1.744633056640625,-0.0464935302734375,-0.9338836669921875,0.198333740234375
1775710450634648000,1.75464794921875,-0.0371856689453125,-0.9240875244140625,0.2288055419921875
1775710450644662000,1.764662109375,-0.0404510498046875,-0.91546630859375,0.2442779541015625
1775710450654676200,1.77467626953125,-0.036773681640625,-0.9127044677734375,0.2590179443359375
1775710450664691200,1.784691162109375,-0.0335693359375,-0.9111328125,0.2845611572265625
1775710450674705200,1.794705078125,-0.0284271240234375,-0.9122467041015625,0.3243255615234375
1775710450684720000,1.80472021484375,-0.012786865234375,-0.9062042236328125,0.351409912109375
1775710450694734000,1.814734130859375,0.0088043212890625,-0.90814208984375,0.3638153076171875
1775710450704749000,1.8247490234375,0.0236053466796875,-0.908355712890625,0.365692138671875
1775710450714763300,1.83476318359375,0.0465240478515625,-0.8972930908203125,0.3671417236328125
1775710450724778200,1.8447783203125,0.0638275146484375,-0.8923187255859375,0.3787841796875
1775710450734792200,1.854792236328125,0.07330322265625,-0.8886566162109375,0.379180908203125
1775710450744806100,1.86480615234375,0.0712432861328125,-0.8953704833984375,0.3736724853515625
1775710450754821000,1.874821044921875,0.06787109375,-0.9015350341796875,0.3719940185546875
1775710450764835000,1.8848349609375,0.0542144775390625,-0.9000396728515625,0.3671875
1775710450774850000,1.89485009765625,0.057281494140625,-0.891845703125,0.3626251220703125
1775710450784864300,1.9048642578125,0.0722503662109375,-0.8815460205078125,0.3564605712890625
1775710450794879200,1.914879150390625,0.0687408447265625,-0.87286376953125,0.3571319580078125
1775710450804893000,1.924892822265625,0.0609130859375,-0.8620147705078125,0.3673248291015625
1775710450814908000,1.934907958984375,0.05584716796875,-0.8494720458984375,0.379058837890625
1775710450824922000,1.944922119140625,0.0441741943359375,-0.8477630615234375,0.3929290771484375
1775710450834936000,1.95493603515625,0.0349273681640625,-0.8505401611328125,0.398895263671875
1775710450844951000,1.964950927734375,0.0365142822265625,-0.849761962890625,0.3923187255859375
1775710450854965200,1.97496533203125,0.0097808837890625,-0.8581085205078125,0.39434814453125
1775710450864980200,1.984980224609375,-0.001678466796875,-0.87078857421875,0.40069580078125
1775710450874994000,1.994993896484375,0.011810302734375,-0.8864288330078125,0.400115966796875
1775710450885009200,2.005009033203125,0.007965087890625,-0.8862457275390625,0.3842620849609375
1775710450895023000,2.015023193359375,-0.0041656494140625,-0.8726043701171875,0.3689727783203125
1775710450905037000,2.025037109375,-0.01678466796875,-0.8600006103515625,0.34564208984375
1775710450915052300,2.03505224609375,-0.046234130859375,-0.8453826904296875,0.3214263916015625
1775710450925066200,2.045066162109375,-0.0661468505859375,-0.8456573486328125,0.341033935546875
1775710450935081000,2.0550810546875,-0.0778350830078125,-0.8544921875,0.3874969482421875
1775710450945095200,2.06509521484375,-0.1059417724609375,-0.8587188720703125,0.4174346923828125
1775710450955110100,2.075110107421875,-0.1013641357421875,-0.872955322265625,0.4507293701171875
1775710450965124000,2.0851240234375,-0.103668212890625,-0.8766326904296875,0.457000732421875
1775710450975139000,2.09513916015625,-0.105133056640625,-0.8624267578125,0.4483642578125
1775710450985153300,2.1051533203125,-0.07720947265625,-0.84393310546875,0.4224090576171875
1775710450995167000,2.1151669921875,-0.045501708984375,-0.817626953125,0.397247314453125
1775710451005182000,2.125181884765625,-0.026641845703125,-0.79888916015625,0.410003662109375
1775710451015196200,2.135196044921875,-0.005950927734375,-0.7845916748046875,0.4307403564453125
1775710451025211100,2.145211181640625,0.0316925048828125,-0.764495849609375,0.448486328125
1775710451035225000,2.15522509765625,0.08551025390625,-0.753173828125,0.48004150390625
1775710451045240000,2.165239990234375,0.125091552734375,-0.7520751953125,0.5132904052734375
1775710451055254300,2.175254150390625,0.12890625,-0.7508392333984375,0.5438232421875
1775710451065269200,2.185269287109375,0.10443115234375,-0.743804931640625,0.551513671875
1775710451075283000,2.195282958984375,0.0589752197265625,-0.71875,0.5534210205078125
1775710451085297200,2.205297119140625,0.0271148681640625,-0.6996307373046875,0.561004638671875
1775710451095312100,2.21531201171875,-0.008270263671875,-0.6906585693359375,0.56451416015625
1775710451105326000,2.225326171875,-0.03143310546875,-0.668487548828125,0.5645751953125
1775710451115341300,2.23534130859375,-0.0283203125,-0.6459503173828125,0.5755462646484375
1775710451125355000,2.24535498046875,-0.0194854736328125,-0.640289306640625,0.5927886962890625
1775710451135370000,2.255369873046875,-0.001373291015625,-0.6499176025390625,0.62200927734375
1775710451145384200,2.26538427734375,0.02288818359375,-0.6682586669921875,0.6407623291015625
1775710451155398100,2.275398193359375,0.057708740234375,-0.675750732421875,0.633148193359375
1775710451165413000,2.2854130859375,0.0900115966796875,-0.68572998046875,0.629150390625
1775710451175427000,2.295427001953125,0.1147613525390625,-0.6973876953125,0.5888214111328125
1775710451185442300,2.3054423828125,0.12841796875,-0.7057342529296875,0.531280517578125
1775710451195455700,2.315455810546875,0.1388702392578125,-0.709991455078125,0.51458740234375
1775710451205470700,2.325470703125,0.1275787353515625,-0.714874267578125,0.5052642822265625
1775710451215484700,2.335484619140625,0.1162261962890625,-0.6919403076171875,0.5167083740234375
1775710451225499600,2.345499755859375,0.11602783203125,-0.6935272216796875,0.540740966796875
1775710451235513600,2.355513671875,0.102569580078125,-0.7147369384765625,0.5505523681640625
1775710451245527800,2.36552783203125,0.0921783447265625,-0.7014923095703125,0.5441436767578125
1775710451255542800,2.375542724609375,0.076416015625,-0.686920166015625,0.5377960205078125
1775710451265556700,2.385556640625,0.0684661865234375,-0.6780242919921875,0.5521240234375
1775710451275571700,2.39557177734375,0.074432373046875,-0.6927337646484375,0.5854644775390625
1775710451285585700,2.405585693359375,0.1022186279296875,-0.704803466796875,0.590667724609375
1775710451295600600,2.4156005859375,0.1495819091796875,-0.6988372802734375,0.57000732421875
1775710451305614600,2.425614501953125,0.1843109130859375,-0.705230712890625,0.5648956298828125
1775710451315628800,2.43562890625,0.19866943359375,-0.702606201171875,0.5546875
1775710451325643800,2.445643798828125,0.2182769775390625,-0.698699951171875,0.56756591796875
1775710451335657500,2.455657470703125,0.2344207763671875,-0.697845458984375,0.5972747802734375
1775710451345672700,2.465672607421875,0.22808837890625,-0.68359375,0.60888671875
1775710451355686700,2.475686767578125,0.2130889892578125,-0.7190093994140625,0.6415252685546875
1775710451365701600,2.48570166015625,0.20147705078125,-0.765960693359375,0.6679229736328125
1775710451375715800,2.4957158203125,0.1868896484375,-0.767364501953125,0.672393798828125
1775710451385730800,2.505730712890625,0.17010498046875,-0.7649383544921875,0.7036285400390625
1775710451395744800,2.515744873046875,0.152984619140625,-0.7552490234375,0.7384033203125
1775710451405758700,2.5257587890625,0.139556884765625,-0.744140625,0.758880615234375
1775710451415773700,2.535773681640625,0.1187896728515625,-0.76885986328125,0.78387451171875
1775710451425787600,2.54578759765625,0.1059417724609375,-0.8007354736328125,0.7788848876953125
1775710451435802600,2.555802734375,0.1049346923828125,-0.8097686767578125,0.7610015869140625
1775710451445816800,2.56581689453125,0.128814697265625,-0.8485565185546875,0.7751922607421875
1775710451455831800,2.575831787109375,0.1579132080078125,-0.8837738037109375,0.77264404296875
1775710451465845500,2.585845458984375,0.1721038818359375,-0.8909759521484375,0.758270263671875
1775710451475859700,2.595859619140625,0.206939697265625,-0.9005584716796875,0.753814697265625
1775710451485874700,2.605874755859375,0.2226409912109375,-0.909698486328125,0.753265380859375
1775710451495888600,2.615888671875,0.238800048828125,-0.908050537109375,0.7542266845703125
1775710451505903600,2.625903564453125,0.2419891357421875,-0.897918701171875,0.7373199462890625
1775710451515917800,2.635917724609375,0.2320556640625,-0.8905029296875,0.7272491455078125
1775710451525932800,2.645932861328125,0.221160888671875,-0.8880157470703125,0.71807861328125
1775710451535946500,2.655946533203125,0.2149810791015625,-0.8814697265625,0.7230682373046875
1775710451545960700,2.665960693359375,0.20794677734375,-0.86798095703125,0.7339630126953125
1775710451555975700,2.6759755859375,0.198150634765625,-0.8539581298828125,0.7386016845703125
1775710451565989600,2.68598974609375,0.1880340576171875,-0.838836669921875,0.7249603271484375
1775710451576004900,2.6960048828125,0.18109130859375,-0.814178466796875,0.705322265625
1775710451586018800,2.706018798828125,0.1719512939453125,-0.7915191650390625,0.6902313232421875
1775710451596033800,2.71603369140625,0.1739349365234375,-0.7894134521484375,0.6810150146484375
1775710451606047700,2.7260478515625,0.20098876953125,-0.7850494384765625,0.6626129150390625
1775710451616061700,2.736061767578125,0.2352294921875,-0.7746124267578125,0.6486358642578125
1775710451626076700,2.74607666015625,0.254547119140625,-0.77020263671875,0.64080810546875
1775710451636091000,2.7560908203125,0.256744384765625,-0.7574615478515625,0.6362457275390625
1775710451646105900,2.76610595703125,0.247955322265625,-0.748809814453125,0.6351470947265625
1775710451656119600,2.77611962890625,0.2364501953125,-0.73504638671875,0.6132659912109375
1775710451666134500,2.786134521484375,0.2196807861328125,-0.730682373046875,0.5894927978515625
1775710451676148700,2.796148681640625,0.21319580078125,-0.7319793701171875,0.5922088623046875
1775710451686163700,2.806163818359375,0.222747802734375,-0.7263946533203125,0.595794677734375
1775710451696177700,2.816177734375,0.2321014404296875,-0.719390869140625,0.600067138671875
1775710451706192000,2.82619189453125,0.245697021484375,-0.7185821533203125,0.60626220703125
1775710451716206800,2.836206787109375,0.2427978515625,-0.7138214111328125,0.609954833984375
1775710451726220500,2.846220458984375,0.2420501708984375,-0.7144317626953125,0.607025146484375
1775710451736235500,2.856235595703125,0.261077880859375,-0.7161712646484375,0.5978851318359375
1775710451746249700,2.866249755859375,0.2738800048828125,-0.7166290283203125,0.5874786376953125
1775710451756264700,2.8762646484375,0.2803192138671875,-0.7259063720703125,0.5824432373046875
1775710451766278700,2.886278564453125,0.2906646728515625,-0.725860595703125,0.578094482421875
1775710451776292900,2.89629296875,0.295654296875,-0.7247314453125,0.57171630859375
1775710451786307800,2.906307861328125,0.294189453125,-0.7270050048828125,0.56341552734375
1775710451796321500,2.916321533203125,0.280975341796875,-0.72760009765625,0.5486297607421875
1775710451806336800,2.926336669921875,0.2699127197265625,-0.729736328125,0.53662109375
1775710451816350700,2.936350830078125,0.2624969482421875,-0.7346343994140625,0.5296783447265625
1775710451826364700,2.94636474609375,0.2548370361328125,-0.7457122802734375,0.5298309326171875
1775710451836379600,2.956379638671875,0.25897216796875,-0.7518768310546875,0.53515625
1775710451846393600,2.9663935546875,0.266448974609375,-0.754058837890625,0.53936767578125
1775710451856407600,2.976407470703125,0.2633056640625,-0.7601318359375,0.5399932861328125
1775710451866422500,2.986422607421875,0.253662109375,-0.7656707763671875,0.5434112548828125
1775710451876436700,2.996436767578125,0.2430267333984375,-0.775299072265625,0.535980224609375
1775710451886451700,3.00645166015625,0.240814208984375,-0.792938232421875,0.521453857421875
1775710451896465700,3.016465576171875,0.2422943115234375,-0.8021240234375,0.50823974609375
1775710451906481000,3.02648095703125,0.230712890625,-0.8029327392578125,0.511932373046875
1775710451916494600,3.03649462890625,0.225128173828125,-0.8084716796875,0.53778076171875
1775710451926508500,3.046508544921875,0.2280426025390625,-0.80389404296875,0.55963134765625
1775710451936523800,3.056523681640625,0.23089599609375,-0.7944793701171875,0.5737152099609375
1775710451946537700,3.066537841796875,0.237152099609375,-0.789581298828125,0.5825653076171875
1775710451956552700,3.076552734375,0.2396087646484375,-0.7828369140625,0.5858917236328125
1775710451966567000,3.08656689453125,0.247711181640625,-0.7808380126953125,0.5939178466796875
1775710451976582000,3.096581787109375,0.2480621337890625,-0.77459716796875,0.591888427734375
1775710451986595600,3.106595703125,0.248870849609375,-0.764312744140625,0.57904052734375
1775710451996609800,3.11660986328125,0.250335693359375,-0.7579498291015625,0.5679779052734375
1775710452006624800,3.126624755859375,0.241180419921875,-0.74627685546875,0.553466796875
1775710452016638700,3.136638671875,0.23187255859375,-0.7340240478515625,0.5484619140625
1775710452026653700,3.14665380859375,0.2227783203125,-0.72222900390625,0.55523681640625
1775710452036667600,3.156667724609375,0.2088470458984375,-0.7060394287109375,0.57147216796875
1775710452046682600,3.1666826171875,0.200469970703125,-0.699066162109375,0.589324951171875
1775710452056696600,3.176696533203125,0.19091796875,-0.7043304443359375,0.604644775390625
1775710452066710800,3.186710693359375,0.2001190185546875,-0.7062835693359375,0.6150360107421875
1775710452076725800,3.196725830078125,0.20855712890625,-0.6994781494140625,0.6075592041015625
1775710452086739700,3.20673974609375,0.21484375,-0.7094268798828125,0.608367919921875
1775710452096754700,3.216754638671875,0.214630126953125,-0.7212982177734375,0.61053466796875
1775710452106768600,3.2267685546875,0.224884033203125,-0.7174072265625,0.600921630859375
1775710452116782600,3.236782470703125,0.2496490478515625,-0.722198486328125,0.5912322998046875
1775710452126797600,3.246797607421875,0.2816925048828125,-0.7259063720703125,0.580078125
1775710452136811800,3.256811767578125,0.288909912109375,-0.71844482421875,0.576080322265625
1775710452146826800,3.26682666015625,0.2860260009765625,-0.7205810546875,0.5925445556640625
1775710452156840700,3.2768408203125,0.2727203369140625,-0.719757080078125,0.6048736572265625
1775710452166856000,3.28685595703125,0.25860595703125,-0.7184295654296875,0.61651611328125
1775710452176869600,3.29686962890625,0.2585601806640625,-0.7239990234375,0.614044189453125
1775710452186883600,3.306883544921875,0.2558441162109375,-0.732757568359375,0.609130859375
1775710452196899000,3.316899169921875,0.24578857421875,-0.737579345703125,0.61260986328125
1775710452206913300,3.326913330078125,0.2588348388671875,-0.7363128662109375,0.6187744140625
1775710452216928300,3.33692822265625,0.27386474609375,-0.7474365234375,0.620819091796875
1775710452226942200,3.346942138671875,0.27435302734375,-0.7636566162109375,0.62774658203125
1775710452236957200,3.356957275390625,0.2755889892578125,-0.767547607421875,0.6363525390625
1775710452246971100,3.36697119140625,0.278839111328125,-0.7625732421875,0.636383056640625
1775710452256985000,3.376985107421875,0.299560546875,-0.7672271728515625,0.6374053955078125
1775710452267000300,3.387000244140625,0.3305816650390625,-0.77276611328125,0.6387939453125
1775710452277014300,3.39701416015625,0.34051513671875,-0.781768798828125,0.6383056640625
1775710452287029200,3.407029296875,0.337554931640625,-0.7919158935546875,0.6427001953125
1775710452297043200,3.417043212890625,0.33868408203125,-0.7983551025390625,0.644500732421875
1775710452307057200,3.42705712890625,0.3460693359375,-0.80133056640625,0.65203857421875
1775710452317072100,3.437072021484375,0.3418731689453125,-0.8105010986328125,0.675262451171875
1775710452327086300,3.44708642578125,0.3348541259765625,-0.81402587890625,0.6866302490234375
1775710452337101300,3.457101318359375,0.34454345703125,-0.807037353515625,0.684967041015625
1775710452347115300,3.467115234375,0.351531982421875,-0.8097076416015625,0.6744232177734375
1775710452357130200,3.477130126953125,0.365386962890625,-0.81201171875,0.661651611328125
1775710452367144400,3.48714453125,0.3652496337890625,-0.8027191162109375,0.6532135009765625
1775710452377158100,3.497158203125,0.3681488037109375,-0.794830322265625,0.6514739990234375
1775710452387173000,3.507173095703125,0.3644256591796875,-0.7887420654296875,0.6480560302734375
1775710452397187300,3.517187255859375,0.3619384765625,-0.7901763916015625,0.64404296875
1775710452407202300,3.527202392578125,0.3654327392578125,-0.78564453125,0.63397216796875
1775710452417216300,3.53721630859375,0.3686065673828125,-0.778076171875,0.6215972900390625
1775710452427231200,3.547231201171875,0.3721923828125,-0.773529052734375,0.610992431640625
1775710452437245200,3.5572451171875,0.3826446533203125,-0.7637939453125,0.604888916015625
1775710452447259100,3.567259033203125,0.3778839111328125,-0.75274658203125,0.5885009765625
1775710452457274000,3.577274169921875,0.3651885986328125,-0.7462310791015625,0.5746612548828125
1775710452467288300,3.587288330078125,0.3503265380859375,-0.7398681640625,0.5743255615234375
1775710452477303300,3.59730322265625,0.3282470703125,-0.7378082275390625,0.5745391845703125
1775710452487317200,3.607317138671875,0.3260650634765625,-0.73162841796875,0.5775909423828125
1775710452497331200,3.617331298828125,0.32904052734375,-0.7294921875,0.585052490234375
1775710452507346200,3.62734619140625,0.3255767822265625,-0.7326507568359375,0.5896453857421875
1775710452517360000,3.637360107421875,0.317718505859375,-0.7321319580078125,0.595977783203125
1775710452527375000,3.647375,0.31170654296875,-0.733154296875,0.60125732421875
1775710452537389300,3.657389404296875,0.2947235107421875,-0.7372283935546875,0.599517822265625
1775710452547403300,3.6674033203125,0.2918853759765625,-0.7317047119140625,0.5999755859375
1775710452557418200,3.677418212890625,0.292633056640625,-0.72882080078125,0.603057861328125
1775710452567432200,3.68743212890625,0.294891357421875,-0.7137451171875,0.6181488037109375
1775710452577447200,3.697447265625,0.30706787109375,-0.7159881591796875,0.6267547607421875
1775710452587461000,3.707461181640625,0.28515625,-0.7445220947265625,0.6170196533203125
1775710452597476400,3.717476318359375,0.27191162109375,-0.73651123046875,0.6158447265625
1775710452607490300,3.727490234375,0.270233154296875,-0.7312469482421875,0.6131591796875
1775710452617504300,3.737504150390625,0.273712158203125,-0.7279510498046875,0.6127471923828125
1775710452627519200,3.747519287109375,0.260650634765625,-0.71185302734375,0.6004486083984375
1775710452637533200,3.757533203125,0.24932861328125,-0.7047576904296875,0.59454345703125
1775710452647548200,3.767548095703125,0.23431396484375,-0.70550537109375,0.6027679443359375
1775710452657562400,3.777562255859375,0.21258544921875,-0.7001495361328125,0.6101531982421875
1775710452667576300,3.787576416015625,0.187652587890625,-0.6910552978515625,0.6185150146484375
1775710452677591300,3.79759130859375,0.172271728515625,-0.6790771484375,0.6243438720703125
1775710452687605200,3.807605224609375,0.1645965576171875,-0.6646881103515625,0.62860107421875
1775710452697620200,3.8176201171875,0.1695404052734375,-0.6593170166015625,0.618255615234375
1775710452707634200,3.82763427734375,0.1887969970703125,-0.6521148681640625,0.6101531982421875
1775710452717648400,3.8376484375,0.17877197265625,-0.637603759765625,0.6067962646484375
1775710452727663400,3.847663330078125,0.1614532470703125,-0.606597900390625,0.585357666015625
1775710452737677300,3.85767724609375,0.1759033203125,-0.5914306640625,0.5700225830078125
1775710452747692300,3.8676923828125,0.1865081787109375,-0.5863037109375,0.557525634765625
1775710452757706200,3.877706298828125,0.20458984375,-0.5659027099609375,0.53997802734375
1775710452767721200,3.88772119140625,0.2239990234375,-0.5572662353515625,0.54888916015625
1775710452777735200,3.897735107421875,0.2428436279296875,-0.5474700927734375,0.5818023681640625
1775710452787749400,3.907749267578125,0.236541748046875,-0.53375244140625,0.611846923828125
1775710452797764400,3.917764404296875,0.2161407470703125,-0.546783447265625,0.6402435302734375
1775710452807778300,3.9277783203125,0.186981201171875,-0.5619049072265625,0.664703369140625
1775710452817793000,3.93779296875,0.16241455078125,-0.5659942626953125,0.6692657470703125
1775710452827807200,3.94780712890625,0.178253173828125,-0.56414794921875,0.655853271484375
1775710452837821200,3.9578212890625,0.2057647705078125,-0.5801239013671875,0.654266357421875
1775710452847836200,3.967836181640625,0.215850830078125,-0.5927276611328125,0.64990234375
1775710452857850400,3.977850341796875,0.23638916015625,-0.6022186279296875,0.620849609375
1775710452867865300,3.987865234375,0.2678680419921875,-0.608734130859375,0.5839080810546875
1775710452877879000,3.997879150390625,0.2965545654296875,-0.6083526611328125,0.5378875732421875
1775710452887893200,4.007893310546875,0.3336029052734375,-0.6536407470703125,0.518218994140625
1775710452897908200,4.017908203125,0.3186492919921875,-0.707061767578125,0.5403900146484375
1775710452907922200,4.027922119140625,0.2684173583984375,-0.749267578125,0.582305908203125
1775710452917937200,4.037937255859375,0.2210693359375,-0.7751922607421875,0.627685546875
1775710452927951400,4.047951416015625,0.1815338134765625,-0.77899169921875,0.6683807373046875
1775710452937965000,4.057965087890625,0.168792724609375,-0.7783355712890625,0.686798095703125
1775710452947980300,4.067980224609375,0.1432037353515625,-0.778564453125,0.6818389892578125
1775710452957994200,4.077994140625,0.0996856689453125,-0.7891387939453125,0.675018310546875
1775710452968009200,4.08800927734375,0.0746612548828125,-0.808563232421875,0.6831817626953125
1775710452978023200,4.098023193359375,0.063995361328125,-0.83843994140625,0.683837890625
1775710452988037400,4.108037353515625,-0.0021209716796875,-0.856414794921875,0.65411376953125
1775710452998052400,4.11805224609375,0.01605224609375,-0.850006103515625,0.619781494140625
1775710453008066300,4.12806640625,0.059112548828125,-0.8373260498046875,0.6101531982421875
1775710453018081300,4.138081298828125,0.079742431640625,-0.8361968994140625,0.6270599365234375
1775710453028095200,4.14809521484375,0.0721893310546875,-0.828094482421875,0.6322784423828125
1775710453038109200,4.158109130859375,0.0402069091796875,-0.8087921142578125,0.646728515625
1775710453048124400,4.16812451171875,0.018035888671875,-0.793609619140625,0.7006072998046875
1775710453058138000,4.17813818359375,-0.0257415771484375,-0.791290283203125,0.7396697998046875
1775710453068153000,4.188153076171875,-0.0380401611328125,-0.804473876953125,0.73004150390625
1775710453078167300,4.198167236328125,-0.0184173583984375,-0.816070556640625,0.7035980224609375
1775710453088182300,4.208182373046875,0.0190887451171875,-0.824554443359375,0.686065673828125
1775710453098196200,4.2181962890625,0.0654754638671875,-0.818603515625,0.6494140625
1775710453108210400,4.22821044921875,0.089263916015625,-0.79852294921875,0.624969482421875
1775710453118225400,4.238225341796875,0.1187591552734375,-0.783477783203125,0.651580810546875
1775710453128239000,4.248239013671875,0.1012420654296875,-0.7670745849609375,0.6558380126953125
1775710453138254000,4.258254150390625,0.069305419921875,-0.75244140625,0.6430206298828125
1775710453148268300,4.268268310546875,0.0495452880859375,-0.7363739013671875,0.64111328125
1775710453158282200,4.2782822265625,0.033966064453125,-0.7262725830078125,0.651611328125
1775710453168297200,4.288297119140625,0.028839111328125,-0.7339324951171875,0.66339111328125
1775710453178311400,4.2983115234375,0.0322265625,-0.7393035888671875,0.6733245849609375
1775710453188326400,4.308326416015625,0.027587890625,-0.7405853271484375,0.671966552734375
1775710453198340000,4.318340087890625,0.0214385986328125,-0.7342376708984375,0.65533447265625
1775710453208354000,4.32835400390625,0.0308380126953125,-0.73565673828125,0.657135009765625
1775710453218369000,4.338369140625,0.067657470703125,-0.733978271484375,0.65802001953125
1775710453228383000,4.348383056640625,0.1354827880859375,-0.71453857421875,0.6231231689453125
1775710453238398000,4.35839794921875,0.1851654052734375,-0.678131103515625,0.595367431640625
1775710453248412200,4.368412109375,0.20440673828125,-0.6379852294921875,0.5850372314453125
1775710453258426000,4.378426025390625,0.2005615234375,-0.61871337890625,0.6167755126953125
1775710453268441000,4.388441162109375,0.1625518798828125,-0.612213134765625,0.6926422119140625
1775710453278455000,4.398455078125,0.1094970703125,-0.6328887939453125,0.759063720703125
1775710453288469000,4.408468994140625,0.0675811767578125,-0.64556884765625,0.7933197021484375
1775710453298484000,4.41848388671875,0.0353851318359375,-0.6244659423828125,0.763458251953125
1775710453308498200,4.428498291015625,0.03125,-0.5918731689453125,0.7176361083984375
1775710453318513200,4.43851318359375,0.038482666015625,-0.5517578125,0.6982269287109375
1775710453328526800,4.44852685546875,0.0414886474609375,-0.5321044921875,0.70733642578125
1775710453338542000,4.4585419921875,0.042022705078125,-0.5186614990234375,0.7545318603515625
1775710453348556000,4.46855615234375,0.0095367431640625,-0.5167999267578125,0.7982025146484375
1775710453358570000,4.478570068359375,-0.0221099853515625,-0.538360595703125,0.825653076171875
1775710453368585200,4.488585205078125,-0.0315704345703125,-0.573150634765625,0.863067626953125
1775710453378599200,4.49859912109375,-0.060211181640625,-0.6015167236328125,0.8920745849609375
1775710453388612900,4.50861279296875,-0.07977294921875,-0.6272735595703125,0.912445068359375
1775710453398628000,4.518628173828125,-0.0814971923828125,-0.6546783447265625,0.92364501953125
1775710453408642000,4.52864208984375,-0.060791015625,-0.662811279296875,0.898101806640625
1775710453418657000,4.538656982421875,-0.03045654296875,-0.6865692138671875,0.8663177490234375
1775710453428671200,4.548671142578125,-0.0030517578125,-0.728973388671875,0.8439788818359375
1775710453438685200,4.558685302734375,-0.0168609619140625,-0.73358154296875,0.828369140625
1775710453448700200,4.5687001953125,-0.055206298828125,-0.7068939208984375,0.8124542236328125
1775710453458714000,4.578714111328125,-0.08563232421875,-0.6992034912109375,0.814605712890625
1775710453468729000,4.58872900390625,-0.110504150390625,-0.692138671875,0.813568115234375
1775710453478743000,4.598742919921875,-0.1030731201171875,-0.69970703125,0.7915191650390625
1775710453488757200,4.60875732421875,-0.0740814208984375,-0.6838836669921875,0.7672576904296875
1775710453498772200,4.618772216796875,-0.0814361572265625,-0.6845245361328125,0.770660400390625
1775710453508786000,4.628785888671875,-0.1195220947265625,-0.719696044921875,0.8230743408203125
1775710453518801000,4.63880078125,-0.1383514404296875,-0.7266845703125,0.875640869140625
1775710453528815000,4.648815185546875,-0.1282196044921875,-0.692474365234375,0.857818603515625
1775710453538829000,4.6588291015625,-0.0909423828125,-0.682281494140625,0.7996368408203125
1775710453548844000,4.668843994140625,-0.076019287109375,-0.6579132080078125,0.767578125
1775710453558858200,4.678858154296875,-0.0793914794921875,-0.623321533203125,0.8239898681640625
1775710453568873200,4.688873291015625,-0.1029815673828125,-0.5801544189453125,0.9241943359375
1775710453578887000,4.698886962890625,-0.1258544921875,-0.5433502197265625,0.984710693359375
1775710453588901000,4.708901123046875,-0.106414794921875,-0.5399017333984375,0.9796142578125
1775710453598916000,4.718916015625,-0.07073974609375,-0.5391082763671875,0.93701171875
1775710453608930000,4.728929931640625,-0.0437164306640625,-0.547943115234375,0.9070587158203125
1775710453618945000,4.738945068359375,-0.0637969970703125,-0.5408782958984375,0.9004058837890625
1775710453628959200,4.748959228515625,-0.1274261474609375,-0.542724609375,0.9017486572265625
1775710453638973000,4.758972900390625,-0.1819000244140625,-0.555633544921875,0.9094390869140625
1775710453648988000,4.76898779296875,-0.2032318115234375,-0.5580291748046875,0.9268646240234375
1775710453659002000,4.779002197265625,-0.1761932373046875,-0.5728912353515625,0.916229248046875
1775710453669016000,4.78901611328125,-0.1366424560546875,-0.5930328369140625,0.8797454833984375
1775710453679031000,4.799031005859375,-0.0974884033203125,-0.6069183349609375,0.850128173828125
1775710453689045200,4.809045166015625,-0.0531463623046875,-0.6234893798828125,0.8070068359375
1775710453699060000,4.81906005859375,0.0090484619140625,-0.657073974609375,0.7648162841796875
1775710453709074000,4.829073974609375,0.069122314453125,-0.6687469482421875,0.719696044921875
1775710453719088000,4.839088134765625,0.1506500244140625,-0.6618804931640625,0.6859588623046875
1775710453729103000,4.84910302734375,0.2187652587890625,-0.6606292724609375,0.71649169921875
1775710453739117000,4.859116943359375,0.2119293212890625,-0.6537628173828125,0.7707672119140625
1775710453749132000,4.869132080078125,0.145172119140625,-0.662628173828125,0.86114501953125
1775710453759146000,4.87914599609375,0.08892822265625,-0.659515380859375,0.9407806396484375
1775710453769160000,4.889159912109375,0.0509185791015625,-0.6035308837890625,0.963470458984375
1775710453779175200,4.899175048828125,0.0364532470703125,-0.5467987060546875,0.9087982177734375
1775710453789189000,4.909189208984375,0.056671142578125,-0.50042724609375,0.8118133544921875
1775710453799204000,4.9192041015625,0.090179443359375,-0.4641571044921875,0.7574005126953125
1775710453809218000,4.929218017578125,0.08453369140625,-0.467742919921875,0.754058837890625
1775710453819232000,4.93923193359375,0.044525146484375,-0.4639129638671875,0.76226806640625
1775710453829247000,4.9492470703125,0.0310211181640625,-0.46917724609375,0.7957611083984375
1775710453839261000,4.959260986328125,0.02728271484375,-0.475738525390625,0.8494415283203125
1775710453849275100,4.969275146484375,0.0305023193359375,-0.4847412109375,0.9132232666015625
1775710453859290000,4.9792900390625,0.0495758056640625,-0.5274505615234375,0.9626617431640625
1775710453869304000,4.989303955078125,0.08978271484375,-0.5561065673828125,0.959686279296875
1775710453879319300,4.9993193359375,0.1481781005859375,-0.5749664306640625,0.9081268310546875
1775710453889333000,5.0093330078125,0.1967010498046875,-0.583251953125,0.81109619140625
1775710453899347000,5.019346923828125,0.23828125,-0.5725555419921875,0.714599609375
1775710453909362200,5.029362060546875,0.2435150146484375,-0.58074951171875,0.660186767578125
1775710453919376100,5.039376220703125,0.2034912109375,-0.59246826171875,0.6580657958984375
1775710453929391000,5.04939111328125,0.1359405517578125,-0.6094970703125,0.7335052490234375
1775710453939405000,5.059405029296875,0.0674591064453125,-0.625701904296875,0.8162384033203125
1775710453949419000,5.0694189453125,0.0046539306640625,-0.6409759521484375,0.8793792724609375
1775710453959434000,5.07943408203125,-0.0456085205078125,-0.6431732177734375,0.9241485595703125
1775710453969448200,5.0894482421875,-0.0760345458984375,-0.643707275390625,0.9423828125
1775710453979462100,5.099462158203125,-0.0782470703125,-0.6331024169921875,0.930450439453125
1775710453989477000,5.10947705078125,-0.036956787109375,-0.610931396484375,0.87896728515625
1775710453999491000,5.119490966796875,0.015472412109375,-0.593231201171875,0.8147125244140625
1775710454009506000,5.129506103515625,0.0382080078125,-0.5678253173828125,0.7941436767578125
1775710454019520000,5.13952001953125,0.0257568359375,-0.5376434326171875,0.8200531005859375
1775710454029534200,5.1495341796875,0.0043792724609375,-0.5308837890625,0.857757568359375
1775710454039549200,5.159549072265625,-0.0227813720703125,-0.5361328125,0.895751953125
1775710454049563100,5.169563232421875,-0.0315704345703125,-0.5459747314453125,0.93939208984375
1775710454059577000,5.1795771484375,-0.0113677978515625,-0.5424957275390625,0.96240234375
1775710454069592000,5.189592041015625,-0.0009918212890625,-0.5102386474609375,0.9467926025390625
1775710454079606000,5.19960595703125,0.009307861328125,-0.4998931884765625,0.90399169921875
1775710454089621000,5.20962109375,0.0280303955078125,-0.4703216552734375,0.845001220703125
1775710454099635200,5.21963525390625,0.0535888671875,-0.445220947265625,0.790191650390625
1775710454109649200,5.229649169921875,0.0581207275390625,-0.437164306640625,0.749237060546875
1775710454119664000,5.2396640625,0.0655364990234375,-0.4392242431640625,0.75933837890625
1775710454129678000,5.249677978515625,0.069305419921875,-0.4563140869140625,0.8211669921875
1775710454139693000,5.259693115234375,0.046630859375,-0.4913330078125,0.8895263671875
1775710454149707000,5.26970703125,0.0179901123046875,-0.55377197265625,0.9394073486328125
1775710454159721200,5.27972119140625,-0.0042724609375,-0.6067047119140625,0.95147705078125
1775710454169736200,5.289736083984375,-0.0303192138671875,-0.636749267578125,0.9506378173828125
1775710454179750000,5.29975,-0.0597076416015625,-0.643310546875,0.95355224609375
1775710454189764000,5.30976416015625,-0.07440185546875,-0.6533660888671875,0.936126708984375
1775710454199778800,5.31977880859375,-0.057769775390625,-0.6563262939453125,0.8882598876953125
1775710454209792500,5.32979248046875,-0.030487060546875,-0.6567840576171875,0.839874267578125
1775710454219807700,5.339807861328125,-0.0014190673828125,-0.662628173828125,0.824676513671875
1775710454229821700,5.34982177734375,0.0186614990234375,-0.677520751953125,0.8315582275390625
1775710454239835600,5.359835693359375,0.0478057861328125,-0.694549560546875,0.8506011962890625
1775710454249850600,5.3698505859375,0.0855560302734375,-0.704559326171875,0.86883544921875
1775710454259864800,5.37986474609375,0.1144256591796875,-0.7005615234375,0.88592529296875
1775710454269878500,5.38987841796875,0.1116790771484375,-0.68804931640625,0.9066925048828125
1775710454279893800,5.399893798828125,0.0829925537109375,-0.6456298828125,0.9063262939453125
1775710454289907700,5.40990771484375,0.0388946533203125,-0.6634521484375,0.9499053955078125
1775710454299922700,5.419922607421875,0.0108184814453125,-0.6475830078125,0.967010498046875
1775710454309936600,5.4299365234375,-0.0022125244140625,-0.6305389404296875,0.958251953125
1775710454319950600,5.43995068359375,0.0044097900390625,-0.6278533935546875,0.92364501953125
1775710454329965600,5.449965576171875,0.0296478271484375,-0.6151580810546875,0.88067626953125
1775710454339979800,5.459979736328125,0.06597900390625,-0.6162261962890625,0.8363037109375
1775710454349993700,5.46999365234375,0.1122589111328125,-0.614349365234375,0.7740936279296875
1775710454360008700,5.4800087890625,0.166473388671875,-0.60101318359375,0.7348480224609375
1775710454370022700,5.490022705078125,0.20660400390625,-0.592681884765625,0.7444610595703125
1775710454380036600,5.50003662109375,0.222412109375,-0.5874786376953125,0.7691497802734375
1775710454390051600,5.510051513671875,0.22076416015625,-0.573089599609375,0.8047332763671875
1775710454400065500,5.5200654296875,0.205474853515625,-0.57513427734375,0.8513031005859375
1775710454410080800,5.530080810546875,0.180328369140625,-0.5922088623046875,0.88427734375
1775710454420094700,5.5400947265625,0.1459808349609375,-0.6172943115234375,0.8969573974609375
1775710454430108700,5.550108642578125,0.120697021484375,-0.665985107421875,0.8775177001953125
1775710454440124000,5.5601240234375,0.1053009033203125,-0.6876678466796875,0.813568115234375
1775710454450137600,5.5701376953125,0.1100006103515625,-0.67486572265625,0.73583984375
1775710454460151600,5.580151611328125,0.1277313232421875,-0.671173095703125,0.70806884765625
1775710454470166800,5.590166748046875,0.1385345458984375,-0.669525146484375,0.7139434814453125
1775710454480180700,5.6001806640625,0.147369384765625,-0.654449462890625,0.7256011962890625
1775710454490195700,5.61019580078125,0.13824462890625,-0.6425628662109375,0.754852294921875
1775710454500210000,5.6202099609375,0.1102294921875,-0.625335693359375,0.7707672119140625
1775710454510223600,5.6302236328125,0.0908660888671875,-0.6395263671875,0.805755615234375
1775710454520238600,5.640238525390625,0.0995941162109375,-0.66009521484375,0.853759765625
1775710454530252800,5.650252685546875,0.15093994140625,-0.6274261474609375,0.8656463623046875
1775710454540266800,5.660266845703125,0.17730712890625,-0.6696624755859375,0.9118499755859375
1775710454550281700,5.67028173828125,0.1900787353515625,-0.7188873291015625,0.9559173583984375
1775710454560295700,5.680295654296875,0.2501373291015625,-0.664581298828125,0.8895721435546875
1775710454570310700,5.690310546875,0.31890869140625,-0.6541748046875,0.811859130859375
1775710454580324600,5.70032470703125,0.3715972900390625,-0.664459228515625,0.7684478759765625
1775710454590338800,5.7103388671875,0.3822479248046875,-0.6667938232421875,0.7491455078125
1775710454600353800,5.720353759765625,0.361785888671875,-0.6678009033203125,0.7521820068359375
1775710454610367700,5.73036767578125,0.3312530517578125,-0.666961669921875,0.7561187744140625
1775710454620381700,5.740381591796875,0.2905731201171875,-0.6549835205078125,0.7581939697265625
1775710454630396700,5.750396728515625,0.2646331787109375,-0.649871826171875,0.776947021484375
1775710454640410600,5.76041064453125,0.242889404296875,-0.64788818359375,0.8100738525390625
1775710454650424800,5.7704248046875,0.220428466796875,-0.6531829833984375,0.812744140625
1775710454660439800,5.780439697265625,0.224273681640625,-0.6448822021484375,0.783782958984375
1775710454670453800,5.790453857421875,0.2194671630859375,-0.6522979736328125,0.7646484375
1775710454680468700,5.80046875,0.215484619140625,-0.6627960205078125,0.7563934326171875
1775710454690482700,5.810482666015625,0.2439727783203125,-0.6533355712890625,0.75482177734375
1775710454700496600,5.82049658203125,0.285858154296875,-0.641571044921875,0.7647552490234375
1775710454710511600,5.83051171875,0.3455352783203125,-0.6212310791015625,0.761199951171875
1775710454720525800,5.84052587890625,0.406463623046875,-0.590362548828125,0.7542724609375
1775710454730539800,5.850539794921875,0.41912841796875,-0.587432861328125,0.7647552490234375
1775710454740554800,5.8605546875,0.3956451416015625,-0.59161376953125,0.779205322265625
1775710454750568700,5.870568603515625,0.3828582763671875,-0.5883026123046875,0.792236328125
1775710454760583700,5.880583740234375,0.3467559814453125,-0.591461181640625,0.8136444091796875
1775710454770597600,5.89059765625,0.3043212890625,-0.5770416259765625,0.8044891357421875
1775710454780611800,5.90061181640625,0.2824859619140625,-0.5487213134765625,0.792633056640625
1775710454790626800,5.910626708984375,0.2534637451171875,-0.531982421875,0.7893829345703125
1775710454800640500,5.920640625,0.2310028076171875,-0.53399658203125,0.7895965576171875
1775710454810654700,5.93065478515625,0.2239837646484375,-0.5381927490234375,0.7965240478515625
1775710454820669700,5.940669677734375,0.2239227294921875,-0.5264129638671875,0.8125152587890625
1775710454830683600,5.95068359375,0.2181854248046875,-0.5259857177734375,0.835723876953125
1775710454840697900,5.96069775390625,0.2114105224609375,-0.5349884033203125,0.8431549072265625
1775710454850712800,5.970712890625,0.2082366943359375,-0.532562255859375,0.8277587890625
1775710454860726500,5.9807265625,0.2140045166015625,-0.52294921875,0.8059844970703125
1775710454870741500,5.990741455078125,0.22100830078125,-0.5333251953125,0.7778472900390625
1775710454880755700,6.000755615234375,0.2311553955078125,-0.5425567626953125,0.7444000244140625
1775710454890769700,6.010769775390625,0.2206268310546875,-0.5407867431640625,0.7166900634765625
1775710454900784600,6.02078466796875,0.1927642822265625,-0.5398101806640625,0.69512939453125
1775710454910798800,6.030798828125,0.1732635498046875,-0.533599853515625,0.684417724609375
1775710454920812500,6.0408125,0.140289306640625,-0.537078857421875,0.688873291015625
1775710454930827500,6.05082763671875,0.1125335693359375,-0.53521728515625,0.683380126953125
1775710454940841700,6.060841796875,0.0962982177734375,-0.532745361328125,0.69122314453125
1775710454950855700,6.070855712890625,0.0672760009765625,-0.544891357421875,0.7172393798828125
1775710454960870700,6.08087060546875,0.0488739013671875,-0.5505523681640625,0.7269287109375
1775710454970884900,6.090884765625,0.0689239501953125,-0.5458831787109375,0.7028350830078125
1775710454980899800,6.10089990234375,0.0985565185546875,-0.552032470703125,0.6741180419921875
1775710454990913500,6.11091357421875,0.13525390625,-0.54730224609375,0.646759033203125
1775710455000927700,6.120927734375,0.1745758056640625,-0.555389404296875,0.6610107421875
1775710455010942700,6.130942626953125,0.1857452392578125,-0.5720062255859375,0.6822662353515625
1775710455020956700,6.140956787109375,0.1975860595703125,-0.585174560546875,0.7089385986328125
1775710455030971000,6.150970947265625,0.1897125244140625,-0.5986480712890625,0.7337188720703125
1775710455040985600,6.160985595703125,0.183135986328125,-0.591400146484375,0.74261474609375
1775710455050999600,6.17099951171875,0.178314208984375,-0.577545166015625,0.756134033203125
1775710455061013800,6.181013671875,0.144744873046875,-0.5713043212890625,0.771759033203125
1775710455071028700,6.19102880859375,0.1067352294921875,-0.579132080078125,0.80194091796875
1775710455081042700,6.201042724609375,0.07489013671875,-0.5738677978515625,0.796722412109375
1775710455091056600,6.211056640625,0.0627899169921875,-0.5749359130859375,0.7745513916015625
1775710455101071600,6.221071533203125,0.044158935546875,-0.5908966064453125,0.738433837890625
1775710455111085600,6.23108544921875,0.0305938720703125,-0.579498291015625,0.69757080078125
1775710455121100500,6.2411005859375,0.0367279052734375,-0.564697265625,0.68133544921875
1775710455131114800,6.25111474609375,0.03564453125,-0.560791015625,0.693115234375
1775710455141128700,6.261128662109375,0.0207977294921875,-0.5979766845703125,0.7553253173828125
1775710455151143700,6.271143798828125,0.0142822265625,-0.617401123046875,0.809112548828125
1775710455161157600,6.28115771484375,0.0385284423828125,-0.605072021484375,0.870635986328125
1775710455171171600,6.291171630859375,0.081268310546875,-0.6186065673828125,0.928558349609375
1775710455181186600,6.3011865234375,0.1353607177734375,-0.60113525390625,0.9133758544921875
1775710455191200800,6.31120068359375,0.187713623046875,-0.58660888671875,0.87615966796875
1775710455201214700,6.321214599609375,0.2220306396484375,-0.56170654296875,0.8110198974609375
1775710455211229700,6.331229736328125,0.2578887939453125,-0.5302734375,0.7459716796875
1775710455221244000,6.341243896484375,0.250152587890625,-0.5187835693359375,0.728668212890625
1775710455231257900,6.3512578125,0.2016143798828125,-0.5151824951171875,0.738525390625
1775710455241272800,6.36127294921875,0.1351776123046875,-0.5362701416015625,0.7865753173828125
1775710455251286800,6.371286865234375,0.045989990234375,-0.520965576171875,0.8090667724609375
1775710455261300700,6.38130078125,0.00604248046875,-0.4739837646484375,0.7888641357421875
1775710455271315700,6.391315673828125,-0.0050048828125,-0.433990478515625,0.738311767578125
1775710455281330000,6.401329833984375,-0.0244140625,-0.4005279541015625,0.6610565185546875
1775710455291345000,6.411344970703125,-0.02069091796875,-0.3792877197265625,0.6129913330078125
1775710455301358800,6.42135888671875,-0.00482177734375,-0.3568572998046875,0.5710601806640625
1775710455311372800,6.431372802734375,0.010284423828125,-0.3643798828125,0.586456298828125
1775710455321387800,6.4413876953125,0.00927734375,-0.3921356201171875,0.6519317626953125
1775710455331401700,6.451401611328125,-0.0019989013671875,-0.4125823974609375,0.6781158447265625
1775710455341416000,6.461416015625,-0.025604248046875,-0.4221343994140625,0.6910552978515625
1775710455351431000,6.471430908203125,-0.0406951904296875,-0.42626953125,0.690704345703125
1775710455361444600,6.481444580078125,-0.0374603271484375,-0.425628662109375,0.6938934326171875
1775710455371458800,6.491458740234375,-0.0370941162109375,-0.4285736083984375,0.715728759765625
1775710455381473800,6.501473876953125,-0.0362548828125,-0.445404052734375,0.748931884765625
1775710455391487700,6.51148779296875,-0.0152740478515625,-0.4725799560546875,0.7791290283203125
1775710455401502000,6.521501953125,0.016845703125,-0.5204010009765625,0.8129119873046875
1775710455411517000,6.531516845703125,0.0425567626953125,-0.5694427490234375,0.8115081787109375
1775710455421530600,6.541530517578125,0.0776824951171875,-0.59759521484375,0.764739990234375
1775710455431544800,6.551544921875,0.120391845703125,-0.61871337890625,0.686004638671875
1775710455441559800,6.561559814453125,0.1390380859375,-0.6639556884765625,0.6438446044921875
1775710455451573800,6.57157373046875,0.1414794921875,-0.6962127685546875,0.629547119140625
1775710455461588700,6.581588623046875,0.1605224609375,-0.7060089111328125,0.6464691162109375
1775710455471603000,6.59160302734375,0.1612548828125,-0.710601806640625,0.6770477294921875
1775710455481616600,6.60161669921875,0.1741485595703125,-0.712005615234375,0.699493408203125
1775710455491631900,6.6116318359375,0.206512451171875,-0.7153472900390625,0.7145843505859375
1775710455501645800,6.621645751953125,0.1901702880859375,-0.7073516845703125,0.7307891845703125
1775710455511659800,6.63165966796875,0.1458740234375,-0.69769287109375,0.7412567138671875
1775710455521674800,6.6416748046875,0.0951385498046875,-0.7066497802734375,0.7453765869140625
1775710455531689000,6.65168896484375,0.022216796875,-0.697845458984375,0.746063232421875
1775710455541702700,6.66170263671875,-0.0160064697265625,-0.6762847900390625,0.72882080078125
1775710455551717600,6.671717529296875,-0.03289794921875,-0.658355712890625,0.70361328125
1775710455561731800,6.68173193359375,-0.0382232666015625,-0.6497955322265625,0.6880035400390625
1775710455571745800,6.691745849609375,-0.0301666259765625,-0.6557769775390625,0.68914794921875
1775710455581760800,6.7017607421875,-0.0502166748046875,-0.6751556396484375,0.6967926025390625
1775710455591775000,6.71177490234375,-0.0800628662109375,-0.6952667236328125,0.7108306884765625
1775710455601788700,6.72178857421875,-0.0998077392578125,-0.70904541015625,0.723724365234375
1775710455611803600,6.7318037109375,-0.100830078125,-0.7060394287109375,0.708587646484375
1775710455621817900,6.74181787109375,-0.08831787109375,-0.694091796875,0.6942901611328125
1775710455631831800,6.751831787109375,-0.0716094970703125,-0.7022705078125,0.6924896240234375
1775710455641846800,6.7618466796875,-0.042236328125,-0.7231597900390625,0.6858673095703125
1775710455651860700,6.77186083984375,-0.013275146484375,-0.74053955078125,0.695037841796875
1775710455661874700,6.781874755859375,-0.004180908203125,-0.7509002685546875,0.70404052734375
1775710455671889700,6.7918896484375,-0.0105438232421875,-0.7504730224609375,0.6998443603515625
1775710455681903900,6.80190380859375,-0.007171630859375,-0.727020263671875,0.6573333740234375
1775710455691917800,6.811917724609375,0.0109100341796875,-0.718780517578125,0.6225738525390625
1775710455701932800,6.821932861328125,0.036346435546875,-0.71307373046875,0.599609375
1775710455711946800,6.83194677734375,0.05902099609375,-0.7154998779296875,0.59527587890625
1775710455721960700,6.841960693359375,0.078338623046875,-0.7181396484375,0.6109619140625
1775710455731975700,6.8519755859375,0.085357666015625,-0.71820068359375,0.6307525634765625
1775710455741990000,6.861989990234375,0.0757904052734375,-0.7204742431640625,0.6505584716796875
1775710455752003800,6.87200390625,0.0444488525390625,-0.716552734375,0.639312744140625
1775710455762018800,6.882018798828125,-0.004486083984375,-0.713714599609375,0.60382080078125
1775710455772032800,6.89203271484375,-0.0514984130859375,-0.7042694091796875,0.5787506103515625
1775710455782047700,6.9020478515625,-0.1255035400390625,-0.6793975830078125,0.571044921875
1775710455792061700,6.912061767578125,-0.1939697265625,-0.6421966552734375,0.5742645263671875
1775710455802076000,6.922075927734375,-0.23590087890625,-0.58526611328125,0.589141845703125
1775710455812091000,6.9320908203125,-0.2553863525390625,-0.5405731201171875,0.6183319091796875
1775710455822104800,6.942104736328125,-0.2437591552734375,-0.5139617919921875,0.6615447998046875
1775710455832118800,6.952118896484375,-0.1867828369140625,-0.503143310546875,0.6926422119140625
1775710455842133800,6.9621337890625,-0.10772705078125,-0.51666259765625,0.7404937744140625
1775710455852147700,6.972147705078125,-0.0240478515625,-0.5443115234375,0.7989501953125
1775710455862162000,6.982161865234375,0.0649261474609375,-0.5777740478515625,0.788970947265625
1775710455872177000,6.992177001953125,0.1020965576171875,-0.5875396728515625,0.7159271240234375
1775710455882190800,7.00219091796875,0.071685791015625,-0.567962646484375,0.6250762939453125
1775710455892204800,7.012204833984375,0.020263671875,-0.566131591796875,0.58587646484375
1775710455902219800,7.0222197265625,-0.0459136962890625,-0.591339111328125,0.606170654296875
1775710455912233700,7.032233642578125,-0.085723876953125,-0.606109619140625,0.6394195556640625
1775710455922248000,7.042248046875,-0.0372161865234375,-0.608001708984375,0.682281494140625
1775710455932263000,7.052262939453125,0.0855865478515625,-0.5997161865234375,0.7205657958984375
1775710455942276600,7.062276611328125,0.237274169921875,-0.6175689697265625,0.7382049560546875
1775710455952290800,7.072290771484375,0.3600616455078125,-0.6388092041015625,0.706451416015625
1775710455962305800,7.082305908203125,0.4382781982421875,-0.648284912109375,0.6856842041015625
1775710455972319700,7.09231982421875,0.4322052001953125,-0.63623046875,0.6734161376953125
1775710455982334000,7.102333984375,0.3533172607421875,-0.6024017333984375,0.660919189453125
1775710455992349000,7.112348876953125,0.2260894775390625,-0.588958740234375,0.71746826171875
1775710456002362600,7.122362548828125,0.07513427734375,-0.56988525390625,0.7954559326171875
1775710456012376800,7.132376953125,0.0060272216796875,-0.5282135009765625,0.8680419921875
1775710456022391800,7.142391845703125,0.0023040771484375,-0.488922119140625,0.8914031982421875
1775710456032405800,7.15240576171875,0.0220184326171875,-0.496185302734375,0.8814544677734375
1775710456042420000,7.162419921875,0.08935546875,-0.509765625,0.8472900390625
1775710456052435000,7.17243505859375,0.1782989501953125,-0.4690704345703125,0.776702880859375
1775710456062448600,7.18244873046875,0.246337890625,-0.452972412109375,0.72845458984375
1775710456072462800,7.192462890625,0.257537841796875,-0.445648193359375,0.70135498046875
1775710456082477800,7.202477783203125,0.1945648193359375,-0.456085205078125,0.7298431396484375
1775710456092491800,7.21249169921875,0.0938568115234375,-0.4883270263671875,0.813201904296875
1775710456102506000,7.222506103515625,0.0152587890625,-0.5141448974609375,0.8739166259765625
1775710456112521000,7.23252099609375,-0.00762939453125,-0.5233001708984375,0.883270263671875
1775710456122534700,7.24253466796875,0.004150390625,-0.523834228515625,0.8477630615234375
1775710456132548900,7.252548828125,0.037994384765625,-0.5273895263671875,0.789642333984375
1775710456142563800,7.262563720703125,0.10003662109375,-0.535308837890625,0.73297119140625
1775710456152577800,7.272577880859375,0.1477813720703125,-0.5425262451171875,0.6983642578125
1775710456162592000,7.282592041015625,0.1711883544921875,-0.5549468994140625,0.6729736328125
1775710456172606700,7.292606689453125,0.1835784912109375,-0.5845794677734375,0.6741485595703125
1775710456182620700,7.30262060546875,0.1616973876953125,-0.6179046630859375,0.713836669921875
1775710456192635000,7.312634765625,0.0990753173828125,-0.658416748046875,0.7839508056640625
1775710456202649600,7.322649658203125,0.0683135986328125,-0.707061767578125,0.8609466552734375
1775710456212663300,7.332663330078125,0.041229248046875,-0.7028961181640625,0.8932342529296875
1775710456222677500,7.342677490234375,0.0446014404296875,-0.6897125244140625,0.8885650634765625
1775710456232692500,7.3526923828125,0.039947509765625,-0.671295166015625,0.8659515380859375
1775710456242706400,7.36270654296875,0.0228118896484375,-0.651153564453125,0.8252410888671875
1775710456252720600,7.372720703125,0.0128936767578125,-0.636871337890625,0.767913818359375
1775710456262735600,7.382735595703125,-0.0054931640625,-0.6358642578125,0.701568603515625
1775710456272749300,7.392749267578125,-0.02215576171875,-0.6429901123046875,0.6656494140625
1775710456282763500,7.402763427734375,-0.0525054931640625,-0.6419830322265625,0.673797607421875
1775710456292778500,7.412778564453125,-0.103729248046875,-0.6424713134765625,0.7210540771484375
1775710456302792400,7.42279248046875,-0.152923583984375,-0.6422882080078125,0.788787841796875
1775710456312806700,7.432806640625,-0.1796112060546875,-0.6398773193359375,0.82464599609375
1775710456322821400,7.4428212890625,-0.1824951171875,-0.6400909423828125,0.8171234130859375
1775710456332835300,7.45283544921875,-0.1452178955078125,-0.641326904296875,0.7935333251953125
1775710456342849500,7.462849609375,-0.09564208984375,-0.632415771484375,0.75164794921875
1775710456352863500,7.472863525390625,-0.039215087890625,-0.624114990234375,0.71405029296875
1775710456362878500,7.48287841796875,-0.019378662109375,-0.60992431640625,0.7042694091796875
1775710456372892400,7.492892333984375,-0.0635833740234375,-0.6033782958984375,0.7277984619140625
1775710456382907400,7.502907470703125,-0.1054229736328125,-0.6056976318359375,0.7552642822265625
1775710456392921300,7.51292138671875,-0.13128662109375,-0.621551513671875,0.7746429443359375
1775710456402935600,7.522935546875,-0.1190338134765625,-0.6567840576171875,0.7846527099609375
1775710456412949500,7.532949462890625,-0.1122894287109375,-0.67437744140625,0.77545166015625
1775710456422964500,7.542964599609375,-0.1121978759765625,-0.70318603515625,0.75506591796875
1775710456432978400,7.552978515625,-0.08953857421875,-0.7163848876953125,0.7158966064453125
1775710456442992400,7.562992431640625,-0.046295166015625,-0.7176361083984375,0.6533966064453125
1775710456453007400,7.57300732421875,0.0303497314453125,-0.7056427001953125,0.56500244140625
1775710456463021600,7.583021484375,0.0601959228515625,-0.692474365234375,0.52435302734375
1775710456473035500,7.593035400390625,-0.0062255859375,-0.6964569091796875,0.57147216796875
1775710456483050500,7.603050537109375,-0.1122283935546875,-0.6783294677734375,0.65350341796875
1775710456493064400,7.613064453125,-0.20770263671875,-0.6722564697265625,0.737579345703125
1775710456503078400,7.623078369140625,-0.2716522216796875,-0.6683807373046875,0.7592315673828125
1775710456513093400,7.63309326171875,-0.26947021484375,-0.682098388671875,0.758392333984375
1775710456523107600,7.643107666015625,-0.2255096435546875,-0.6872711181640625,0.73284912109375
1775710456533121500,7.65312158203125,-0.160186767578125,-0.6768798828125,0.6980133056640625
1775710456543136500,7.663136474609375,-0.1002044677734375,-0.678192138671875,0.6767578125
1775710456553150500,7.673150390625,-0.04888916015625,-0.6854705810546875,0.6694488525390625
1775710456563164400,7.683164306640625,-0.03778076171875,-0.6814117431640625,0.711883544921875
1775710456573179400,7.693179443359375,-0.087158203125,-0.7081298828125,0.782958984375
1775710456583193600,7.703193603515625,-0.1396636962890625,-0.727813720703125,0.828857421875
1775710456593207600,7.71320751953125,-0.18707275390625,-0.7218017578125,0.8571014404296875
1775710456603222500,7.723222412109375,-0.2101593017578125,-0.7077484130859375,0.86968994140625
1775710456613236500,7.733236572265625,-0.2016448974609375,-0.668060302734375,0.847076416015625
1775710456623250400,7.74325048828125,-0.1785736083984375,-0.6417236328125,0.8316192626953125
1775710456633265400,7.753265380859375,-0.1680755615234375,-0.63018798828125,0.8192138671875
1775710456643279600,7.763279541015625,-0.153350830078125,-0.6181793212890625,0.8172149658203125
1775710456653293600,7.77329345703125,-0.1231689453125,-0.616424560546875,0.8173370361328125
1775710456663307500,7.7833076171875,-0.1155242919921875,-0.622222900390625,0.824737548828125
1775710456673322500,7.793322509765625,-0.103546142578125,-0.629150390625,0.825408935546875
1775710456683336400,7.80333642578125,-0.0742950439453125,-0.6321868896484375,0.819732666015625
1775710456693350700,7.8133505859375,-0.0501556396484375,-0.6134490966796875,0.8100128173828125
1775710456703365600,7.82336572265625,-0.04339599609375,-0.59686279296875,0.835601806640625
1775710456713379300,7.83337939453125,-0.047088623046875,-0.58734130859375,0.852935791015625
1775710456723393500,7.8433935546875,-0.0361328125,-0.5904083251953125,0.8491668701171875
1775710456733408500,7.853408447265625,0.0121917724609375,-0.6006927490234375,0.8241119384765625
1775710456743422500,7.86342236328125,0.0609588623046875,-0.6087799072265625,0.796478271484375
1775710456753436700,7.873436767578125,0.0699462890625,-0.6067352294921875,0.7804107666015625
1775710456763451600,7.88345166015625,0.056304931640625,-0.629669189453125,0.7796783447265625
1775710456773465300,7.89346533203125,0.0629425048828125,-0.6390533447265625,0.7646331787109375
1775710456783479600,7.9034794921875,0.07763671875,-0.656280517578125,0.75885009765625
1775710456793494500,7.91349462890625,0.10284423828125,-0.6870574951171875,0.754608154296875
1775710456803508500,7.923508544921875,0.11614990234375,-0.6937713623046875,0.73675537109375
1775710456813522700,7.933522705078125,0.1397705078125,-0.69873046875,0.709136962890625
1775710456823537700,7.94353759765625,0.165863037109375,-0.6801605224609375,0.68902587890625
1775710456833551400,7.95355126953125,0.1797637939453125,-0.6690216064453125,0.688201904296875
1775710456843565600,7.963565673828125,0.1893157958984375,-0.6860504150390625,0.6903839111328125
1775710456853579500,7.97357958984375,0.2150421142578125,-0.6836090087890625,0.6791229248046875
1775710456863594500,7.983594482421875,0.261932373046875,-0.6851806640625,0.6648712158203125
1775710456873608700,7.993608642578125,0.2917022705078125,-0.6924896240234375,0.6748504638671875
1775710456883622400,8.003622314453125,0.2800140380859375,-0.682281494140625,0.7000885009765625
1775710456893637400,8.013637451171874,0.248748779296875,-0.6900177001953125,0.725677490234375
1775710456903651600,8.023651611328125,0.226409912109375,-0.6545257568359375,0.7219696044921875
1775710456913665500,8.03366552734375,0.124786376953125,-0.6175994873046875,0.75341796875
1775710456923680500,8.043680419921875,0.002899169921875,-0.60260009765625,0.8105926513671875
1775710456933694700,8.05369482421875,-0.0671234130859375,-0.580535888671875,0.8710479736328125
1775710456943708400,8.06370849609375,-0.1293792724609375,-0.59796142578125,0.9211883544921875
1775710456953723400,8.073723388671874,-0.1315155029296875,-0.629913330078125,0.9283905029296875
1775710456963737600,8.083737548828125,-0.0720672607421875,-0.632598876953125,0.8905181884765625
1775710456973751600,8.09375146484375,0.008514404296875,-0.644683837890625,0.8274688720703125
1775710456983766500,8.1037666015625,0.1019439697265625,-0.634368896484375,0.760284423828125
1775710456993780500,8.113780517578125,0.154022216796875,-0.6300811767578125,0.7457427978515625
1775710457003794400,8.12379443359375,0.160980224609375,-0.630126953125,0.7708892822265625
1775710457013808400,8.133808349609374,0.1100921630859375,-0.6167449951171875,0.81512451171875
1775710457023823600,8.14382373046875,0.0328216552734375,-0.6203460693359375,0.860443115234375
1775710457033837600,8.153837646484375,-0.0159912109375,-0.6151885986328125,0.870086669921875
1775710457043851300,8.163851318359375,-0.0374908447265625,-0.6088409423828125,0.871856689453125
1775710457053866500,8.173866455078125,-0.0247039794921875,-0.63671875,0.8782806396484375
1775710457063880400,8.18388037109375,0.0439453125,-0.6332550048828125,0.878753662109375
1775710457073894400,8.193894287109375,0.116485595703125,-0.6165924072265625,0.8950347900390625
1775710457083909600,8.20390966796875,0.1696319580078125,-0.6416015625,0.9062652587890625
1775710457093923600,8.213923583984375,0.21783447265625,-0.6227264404296875,0.882598876953125
1775710457103937300,8.223937255859376,0.199249267578125,-0.5927886962890625,0.8723297119140625
1775710457113952500,8.233952392578125,0.1505279541015625,-0.565216064453125,0.880340576171875
1775710457123966500,8.243966552734374,0.0525054931640625,-0.5295257568359375,0.9022674560546875
1775710457133980400,8.25398046875,-0.017974853515625,-0.5423583984375,0.93817138671875
1775710457143994600,8.26399462890625,-0.043182373046875,-0.531097412109375,0.969329833984375
1775710457154009600,8.274009521484375,-0.0521697998046875,-0.5485992431640625,1.0192108154296875
1775710457164023300,8.284023193359374,-0.0240325927734375,-0.5394744873046875,1.0241851806640625
1775710457174037500,8.29403759765625,0.0120697021484375,-0.5423736572265625,1.0109710693359375
1775710457184052500,8.304052490234374,0.0662689208984375,-0.5821990966796875,0.99072265625
1775710457194066400,8.31406640625,0.116729736328125,-0.62158203125,0.9911346435546875
1775710457204080600,8.32408056640625,0.1233367919921875,-0.6613311767578125,0.9937591552734375
1775710457214095600,8.334095703125,0.0375213623046875,-0.6745147705078125,0.965850830078125
1775710457224109600,8.344109619140625,-0.074493408203125,-0.7197113037109375,0.9097900390625
1775710457234123500,8.35412353515625,-0.1337127685546875,-0.746490478515625,0.80889892578125
1775710457244137500,8.364137451171874,-0.1851654052734375,-0.77252197265625,0.702728271484375
1775710457254152400,8.37415234375,-0.2141265869140625,-0.8062591552734375,0.6135711669921875
1775710457264166700,8.384166748046875,-0.21875,-0.81640625,0.556243896484375
1775710457274180600,8.3941806640625,-0.205047607421875,-0.84991455078125,0.55059814453125
1775710457284195600,8.404195556640625,-0.1424102783203125,-0.886962890625,0.5573272705078125
1775710457294209500,8.41420947265625,-0.0590667724609375,-0.896636962890625,0.58343505859375
1775710457304223500,8.424223388671875,0.0003814697265625,-0.876861572265625,0.629150390625
1775710457314238500,8.434238525390626,0.036285400390625,-0.8465118408203125,0.6921234130859375
1775710457324252700,8.444252685546875,0.0754852294921875,-0.8363189697265625,0.75250244140625
1775710457334266600,8.4542666015625,0.0993499755859375,-0.84161376953125,0.81341552734375
1775710457344280600,8.464280517578125,0.0704193115234375,-0.8382720947265625,0.86004638671875
1775710457354295600,8.474295654296874,0.0008087158203125,-0.7929534912109375,0.8665771484375
1775710457364309500,8.4843095703125,-0.045806884765625,-0.7704315185546875,0.8734283447265625
1775710457374323700,8.49432373046875,-0.061859130859375,-0.75494384765625,0.8791046142578125
1775710457384338700,8.504338623046875,-0.03729248046875,-0.733489990234375,0.8743896484375
1775710457394352600,8.5143525390625,0.0027618408203125,-0.7274322509765625,0.872467041015625
1775710457404366600,8.52436669921875,0.0120391845703125,-0.7332916259765625,0.89959716796875
1775710457414381600,8.534381591796874,0.0026702880859375,-0.732818603515625,0.9388427734375
1775710457424395500,8.5443955078125,0.0025634765625,-0.7002105712890625,0.96466064453125
1775710457434409700,8.55440966796875,0.00982666015625,-0.675018310546875,0.978515625
1775710457444423700,8.564423583984375,0.0040283203125,-0.6457366943359375,0.973419189453125
1775710457454438700,8.574438720703125,-0.0106964111328125,-0.6331787109375,0.967803955078125
1775710457464452600,8.58445263671875,-0.0042266845703125,-0.6390838623046875,0.965423583984375
1775710457474466600,8.594466552734374,0.0432281494140625,-0.634307861328125,0.948028564453125
1775710457484481500,8.6044814453125,0.0828857421875,-0.6233673095703125,0.923553466796875
1775710457494495700,8.614495849609375,0.076446533203125,-0.603240966796875,0.8993988037109375
1775710457504509700,8.624509765625,0.0472259521484375,-0.5782928466796875,0.8997344970703125
1775710457514523400,8.6345234375,0.0234222412109375,-0.5604095458984375,0.9229888916015625
1775710457524538600,8.64453857421875,0.0236053466796875,-0.55694580078125,0.92022705078125
1775710457534552600,8.654552490234375,0.0697479248046875,-0.5642852783203125,0.8799896240234375
1775710457544566500,8.66456640625,0.1098785400390625,-0.5742950439453125,0.8506011962890625
1775710457554581800,8.674581787109375,0.106475830078125,-0.5975189208984375,0.847320556640625
1775710457564595500,8.684595458984376,0.0795135498046875,-0.6417388916015625,0.8790283203125
1775710457574609400,8.694609375,0.036102294921875,-0.6610107421875,0.8951568603515625
1775710457584624600,8.704624755859374,0.030059814453125,-0.6625518798828125,0.8808746337890625
1775710457594638600,8.714638671875,0.080413818359375,-0.630035400390625,0.8218841552734375
1775710457604652500,8.724652587890626,0.131378173828125,-0.5847625732421875,0.7618408203125
1775710457614666500,8.73466650390625,0.140106201171875,-0.58697509765625,0.717742919921875
1775710457624681500,8.744681396484374,0.14556884765625,-0.601409912109375,0.6960601806640625
1775710457634695400,8.7546953125,0.129058837890625,-0.6188812255859375,0.70587158203125
1775710457644709600,8.764709716796874,0.09564208984375,-0.6530609130859375,0.7471466064453125
1775710457654724600,8.774724609375,0.0605621337890625,-0.6807708740234375,0.8000030517578125
1775710457664738600,8.784738525390624,0.0234375,-0.6677703857421875,0.8400421142578125
1775710457674752500,8.79475244140625,0.0095062255859375,-0.6504058837890625,0.8594818115234375
1775710457684766500,8.804766357421874,0.042938232421875,-0.6134796142578125,0.7909393310546875
1775710457694781400,8.814781494140625,0.117767333984375,-0.6031951904296875,0.7257843017578125
1775710457704795600,8.824795654296874,0.1806640625,-0.6331634521484375,0.7142791748046875
1775710457714809600,8.8348095703125,0.203094482421875,-0.640472412109375,0.7064056396484375
1775710457724824600,8.844824462890625,0.1869659423828125,-0.652374267578125,0.733917236328125
1775710457734838500,8.854838623046875,0.1532440185546875,-0.6793365478515625,0.7717437744140625
1775710457744852500,8.8648525390625,0.1273651123046875,-0.665191650390625,0.7699432373046875
1775710457754866700,8.87486669921875,0.0995025634765625,-0.6316986083984375,0.7616729736328125
1775710457764881700,8.884881591796875,0.0799102783203125,-0.604949951171875,0.7587738037109375
1775710457774895600,8.8948955078125,0.07684326171875,-0.5921478271484375,0.7516021728515625
1775710457784909600,8.90490966796875,0.0865478515625,-0.5866546630859375,0.7292633056640625
1775710457794924500,8.914924560546876,0.08758544921875,-0.58502197265625,0.743194580078125
1775710457804938500,8.9249384765625,0.093963623046875,-0.5806427001953125,0.7806396484375
1775710457814952700,8.93495263671875,0.0998687744140625,-0.574310302734375,0.7856903076171875
1775710457824966700,8.944966552734375,0.1129913330078125,-0.589202880859375,0.800506591796875
1775710457834981600,8.954981689453126,0.1428375244140625,-0.601104736328125,0.809539794921875
1775710457844995600,8.96499560546875,0.1908416748046875,-0.6027679443359375,0.842559814453125
1775710457855009500,8.975009521484376,0.23712158203125,-0.6145477294921875,0.8717193603515625
1775710457865024500,8.9850244140625,0.263092041015625,-0.5989532470703125,0.8943328857421875
1775710457875038700,8.995038818359374,0.219085693359375,-0.571258544921875,0.90679931640625
1775710457885052700,9.005052734375,0.1652679443359375,-0.5504302978515625,0.9230804443359375
1775710457895066600,9.015066650390626,0.1351318359375,-0.537689208984375,0.906219482421875
1775710457905081600,9.02508154296875,0.1162109375,-0.5309295654296875,0.8489532470703125
1775710457915095600,9.035095458984374,0.1436920166015625,-0.5314788818359375,0.758636474609375
1775710457925109500,9.045109619140625,0.235321044921875,-0.5468292236328125,0.6739349365234375
1775710457935124700,9.055124755859374,0.2713623046875,-0.572296142578125,0.6592864990234375
1775710457945138700,9.065138671875,0.220947265625,-0.58294677734375,0.708953857421875
1775710457955152400,9.07515234375,0.1160736083984375,-0.5891571044921875,0.800048828125
1775710457965166600,9.08516650390625,0.03717041015625,-0.588165283203125,0.87744140625
1775710457975181600,9.095181640625,0.0196990966796875,-0.5977630615234375,0.89703369140625
1775710457985195500,9.105195556640625,0.0562896728515625,-0.5850677490234375,0.8693084716796875
1775710457995209500,9.11520947265625,0.08843994140625,-0.588897705078125,0.8470611572265625
1775710458005224400,9.125224365234375,0.102874755859375,-0.598114013671875,0.8257293701171875
1775710458015238400,9.13523828125,0.0998992919921875,-0.609222412109375,0.821868896484375
1775710458025252600,9.145252685546875,0.1224517822265625,-0.6111297607421875,0.7749786376953125
1775710458035266600,9.1552666015625,0.15435791015625,-0.6116485595703125,0.726318359375
1775710458045281500,9.165281494140626,0.1365814208984375,-0.6241607666015625,0.6860198974609375
1775710458055295500,9.17529541015625,0.124114990234375,-0.628326416015625,0.6607666015625
1775710458065309400,9.185309326171875,0.1112823486328125,-0.63104248046875,0.6708984375
1775710458075324400,9.195324462890625,0.1103973388671875,-0.637847900390625,0.68841552734375
1775710458085338600,9.205338623046876,0.1160430908203125,-0.63031005859375,0.7209014892578125
1775710458095352600,9.2153525390625,0.0962677001953125,-0.6301422119140625,0.75970458984375
1775710458105366500,9.225366455078126,0.0537261962890625,-0.6273345947265625,0.7891082763671875
1775710458115381500,9.235381591796875,-0.0029449462890625,-0.6181182861328125,0.8224334716796875
1775710458125395500,9.2453955078125,-0.0467987060546875,-0.6167449951171875,0.8377838134765625
1775710458135409700,9.25540966796875,-0.03253173828125,-0.6298828125,0.8043365478515625
1775710458145423600,9.265423583984376,0.023101806640625,-0.6563873291015625,0.733123779296875
1775710458155438600,9.2754384765625,0.095672607421875,-0.6812286376953125,0.6292266845703125
1775710458165452500,9.28545263671875,0.1735076904296875,-0.697906494140625,0.547882080078125
1775710458175466500,9.295466552734375,0.19049072265625,-0.7134857177734375,0.52325439453125
1775710458185481500,9.3054814453125,0.180511474609375,-0.72467041015625,0.538360595703125
1775710458195495700,9.31549560546875,0.1787261962890625,-0.7227935791015625,0.540069580078125
1775710458205509400,9.32550927734375,0.1833038330078125,-0.7142333984375,0.537078857421875
1775710458215523300,9.3355234375,0.1068267822265625,-0.7162017822265625,0.58953857421875
1775710458225538300,9.345538330078124,0.0718994140625,-0.7123565673828125,0.6504974365234375
1775710458235552300,9.35555224609375,0.0641326904296875,-0.7203826904296875,0.6936187744140625
1775710458245566500,9.36556640625,0.0769500732421875,-0.712127685546875,0.706695556640625
1775710458255580400,9.375580322265625,0.1090850830078125,-0.70269775390625,0.6698150634765625
1775710458265595400,9.385595458984374,0.1273651123046875,-0.7067108154296875,0.6282196044921875
1775710458275609300,9.395609375,0.1225433349609375,-0.7188262939453125,0.6105499267578125
1775710458285623300,9.405623291015624,0.125335693359375,-0.72772216796875,0.6026458740234375
1775710458295638300,9.41563818359375,0.1278076171875,-0.726165771484375,0.59674072265625
1775710458305652500,9.425652587890625,0.1326446533203125,-0.713348388671875,0.5987701416015625
1775710458315666400,9.43566650390625,0.1294708251953125,-0.72149658203125,0.6134490966796875
1775710458325680000,9.44568017578125,0.1226959228515625,-0.7059173583984375,0.6247406005859375
1775710458335695400,9.4556953125,0.1379852294921875,-0.6995391845703125,0.6873779296875
1775710458345709300,9.465709228515625,0.1620635986328125,-0.706298828125,0.72308349609375
1775710458355723300,9.47572314453125,0.2015228271484375,-0.7108306884765625,0.7280120849609375
1775710458365737500,9.485737548828125,0.236663818359375,-0.7225799560546875,0.72845458984375
1775710458375752200,9.495752197265626,0.28472900390625,-0.71539306640625,0.70660400390625
1775710458385766100,9.50576611328125,0.3219451904296875,-0.7230987548828125,0.7026519775390625
1775710458395780400,9.5157802734375,0.3589019775390625,-0.7357635498046875,0.7069549560546875
1775710458405795300,9.52579541015625,0.4194488525390625,-0.6988983154296875,0.709442138671875
1775710458415809300,9.535809326171876,0.4441986083984375,-0.6521453857421875,0.736083984375
1775710458425823200,9.5458232421875,0.4272003173828125,-0.604705810546875,0.7911224365234375
1775710458435837200,9.555837158203126,0.4174957275390625,-0.5749359130859375,0.9013214111328125
1775710458445852200,9.56585205078125,0.443267822265625,-0.5105438232421875,0.986236572265625
1775710458455866400,9.575866455078126,0.4730682373046875,-0.477996826171875,0.959716796875
1775710458465880300,9.58588037109375,0.4592742919921875,-0.463104248046875,0.823974609375
1775710458475894300,9.595894287109376,0.3755645751953125,-0.43218994140625,0.6269073486328125
1775710458485909200,9.6059091796875,0.2025146484375,-0.467803955078125,0.4769744873046875
1775710458495923200,9.615923095703126,-0.007781982421875,-0.50115966796875,0.38079833984375
1775710458505937400,9.6259375,-0.1957855224609375,-0.5399017333984375,0.3406219482421875
1775710458515951400,9.635951416015626,-0.3469085693359375,-0.5562591552734375,0.331146240234375
1775710458525966300,9.64596630859375,-0.437896728515625,-0.5701751708984375,0.3101959228515625
1775710458535980300,9.655980224609374,-0.4360504150390625,-0.59490966796875,0.288299560546875
1775710458545994200,9.665994140625,-0.3825225830078125,-0.60107421875,0.2905426025390625
1775710458556009200,9.67600927734375,-0.3159332275390625,-0.590118408203125,0.3762359619140625
1775710458566023400,9.6860234375,-0.28857421875,-0.5861663818359375,0.5069580078125
1775710458576037400,9.696037353515624,-0.2598419189453125,-0.58551025390625,0.601959228515625
1775710458586051300,9.70605126953125,-0.201751708984375,-0.5966949462890625,0.66534423828125
1775710458596066300,9.71606640625,-0.169342041015625,-0.619598388671875,0.7075958251953125
1775710458606080300,9.726080322265625,-0.09307861328125,-0.631134033203125,0.71478271484375
1775710458616094500,9.736094482421874,0.0074462890625,-0.6634674072265625,0.7250213623046875
1775710458626108400,9.7461083984375,0.0906219482421875,-0.6769256591796875,0.7095184326171875
1775710458636123400,9.756123291015625,0.1639404296875,-0.6990203857421875,0.6900634765625
1775710458646137300,9.766137451171875,0.2118072509765625,-0.7449951171875,0.687896728515625
1775710458656151300,9.7761513671875,0.239227294921875,-0.7850189208984375,0.6862030029296875
1775710458666165200,9.786165283203125,0.2277679443359375,-0.8094940185546875,0.656219482421875
1775710458676180500,9.796180419921875,0.19635009765625,-0.820648193359375,0.618438720703125
1775710458686194400,9.8061943359375,0.1358489990234375,-0.832427978515625,0.6009521484375
1775710458696208100,9.8162080078125,0.0571136474609375,-0.8036346435546875,0.5784759521484375
1775710458706222300,9.826222412109376,-0.0023956298828125,-0.7933502197265625,0.5866546630859375
1775710458716237300,9.8362373046875,-0.0591278076171875,-0.79620361328125,0.6161041259765625
1775710458726251300,9.846251220703126,-0.08587646484375,-0.8085174560546875,0.635406494140625
1775710458736265500,9.856265380859375,-0.104949951171875,-0.805084228515625,0.63409423828125
1775710458746280400,9.866280517578126,-0.12982177734375,-0.80010986328125,0.6273345947265625
1775710458756294100,9.876294189453125,-0.1432952880859375,-0.7967529296875,0.645599365234375
1775710458766308400,9.886308349609376,-0.1452178955078125,-0.7895355224609375,0.658203125
1775710458776322300,9.896322265625,-0.123504638671875,-0.7879638671875,0.6465606689453125
1775710458786337300,9.906337158203126,-0.0963287353515625,-0.7975311279296875,0.6372222900390625
1775710458796351500,9.9163515625,-0.08087158203125,-0.80352783203125,0.6286468505859375
1775710458806365200,9.926365234375,-0.0532684326171875,-0.806365966796875,0.6260833740234375
1775710458816379400,9.93637939453125,-0.0347900390625,-0.8078460693359375,0.629638671875
1775710458826394400,9.946394287109374,-0.037841796875,-0.8078765869140625,0.627349853515625
1775710458836408300,9.956408203125,-0.0247955322265625,-0.7908172607421875,0.6066741943359375
1775710458846422500,9.966422607421874,-0.0140838623046875,-0.790618896484375,0.584503173828125
1775710458856436200,9.976436279296875,-0.0171661376953125,-0.800018310546875,0.554779052734375
1775710458866451200,9.986451171875,-0.015350341796875,-0.8089141845703125,0.5209808349609375
1775710458876465400,9.99646533203125,-0.0056610107421875,-0.8204803466796875,0.496612548828125
1775710458886479400,10.006479248046874,0.00634765625,-0.81781005859375,0.5021209716796875
1775710458896493300,10.016493408203125,0.012054443359375,-0.805084228515625,0.5267791748046875
1775710458906508300,10.02650830078125,0.0233154296875,-0.793792724609375,0.541259765625
1775710458916522200,10.036522216796875,0.0237274169921875,-0.7855072021484375,0.5510101318359375
1775710458926536400,10.046536376953124,0.02569580078125,-0.784576416015625,0.5562744140625
1775710458936550400,10.05655029296875,0.0341949462890625,-0.789794921875,0.5432891845703125
1775710458946565400,10.0665654296875,0.0404815673828125,-0.77496337890625,0.5224761962890625
1775710458956579300,10.076579345703125,0.0466156005859375,-0.7629547119140625,0.5161895751953125
1775710458966593300,10.08659326171875,0.0470733642578125,-0.7493896484375,0.52728271484375
1775710458976607200,10.096607177734375,0.03033447265625,-0.7159271240234375,0.546966552734375
1775710458986622200,10.106622314453125,-0.017578125,-0.7101898193359375,0.5514678955078125
1775710458996636400,10.116636474609376,-0.0840301513671875,-0.6900482177734375,0.5165557861328125
1775710459006650000,10.126650146484375,-0.141387939453125,-0.674346923828125,0.4842681884765625
1775710459016664300,10.136664306640625,-0.162872314453125,-0.66156005859375,0.469757080078125
1775710459026679300,10.14667919921875,-0.1285247802734375,-0.6378326416015625,0.493011474609375
1775710459036693200,10.156693359375,-0.0748748779296875,-0.6305694580078125,0.53302001953125
1775710459046707500,10.16670751953125,-0.0229034423828125,-0.629852294921875,0.56146240234375
1775710459056722400,10.176722412109376,0.04974365234375,-0.62554931640625,0.590667724609375
1775710459066736000,10.186736083984375,0.104278564453125,-0.6204376220703125,0.6149139404296875
1775710459076750300,10.196750244140626,0.1373748779296875,-0.618408203125,0.63616943359375
1775710459086764300,10.206764404296875,0.1514434814453125,-0.6233978271484375,0.645111083984375
1775710459096779300,10.216779296875,0.15185546875,-0.6228790283203125,0.6387786865234375
1775710459106793500,10.22679345703125,0.1544647216796875,-0.628143310546875,0.6540985107421875
1775710459116807200,10.23680712890625,0.13702392578125,-0.6343536376953125,0.6464691162109375
1775710459126821400,10.2468212890625,0.138519287109375,-0.618927001953125,0.615386962890625
1775710459136835300,10.25683544921875,0.14495849609375,-0.6084747314453125,0.599945068359375
1775710459146850300,10.266850341796875,0.151092529296875,-0.61090087890625,0.606048583984375
1775710459156864500,10.276864501953124,0.155792236328125,-0.6152801513671875,0.610931396484375
1775710459166878200,10.286878173828125,0.1363677978515625,-0.6113739013671875,0.6034698486328125
1775710459176892200,10.29689208984375,0.0879669189453125,-0.5942535400390625,0.59100341796875
1775710459186907400,10.306907470703125,0.038421630859375,-0.6074981689453125,0.5967864990234375
1775710459196921300,10.31692138671875,0.0130157470703125,-0.6171112060546875,0.5972442626953125
1775710459206935300,10.326935302734375,-0.025604248046875,-0.6144256591796875,0.625396728515625
1775710459216949500,10.336949462890624,-0.04937744140625,-0.63323974609375,0.684783935546875
1775710459226964500,10.346964599609375,-0.0264434814453125,-0.652618408203125,0.734954833984375
1775710459236978400,10.356978515625,0.0690765380859375,-0.6536407470703125,0.787445068359375
1775710459246992400,10.366992431640625,0.192901611328125,-0.6506195068359375,0.785797119140625
1775710459257006300,10.37700634765625,0.2624053955078125,-0.651092529296875,0.7287139892578125
1775710459267021300,10.387021240234375,0.275970458984375,-0.64288330078125,0.6518402099609375
1775710459277035500,10.397035400390624,0.2786407470703125,-0.6297607421875,0.6044464111328125
1775710459287049500,10.407049560546875,0.250701904296875,-0.6460723876953125,0.6412506103515625
1775710459297063400,10.4170634765625,0.16748046875,-0.6966552734375,0.7235107421875
1775710459307078400,10.427078369140625,0.127532958984375,-0.6992340087890625,0.8173828125
1775710459317092400,10.43709228515625,0.094970703125,-0.715667724609375,0.8946990966796875
1775710459327106600,10.4471064453125,0.1059112548828125,-0.71710205078125,0.864349365234375
1775710459337120500,10.45712060546875,0.1200408935546875,-0.7024383544921875,0.7631683349609375
1775710459347135500,10.467135498046876,0.1254425048828125,-0.658050537109375,0.6717071533203125
1775710459357149400,10.4771494140625,0.1218414306640625,-0.617156982421875,0.6378936767578125
1775710459367163400,10.487163330078126,0.0864410400390625,-0.6126708984375,0.621246337890625
1775710459377177600,10.497177490234375,0.0641021728515625,-0.61376953125,0.6102294921875
1775710459387192600,10.507192626953126,0.0561065673828125,-0.6524810791015625,0.6640625
1775710459397206500,10.51720654296875,0.0462493896484375,-0.6803131103515625,0.7329559326171875
1775710459407220500,10.527220458984376,0.0604400634765625,-0.694183349609375,0.764862060546875
1775710459417234400,10.537234375,0.0789337158203125,-0.727752685546875,0.767852783203125
1775710459427249400,10.54724951171875,0.1181182861328125,-0.71990966796875,0.73455810546875
1775710459437263600,10.557263671875,0.162933349609375,-0.71563720703125,0.693389892578125
1775710459447277600,10.567277587890626,0.1533203125,-0.7072296142578125,0.63458251953125
1775710459457291300,10.577291259765625,0.128997802734375,-0.68682861328125,0.56878662109375
1775710459467306500,10.587306396484376,0.0711822509765625,-0.6726837158203125,0.533203125
1775710459477320400,10.597320556640625,-0.0024566650390625,-0.6947479248046875,0.5617828369140625
1775710459487334400,10.60733447265625,-0.05035400390625,-0.7398681640625,0.6313934326171875
1775710459497348600,10.6173486328125,-0.067138671875,-0.7939910888671875,0.707733154296875
1775710459507363600,10.627363525390624,-0.0064544677734375,-0.8438262939453125,0.7824859619140625
1775710459517377300,10.637377197265625,0.1116943359375,-0.850921630859375,0.7682952880859375
1775710459527391500,10.6473916015625,0.22998046875,-0.847808837890625,0.7151336669921875
1775710459537405400,10.657405517578125,0.2993621826171875,-0.8406524658203125,0.6641693115234375
1775710459547419600,10.667419677734374,0.3043670654296875,-0.80352783203125,0.638885498046875
1775710459557434600,10.6774345703125,0.2451019287109375,-0.767974853515625,0.682403564453125
1775710459567448300,10.6874482421875,0.1885986328125,-0.736053466796875,0.7760162353515625
1775710459577462500,10.697462646484375,0.1287689208984375,-0.6861572265625,0.851531982421875
1775710459587476500,10.7074765625,0.0387725830078125,-0.6598052978515625,0.86651611328125
1775710459597491500,10.717491455078125,-0.0151214599609375,-0.643310546875,0.81268310546875
1775710459607505700,10.727505615234374,-0.0429840087890625,-0.611785888671875,0.7615814208984375
1775710459617519400,10.737519287109375,-0.04730224609375,-0.59661865234375,0.7469482421875
1775710459627533300,10.747533203125,-0.0572967529296875,-0.591278076171875,0.7355194091796875
1775710459637548500,10.757548583984375,-0.038787841796875,-0.5916900634765625,0.7601165771484375
1775710459647562500,10.7675625,-0.00421142578125,-0.5864410400390625,0.7934722900390625
1775710459657576400,10.777576416015625,0.0365447998046875,-0.5922393798828125,0.8205108642578125
1775710459667590400,10.78759033203125,0.0807647705078125,-0.6104888916015625,0.8284759521484375
1775710459677605400,10.79760546875,0.1191864013671875,-0.6304473876953125,0.823028564453125
1775710459687619300,10.807619384765625,0.1245269775390625,-0.65130615234375,0.8253021240234375
1775710459697633500,10.817633544921875,0.1380462646484375,-0.6600189208984375,0.791046142578125
1775710459707647500,10.8276474609375,0.158905029296875,-0.6761627197265625,0.7233428955078125
1775710459717662200,10.837662109375,0.1796722412109375,-0.6875762939453125,0.677978515625
1775710459727676400,10.847676513671875,0.1703948974609375,-0.7004241943359375,0.6751251220703125
1775710459737690400,10.8576904296875,0.1369171142578125,-0.7147674560546875,0.7030792236328125
1775710459747704600,10.86770458984375,0.0918426513671875,-0.72772216796875,0.734222412109375
1775710459757718500,10.877718505859375,0.070892333984375,-0.7304840087890625,0.744415283203125
1775710459767733200,10.887733154296875,0.0747833251953125,-0.7252044677734375,0.735931396484375
1775710459777747500,10.89774755859375,0.0933685302734375,-0.7114715576171875,0.707244873046875
1775710459787761400,10.907761474609375,0.1278839111328125,-0.7108306884765625,0.6816864013671875
1775710459797775600,10.917775634765626,0.1513671875,-0.71319580078125,0.68157958984375
1775710459807790600,10.92779052734375,0.1850128173828125,-0.7153472900390625,0.6927337646484375
1775710459817804300,10.93780419921875,0.2025909423828125,-0.7158966064453125,0.6973419189453125
1775710459827818500,10.947818603515625,0.1913299560546875,-0.70013427734375,0.6989593505859375
1775710459837832400,10.95783251953125,0.141510009765625,-0.68865966796875,0.7018280029296875
1775710459847847400,10.967847412109375,0.091583251953125,-0.6734161376953125,0.7212371826171875
1775710459857861600,10.977861572265626,0.03936767578125,-0.6623992919921875,0.7904510498046875
1775710459867875300,10.987875244140625,0.0006561279296875,-0.6492919921875,0.8469085693359375
1775710459877889300,10.99788916015625,-0.006103515625,-0.6329193115234375,0.8767547607421875
1775710459887903500,11.007903564453125,0.0159454345703125,-0.626953125,0.8763580322265625
1775710459897918500,11.01791845703125,0.0604248046875,-0.6261444091796875,0.8315887451171875
1775710459907932400,11.027932373046875,0.1075286865234375,-0.6411590576171875,0.78826904296875
1775710459917946400,11.0379462890625,0.1714324951171875,-0.6476287841796875,0.75006103515625
1775710459927960300,11.047960205078125,0.2114715576171875,-0.6317596435546875,0.7458343505859375
1775710459937975300,11.057975341796874,0.2016448974609375,-0.62298583984375,0.783172607421875
1775710459947989500,11.067989501953125,0.1806793212890625,-0.620635986328125,0.814910888671875
1775710459958003500,11.07800341796875,0.14398193359375,-0.61016845703125,0.825439453125
1775710459968017400,11.088017333984375,0.0984344482421875,-0.6310882568359375,0.8368988037109375
1775710459978031400,11.09803125,0.0648193359375,-0.642242431640625,0.8353118896484375
1775710459988046300,11.10804638671875,0.0513916015625,-0.65338134765625,0.8254241943359375
1775710459998060500,11.118060546875,0.1016082763671875,-0.6641082763671875,0.7665252685546875
1775710460008074500,11.128074462890625,0.1693572998046875,-0.6706390380859375,0.718780517578125
1775710460018088400,11.13808837890625,0.203277587890625,-0.6765594482421875,0.693328857421875
1775710460028103400,11.148103515625,0.23699951171875,-0.6764068603515625,0.66937255859375
1775710460038117400,11.158117431640624,0.2443084716796875,-0.6864471435546875,0.6800384521484375
1775710460048131600,11.168131591796875,0.2445831298828125,-0.6804962158203125,0.6901397705078125
1775710460058145500,11.1781455078125,0.2599029541015625,-0.6605682373046875,0.7169647216796875
1775710460068160500,11.188160400390625,0.2620849609375,-0.6557464599609375,0.75018310546875
1775710460078174500,11.198174560546875,0.2701263427734375,-0.636962890625,0.756256103515625
1775710460088188400,11.2081884765625,0.25372314453125,-0.6150970458984375,0.7929840087890625
1775710460098202400,11.218202392578124,0.2359161376953125,-0.599578857421875,0.82098388671875
1775710460108216600,11.228216552734375,0.216949462890625,-0.5857696533203125,0.8203125
1775710460118231600,11.2382314453125,0.1968994140625,-0.605560302734375,0.804473876953125
1775710460128245200,11.248245361328125,0.22552490234375,-0.6219635009765625,0.7688140869140625
1775710460138259500,11.258259521484375,0.2433929443359375,-0.60992431640625,0.7418060302734375
1775710460148273400,11.2682734375,0.24822998046875,-0.6175384521484375,0.7268829345703125
1775710460158288400,11.278288330078125,0.23504638671875,-0.6188507080078125,0.74371337890625
1775710460168302600,11.288302490234376,0.2157745361328125,-0.6077117919921875,0.768463134765625
1775710460178316300,11.29831640625,0.207672119140625,-0.5848388671875,0.786529541015625
1775710460188330500,11.30833056640625,0.20013427734375,-0.57366943359375,0.7861175537109375
1775710460198344400,11.318344482421875,0.1819305419921875,-0.566925048828125,0.7884674072265625
1775710460208360000,11.32835986328125,0.136627197265625,-0.574737548828125,0.7951202392578125
1775710460218374000,11.338373779296875,0.106109619140625,-0.61505126953125,0.782012939453125
1775710460228387800,11.348387939453126,0.0680389404296875,-0.65545654296875,0.7736053466796875
1775710460238401800,11.35840185546875,0.0533294677734375,-0.6857757568359375,0.742950439453125
1775710460248416000,11.368416015625,0.067291259765625,-0.7066650390625,0.70391845703125
1775710460258431000,11.378430908203125,0.086669921875,-0.7520904541015625,0.7010955810546875
1775710460268445000,11.38844482421875,0.135498046875,-0.79559326171875,0.699249267578125
1775710460278459000,11.398458984375,0.218109130859375,-0.8358154296875,0.708831787109375
1775710460288472800,11.408472900390626,0.3261260986328125,-0.8763885498046875,0.731964111328125
1775710460298487800,11.41848779296875,0.4423675537109375,-0.9069976806640625,0.7548980712890625
1775710460308502000,11.428501953125,0.5295562744140625,-0.91619873046875,0.7810821533203125
1775710460318516000,11.438515869140625,0.5369110107421875,-0.914398193359375,0.854095458984375
1775710460328530000,11.448530029296874,0.4542083740234375,-0.940216064453125,0.9736785888671875
1775710460338543900,11.4585439453125,0.3526611328125,-0.94976806640625,1.05340576171875
1775710460348558800,11.468558837890624,0.2879638671875,-0.9151611328125,1.033172607421875
1775710460358573000,11.478572998046875,0.266571044921875,-0.908721923828125,0.9573822021484375
1775710460368587000,11.4885869140625,0.2550506591796875,-0.9337921142578125,0.8770751953125
1775710460378601000,11.49860107421875,0.260284423828125,-0.98223876953125,0.82989501953125
1775710460388616000,11.508615966796874,0.2625885009765625,-1.0263671875,0.8062286376953125
1775710460398630000,11.5186298828125,0.2712860107421875,-1.04718017578125,0.772125244140625
1775710460408643800,11.528643798828124,0.27056884765625,-1.051177978515625,0.7296600341796875
1775710460418658000,11.538657958984375,0.2571563720703125,-1.02813720703125,0.700897216796875
1775710460428671700,11.548671630859374,0.228424072265625,-1.0105743408203125,0.69061279296875
1775710460438686700,11.558686767578125,0.1939239501953125,-1.00537109375,0.6948089599609375
1775710460448701000,11.568700927734374,0.149658203125,-1.0022735595703125,0.71856689453125
1775710460458715000,11.57871484375,0.1206817626953125,-0.977813720703125,0.7374420166015625
1775710460468729000,11.58872900390625,0.112640380859375,-0.92889404296875,0.751983642578125
1775710460478742800,11.59874267578125,0.138092041015625,-0.8797760009765625,0.768890380859375
1775710460488757800,11.6087578125,0.1845703125,-0.8343658447265625,0.7652740478515625
1775710460498772000,11.61877197265625,0.2500152587890625,-0.80181884765625,0.7537841796875
1775710460508786000,11.628785888671874,0.3029327392578125,-0.780426025390625,0.73828125
1775710460518800100,11.638800048828125,0.3289794921875,-0.7819671630859375,0.74127197265625
1775710460528813800,11.648813720703124,0.3570404052734375,-0.7941131591796875,0.75091552734375
1775710460538828800,11.658828857421875,0.391998291015625,-0.796966552734375,0.7505035400390625
1775710460548843000,11.668843017578125,0.4302825927734375,-0.7899169921875,0.7436676025390625
1775710460558857000,11.67885693359375,0.4498291015625,-0.7767333984375,0.75457763671875
1775710460568871000,11.688870849609375,0.4365997314453125,-0.7652740478515625,0.76953125
1775710460578886100,11.69888623046875,0.4284210205078125,-0.755035400390625,0.77227783203125
1775710460588899800,11.70889990234375,0.4283599853515625,-0.72686767578125,0.7507781982421875
1775710460598913800,11.718913818359376,0.42803955078125,-0.7047119140625,0.7183074951171875
1775710460608928000,11.728927978515625,0.4263763427734375,-0.6987457275390625,0.6764984130859375
1775710460618942000,11.73894189453125,0.421173095703125,-0.677001953125,0.6103973388671875
1775710460628957000,11.74895703125,0.393218994140625,-0.6555328369140625,0.5446624755859375
1775710460638971000,11.758970947265626,0.3405303955078125,-0.65594482421875,0.5255126953125
1775710460648984800,11.76898486328125,0.285247802734375,-0.6479034423828125,0.540374755859375
1775710460658999000,11.7789990234375,0.2218170166015625,-0.6495819091796875,0.59722900390625
1775710460669013000,11.789012939453125,0.1674957275390625,-0.6493072509765625,0.6660308837890625
1775710460679028000,11.799028076171876,0.1468048095703125,-0.6337432861328125,0.7313232421875
1775710460689042000,11.8090419921875,0.1462554931640625,-0.626617431640625,0.7865142822265625
1775710460699055900,11.819055908203126,0.1819915771484375,-0.613677978515625,0.8029022216796875
1775710460709070000,11.829070068359375,0.2524261474609375,-0.5897064208984375,0.7859039306640625
1775710460719084000,11.839083984375,0.3166656494140625,-0.565338134765625,0.772216796875
1775710460729099000,11.84909912109375,0.3471527099609375,-0.5613250732421875,0.753814697265625
1775710460739113000,11.859113037109376,0.3198089599609375,-0.5698394775390625,0.7364654541015625
1775710460749127000,11.869126953125,0.296600341796875,-0.582000732421875,0.737396240234375
1775710460759140900,11.879140869140626,0.2870025634765625,-0.5815277099609375,0.724700927734375
1775710460769155000,11.889155029296875,0.29864501953125,-0.5612640380859375,0.71435546875
1775710460779170000,11.899170166015624,0.288787841796875,-0.5542755126953125,0.7266387939453125
1775710460789183700,11.909183837890625,0.28021240234375,-0.5348663330078125,0.72857666015625
1775710460799198000,11.919197998046876,0.2746734619140625,-0.5207366943359375,0.738311767578125
1775710460809212000,11.9292119140625,0.246795654296875,-0.5123138427734375,0.7493743896484375
1775710460819227000,11.939226806640624,0.214080810546875,-0.52178955078125,0.774658203125
1775710460829241000,11.949240966796875,0.1831512451171875,-0.5336761474609375,0.7953033447265625
1775710460839254800,11.9592548828125,0.185760498046875,-0.5261688232421875,0.8003387451171875
1775710460849269000,11.96926904296875,0.2002410888671875,-0.5273590087890625,0.7944488525390625
1775710460859283000,11.979282958984374,0.2263946533203125,-0.514251708984375,0.761962890625
1775710460869298000,11.9892978515625,0.237548828125,-0.51263427734375,0.7216339111328125
1775710460879312100,11.99931201171875,0.2195281982421875,-0.5351104736328125,0.6984405517578125
1775710460889325800,12.009325927734375,0.207244873046875,-0.547454833984375,0.6883392333984375
1775710460899340000,12.019340087890624,0.172821044921875,-0.5733489990234375,0.714630126953125
1775710460909354000,12.02935400390625,0.145294189453125,-0.579681396484375,0.729278564453125
1775710460919369000,12.039368896484374,0.14697265625,-0.5572967529296875,0.7163543701171875
1775710460929383000,12.0493828125,0.1352386474609375,-0.5495758056640625,0.7075042724609375
1775710460939396900,12.05939697265625,0.13519287109375,-0.55126953125,0.681427001953125
1775710460949410800,12.069410888671875,0.134613037109375,-0.56103515625,0.650726318359375
1775710460959425000,12.079425048828124,0.1362457275390625,-0.578521728515625,0.638946533203125
1775710460969439000,12.08943896484375,0.1403350830078125,-0.5881805419921875,0.6309051513671875
1775710460979454000,12.099453857421874,0.1464080810546875,-0.5986480712890625,0.6334381103515625
1775710460989468000,12.109468017578125,0.1702728271484375,-0.59625244140625,0.6190643310546875
1775710460999481900,12.11948193359375,0.205841064453125,-0.59661865234375,0.602203369140625
1775710461009496000,12.12949609375,0.19744873046875,-0.619903564453125,0.6085052490234375
1775710461019510000,12.139510009765624,0.189483642578125,-0.6157989501953125,0.60968017578125
1775710461029525000,12.14952490234375,0.1815948486328125,-0.61907958984375,0.624908447265625
1775710461039539000,12.1595390625,0.15045166015625,-0.634063720703125,0.650604248046875
1775710461049553000,12.169552978515625,0.1415863037109375,-0.6239776611328125,0.6552734375
1775710461059566800,12.17956689453125,0.133026123046875,-0.6236724853515625,0.659820556640625
1775710461069581000,12.1895810546875,0.11810302734375,-0.64727783203125,0.6775054931640625
1775710461079596000,12.199595947265625,0.1167449951171875,-0.663330078125,0.698944091796875
1775710461089610000,12.20960986328125,0.1105499267578125,-0.6682891845703125,0.729583740234375
1775710461099624000,12.2196240234375,0.101226806640625,-0.6644439697265625,0.7681732177734375
1775710461109638000,12.229637939453125,0.0986480712890625,-0.6771697998046875,0.8058319091796875
1775710461119652000,12.239652099609375,0.1230926513671875,-0.6757965087890625,0.797760009765625
1775710461129667000,12.2496669921875,0.1591796875,-0.6724090576171875,0.7711944580078125
1775710461139680800,12.2596806640625,0.1855926513671875,-0.6824493408203125,0.7659912109375
1775710461149695000,12.269695068359376,0.19927978515625,-0.6795654296875,0.771392822265625
1775710461159709000,12.279708984375,0.1896820068359375,-0.6844024658203125,0.7876129150390625
1775710461169723100,12.28972314453125,0.1795196533203125,-0.6701507568359375,0.808441162109375
1775710461179738000,12.299738037109375,0.1407318115234375,-0.6616668701171875,0.8169097900390625
1775710461189751800,12.309751708984376,0.08319091796875,-0.6606597900390625,0.8236846923828125
1775710461199766000,12.31976611328125,0.0373382568359375,-0.64434814453125,0.83642578125
1775710461209779200,12.329779296875,0.057342529296875,-0.6302032470703125,0.80865478515625
1775710461219793200,12.339793212890624,0.124481201171875,-0.5969085693359375,0.699737548828125
1775710461229808000,12.34980810546875,0.1876068115234375,-0.577972412109375,0.56671142578125
1775710461239822000,12.359822021484375,0.239990234375,-0.546478271484375,0.43804931640625
1775710461249836300,12.369836181640625,0.258514404296875,-0.5093841552734375,0.345855712890625
1775710461259850200,12.379850341796875,0.213165283203125,-0.5129241943359375,0.319091796875
1775710461269864200,12.3898642578125,0.152740478515625,-0.549285888671875,0.3395843505859375
1775710461279878100,12.399878173828125,0.1006622314453125,-0.563507080078125,0.3741302490234375
1775710461289893000,12.40989306640625,0.0728759765625,-0.56195068359375,0.436126708984375
1775710461299907300,12.4199072265625,0.0642547607421875,-0.5682373046875,0.501495361328125
1775710461309921300,12.42992138671875,0.0633697509765625,-0.566558837890625,0.53741455078125
1775710461319935000,12.43993505859375,0.060394287109375,-0.5702056884765625,0.56915283203125
1775710461329949200,12.44994921875,0.0435943603515625,-0.5903472900390625,0.6036834716796875
1775710461339964200,12.459964111328125,0.0310821533203125,-0.61016845703125,0.6400299072265625
1775710461349978000,12.46997802734375,0.011444091796875,-0.628936767578125,0.660797119140625
1775710461359992300,12.479992431640625,-0.0072479248046875,-0.6455535888671875,0.663970947265625
1775710461370006000,12.490006103515626,-0.0361480712890625,-0.6494140625,0.6629638671875
1775710461380020200,12.500020263671875,-0.058074951171875,-0.65966796875,0.6697998046875
1775710461390035200,12.51003515625,-0.0617218017578125,-0.68170166015625,0.6744232177734375
1775710461400049200,12.520049072265625,-0.0615081787109375,-0.699798583984375,0.664398193359375
1775710461410063400,12.5300634765625,-0.0636444091796875,-0.7203216552734375,0.6529388427734375
1775710461420077000,12.5400771484375,-0.044647216796875,-0.744049072265625,0.633270263671875
1775710461430091300,12.55009130859375,-0.0064544677734375,-0.76214599609375,0.5948638916015625
1775710461440106200,12.560106201171875,0.031463623046875,-0.783050537109375,0.5547637939453125
1775710461450120200,12.5701201171875,0.0613555908203125,-0.807708740234375,0.526397705078125
1775710461460134100,12.580134033203125,0.0859527587890625,-0.82781982421875,0.515869140625
1775710461470148000,12.590148193359376,0.1075439453125,-0.837738037109375,0.5225677490234375
1775710461480162000,12.600162109375,0.1083831787109375,-0.848724365234375,0.5440826416015625
1775710461490176300,12.61017626953125,0.0970916748046875,-0.8463287353515625,0.5625762939453125
1775710461500191200,12.620191162109375,0.0814666748046875,-0.838134765625,0.5740509033203125
1775710461510205200,12.630205078125,0.0727081298828125,-0.8344879150390625,0.5954437255859375
1775710461520219100,12.64021923828125,0.0658416748046875,-0.82568359375,0.6173248291015625
1775710461530233000,12.650233154296876,0.072021484375,-0.81658935546875,0.6357574462890625
1775710461540247300,12.660247314453125,0.0995025634765625,-0.8184051513671875,0.6519012451171875
1775710461550261200,12.67026123046875,0.120361328125,-0.81903076171875,0.6474456787109375
1775710461560276200,12.680276123046875,0.138519287109375,-0.8200531005859375,0.6325225830078125
1775710461570290200,12.690290283203124,0.12127685546875,-0.804290771484375,0.6371002197265625
1775710461580304100,12.70030419921875,0.055023193359375,-0.8076019287109375,0.6826324462890625
1775710461590318000,12.710318115234376,0.0314483642578125,-0.7999267578125,0.673431396484375
1775710461600332300,12.720332275390625,0.02081298828125,-0.7949676513671875,0.6555023193359375
1775710461610347300,12.73034716796875,0.0091705322265625,-0.7897491455078125,0.635284423828125
1775710461620361200,12.740361328125,0.005706787109375,-0.782318115234375,0.61639404296875
1775710461630375200,12.750375244140624,0.00714111328125,-0.77508544921875,0.5990142822265625
1775710461640389000,12.76038916015625,0.0116119384765625,-0.76361083984375,0.58734130859375
1775710461650403300,12.7704033203125,0.01177978515625,-0.7535858154296875,0.596160888671875
1775710461660417000,12.7804169921875,0.015472412109375,-0.7421722412109375,0.6118316650390625
1775710461670432000,12.790431884765624,0.0198822021484375,-0.7507476806640625,0.64208984375
1775710461680446200,12.8004462890625,0.0307159423828125,-0.7554168701171875,0.66143798828125
1775710461690460200,12.810460205078124,0.050933837890625,-0.742584228515625,0.654266357421875
1775710461700474400,12.820474365234375,0.0587615966796875,-0.7370758056640625,0.64300537109375
1775710461710488000,12.830488037109374,0.04193115234375,-0.732513427734375,0.6253814697265625
1775710461720503000,12.8405029296875,0.0107269287109375,-0.7271270751953125,0.6050262451171875
1775710461730517200,12.850517333984374,-0.0132904052734375,-0.7243804931640625,0.5825653076171875
1775710461740531200,12.86053125,-0.0238800048828125,-0.7173004150390625,0.5485076904296875
1775710461750545200,12.870545166015624,-0.05035400390625,-0.70166015625,0.519012451171875
1775710461760559000,12.88055908203125,-0.0653839111328125,-0.693084716796875,0.5250396728515625
1775710461770573000,12.890572998046874,-0.06341552734375,-0.6799163818359375,0.525665283203125
1775710461780588000,12.900588134765625,-0.0348358154296875,-0.66046142578125,0.52294921875
1775710461790602200,12.910602294921874,0.006805419921875,-0.6506195068359375,0.5249176025390625
1775710461800616200,12.9206162109375,0.0488128662109375,-0.6314849853515625,0.535552978515625
1775710461810630100,12.930630126953124,0.091796875,-0.619110107421875,0.573211669921875
1775710461820644000,12.94064404296875,0.10809326171875,-0.6137237548828125,0.597808837890625
1775710461830658300,12.950658203125,0.1013641357421875,-0.6055755615234375,0.5968475341796875
1775710461840673300,12.96067333984375,0.0750274658203125,-0.5942230224609375,0.57159423828125
1775710461850687200,12.970687255859374,0.0467529296875,-0.59014892578125,0.54620361328125
1775710461860701200,12.980701171875,0.0066070556640625,-0.6054840087890625,0.5226898193359375
1775710461870715100,12.990715087890624,-0.04412841796875,-0.63665771484375,0.5319366455078125
1775710461880729000,13.00072900390625,-0.074554443359375,-0.6456756591796875,0.541748046875
1775710461890744300,13.010744384765625,-0.0625457763671875,-0.6521148681640625,0.5583038330078125
1775710461900758300,13.02075830078125,-0.0220947265625,-0.650177001953125,0.56915283203125
