time,seconds_elapsed,z,y,x
1775710448944707300,0.064707275390625,-0.17304304242134094,0.147256001830101,0.3541615605354309
1775710448954722300,0.074722412109375,-0.08783658593893051,0.12547309696674347,0.33296525478363037
1775710448964736500,0.084736572265625,-0.006409105379134417,0.082864910364151,0.3078623116016388
1775710448974751500,0.09475146484375,0.05737834796309471,0.028504343703389168,0.2972969114780426
1775710448984765400,0.104765380859375,0.09045854210853577,-0.00223732297308743,0.28633588552474976
1775710448994780400,0.114780517578125,0.05952218174934387,-0.03272588178515434,0.26336565613746643
1775710449004794400,0.12479443359375,-0.01625247299671173,-0.038814399391412735,0.24393200874328613
1775710449014809300,0.134809326171875,-0.0851844921708107,0.03217032551765442,0.24955257773399353
1775710449024823600,0.144823486328125,-0.13992097973823547,0.11381299048662186,0.2798364758491516
1775710449034838500,0.154838623046875,-0.17957884073257446,0.10207634419202805,0.31545647978782654
1775710449044852500,0.1648525390625,-0.24062354862689972,-0.07702656090259552,0.31550973653793335
1775710449054867500,0.174867431640625,-0.2997491657733917,-0.36538776755332947,0.30789631605148315
1775710449064881700,0.184881591796875,-0.34818434715270996,-0.4877990186214447,0.36206507682800293
1775710449074895400,0.194895263671875,-0.3774413764476776,-0.5156017541885376,0.47564172744750977
1775710449084910300,0.204910400390625,-0.3575827181339264,-0.5050468444824219,0.6064780354499817
1775710449094924500,0.214924560546875,-0.34047839045524597,-0.611804723739624,0.7146273851394653
1775710449104939500,0.224939453125,-0.33292460441589355,-0.8206489682197571,0.7807800769805908
1775710449114953500,0.234953369140625,-0.31385087966918945,-1.008898138999939,0.8786346912384033
1775710449124968400,0.244968505859375,-0.26956117153167725,-1.0767349004745483,1.0191049575805664
1775710449134982400,0.254982421875,-0.2019089013338089,-1.3219377994537354,1.1259459257125854
1775710449144997400,0.264997314453125,-0.10868801921606064,-1.8424550294876099,1.2272149324417114
1775710449155011300,0.27501123046875,-0.1143471822142601,-2.490046739578247,1.3359620571136475
1775710449165026300,0.2850263671875,-0.32922008633613586,-2.9994802474975586,1.3669698238372803
1775710449175040500,0.29504052734375,-0.7055379748344421,-3.375948429107666,1.3626633882522583
1775710449185054500,0.305054443359375,-1.1518309116363525,-3.4995930194854736,1.3819806575775146
1775710449195069400,0.3150693359375,-1.6343988180160522,-3.541341781616211,1.446202278137207
1775710449205083400,0.32508349609375,-2.107434034347534,-3.4750335216522217,1.5012961626052856
1775710449215098400,0.335098388671875,-2.1917545795440674,-2.6778852939605713,1.3909459114074707
1775710449225112300,0.3451123046875,-1.2645810842514038,-1.8706527948379517,0.9002244472503662
1775710449235127600,0.35512744140625,0.3767026662826538,-1.18913733959198,0.4355853497982025
1775710449245141200,0.365141357421875,1.569761872291565,-0.789181649684906,0.36671388149261475
1775710449255156200,0.37515625,1.7362858057022095,-0.49406668543815613,0.43366602063179016
1775710449265170400,0.38517041015625,1.1964271068572998,-0.31277546286582947,0.3560497760772705
1775710449275185400,0.395185302734375,0.5724111795425415,-0.359771728515625,0.28486189246177673
1775710449285199400,0.405199462890625,0.3214801549911499,-0.46638044714927673,0.3191452920436859
1775710449295214300,0.41521435546875,0.36777469515800476,-0.561125636100769,0.4877223074436188
1775710449305228500,0.425228515625,0.4202890396118164,-0.8222885131835938,0.7776849269866943
1775710449315242200,0.4352421875,0.47613418102264404,-1.1395002603530884,0.9018366932868958
1775710449325257200,0.44525732421875,0.5655300617218018,-1.4666755199432373,0.8698478937149048
1775710449335271400,0.455271484375,0.6795528531074524,-1.7285078763961792,0.7426373958587646
1775710449345286400,0.465286376953125,0.7050102949142456,-1.7471572160720825,0.6969636082649231
1775710449355300400,0.47530029296875,0.4446024000644684,-1.465086817741394,0.4708053469657898
1775710449365315300,0.4853154296875,0.30363327264785767,-0.8811492919921875,0.2220439910888672
1775710449375329300,0.495329345703125,0.3677845597267151,-0.33424413204193115,0.03578810393810272
1775710449385344300,0.50534423828125,0.5213801264762878,-0.1212698444724083,0.014640267007052898
1775710449395358200,0.515358154296875,0.5549059510231018,-0.14691953361034393,0.06286721676588058
1775710449405373400,0.52537353515625,0.3988891541957855,-0.2656871974468231,0.12549704313278198
1775710449415387400,0.535387451171875,0.23386028409004211,-0.39127710461616516,0.16413338482379913
1775710449425402400,0.54540234375,0.14766919612884521,-0.5252016186714172,0.14949558675289154
1775710449435416600,0.55541650390625,0.1551458239555359,-0.4971560835838318,0.07404666393995285
1775710449445430300,0.56543017578125,0.23094896972179413,-0.3115755617618561,-0.02758009172976017
1775710449455445200,0.5754453125,0.3191109895706177,0.0708407536149025,-0.06594162434339523
1775710449465459500,0.58545947265625,0.3690609633922577,0.3643037676811218,-0.06017988175153732
1775710449475474400,0.595474365234375,0.3668404221534729,0.33143356442451477,-0.012279421091079712
1775710449485488400,0.60548828125,0.27157703042030334,0.0730249211192131,0.06389710307121277
1775710449495503400,0.61550341796875,0.10850954800844193,-0.15277475118637085,0.1116667166352272
1775710449505517600,0.625517578125,-0.05748873949050903,-0.36641860008239746,0.14400653541088104
1775710449515532300,0.6355322265625,-0.15833693742752075,-0.49799683690071106,0.16583548486232758
1775710449525546200,0.645546142578125,-0.14176595211029053,-0.6123060584068298,0.18352845311164856
1775710449535561200,0.655561279296875,0.0028524836525321007,-0.8088012933731079,0.20985379815101624
1775710449545575400,0.665575439453125,0.09425074607133865,-0.9095838069915771,0.14076924324035645
1775710449555589400,0.67558935546875,0.060821522027254105,-0.8159466981887817,0.008832765743136406
1775710449565604400,0.685604248046875,-0.03603072464466095,-0.5726235508918762,-0.09874854981899261
1775710449575618300,0.695618408203125,-0.07247350364923477,-0.31010594964027405,-0.1619100123643875
1775710449585633300,0.70563330078125,-0.02162550576031208,-0.15296904742717743,-0.1838374137878418
1775710449595647200,0.715647216796875,0.002856082981452346,-0.12319625169038773,-0.1809784322977066
1775710449605662500,0.725662353515625,-0.03095967136323452,-0.21386995911598206,-0.16396401822566986
1775710449615676400,0.735676513671875,-0.0908176377415657,-0.3671224117279053,-0.11717920750379562
1775710449625691400,0.74569140625,-0.14753125607967377,-0.4430142641067505,-0.06090342253446579
1775710449635705300,0.755705322265625,-0.1778157353401184,-0.38298293948173523,-0.08296085894107819
1775710449645720600,0.765720458984375,-0.1893128752708435,-0.1212296336889267,-0.187823086977005
1775710449655734300,0.775734375,-0.20479516685009003,0.09206639975309372,-0.24872665107250214
1775710449665748500,0.78574853515625,-0.21126602590084076,0.1229931190609932,-0.2881464958190918
1775710449675763500,0.795763427734375,-0.20094677805900574,0.08026686310768127,-0.3286285698413849
1775710449685777400,0.80577734375,-0.1793868988752365,0.04312562569975853,-0.32222819328308105
1775710449695792400,0.81579248046875,-0.13086143136024475,-0.03925100713968277,-0.27955371141433716
1775710449705806300,0.825806396484375,-0.07382442057132721,-0.08881258964538574,-0.24735888838768005
1775710449715821300,0.8358212890625,-0.01666634902358055,-0.06724528968334198,-0.2498733550310135
1775710449725835300,0.845835205078125,0.05452607199549675,-0.0926545113325119,-0.23906278610229492
1775710449735850200,0.855850341796875,0.11591406166553497,-0.1434689611196518,-0.23540014028549194
1775710449745864400,0.865864501953125,0.14693878591060638,-0.1792396903038025,-0.23128847777843475
1775710449755879400,0.87587939453125,0.15042930841445923,-0.1693854182958603,-0.22596898674964905
1775710449765893400,0.885893310546875,0.1425175964832306,-0.096378855407238,-0.21111732721328735
1775710449775907300,0.8959072265625,0.14588813483715057,-0.042973585426807404,-0.18437032401561737
1775710449785922300,0.90592236328125,0.16358110308647156,-0.03891466185450554,-0.16324105858802795
1775710449795936300,0.915936279296875,0.15469008684158325,-0.03869308903813362,-0.1584576666355133
1775710449805951200,0.925951171875,0.11738692224025726,-0.025857718661427498,-0.14847375452518463
1775710449815965400,0.93596533203125,0.05391351133584976,0.03174898028373718,-0.12282246351242065
1775710449825980400,0.94598046875,-0.010332852602005005,0.07549885660409927,-0.07065299898386002
1775710449835994400,0.955994384765625,-0.06728149950504303,0.08548334240913391,0.01129333209246397
1775710449846009300,0.96600927734375,-0.09510327875614166,0.08670572936534882,0.1032208576798439
1775710449856023300,0.976023193359375,-0.09757011383771896,0.06278549134731293,0.17673519253730774
1775710449866038300,0.986038330078125,-0.118693508207798,0.05565860494971275,0.22810490429401398
1775710449876052500,0.996052490234375,-0.1537494957447052,0.08280404657125473,0.23986972868442535
1775710449886066400,1.00606640625,-0.17717678844928741,0.12349182367324829,0.208814337849617
1775710449896081400,1.016081298828125,-0.18548832833766937,0.1646239012479782,0.14525935053825378
1775710449906095400,1.026095458984375,-0.18859995901584625,0.2027965933084488,0.0739382952451706
1775710449916110300,1.0361103515625,-0.19141370058059692,0.2285672277212143,0.013346563093364239
1775710449926124300,1.046124267578125,-0.1936134696006775,0.2602638900279999,-0.020061461254954338
1775710449936139300,1.05613916015625,-0.20361755788326263,0.281686007976532,-0.03278179466724396
1775710449946153500,1.066153564453125,-0.21758823096752167,0.2959485650062561,-0.03022169880568981
1775710449956168400,1.07616845703125,-0.22809910774230957,0.30985140800476074,-0.0070406729355454445
1775710449966182400,1.086182373046875,-0.2179335653781891,0.30992117524147034,0.02194969914853573
1775710449976197400,1.096197265625,-0.1924368143081665,0.3011888861656189,0.06861220300197601
1775710449986211300,1.10621142578125,-0.17600643634796143,0.26160284876823425,0.1339792162179947
1775710449996225300,1.116225341796875,-0.15297597646713257,0.21011440455913544,0.20198172330856323
1775710450006240300,1.126240234375,-0.13519299030303955,0.15251103043556213,0.24548259377479553
1775710450016254500,1.13625439453125,-0.13941890001296997,0.1470952332019806,0.2603454291820526
1775710450026269400,1.14626953125,-0.15825195610523224,0.17924736440181732,0.256825715303421
1775710450036283100,1.156283203125,-0.1706475168466568,0.21149854362010956,0.24574434757232666
1775710450046298400,1.16629833984375,-0.1388736069202423,0.23243311047554016,0.24013599753379822
1775710450056312300,1.176312255859375,-0.1077972874045372,0.19494366645812988,0.23306691646575928
1775710450066327300,1.186327392578125,-0.10483159124851227,0.1461809128522873,0.21659792959690094
1775710450076341500,1.196341552734375,-0.11145225912332535,0.11812904477119446,0.1895243376493454
1775710450086355500,1.20635546875,-0.1297609657049179,0.1279025673866272,0.15875257551670074
1775710450096370400,1.216370361328125,-0.13067898154258728,0.21968437731266022,0.15017662942409515
1775710450106384400,1.22638427734375,-0.11088583618402481,0.26523640751838684,0.16169773042201996
1775710450116399400,1.2363994140625,-0.1146325021982193,0.2700566351413727,0.17150510847568512
1775710450126413300,1.246413330078125,-0.17590385675430298,0.195011168718338,0.1884305626153946
1775710450136428300,1.25642822265625,-0.24511247873306274,0.13827811181545258,0.2114860862493515
1775710450146442500,1.2664423828125,-0.2772461473941803,0.10780996084213257,0.23208846151828766
1775710450156457500,1.27645751953125,-0.28090789914131165,0.0852118730545044,0.24145878851413727
1775710450166471400,1.286471435546875,-0.2797342538833618,0.08224911242723465,0.24809113144874573
1775710450176486100,1.296486083984375,-0.27806127071380615,0.06949134916067123,0.256022185087204
1775710450186500400,1.306500244140625,-0.2682288587093353,0.050848159939050674,0.2599650025367737
1775710450196515000,1.31651513671875,-0.23965270817279816,0.057424869388341904,0.25884032249450684
1775710450206530000,1.326530029296875,-0.22081004083156586,0.07498229295015335,0.25311344861984253
1775710450216544300,1.336544189453125,-0.2277297079563141,0.08128142356872559,0.2584451138973236
1775710450226559200,1.346559326171875,-0.24917560815811157,0.06581751257181168,0.26253730058670044
1775710450236573200,1.3565732421875,-0.2638475298881531,0.044737037271261215,0.27141469717025757
1775710450246588200,1.366588134765625,-0.27248015999794006,0.005096949636936188,0.2812473475933075
1775710450256602000,1.37660205078125,-0.27583539485931396,-0.024337777867913246,0.2956164479255676
1775710450266617000,1.3866171875,-0.290699303150177,-0.03602612763643265,0.3133368492126465
1775710450276631000,1.396631103515625,-0.30877894163131714,-0.043013736605644226,0.3376449644565582
1775710450286645200,1.406645263671875,-0.3270799219608307,-0.03948504850268364,0.36317428946495056
1775710450296660200,1.41666015625,-0.33605873584747314,-0.010538982227444649,0.3956140875816345
1775710450306674000,1.426673828125,-0.33994510769844055,0.03494727611541748,0.4021974205970764
1775710450316689000,1.43668896484375,-0.3430313467979431,0.07503879070281982,0.3755207359790802
1775710450326703000,1.446703125,-0.3421991169452667,0.11813832074403763,0.3575574457645416
1775710450336718000,1.456718017578125,-0.3451392352581024,0.12561914324760437,0.3527746796607971
1775710450346732000,1.46673193359375,-0.3383985161781311,0.12327747792005539,0.362053245306015
1775710450356747300,1.476747314453125,-0.3372389078140259,0.12707841396331787,0.36533957719802856
1775710450366761200,1.48676123046875,-0.3451769948005676,0.15273982286453247,0.3567703068256378
1775710450376776200,1.496776123046875,-0.3620544672012329,0.12697961926460266,0.3355199098587036
1775710450386790100,1.5067900390625,-0.37547385692596436,0.07887201756238937,0.31144946813583374
1775710450396804000,1.51680419921875,-0.3755165934562683,0.007134521380066872,0.2990042269229889
1775710450406819000,1.526819091796875,-0.36881208419799805,-0.07518699020147324,0.2894810140132904
1775710450416833300,1.536833251953125,-0.34281402826309204,-0.15925179421901703,0.2706918716430664
1775710450426848300,1.54684814453125,-0.31594353914260864,-0.24588042497634888,0.2711355686187744
1775710450436862200,1.5568623046875,-0.3109634816646576,-0.2701799273490906,0.29827314615249634
1775710450446877000,1.566876953125,-0.32932838797569275,-0.2686123847961426,0.3339672386646271
1775710450456891100,1.57689111328125,-0.3439338505268097,-0.296561062335968,0.37820523977279663
1775710450466906000,1.586906005859375,-0.3377699851989746,-0.34474536776542664,0.43951812386512756
1775710450476920000,1.596920166015625,-0.31783726811408997,-0.42761144042015076,0.5049248933792114
1775710450486934300,1.606934326171875,-0.2963993549346924,-0.5404852628707886,0.5594600439071655
1775710450496949200,1.61694921875,-0.281486451625824,-0.627582848072052,0.5948164463043213
1775710450506963000,1.626962890625,-0.2635761499404907,-0.6826788783073425,0.5963349938392639
1775710450516978000,1.63697802734375,-0.2291112244129181,-0.6960667371749878,0.579338788986206
1775710450526992100,1.6469921875,-0.2025350034236908,-0.661234438419342,0.5525465607643127
1775710450537007000,1.657007080078125,-0.1724173128604889,-0.6073265075683594,0.5273512005805969
1775710450547021000,1.66702099609375,-0.151540145277977,-0.5457452535629272,0.510604202747345
1775710450557036300,1.677036376953125,-0.14198824763298035,-0.4704633057117462,0.4862787127494812
1775710450567050200,1.68705029296875,-0.12728068232536316,-0.3954567015171051,0.48119819164276123
1775710450577064000,1.69706396484375,-0.1306253969669342,-0.3747195899486542,0.49986356496810913
1775710450587079200,1.7070791015625,-0.17565065622329712,-0.40874946117401123,0.5464227795600891
1775710450597093000,1.717093017578125,-0.26246193051338196,-0.46260926127433777,0.59775310754776
1775710450607108000,1.727108154296875,-0.36256352066993713,-0.5237908959388733,0.6245197057723999
1775710450617122000,1.7371220703125,-0.4420029819011688,-0.5671470761299133,0.6169912219047546
1775710450627137300,1.74713720703125,-0.4622616469860077,-0.5522230267524719,0.5946619510650635
1775710450637151000,1.75715087890625,-0.46130701899528503,-0.5297951102256775,0.5780474543571472
1775710450647166000,1.767166015625,-0.4692666530609131,-0.4947158992290497,0.5795726180076599
1775710450657180200,1.77718017578125,-0.4999108612537384,-0.47160738706588745,0.5915928483009338
1775710450667194000,1.787194091796875,-0.49924927949905396,-0.47528135776519775,0.6173266768455505
1775710450677209000,1.797208984375,-0.46579909324645996,-0.5231145620346069,0.6535518765449524
1775710450687223300,1.807223388671875,-0.4461284279823303,-0.5676226019859314,0.6848021745681763
1775710450697238300,1.81723828125,-0.4410838782787323,-0.6713908314704895,0.6959355473518372
1775710450707252000,1.827251953125,-0.4387466013431549,-0.795651912689209,0.6843231916427612
1775710450717267000,1.837266845703125,-0.4330463707447052,-0.8891146779060364,0.6536214351654053
1775710450727281200,1.84728125,-0.42295271158218384,-0.983883798122406,0.610985517501831
1775710450737296100,1.857296142578125,-0.40808215737342834,-1.0812811851501465,0.562712550163269
1775710450747310000,1.86731005859375,-0.40237319469451904,-1.1385339498519897,0.5356160998344421
1775710450757324300,1.87732421875,-0.41414666175842285,-1.1913561820983887,0.5128995180130005
1775710450767339300,1.88733935546875,-0.4396775960922241,-1.2189167737960815,0.4796068072319031
1775710450777353000,1.89735302734375,-0.4751436412334442,-1.1884863376617432,0.4210953116416931
1775710450787368000,1.907367919921875,-0.5004042387008667,-1.1766259670257568,0.3437451124191284
1775710450797382100,1.917382080078125,-0.50335693359375,-1.1713674068450928,0.28466111421585083
1775710450807397000,1.927397216796875,-0.4924701750278473,-1.181145429611206,0.24992311000823975
1775710450817411000,1.9374111328125,-0.46774032711982727,-1.1863644123077393,0.23053821921348572
1775710450827426300,1.94742626953125,-0.4353286027908325,-1.2330368757247925,0.2161795198917389
1775710450837440000,1.95743994140625,-0.39378878474235535,-1.2035151720046997,0.19700737297534943
1775710450847454000,1.967453857421875,-0.34707745909690857,-1.1373870372772217,0.18718083202838898
1775710450857469200,1.97746923828125,-0.31232208013534546,-1.0709373950958252,0.20040017366409302
1775710450867483100,1.987483154296875,-0.2870374917984009,-0.968892514705658,0.2216133177280426
1775710450877498000,1.997498046875,-0.2668883204460144,-0.8133355975151062,0.2218277007341385
1775710450887512300,2.00751220703125,-0.24859321117401123,-0.674299955368042,0.2092868834733963
1775710450897527300,2.01752734375,-0.24319492280483246,-0.5539718270301819,0.19011619687080383
1775710450907541000,2.027541015625,-0.26149722933769226,-0.418913334608078,0.17109617590904236
1775710450917556000,2.037555908203125,-0.29507365822792053,-0.2759779691696167,0.17773380875587463
1775710450927570200,2.047570068359375,-0.31829535961151123,-0.18147650361061096,0.19639191031455994
1775710450937584000,2.057584228515625,-0.32236799597740173,-0.1620635688304901,0.2435293048620224
1775710450947599000,2.06759912109375,-0.3139132559299469,-0.17350104451179504,0.32646599411964417
1775710450957613300,2.07761328125,-0.3068825602531433,-0.18517689406871796,0.43975669145584106
1775710450967628000,2.0876279296875,-0.3221978545188904,-0.2999913692474365,0.5833998918533325
1775710450977642000,2.09764208984375,-0.3708977699279785,-0.5307774543762207,0.7114654779434204
1775710450987657000,2.107656982421875,-0.46832072734832764,-0.7721549272537231,0.8179990649223328
1775710450997671200,2.117671142578125,-0.5632193088531494,-0.9669246673583984,0.8890495896339417
1775710451007686100,2.12768603515625,-0.6261911392211914,-1.13016676902771,0.9001110196113586
1775710451017700000,2.1377001953125,-0.6490028500556946,-1.1601383686065674,0.8537513017654419
1775710451027714000,2.147714111328125,-0.6404269337654114,-1.0166738033294678,0.7662230730056763
1775710451037729000,2.15772900390625,-0.6036941409111023,-0.735113799571991,0.633591890335083
1775710451047743000,2.167742919921875,-0.5397923588752747,-0.4574909806251526,0.47676363587379456
1775710451057758200,2.17775830078125,-0.49202775955200195,-0.22571177780628204,0.3047857880592346
1775710451067772200,2.187772216796875,-0.4627838432788849,-0.08726894110441208,0.17549678683280945
1775710451077787100,2.197787109375,-0.47031646966934204,-0.004964455030858517,0.14338526129722595
1775710451087801300,2.20780126953125,-0.5069189667701721,-0.02613285556435585,0.17517541348934174
1775710451097815000,2.21781494140625,-0.5366445183753967,-0.16152486205101013,0.25772327184677124
1775710451107830000,2.227830078125,-0.5526543855667114,-0.3046194314956665,0.38630709052085876
1775710451117844200,2.23784423828125,-0.5477396249771118,-0.4160976707935333,0.5303158164024353
1775710451127859200,2.247859130859375,-0.5107001066207886,-0.47932884097099304,0.6704063415527344
1775710451137873200,2.257873046875,-0.436732679605484,-0.5219521522521973,0.777423620223999
1775710451147888000,2.26788818359375,-0.36431705951690674,-0.536313533782959,0.8225256204605103
1775710451157902000,2.277902099609375,-0.30399179458618164,-0.5239320993423462,0.8130337595939636
1775710451167917000,2.2879169921875,-0.2545944154262543,-0.46154463291168213,0.7402487993240356
1775710451177931000,2.297930908203125,-0.1911405473947525,-0.3739522099494934,0.6347932815551758
1775710451187945200,2.3079453125,-0.15695355832576752,-0.1743496060371399,0.5124137997627258
1775710451197959700,2.317959716796875,-0.15730515122413635,0.06385324895381927,0.4038981795310974
1775710451207973600,2.3279736328125,-0.12454959005117416,0.25033900141716003,0.3414933681488037
1775710451217988600,2.337988525390625,-0.1417417973279953,0.45096251368522644,0.2979697287082672
1775710451228002800,2.3480029296875,-0.19217994809150696,0.6209204196929932,0.2695505917072296
1775710451238017800,2.358017822265625,-0.2511429190635681,0.6830565333366394,0.2696727216243744
1775710451248031700,2.36803173828125,-0.3148755431175232,0.6091455817222595,0.2892240583896637
1775710451258045700,2.378045654296875,-0.34782060980796814,0.42644697427749634,0.3209080696105957
1775710451268060700,2.388060791015625,-0.3308674693107605,0.20799773931503296,0.3827064633369446
1775710451278074600,2.39807470703125,-0.2938690781593323,0.04782651737332344,0.4766630232334137
1775710451288089900,2.40808984375,-0.2719147801399231,-0.0033983211033046246,0.5338996648788452
1775710451298103800,2.418103759765625,-0.27537500858306885,0.05365537852048874,0.5150679349899292
1775710451308118500,2.428118408203125,-0.3120698630809784,0.13774076104164124,0.45361170172691345
1775710451318132700,2.4381328125,-0.37275800108909607,0.18992219865322113,0.37294065952301025
1775710451328147700,2.448147705078125,-0.4133075773715973,0.25665780901908875,0.2873735725879669
1775710451338161700,2.45816162109375,-0.42122727632522583,0.31589174270629883,0.2198043167591095
1775710451348176000,2.46817578125,-0.4112832844257355,0.34811678528785706,0.18299303948879242
1775710451358190800,2.47819091796875,-0.4065946638584137,0.32033771276474,0.16119037568569183
1775710451368204500,2.48820458984375,-0.40691742300987244,0.24919003248214722,0.1292572170495987
1775710451378219500,2.498219482421875,-0.41400277614593506,0.19422557950019836,0.11429531872272491
1775710451388233700,2.508233642578125,-0.3932490348815918,0.14481328427791595,0.14396266639232635
1775710451398248700,2.518248779296875,-0.33962446451187134,0.06558413058519363,0.18401652574539185
1775710451408262700,2.5282626953125,-0.25090736150741577,-0.06663915514945984,0.22067733108997345
1775710451418276900,2.53827685546875,-0.15128721296787262,-0.185995414853096,0.28872326016426086
1775710451428291800,2.548291748046875,-0.10080567002296448,-0.23490676283836365,0.3965991139411926
1775710451438305500,2.558305419921875,-0.08413945883512497,-0.24285978078842163,0.5005832314491272
1775710451448320500,2.568320556640625,-0.07366631180047989,-0.2119537889957428,0.5464769601821899
1775710451458334700,2.578334716796875,-0.05085344985127449,-0.17257241904735565,0.5414686799049377
1775710451468349700,2.588349609375,-0.03455037623643875,-0.06323501467704773,0.5184326171875
1775710451478363600,2.59836376953125,-0.029602086171507835,0.09023931622505188,0.4743748605251312
1775710451488377900,2.6083779296875,-0.03328444063663483,0.2393864542245865,0.4077010154724121
1775710451498392600,2.618392578125,-0.0389280766248703,0.3593835234642029,0.3298381567001343
1775710451508406500,2.628406494140625,-0.05205479636788368,0.41861647367477417,0.2547804117202759
1775710451518421800,2.638421875,-0.08186089992523193,0.38850194215774536,0.1952814906835556
1775710451528435700,2.648435791015625,-0.11258286237716675,0.30938419699668884,0.1726113259792328
1775710451538450700,2.65845068359375,-0.12116502970457077,0.2155226618051529,0.16405585408210754
1775710451548465000,2.66846484375,-0.09873908013105392,0.13244882225990295,0.1496358960866928
1775710451558480000,2.67847998046875,-0.07016793638467789,0.08309425413608551,0.14208203554153442
1775710451568493600,2.68849365234375,-0.05494876950979233,0.0819496288895607,0.1502571403980255
1775710451578507800,2.6985078125,-0.0482255183160305,0.09894248098134995,0.16836045682430267
1775710451588522800,2.708522705078125,-0.034391727298498154,0.12446275353431702,0.18619005382061005
1775710451598536700,2.71853662109375,-0.013007964007556438,0.1789039820432663,0.195736825466156
1775710451608551700,2.7285517578125,0.003245574189350009,0.28073662519454956,0.17916397750377655
1775710451618566000,2.73856591796875,0.016655655577778816,0.39173582196235657,0.12297766655683517
1775710451628580900,2.748580810546875,0.01924850046634674,0.47541096806526184,0.050096094608306885
1775710451638594600,2.758594482421875,0.01821393147110939,0.5081464648246765,-0.003697903361171484
1775710451648608800,2.76860888671875,0.008806846104562283,0.4506344199180603,-0.030864275991916656
1775710451658623700,2.778623779296875,-0.01915779896080494,0.3325531780719757,-0.02889232337474823
1775710451668637700,2.7886376953125,-0.06243230029940605,0.20940569043159485,0.003140444168820977
1775710451678652700,2.798652587890625,-0.08862517029047012,0.12931247055530548,0.0468033030629158
1775710451688666600,2.80866650390625,-0.0959874764084816,0.07335519790649414,0.07250920683145523
1775710451698681600,2.818681640625,-0.08782069385051727,0.06609625369310379,0.07397351413965225
1775710451708695600,2.828695556640625,-0.06740011274814606,0.08614879101514816,0.07412797957658768
1775710451718709800,2.838709716796875,-0.04219388961791992,0.10404416173696518,0.08133365213871002
1775710451728724700,2.848724853515625,-0.01654365286231041,0.083539679646492,0.09251467138528824
1775710451738738700,2.85873876953125,0.0001780688762664795,0.03790748491883278,0.08677848428487778
1775710451748753700,2.868753662109375,0.01286463625729084,-0.008877159096300602,0.06949429959058762
1775710451758767600,2.878767578125,0.030229050666093826,-0.0034058925230056047,0.04347941279411316
1775710451768782600,2.888782470703125,0.05815735459327698,0.035399291664361954,0.010171259753406048
1775710451778796800,2.898796875,0.07673446089029312,0.08125385642051697,-0.02793208323419094
1775710451788810800,2.908810791015625,0.08884730935096741,0.09483997523784637,-0.056906476616859436
1775710451798825700,2.91882568359375,0.08518031239509583,0.07197608053684235,-0.0605536550283432
1775710451808839700,2.928839599609375,0.06835179775953293,0.05784241110086441,-0.04449879005551338
1775710451818855000,2.93885498046875,0.05266071483492851,0.055422134697437286,-0.023294435814023018
1775710451828868600,2.94886865234375,0.049215950071811676,0.07867281138896942,-0.008716031908988953
1775710451838883600,2.958883544921875,0.05477210506796837,0.11794431507587433,-0.004824887029826641
1775710451848897800,2.968897705078125,0.05364729091525078,0.12175548821687698,-0.018924839794635773
1775710451858911700,2.978911865234375,0.051469892263412476,0.0877690240740776,-0.03848416358232498
1775710451868926700,2.9889267578125,0.04541362076997757,0.04381941258907318,-0.039061930030584335
1775710451878940700,2.998940673828125,0.021054483950138092,0.0181856881827116,-0.03180881217122078
1775710451888955600,3.00895556640625,-0.04161308705806732,0.03712759539484978,-0.029986688867211342
1775710451898969600,3.018969482421875,-0.12476710230112076,0.07183364033699036,-0.029941147193312645
1775710451908984600,3.028984619140625,-0.18840812146663666,0.10951513797044754,-0.022229481488466263
1775710451918998800,3.038998779296875,-0.22264519333839417,0.14538952708244324,-0.0039189159870147705
1775710451929012700,3.0490126953125,-0.23201842606067657,0.13804590702056885,0.011227854527533054
1775710451939027700,3.05902783203125,-0.22652804851531982,0.07681264728307724,0.017761653289198875
1775710451949041700,3.069041748046875,-0.21973851323127747,-0.017639653757214546,0.012777269817888737
1775710451959056600,3.079056640625,-0.19967612624168396,-0.08165378868579865,-0.002811543410643935
1775710451969070600,3.089070556640625,-0.17886857688426971,-0.0829530879855156,-0.0272368211299181
1775710451979085600,3.09908544921875,-0.16514743864536285,-0.049918174743652344,-0.053443122655153275
1775710451989099800,3.109099853515625,-0.16006703674793243,0.032211028039455414,-0.08204807341098785
1775710451999113700,3.11911376953125,-0.1643986701965332,0.1080823540687561,-0.10578243434429169
1775710452009128700,3.129128662109375,-0.18160708248615265,0.13842952251434326,-0.12172462046146393
1775710452019142700,3.139142578125,-0.20848210155963898,0.13561031222343445,-0.1256738156080246
1775710452029157600,3.14915771484375,-0.23115605115890503,0.09219837188720703,-0.11537247896194458
1775710452039171600,3.159171630859375,-0.2424798160791397,0.05384325981140137,-0.07596169412136078
1775710452049186800,3.169186767578125,-0.22712190449237823,0.02511029876768589,-0.02476702257990837
1775710452059200800,3.17920068359375,-0.19179639220237732,0.03558797389268875,0.025333428755402565
1775710452069214500,3.18921435546875,-0.151666522026062,0.047147806733846664,0.06312362849712372
1775710452079229700,3.199229736328125,-0.11616712063550949,0.04296797513961792,0.08018063753843307
1775710452089243600,3.20924365234375,-0.08904726058244705,0.029541080817580223,0.10871537774801254
1775710452099258600,3.219258544921875,-0.06509265303611755,-0.0014008554862812161,0.14973126351833344
1775710452109272800,3.22927294921875,-0.05617941915988922,-0.022063059732317924,0.17966802418231964
1775710452119286800,3.239286865234375,-0.0648016706109047,-0.005044661462306976,0.1700633466243744
1775710452129301800,3.2493017578125,-0.08433528244495392,0.03983154520392418,0.11824033409357071
1775710452139315700,3.259315673828125,-0.0923178419470787,0.09120631963014603,0.06601680815219879
1775710452149330700,3.26933056640625,-0.08583495020866394,0.11184661090373993,0.0369623638689518
1775710452159344600,3.2793447265625,-0.07057184725999832,0.09466709196567535,0.02320367470383644
1775710452169359600,3.289359619140625,-0.05408507212996483,0.05980459600687027,0.02690165303647518
1775710452179373800,3.299373779296875,-0.04736032336950302,0.05559227615594864,0.03819212689995766
1775710452189387800,3.3093876953125,-0.04426936060190201,0.06621319055557251,0.05475408956408501
1775710452199403300,3.3194033203125,-0.02624056115746498,0.09396812319755554,0.07927088439464569
1775710452209417200,3.329417236328125,-0.011255688965320587,0.13795380294322968,0.08942054212093353
1775710452219432400,3.339432373046875,-0.0062928879633545876,0.1722060590982437,0.0853501707315445
1775710452229446100,3.349446044921875,-0.003976098261773586,0.19413939118385315,0.10643504559993744
1775710452239461000,3.359461181640625,0.001321728341281414,0.19273510575294495,0.14435259997844696
1775710452249475300,3.369475341796875,0.00879096519201994,0.17204616963863373,0.16595293581485748
1775710452259489300,3.3794892578125,0.011548135429620743,0.16652436554431915,0.16003486514091492
1775710452269504300,3.389504150390625,0.0044236076064407825,0.16966234147548676,0.13222411274909973
1775710452279518200,3.399518310546875,-0.005649000406265259,0.17456549406051636,0.1046271026134491
1775710452289533200,3.409533203125,-0.020727287977933884,0.17300455272197723,0.09270050376653671
1775710452299547100,3.419547119140625,-0.04211913049221039,0.18709081411361694,0.08324494957923889
1775710452309561300,3.429561279296875,-0.05323948711156845,0.21119683980941772,0.0687764436006546
1775710452319576300,3.439576416015625,-0.0403500571846962,0.20139135420322418,0.07080311328172684
1775710452329590300,3.44959033203125,-0.028946897014975548,0.15295761823654175,0.0877079963684082
1775710452339605200,3.459605224609375,-0.028198549523949623,0.0787733942270279,0.09297653287649155
1775710452349619200,3.469619140625,-0.03791069984436035,0.02871009334921837,0.09060324728488922
1775710452359634200,3.47963427734375,-0.046063702553510666,0.014870710670948029,0.08371897786855698
1775710452369648000,3.489648193359375,-0.0468820258975029,0.006802039220929146,0.07901768386363983
1775710452379662300,3.499662353515625,-0.04145423695445061,-0.010882149450480938,0.0727672427892685
1775710452389677300,3.50967724609375,-0.02415916696190834,-0.027853038161993027,0.06227083504199982
1775710452399691300,3.519691162109375,-0.006946624256670475,-0.012630143202841282,0.05975627899169922
1775710452409706200,3.529706298828125,0.0014487882144749165,0.010534945875406265,0.058383774012327194
1775710452419720200,3.53972021484375,0.0013752849772572517,0.03318113833665848,0.04102315753698349
1775710452429735200,3.549735107421875,-0.0015465010656043887,0.050696954131126404,0.007317881099879742
1775710452439749000,3.5597490234375,-0.004033893346786499,0.06329876184463501,-0.03737368807196617
1775710452449763300,3.569763427734375,-0.024866504594683647,0.049195244908332825,-0.08287113159894943
1775710452459778300,3.5797783203125,-0.05382678657770157,0.03520059958100319,-0.11516834795475006
1775710452469792000,3.5897919921875,-0.06961000710725784,0.003815246978774667,-0.12686307728290558
1775710452479807200,3.59980712890625,-0.07537788152694702,-0.033362749963998795,-0.12285716086626053
1775710452489821200,3.6098212890625,-0.0684509351849556,-0.07623377442359924,-0.111652672290802
1775710452499835100,3.619835205078125,-0.047978147864341736,-0.1280439794063568,-0.11030298471450806
1775710452509850400,3.629850341796875,-0.024683114141225815,-0.16917146742343903,-0.11747217178344727
1775710452519864300,3.6398642578125,-0.008908146061003208,-0.16111060976982117,-0.12410024553537369
1775710452529879300,3.64987939453125,0.0003968412056565285,-0.15216884016990662,-0.12470673024654388
1775710452539893200,3.659893310546875,0.0032562771812081337,-0.16189338266849518,-0.11589859426021576
1775710452549907200,3.6699072265625,0.00043805292807519436,-0.17516328394412994,-0.10014598816633224
1775710452559922200,3.679922119140625,0.018817326053977013,-0.21739542484283447,-0.09664127230644226
1775710452569936400,3.689936279296875,0.05144241452217102,-0.2466437965631485,-0.12156681716442108
1775710452579951400,3.699951416015625,0.07546305656433105,-0.24554285407066345,-0.1434105932712555
1775710452589965300,3.70996533203125,0.07375654578208923,-0.28565624356269836,-0.14601171016693115
1775710452599980300,3.719980224609375,0.06236087530851364,-0.3370656371116638,-0.13719186186790466
1775710452609994200,3.729994140625,0.05145702883601189,-0.3646303415298462,-0.13226951658725739
1775710452620008200,3.74000830078125,0.02860044501721859,-0.40372633934020996,-0.15090098977088928
1775710452630023200,3.750023193359375,0.0021418097894638777,-0.42433619499206543,-0.16913355886936188
1775710452640037400,3.760037353515625,-0.025679968297481537,-0.3970792591571808,-0.17175383865833282
1775710452650052400,3.77005224609375,-0.031990163028240204,-0.33021193742752075,-0.1691543012857437
1775710452660066000,3.780066162109375,-0.012273183092474937,-0.2713419497013092,-0.1443040817975998
1775710452670080300,3.790080322265625,0.011241897940635681,-0.23604147136211395,-0.08558913320302963
1775710452680095200,3.80009521484375,0.02909759245812893,-0.2500901520252228,-0.014528276398777962
1775710452690109200,3.810109130859375,0.04602697864174843,-0.2990671992301941,0.03209995850920677
1775710452700124200,3.820124267578125,0.05343828722834587,-0.31662118434906006,0.04203221574425697
1775710452710138400,3.830138427734375,0.044256508350372314,-0.29795506596565247,0.03977864980697632
1775710452720152000,3.840152099609375,0.04403147101402283,-0.3769870400428772,0.05970388650894165
1775710452730167000,3.8501669921875,0.03595320135354996,-0.46016937494277954,0.0869109183549881
1775710452740181200,3.86018115234375,0.010610295459628105,-0.5318025350570679,0.09314724057912827
1775710452750196200,3.8701962890625,-0.03199801966547966,-0.5534997582435608,0.08534511923789978
1775710452760210200,3.880210205078125,-0.09785053879022598,-0.5011089444160461,0.06498338282108307
1775710452770225400,3.890225341796875,-0.14448770880699158,-0.3794717490673065,0.04045703262090683
1775710452780239400,3.9002392578125,-0.1573856621980667,-0.30538153648376465,0.01123789418488741
1775710452790253000,3.910253173828125,-0.15229317545890808,-0.31791117787361145,-0.02675635926425457
1775710452800268300,3.920268310546875,-0.12846639752388,-0.33396443724632263,-0.03386859595775604
1775710452810282200,3.9302822265625,-0.08070524036884308,-0.41080397367477417,0.015586779452860355
1775710452820297200,3.940297119140625,-0.04764475300908089,-0.5163597464561462,0.10237626731395721
1775710452830311400,3.9503115234375,-0.031463854014873505,-0.6098304986953735,0.171139657497406
1775710452840325400,3.960325439453125,-0.005126257427036762,-0.7665655612945557,0.216063991189003
1775710452850340000,3.970340087890625,0.0047845966182649136,-0.9933232069015503,0.23339079320430756
1775710452860354300,3.980354248046875,-0.01621203124523163,-1.1098207235336304,0.2010941058397293
1775710452870369300,3.990369384765625,-0.051645055413246155,-1.1546887159347534,0.07513099908828735
1775710452880383200,4.00038330078125,-0.08475187420845032,-1.0410537719726562,-0.10922259837388992
1775710452890397200,4.010397216796875,-0.07868729531764984,-0.7603969573974609,-0.3104422092437744
1775710452900412400,4.020412353515625,-0.09889988601207733,-0.43864715099334717,-0.5054700374603271
1775710452910426000,4.030426025390625,-0.14574725925922394,-0.18711239099502563,-0.6600354909896851
1775710452920441000,4.040441162109375,-0.18326134979724884,-0.1068497896194458,-0.7600741982460022
1775710452930455300,4.050455322265625,-0.18679557740688324,-0.13555008172988892,-0.8143246173858643
1775710452940469200,4.06046923828125,-0.17354555428028107,-0.19114729762077332,-0.8364525437355042
1775710452950484200,4.070484130859375,-0.16191792488098145,-0.2756619155406952,-0.8392850756645203
1775710452960498400,4.08049853515625,-0.15421687066555023,-0.3694842755794525,-0.816063404083252
1775710452970513400,4.090513427734375,-0.13870015740394592,-0.36967238783836365,-0.7934864163398743
1775710452980527000,4.100527099609375,-0.11938585340976715,-0.312593936920166,-0.7358202338218689
1775710452990541300,4.110541259765625,-0.13477623462677002,-0.2025388479232788,-0.6170259118080139
1775710453000556300,4.120556396484375,-0.17852318286895752,-0.014200093224644661,-0.502259373664856
1775710453010570200,4.1305703125,-0.23394376039505005,0.1131567656993866,-0.43715429306030273
1775710453020585200,4.140585205078125,-0.2982306182384491,0.14102274179458618,-0.42921778559684753
1775710453030599400,4.150599365234375,-0.3615911304950714,0.05186459422111511,-0.43202754855155945
1775710453040613000,4.160613037109375,-0.3993467688560486,-0.02475561387836933,-0.3848280608654022
1775710453050628000,4.170628173828125,-0.3677122890949249,-0.16452498733997345,-0.29829221963882446
1775710453060642300,4.180642333984375,-0.29222336411476135,-0.37785032391548157,-0.1718652993440628
1775710453070657300,4.1906572265625,-0.2332356572151184,-0.5136145949363708,-0.035957273095846176
1775710453080671200,4.200671142578125,-0.18839335441589355,-0.5573322176933289,0.058934617787599564
1775710453090686200,4.210686279296875,-0.16713300347328186,-0.5198838114738464,0.07153891772031784
1775710453100700200,4.2207001953125,-0.1722385436296463,-0.43611595034599304,0.019292227923870087
1775710453110714000,4.230714111328125,-0.16215305030345917,-0.27121564745903015,-0.08304993063211441
1775710453120729000,4.24072900390625,-0.13989143073558807,-0.14726042747497559,-0.19292981922626495
1775710453130743300,4.250743408203125,-0.15258504450321198,-0.10497479885816574,-0.25560903549194336
1775710453140758300,4.26075830078125,-0.18569186329841614,-0.09558023512363434,-0.2621404528617859
1775710453150772200,4.270772216796875,-0.2013530284166336,-0.0903417095541954,-0.22546301782131195
1775710453160786200,4.2807861328125,-0.20788602530956268,-0.08234503120183945,-0.17538121342658997
1775710453170801200,4.29080126953125,-0.21477368474006653,-0.03912341594696045,-0.13222113251686096
1775710453180815000,4.300815185546875,-0.20259664952754974,0.002744673052802682,-0.0728297233581543
1775710453190830300,4.310830322265625,-0.19868995249271393,0.004176352638751268,0.02163795940577984
1775710453200844000,4.320843994140625,-0.21397143602371216,-0.057893410325050354,0.1479860544204712
1775710453210858000,4.33085791015625,-0.22123341262340546,-0.17235006392002106,0.24214734137058258
1775710453220873200,4.340873291015625,-0.2444481998682022,-0.25662100315093994,0.2716599404811859
1775710453230887200,4.35088720703125,-0.3175594210624695,-0.2462734580039978,0.22447438538074493
1775710453240902100,4.360902099609375,-0.42844945192337036,-0.23529110848903656,0.11049269139766693
1775710453250916000,4.370916015625,-0.539771556854248,-0.22002004086971283,-0.012905336916446686
1775710453260930000,4.380929931640625,-0.6038687825202942,-0.19999413192272186,-0.1250513195991516
1775710453270945000,4.390945068359375,-0.6009348034858704,-0.2506662607192993,-0.199562668800354
1775710453280959200,4.400959228515625,-0.5651254057884216,-0.33491748571395874,-0.21485374867916107
1775710453290973200,4.41097314453125,-0.5276600122451782,-0.45386967062950134,-0.2010105848312378
1775710453300988000,4.42098779296875,-0.5289577841758728,-0.4969492554664612,-0.1555355191230774
1775710453311002000,4.431002197265625,-0.5970971584320068,-0.4425986409187317,-0.12351766228675842
1775710453321017000,4.44101708984375,-0.6841428279876709,-0.37642043828964233,-0.12966769933700562
1775710453331031000,4.451031005859375,-0.7617802619934082,-0.3086837828159332,-0.14716452360153198
1775710453341046000,4.4610458984375,-0.7995990514755249,-0.2850929796695709,-0.1637727916240692
1775710453351060200,4.471060302734375,-0.811918318271637,-0.31805866956710815,-0.15008364617824554
1775710453361074000,4.481073974609375,-0.8071184754371643,-0.31102287769317627,-0.12214150279760361
1775710453371089000,4.4910888671875,-0.7742671370506287,-0.293367475271225,-0.10331565886735916
1775710453381103000,4.50110302734375,-0.71535724401474,-0.2829135060310364,-0.052986711263656616
1775710453391117000,4.511116943359375,-0.6140496134757996,-0.2838967740535736,0.006059105973690748
1775710453401132000,4.521132080078125,-0.5047636032104492,-0.3151148855686188,0.03294185549020767
1775710453411146200,4.531146240234375,-0.42915260791778564,-0.3199990689754486,0.006630547344684601
1775710453421161200,4.5411611328125,-0.395986944437027,-0.2511736750602722,-0.08757638186216354
1775710453431175000,4.5511748046875,-0.38194888830184937,-0.12403944134712219,-0.20774033665657043
1775710453441189000,4.561189208984375,-0.32010364532470703,-0.05836056172847748,-0.2883395850658417
1775710453451204000,4.5712041015625,-0.23720765113830566,-0.07379087060689926,-0.30290383100509644
1775710453461218000,4.581218017578125,-0.16683122515678406,-0.14763899147510529,-0.24820488691329956
1775710453471233000,4.59123291015625,-0.14103928208351135,-0.2636352479457855,-0.18295058608055115
1775710453481247200,4.601247314453125,-0.2145683616399765,-0.239688903093338,-0.16264291107654572
1775710453491261000,4.611260986328125,-0.33829647302627563,-0.12772952020168304,-0.17993906140327454
1775710453501276000,4.62127587890625,-0.44257229566574097,-0.051370032131671906,-0.1775033324956894
1775710453511290000,4.6312900390625,-0.4810154438018799,-0.013616429641842842,-0.11774894595146179
1775710453521305000,4.64130517578125,-0.42262881994247437,0.007675543427467346,-0.021363552659749985
1775710453531319000,4.651319091796875,-0.40376532077789307,0.02146126888692379,0.03438981622457504
1775710453541333000,4.6613330078125,-0.5370384454727173,0.044726911932229996,0.007943026721477509
1775710453551348000,4.671347900390625,-0.6826760768890381,0.054766494780778885,-0.05460290610790253
1775710453561362000,4.68136181640625,-0.737886905670166,0.026006486266851425,-0.09279583394527435
1775710453571377200,4.691377197265625,-0.6394341588020325,-0.0917205885052681,-0.06569309532642365
1775710453581391000,4.70139111328125,-0.4645904302597046,-0.17965497076511383,-0.030634447932243347
1775710453591405000,4.711405029296875,-0.3045182526111603,-0.15768103301525116,-0.038873933255672455
1775710453601420300,4.721420166015625,-0.19464367628097534,0.006804314441978931,-0.10999897122383118
1775710453611434000,4.73143408203125,-0.13391153514385223,0.20981398224830627,-0.19545866549015045
1775710453621449000,4.741448974609375,-0.08479351550340652,0.29942187666893005,-0.21073909103870392
1775710453631463200,4.751463134765625,-0.05777478218078613,0.2630225718021393,-0.12143149971961975
1775710453641477000,4.76147705078125,-0.012471215799450874,0.15771187841892242,0.047863516956567764
1775710453651492000,4.7714921875,0.0846174880862236,0.10548439621925354,0.2285182625055313
1775710453661506000,4.781506103515625,0.19235193729400635,0.17660224437713623,0.3946443796157837
1775710453671520000,4.79152001953125,0.28568288683891296,0.2993023693561554,0.5449035167694092
1775710453681535000,4.801534912109375,0.36343759298324585,0.3688332438468933,0.6760607361793518
1775710453691549200,4.811549072265625,0.3666771650314331,0.3816961646080017,0.7638624906539917
1775710453701564200,4.821564208984375,0.2956911325454712,0.29035747051239014,0.7779846787452698
1775710453711578000,4.831578125,0.1694352775812149,0.1526850014925003,0.6949755549430847
1775710453721592000,4.841592041015625,0.029629439115524292,0.10294833779335022,0.5018351078033447
1775710453731607000,4.85160693359375,-0.05767861008644104,0.16063837707042694,0.24206574261188507
1775710453741621000,4.86162109375,-0.07760252058506012,0.22974340617656708,0.05235067382454872
1775710453751636000,4.871635986328125,-0.046582143753767014,0.2523997128009796,-0.05001210421323776
1775710453761650200,4.881650146484375,0.039452604949474335,0.23858831822872162,-0.08073406666517258
1775710453771664100,4.8916640625,0.15215499699115753,0.18749265372753143,-0.05789368972182274
1775710453781679000,4.90167919921875,0.18162447214126587,0.17039595544338226,-0.02926390990614891
1775710453791693000,4.911693115234375,0.1324373036623001,0.21181745827198029,-0.020714171230793
1775710453801708000,4.9217080078125,0.03875662013888359,0.25821933150291443,-0.03566169738769531
1775710453811722000,4.931721923828125,-0.0704507902264595,0.207016259431839,-0.004091259092092514
1775710453821736200,4.941736083984375,-0.18092776834964752,0.10556580126285553,0.07556362450122833
1775710453831751200,4.951751220703125,-0.24311843514442444,0.020707907155156136,0.15913201868534088
1775710453841765000,4.96176513671875,-0.22126640379428864,-0.02457781508564949,0.25433921813964844
1775710453851779000,4.971779052734375,-0.11782273650169373,-0.04007977992296219,0.3417278528213501
1775710453861794000,4.9817939453125,0.027731794863939285,-0.05451677739620209,0.3851456344127655
1775710453871808000,4.99180810546875,0.17914143204689026,-0.03894329443573952,0.358056902885437
1775710453881823000,5.001822998046875,0.27228203415870667,-0.017127741128206253,0.26556557416915894
1775710453891837200,5.011837158203125,0.27291086316108704,0.009902718476951122,0.12032900750637054
1775710453901851100,5.02185107421875,0.18245473504066467,0.026972517371177673,-0.08028584718704224
1775710453911866000,5.0318662109375,0.028525222092866898,0.00768705178052187,-0.279750257730484
1775710453921880000,5.041880126953125,-0.10494202375411987,-0.010070373304188251,-0.42525389790534973
1775710453931895000,5.05189501953125,-0.15931974351406097,-0.016060199588537216,-0.49303847551345825
1775710453941909000,5.061908935546875,-0.16135093569755554,0.0061241984367370605,-0.48164066672325134
1775710453951923200,5.071923095703125,-0.12208621203899384,0.0224080141633749,-0.4042172133922577
1775710453961938200,5.081938232421875,-0.07423853129148483,-0.0009026357438415289,-0.2830077111721039
1775710453971951900,5.091951904296875,-0.028016578406095505,-0.03715945780277252,-0.14204080402851105
1775710453981966000,5.101966064453125,0.004555744584649801,-0.018060868605971336,-0.013996552675962448
1775710453991981000,5.11198095703125,-0.026847288012504578,0.024998754262924194,0.02970961481332779
1775710454001995000,5.1219951171875,-0.12221082299947739,0.07810724526643753,0.012625702656805515
1775710454012010000,5.132010009765625,-0.20244254171848297,0.07789003103971481,-0.00255585927516222
1775710454022024200,5.142024169921875,-0.26005712151527405,0.018413390964269638,0.002272984478622675
1775710454032038000,5.152037841796875,-0.28538456559181213,-0.027828406542539597,0.036197926849126816
1775710454042052900,5.162052978515625,-0.27066686749458313,-0.05327330902218819,0.0917930081486702
1775710454052067000,5.172067138671875,-0.22628240287303925,-0.01668349839746952,0.12806089222431183
1775710454062081000,5.1820810546875,-0.15952521562576294,0.049835607409477234,0.15863265097141266
1775710454072096000,5.192095947265625,-0.0926535576581955,0.1013326495885849,0.2173064947128296
1775710454082110200,5.202110107421875,-0.060831714421510696,0.06664177775382996,0.2621423900127411
1775710454092125200,5.212125244140625,-0.07932087779045105,-0.0117836594581604,0.27093106508255005
1775710454102139000,5.222138916015625,-0.1399267017841339,-0.077388234436512,0.26010799407958984
1775710454112153000,5.232153076171875,-0.20621493458747864,-0.08648384362459183,0.2383689284324646
1775710454122168000,5.24216796875,-0.22486291825771332,-0.04812261462211609,0.17663899064064026
1775710454132182000,5.25218212890625,-0.1899101734161377,-0.01651528850197792,0.09512653201818466
1775710454142197200,5.262197265625,-0.08641280233860016,0.015909496694803238,0.022582825273275375
1775710454152211200,5.272211181640625,0.029247447848320007,0.10983550548553467,-0.02165600284934044
1775710454162225000,5.282224853515625,0.12100320309400558,0.2265264391899109,-0.03590178117156029
1775710454172240100,5.292240234375,0.18571749329566956,0.30153393745422363,0.011756070889532566
1775710454182254000,5.302254150390625,0.23504643142223358,0.2669013738632202,0.11328589171171188
1775710454192268000,5.31226806640625,0.24065452814102173,0.2055012732744217,0.23693613708019257
1775710454202282800,5.32228271484375,0.2098739743232727,0.14954985678195953,0.3441272974014282
1775710454212296700,5.332296630859375,0.17044830322265625,0.13482172787189484,0.4304765462875366
1775710454222311700,5.342311767578125,0.13909730315208435,0.1149153932929039,0.5057889223098755
1775710454232326000,5.352325927734375,0.10929263383150101,0.08379628509283066,0.5500520467758179
1775710454242339600,5.362339599609375,0.09369103610515594,0.06793130189180374,0.5357234477996826
1775710454252354600,5.3723544921875,0.09522423893213272,0.11468153446912766,0.4584179222583771
1775710454262368800,5.38236865234375,0.1252412497997284,0.2089928537607193,0.3428194224834442
1775710454272382700,5.3923828125,0.15588854253292084,0.33403974771499634,0.24821142852306366
1775710454282397700,5.402397705078125,0.21534867584705353,0.43136683106422424,0.2197965532541275
1775710454292412000,5.412411865234375,0.3289410173892975,0.4663671851158142,0.23605063557624817
1775710454302427000,5.422427001953125,0.43737083673477173,0.48840615153312683,0.3133675158023834
1775710454312440600,5.432440673828125,0.5161095261573792,0.49958935379981995,0.4257560968399048
1775710454322454800,5.442454833984375,0.5325625538825989,0.4742877185344696,0.5272026062011719
1775710454332469800,5.4524697265625,0.5001844763755798,0.38736411929130554,0.5988177061080933
1775710454342483700,5.462483642578125,0.44578298926353455,0.2846499979496002,0.6346406936645508
1775710454352498000,5.472497802734375,0.3568577766418457,0.25087693333625793,0.6105177998542786
1775710454362512600,5.4825126953125,0.26734042167663574,0.286134272813797,0.5236406922340393
1775710454372526600,5.492526611328125,0.21597686409950256,0.32029590010643005,0.3992316424846649
1775710454382540800,5.502540771484375,0.20047593116760254,0.3464619815349579,0.26470232009887695
1775710454392555800,5.5125556640625,0.21041055023670197,0.36725348234176636,0.1326419711112976
1775710454402569700,5.52256982421875,0.2706994414329529,0.4063372313976288,0.016890862956643105
1775710454412584700,5.532584716796875,0.37795355916023254,0.4631100296974182,-0.05818077176809311
1775710454422598700,5.5425986328125,0.4932396709918976,0.5314834713935852,-0.0903986319899559
1775710454432612600,5.552612548828125,0.553030252456665,0.5684234499931335,-0.08952485024929047
1775710454442627600,5.562627685546875,0.5174639821052551,0.5644137859344482,-0.06345702707767487
1775710454452641800,5.572641845703125,0.41585662961006165,0.6129418015480042,-0.011762352660298347
1775710454462655700,5.58265576171875,0.2958596646785736,0.6477341651916504,0.04761495441198349
1775710454472670700,5.592670654296875,0.1684616655111313,0.5841712951660156,0.09384825080633163
1775710454482684700,5.6026845703125,0.04141290485858917,0.4185168147087097,0.13500474393367767
1775710454492699600,5.61269970703125,-0.07682295888662338,0.17982040345668793,0.2040831595659256
1775710454502713600,5.622713623046875,-0.1731596142053604,0.013238354586064816,0.3443047106266022
1775710454512727800,5.632727783203125,-0.20577090978622437,-0.053190600126981735,0.493111789226532
1775710454522742800,5.64274267578125,-0.18441689014434814,0.0027032927609980106,0.5956647992134094
1775710454532756700,5.6527568359375,-0.16797544062137604,0.1510193943977356,0.654193103313446
1775710454542770700,5.662770751953125,-0.05045812577009201,0.19050157070159912,0.635745108127594
1775710454552785700,5.67278564453125,0.06046852841973305,0.19380220770835876,0.5856434106826782
1775710454562799600,5.682799560546875,0.0938323438167572,0.18616825342178345,0.4980892837047577
1775710454572814600,5.692814697265625,0.06606853753328323,0.2264578491449356,0.34330910444259644
1775710454582828800,5.702828857421875,0.010329904034733772,0.29657304286956787,0.1529647260904312
1775710454592842800,5.7128427734375,-0.04834064096212387,0.32435905933380127,-0.027365954592823982
1775710454602857500,5.722857421875,-0.10501856356859207,0.3151402473449707,-0.15418142080307007
1775710454612871700,5.73287158203125,-0.1571609377861023,0.25365781784057617,-0.22422733902931213
1775710454622885600,5.7428857421875,-0.1791977882385254,0.21145842969417572,-0.23716019093990326
1775710454632900600,5.752900634765625,-0.1634325534105301,0.24738267064094543,-0.20496247708797455
1775710454642914800,5.762914794921875,-0.11168867349624634,0.2575460970401764,-0.1546657532453537
1775710454652928500,5.772928466796875,-0.08192583173513412,0.20924241840839386,-0.08034713566303253
1775710454662943500,5.782943603515625,-0.11182114481925964,0.14635585248470306,0.02871490642428398
1775710454672957700,5.792957763671875,-0.1614103764295578,0.06267528980970383,0.14320357143878937
1775710454682972700,5.80297265625,-0.19473370909690857,0.042600639164447784,0.24247530102729797
1775710454692986600,5.812986572265625,-0.1891540288925171,0.08106373995542526,0.3097192943096161
1775710454703000800,5.823000732421875,-0.15243835747241974,0.11670136451721191,0.2963973581790924
1775710454713015800,5.833015869140625,-0.13785390555858612,0.148514062166214,0.18280121684074402
1775710454723029500,5.843029541015625,-0.16325514018535614,0.16316942870616913,0.037588369101285934
1775710454733043700,5.853043701171875,-0.19339866936206818,0.09193294495344162,-0.10577058792114258
1775710454743058700,5.86305859375,-0.22334112226963043,-0.029898149892687798,-0.2532372772693634
1775710454753072600,5.87307275390625,-0.23711714148521423,-0.09331576526165009,-0.37213319540023804
1775710454763088000,5.883087890625,-0.20519836246967316,-0.11975429952144623,-0.4418467581272125
1775710454773101800,5.893101806640625,-0.16014160215854645,-0.10331130027770996,-0.47687283158302307
1775710454783115500,5.903115478515625,-0.1289280205965042,-0.10457843542098999,-0.46248963475227356
1775710454793130800,5.913130859375,-0.11587749421596527,-0.14205706119537354,-0.4317823350429535
1775710454803144700,5.923144775390625,-0.1139480322599411,-0.14427600800991058,-0.37767595052719116
1775710454813158700,5.93315869140625,-0.10536816716194153,-0.1140502393245697,-0.31211453676223755
1775710454823174000,5.943173828125,-0.06764315813779831,-0.11311706900596619,-0.2696440517902374
1775710454833187600,5.9531875,-0.01729988306760788,-0.16880305111408234,-0.23818939924240112
1775710454843201500,5.963201416015625,0.03961559385061264,-0.23752938210964203,-0.2228037714958191
1775710454853216800,5.973216796875,0.09896090626716614,-0.2847006618976593,-0.23810768127441406
1775710454863230700,5.983230712890625,0.14808504283428192,-0.3040629029273987,-0.2805930972099304
1775710454873245700,5.99324560546875,0.18164506554603577,-0.26282021403312683,-0.33841371536254883
1775710454883259600,6.003259765625,0.1685391217470169,-0.18081749975681305,-0.37845033407211304
1775710454893273600,6.013273681640625,0.12157254666090012,-0.13127276301383972,-0.38813894987106323
1775710454903288600,6.02328857421875,0.06196567416191101,-0.11382240056991577,-0.4015423655509949
1775710454913302800,6.033302734375,0.03082496114075184,-0.11728953570127487,-0.4240620732307434
1775710454923316700,6.043316650390625,0.038087934255599976,-0.09276554733514786,-0.4411076605319977
1775710454933331700,6.053331787109375,0.06855832785367966,0.0360088087618351,-0.43084651231765747
1775710454943345700,6.063345703125,0.11174361407756805,0.17178235948085785,-0.3680790066719055
1775710454953359600,6.073359619140625,0.16055941581726074,0.17178098857402802,-0.27260321378707886
1775710454963374600,6.08337451171875,0.16054582595825195,0.07240647822618484,-0.1900004893541336
1775710454973388500,6.093388427734375,0.11434774845838547,-0.07412368804216385,-0.10509427636861801
1775710454983403800,6.10340380859375,0.045306626707315445,-0.21318118274211884,-0.05869535356760025
1775710454993417700,6.113417724609375,-0.02955683320760727,-0.2708848714828491,-0.04860146716237068
1775710455003431700,6.123431640625,-0.08694102615118027,-0.3185914158821106,-0.08286090195178986
1775710455013447000,6.133447021484375,-0.1352396458387375,-0.36074453592300415,-0.14940683543682098
1775710455023460600,6.143460693359375,-0.17281177639961243,-0.3954679071903229,-0.2144412249326706
1775710455033474600,6.153474609375,-0.19105815887451172,-0.4507216215133667,-0.28611212968826294
1775710455043489800,6.16348974609375,-0.191018745303154,-0.4436866044998169,-0.3578305244445801
1775710455053503700,6.173503662109375,-0.15220804512500763,-0.3919205069541931,-0.41247668862342834
1775710455063517700,6.183517578125,-0.06383585184812546,-0.3184526860713959,-0.4521452784538269
1775710455073532700,6.19353271484375,0.061913326382637024,-0.2514030933380127,-0.469321072101593
1775710455083546600,6.203546630859375,0.16562773287296295,-0.19368387758731842,-0.454683780670166
1775710455093560600,6.213560546875,0.19733355939388275,-0.16752202808856964,-0.4014643430709839
1775710455103575800,6.223575927734375,0.1661737710237503,-0.21679769456386566,-0.35079318284988403
1775710455113589800,6.23358984375,0.1096944585442543,-0.25479257106781006,-0.30542880296707153
1775710455123604700,6.243604736328125,0.059103719890117645,-0.24308235943317413,-0.24259178340435028
1775710455133618700,6.25361865234375,0.014799065887928009,-0.17852526903152466,-0.10066266357898712
1775710455143632600,6.263632568359375,-0.005671054124832153,-0.21473094820976257,0.06513483077287674
1775710455153647600,6.273647705078125,-0.003401815192773938,-0.31225329637527466,0.22383573651313782
1775710455163661800,6.283661865234375,0.08410114049911499,-0.4724735915660858,0.3726646304130554
1775710455173675800,6.29367578125,0.22903969883918762,-0.6491948366165161,0.4061894714832306
1775710455183690800,6.303690673828125,0.368356317281723,-0.7217140197753906,0.34559643268585205
1775710455193704700,6.31370458984375,0.47738879919052124,-0.7192527055740356,0.20165832340717316
1775710455203719000,6.323718994140625,0.4981984794139862,-0.5723524689674377,-0.0037377141416072845
1775710455213734000,6.33373388671875,0.4840342700481415,-0.32509925961494446,-0.2121473252773285
1775710455223747800,6.343747802734375,0.42106863856315613,-0.10286033153533936,-0.43706753849983215
1775710455233761800,6.35376171875,0.31162089109420776,0.05958094075322151,-0.5779501795768738
1775710455243776800,6.36377685546875,0.2404332458972931,0.006950221955776215,-0.6486291289329529
1775710455253791000,6.373791015625,0.2569868862628937,-0.19120097160339355,-0.6879124641418457
1775710455263805000,6.383804931640625,0.3288717567920685,-0.32160159945487976,-0.6582043766975403
1775710455273820000,6.39381982421875,0.3560149073600769,-0.40209072828292847,-0.5950133204460144
1775710455283833900,6.403833740234375,0.3154078423976898,-0.38814401626586914,-0.5097905397415161
1775710455293848800,6.413848876953125,0.2387416809797287,-0.35994666814804077,-0.43550756573677063
1775710455303862800,6.42386279296875,0.12477542459964752,-0.28663063049316406,-0.39812928438186646
1775710455313877000,6.433876953125,0.06435810029506683,-0.30273130536079407,-0.3867357671260834
1775710455323892000,6.44389208984375,0.023733437061309814,-0.3759341239929199,-0.43267345428466797
1775710455333906000,6.453906005859375,0.0012638261541724205,-0.41715770959854126,-0.4538877606391907
1775710455343919900,6.463919921875,0.017136266455054283,-0.36272484064102173,-0.42001157999038696
1775710455353934800,6.473934814453125,0.04829130321741104,-0.22385990619659424,-0.35506758093833923
1775710455363948800,6.48394873046875,0.08410496264696121,-0.06101640313863754,-0.252612829208374
1775710455373962800,6.493962646484375,0.11965107917785645,0.029632866382598877,-0.1124095767736435
1775710455383978000,6.50397802734375,0.1622163951396942,0.015737025067210197,0.055108312517404556
1775710455393991700,6.51399169921875,0.21596378087997437,-0.057268012315034866,0.22873347997665405
1775710455404006000,6.524005859375,0.28127622604370117,-0.2189924716949463,0.35489994287490845
1775710455414020900,6.534020751953125,0.34815070033073425,-0.40843549370765686,0.41346922516822815
1775710455424034800,6.544034912109375,0.377952516078949,-0.5107860565185547,0.40300247073173523
1775710455434048800,6.554048828125,0.32395586371421814,-0.4332050383090973,0.3432709574699402
1775710455444064000,6.56406396484375,0.24996978044509888,-0.24369795620441437,0.29178619384765625
1775710455454077700,6.57407763671875,0.19123397767543793,-0.011275967583060265,0.24567870795726776
1775710455464092700,6.5840927734375,0.15696123242378235,0.14186431467533112,0.20467481017112732
1775710455474107000,6.59410693359375,0.1566839963197708,0.16718930006027222,0.16139079630374908
1775710455484120800,6.604120849609375,0.13127318024635315,0.16352052986621857,0.06620995700359344
1775710455494135800,6.6141357421875,0.1025843694806099,0.16393646597862244,-0.07507298141717911
1775710455504150000,6.62414990234375,0.11944697797298431,0.1249038353562355,-0.21734490990638733
1775710455514163700,6.634163818359375,0.13036207854747772,0.12740765511989594,-0.3201889395713806
1775710455524178700,6.6441787109375,0.1419265866279602,0.1188163012266159,-0.33875757455825806
1775710455534193000,6.65419287109375,0.16286414861679077,0.07192663848400116,-0.2990350127220154
1775710455544206800,6.664206787109375,0.1535116732120514,0.04350324720144272,-0.21983633935451508
1775710455554221800,6.674221923828125,0.13449254631996155,0.00851726159453392,-0.1294962763786316
1775710455564236000,6.684236083984375,0.11659716069698334,-0.03202430531382561,-0.08538953959941864
1775710455574249700,6.694249755859375,0.09231222420930862,-0.10079507529735565,-0.08797258138656616
1775710455584264700,6.7042646484375,0.08035116642713547,-0.16912353038787842,-0.09756474941968918
1775710455594279000,6.71427880859375,0.10465016961097717,-0.19773799180984497,-0.10019052028656006
1775710455604292900,6.72429296875,0.15843775868415833,-0.1610787808895111,-0.09032031148672104
1775710455614307800,6.734307861328125,0.22367852926254272,-0.07372204959392548,-0.041803549975156784
1775710455624322000,6.744322021484375,0.2620597183704376,-0.02880038693547249,0.06899433583021164
1775710455634335700,6.754335693359375,0.24489960074424744,-0.11558835208415985,0.1429639756679535
1775710455644350700,6.764350830078125,0.20445656776428223,-0.27970752120018005,0.1406709998846054
1775710455654365000,6.774364990234375,0.1654544621706009,-0.3969566226005554,0.09475019574165344
1775710455664379000,6.78437890625,0.17378456890583038,-0.45387476682662964,0.07463160902261734
1775710455674393900,6.794393798828125,0.1916448473930359,-0.46108725666999817,0.08473216742277145
1775710455684407800,6.80440771484375,0.1783120036125183,-0.3876902759075165,0.11668264120817184
1775710455694421800,6.814421875,0.14373360574245453,-0.2605753242969513,0.15682950615882874
1775710455704436700,6.824436767578125,0.09333062916994095,-0.14044305682182312,0.17833159863948822
1775710455714451000,6.834450927734375,0.047121357172727585,-0.050783421844244,0.17133846879005432
1775710455724465000,6.84446484375,0.01833391934633255,-0.006767495535314083,0.12140419334173203
1775710455734480000,6.85447998046875,0.01839076168835163,-0.05294432491064072,0.0394277423620224
1775710455744493800,6.864493896484375,0.016046646982431412,-0.14441031217575073,-0.05966981127858162
1775710455754507800,6.8745078125,-0.022494373843073845,-0.1977895200252533,-0.15304124355316162
1775710455764522800,6.884522705078125,-0.07657811790704727,-0.1602940708398819,-0.22149060666561127
1775710455774537000,6.894536865234375,-0.14536678791046143,-0.04077375680208206,-0.2659430205821991
1775710455784552000,6.904552001953125,-0.19120699167251587,0.14015766978263855,-0.24954353272914886
1775710455794566000,6.91456591796875,-0.19394168257713318,0.3569817841053009,-0.1102382093667984
1775710455804579800,6.924579833984375,-0.17809107899665833,0.5307266712188721,0.12315909564495087
1775710455814594800,6.9345947265625,-0.1624067723751068,0.53705233335495,0.4343596398830414
1775710455824608800,6.94460888671875,-0.17404158413410187,0.3458331525325775,0.7667964100837708
1775710455834623000,6.954623046875,-0.2138805091381073,-0.01453776191920042,1.018933892250061
1775710455844638000,6.964637939453125,-0.23005175590515137,-0.528157651424408,1.1226661205291748
1775710455854652000,6.97465185546875,-0.20153900980949402,-0.9902379512786865,1.0157402753829956
1775710455864665900,6.984665771484375,-0.14147062599658966,-1.2034252882003784,0.7366183996200562
1775710455874680800,6.994680908203125,-0.0837341919541359,-1.116265892982483,0.4358377754688263
1775710455884694800,7.00469482421875,-0.05697448179125786,-0.6661477088928223,0.24205926060676575
1775710455894709000,7.014708984375,-0.03136347979307175,0.019685713574290276,0.2865888476371765
1775710455904724000,7.024723876953125,-0.033943284302949905,0.5629612803459167,0.5476414561271667
1775710455914738000,7.034738037109375,-0.07673600316047668,0.7186620235443115,0.9457075595855713
1775710455924752000,7.044751953125,-0.15307897329330444,0.4320896565914154,1.2482620477676392
1775710455934766800,7.054766845703125,-0.21335622668266296,-0.1385899782180786,1.3276007175445557
1775710455944780800,7.06478076171875,-0.28727227449417114,-0.6541289687156677,1.1210582256317139
1775710455954795000,7.074794921875,-0.3276704251766205,-0.7893946766853333,0.7050293684005737
1775710455964810000,7.08481005859375,-0.30612626671791077,-0.5082644820213318,0.21669617295265198
1775710455974823700,7.09482373046875,-0.2950223982334137,-0.00263243168592453,-0.23680496215820312
1775710455984838000,7.104837890625,-0.2907634675502777,0.5726886987686157,-0.494174987077713
1775710455994852900,7.114852783203125,-0.27539750933647156,0.9178512692451477,-0.5104667544364929
1775710456004866800,7.12486669921875,-0.22577588260173798,0.9077472686767578,-0.34519603848457336
1775710456014880800,7.134880859375,-0.18171259760856628,0.624620795249939,-0.07025593519210815
1775710456024896000,7.14489599609375,-0.1725023239850998,0.15950529277324677,0.17130370438098907
1775710456034909700,7.15490966796875,-0.16245530545711517,-0.2607252299785614,0.347619891166687
1775710456044924000,7.164923828125,-0.15258696675300598,-0.4804125726222992,0.35546183586120605
1775710456054939000,7.17493896484375,-0.11559420078992844,-0.4737689793109894,0.16023904085159302
1775710456064952800,7.184952880859375,-0.1123770996928215,-0.20966781675815582,-0.13257072865962982
1775710456074966800,7.194966796875,-0.12247771769762039,0.19819600880146027,-0.37687918543815613
1775710456084982000,7.20498193359375,-0.10742367058992386,0.5194954872131348,-0.5001817345619202
1775710456094995700,7.21499560546875,-0.071255624294281,0.6007485389709473,-0.46199095249176025
1775710456105010000,7.225010009765625,-0.03955335542559624,0.47613921761512756,-0.3096829056739807
1775710456115025000,7.23502490234375,-0.030465319752693176,0.2488701194524765,-0.13773004710674286
1775710456125038800,7.245038818359375,-0.0336979441344738,-0.0196284931153059,-0.01523972675204277
1775710456135052800,7.255052734375,-0.03446655720472336,-0.20574502646923065,0.025158174335956573
1775710456145068000,7.265068115234375,-0.03646552562713623,-0.2563621401786804,-0.019223671406507492
1775710456155081700,7.275081787109375,-0.042553894221782684,-0.26591649651527405,-0.11119558662176132
1775710456165095700,7.285095703125,-0.07059059292078018,-0.23279234766960144,-0.22712618112564087
1775710456175111000,7.29511083984375,-0.11519845575094223,-0.12551169097423553,-0.3125164210796356
1775710456185124900,7.305124755859375,-0.16050869226455688,-0.08132718503475189,-0.35463961958885193
1775710456195138800,7.315138916015625,-0.19181124866008759,-0.1545533835887909,-0.34043365716934204
1775710456205153500,7.325153564453125,-0.1758890002965927,-0.2968183755874634,-0.30805760622024536
1775710456215167500,7.33516748046875,-0.11697611212730408,-0.4373238980770111,-0.3283892273902893
1775710456225181700,7.345181640625,-0.04972011223435402,-0.4900377094745636,-0.38036108016967773
1775710456235196700,7.35519677734375,0.022341886535286903,-0.4860425591468811,-0.44459909200668335
1775710456245210400,7.36521044921875,0.09555032104253769,-0.45306700468063354,-0.47639909386634827
1775710456255224600,7.375224609375,0.11934630572795868,-0.4409986436367035,-0.46679502725601196
1775710456265239600,7.385239501953125,0.08025643229484558,-0.44007718563079834,-0.45421478152275085
1775710456275253500,7.39525341796875,0.0008644505869597197,-0.3828260898590088,-0.45280298590660095
1775710456285267700,7.405267822265625,-0.062107592821121216,-0.27431532740592957,-0.43449559807777405
1775710456295282700,7.41528271484375,-0.0784655213356018,-0.1978336125612259,-0.35131096839904785
1775710456305296400,7.42529638671875,-0.06549779325723648,-0.17984981834888458,-0.20269009470939636
1775710456315310600,7.435310546875,-0.02251274511218071,-0.2594091296195984,-0.018491758033633232
1775710456325325600,7.44532568359375,0.03511513024568558,-0.3694285750389099,0.1579839438199997
1775710456335339500,7.455339599609375,0.07545306533575058,-0.4695904552936554,0.2586649954319
1775710456345353700,7.465353759765625,0.10975777357816696,-0.5212872624397278,0.2611047327518463
1775710456355367400,7.475367431640625,0.10178948193788528,-0.44477590918540955,0.18394635617733002
1775710456365382400,7.48538232421875,0.0761331245303154,-0.33791792392730713,0.08872105181217194
1775710456375396600,7.495396728515625,0.10104714334011078,-0.2549702823162079,0.0630197748541832
1775710456385411600,7.50541162109375,0.15915758907794952,-0.18638351559638977,0.12295101583003998
1775710456395425500,7.515425537109375,0.2335086166858673,-0.13845700025558472,0.19634310901165009
1775710456405439500,7.525439453125,0.2740824222564697,-0.11382756382226944,0.21604996919631958
1775710456415453400,7.535453369140625,0.31562307476997375,-0.1266629844903946,0.2228023260831833
1775710456425468400,7.545468505859375,0.34257131814956665,-0.14994381368160248,0.2403578907251358
1775710456435482600,7.555482666015625,0.33190101385116577,-0.176332026720047,0.2563501298427582
1775710456445496600,7.56549658203125,0.2689654529094696,-0.21763019263744354,0.18950743973255157
1775710456455511600,7.575511474609375,0.14108622074127197,-0.16758523881435394,0.01862000860273838
1775710456465525500,7.585525390625,-0.002449637046083808,-0.04069972783327103,-0.17721767723560333
1775710456475539500,7.59553955078125,-0.06516197323799133,0.05045526474714279,-0.2906040847301483
1775710456485554400,7.605554443359375,-0.04359250143170357,0.0886513888835907,-0.2502542734146118
1775710456495568600,7.615568603515625,0.00882679596543312,0.05376819148659706,-0.10139982402324677
1775710456505582600,7.62558251953125,0.05143497511744499,-0.0017909400630742311,0.08811017870903015
1775710456515597600,7.63559765625,0.08729138970375061,-0.014095866121351719,0.25841549038887024
1775710456525611500,7.645611572265625,0.07143865525722504,0.006909550167620182,0.3705390989780426
1775710456535625500,7.65562548828125,-0.006340248975902796,0.01777663081884384,0.39414915442466736
1775710456545640400,7.665640380859375,-0.10666711628437042,-0.008540993556380272,0.32948973774909973
1775710456555654400,7.675654296875,-0.22137999534606934,0.004151422530412674,0.20031559467315674
1775710456565668600,7.685668701171875,-0.28474804759025574,-0.024835223332047462,0.07087745517492294
1775710456575683600,7.69568359375,-0.26939302682876587,-0.02769164927303791,0.00654845405369997
1775710456585697500,7.705697509765625,-0.2177165001630783,0.06715896725654602,0.02131727896630764
1775710456595711500,7.71571142578125,-0.1325245052576065,0.19871583580970764,0.09258536249399185
1775710456605726500,7.7257265625,-0.06154007464647293,0.2887008786201477,0.18909193575382233
1775710456615740400,7.735740478515625,-0.07722358405590057,0.2513726055622101,0.285617858171463
1775710456625754600,7.745754638671875,-0.16782645881175995,0.06780941784381866,0.36173099279403687
1775710456635769600,7.75576953125,-0.2612270414829254,-0.16250713169574738,0.4381314218044281
1775710456645783600,7.765783447265625,-0.32439082860946655,-0.27704089879989624,0.48231035470962524
1775710456655797500,7.775797607421875,-0.3644680678844452,-0.2573530375957489,0.47887343168258667
1775710456665811500,7.7858115234375,-0.36233675479888916,-0.1669893115758896,0.4684642255306244
1775710456675826400,7.795826416015625,-0.3262702226638794,-0.0036852918565273285,0.4389880299568176
1775710456685840600,7.805840576171875,-0.2716391980648041,0.16392448544502258,0.3857860565185547
1775710456695854300,7.815854248046875,-0.21047437191009521,0.2833828032016754,0.3340495526790619
1775710456705869300,7.825869384765625,-0.1591363549232483,0.3511922061443329,0.3003273010253906
1775710456715883500,7.835883544921875,-0.11890335381031036,0.32376527786254883,0.3468821346759796
1775710456725897500,7.8458974609375,-0.11172347515821457,0.2024545669555664,0.36998239159584045
1775710456735912400,7.855912353515625,-0.12181811034679413,0.1513357162475586,0.2894013226032257
1775710456745926400,7.865926513671875,-0.11978638917207718,0.23794996738433838,0.18137550354003906
1775710456755940400,7.8759404296875,-0.09883322566747665,0.30215543508529663,0.10148254036903381
1775710456765955300,7.885955322265625,-0.0696183517575264,0.2821524143218994,0.07680702209472656
1775710456775969500,7.895969482421875,-0.03501986339688301,0.2917344272136688,0.07678437978029251
1775710456785983500,7.9059833984375,0.022723060101270676,0.40703171491622925,0.06048264354467392
1775710456795998500,7.91599853515625,0.07474225759506226,0.5640507340431213,0.04537920653820038
1775710456806012400,7.926012451171875,0.0991397425532341,0.6248562932014465,0.036276791244745255
1775710456816026400,7.9360263671875,0.10008125752210617,0.554092526435852,0.010402156971395016
1775710456826041300,7.946041259765625,0.07302034646272659,0.41257399320602417,-0.03436025232076645
1775710456836055600,7.9560556640625,0.04216233640909195,0.2738402485847473,-0.09565651416778564
1775710456846069500,7.966069580078125,-0.003865610808134079,0.20016124844551086,-0.15218262374401093
1775710456856083500,7.97608349609375,-0.0713830292224884,0.1915951818227768,-0.23627683520317078
1775710456866098400,7.986098388671875,-0.12906762957572937,0.23524226248264313,-0.38205960392951965
1775710456876112400,7.9961123046875,-0.1807933896780014,0.2720123529434204,-0.5152309536933899
1775710456886126600,8.006126708984375,-0.21079044044017792,0.26842960715293884,-0.6362300515174866
1775710456896141600,8.0161416015625,-0.2723331153392792,0.27842098474502563,-0.7817777991294861
1775710456906155500,8.026155517578125,-0.39348724484443665,0.27393487095832825,-0.918215811252594
1775710456916169500,8.03616943359375,-0.4925532639026642,0.17215074598789215,-0.949080228805542
1775710456926184400,8.046184326171876,-0.5139302015304565,0.09217602759599686,-0.8449037671089172
1775710456936198400,8.056198486328125,-0.4657019376754761,0.043111443519592285,-0.6413302421569824
1775710456946212600,8.066212646484376,-0.3584476709365845,-0.05173357576131821,-0.3856656849384308
1775710456956227600,8.0762275390625,-0.2714523375034332,-0.13979431986808777,-0.1162317544221878
1775710456966241500,8.086241455078126,-0.23322130739688873,-0.23352640867233276,0.07674995064735413
1775710456976255500,8.09625537109375,-0.2415597140789032,-0.27117598056793213,0.14008912444114685
1775710456986270500,8.1062705078125,-0.2815103232860565,-0.1914592981338501,0.07424032688140869
1775710456996284400,8.116284423828125,-0.2774476110935211,-0.03395724296569824,-0.07396213710308075
1775710457006298600,8.126298583984376,-0.2328559160232544,0.11830978840589523,-0.20849916338920593
1775710457016312600,8.1363125,-0.14804942905902863,0.1631849855184555,-0.251886785030365
1775710457026327300,8.146327392578126,-0.06504722684621811,0.09372469782829285,-0.21347975730895996
1775710457036341500,8.156341552734375,-0.013046810403466225,-0.024471810087561607,-0.12149257957935333
1775710457046355500,8.16635546875,0.017525479197502136,-0.08282779157161713,-0.012143983505666256
1775710457056370400,8.176370361328125,0.07422782480716705,-0.024028368294239044,0.0521559938788414
1775710457066384600,8.186384521484374,0.13962148129940033,0.0534384585916996,0.05846608802676201
1775710457076398300,8.1963984375,0.19979993999004364,0.06979307532310486,-0.03840920329093933
1775710457086413300,8.206413330078124,0.23574702441692352,0.15038245916366577,-0.2477046400308609
1775710457096427500,8.216427490234375,0.24896140396595,0.24188552796840668,-0.4809626042842865
1775710457106441500,8.22644140625,0.2803613841533661,0.3428124189376831,-0.7021607756614685
1775710457116456400,8.23645654296875,0.2632552683353424,0.3748248219490051,-0.795153796672821
1775710457126470700,8.246470703125,0.17679044604301453,0.28912749886512756,-0.7363163232803345
1775710457136484400,8.256484375,0.08286348730325699,0.16782476007938385,-0.6182594299316406
1775710457146498600,8.26649853515625,0.045004792511463165,0.07044520974159241,-0.48369094729423523
1775710457156513500,8.276513427734375,0.06690429151058197,0.003461588639765978,-0.3510630130767822
1775710457166527500,8.286527587890625,0.13237997889518738,-0.057414278388023376,-0.28981509804725647
1775710457176541400,8.29654150390625,0.2121858149766922,-0.05709948018193245,-0.28306037187576294
1775710457186556700,8.306556640625,0.30980080366134644,0.05378735810518265,-0.3512231707572937
1775710457196570400,8.3165703125,0.4710206389427185,0.21398982405662537,-0.5519180297851562
1775710457206584600,8.32658447265625,0.61726975440979,0.34410178661346436,-0.7299830913543701
1775710457216599600,8.336599609375,0.7331656217575073,0.3397006690502167,-0.7564396262168884
1775710457226613500,8.346613525390625,0.7869210243225098,0.28817087411880493,-0.6677766442298889
1775710457236627500,8.35662744140625,0.7365366816520691,0.19701837003231049,-0.5201502442359924
1775710457246641700,8.3666416015625,0.6183059215545654,0.10266602784395218,-0.3417746424674988
1775710457256656600,8.37665673828125,0.44773373007774353,0.056745100766420364,-0.1391640156507492
1775710457266670600,8.386670654296875,0.2715650796890259,0.04233180731534958,0.07772089540958405
1775710457276684500,8.3966845703125,0.08904723823070526,0.05137089267373085,0.24889828264713287
1775710457286699500,8.406699462890625,-0.10796596109867096,0.1142750233411789,0.32651692628860474
1775710457296713500,8.41671337890625,-0.2538357377052307,0.15009856224060059,0.32806894183158875
1775710457306727700,8.426727783203125,-0.3295142352581024,0.11386599391698837,0.30278143286705017
1775710457316742700,8.43674267578125,-0.36861926317214966,0.03334706276655197,0.2419634461402893
1775710457326756400,8.44675634765625,-0.3516804873943329,0.038244616240262985,0.09767711162567139
1775710457336770600,8.4567705078125,-0.28482040762901306,0.1526380479335785,-0.0729270651936531
1775710457346784500,8.466784423828125,-0.21720699965953827,0.2280297428369522,-0.14182119071483612
1775710457356799500,8.476799560546874,-0.18763861060142517,0.23231352865695953,-0.08245722204446793
1775710457366813700,8.486813720703125,-0.20660537481307983,0.1898435652256012,0.0391288623213768
1775710457376827400,8.496827392578124,-0.26058265566825867,0.14512422680854797,0.16263103485107422
1775710457386842400,8.50684228515625,-0.3295832872390747,0.13029707968235016,0.21119484305381775
1775710457396856600,8.516856689453125,-0.4086143374443054,0.14260748028755188,0.2147039920091629
1775710457406870500,8.52687060546875,-0.45985540747642517,0.1414058655500412,0.22534172236919403
1775710457416885500,8.536885498046875,-0.4613054096698761,0.09440908581018448,0.23325282335281372
1775710457426899700,8.546899658203126,-0.41187527775764465,0.06085113063454628,0.23164613544940948
1775710457436913400,8.556913330078125,-0.33165243268013,0.07865734398365021,0.24343052506446838
1775710457446927600,8.566927734375,-0.2547685503959656,0.10476884245872498,0.3120255470275879
1775710457456942600,8.576942626953125,-0.1827549934387207,0.08664695918560028,0.41754186153411865
1775710457466956500,8.58695654296875,-0.14117585122585297,0.043847039341926575,0.5067841410636902
1775710457476970800,8.596970703125,-0.15443550050258636,0.013401716947555542,0.5026549100875854
1775710457486985700,8.60698583984375,-0.2014051377773285,-0.04059147462248802,0.4541204273700714
1775710457496999400,8.61699951171875,-0.24438725411891937,-0.09810039401054382,0.4624876081943512
1775710457507013600,8.627013671875,-0.24026840925216675,-0.16778546571731567,0.5256761908531189
1775710457517027600,8.637027587890625,-0.18279223144054413,-0.28201621770858765,0.6035435795783997
1775710457527042600,8.64704248046875,-0.11862123757600784,-0.368326872587204,0.650290310382843
1775710457537056800,8.657056884765625,-0.0528295561671257,-0.32443541288375854,0.6215543150901794
1775710457547070500,8.667070556640626,0.03742470592260361,-0.22139927744865417,0.5393033623695374
1775710457557085400,8.67708544921875,0.158824622631073,-0.06011807546019554,0.46146872639656067
1775710457567099600,8.687099609375,0.2852630019187927,0.08596749603748322,0.4130295515060425
1775710457577113600,8.697113525390625,0.39669427275657654,0.19146490097045898,0.41021567583084106
1775710457587128600,8.707128662109374,0.4396592974662781,0.21688450872898102,0.41063860058784485
1775710457597142500,8.717142578125,0.3926437497138977,0.16567590832710266,0.3625577390193939
1775710457607156500,8.727156494140624,0.32413312792778015,0.03443693742156029,0.2904113531112671
1775710457617170700,8.737170654296875,0.23419208824634552,-0.0766354352235794,0.2188715785741806
1775710457627185700,8.747185546875,0.1580890715122223,-0.1210164874792099,0.18238866329193115
1775710457637199600,8.75719970703125,0.12771128118038177,-0.08105109632015228,0.16546638309955597
1775710457647213600,8.767213623046874,0.14293257892131805,0.07586448639631271,0.1733757108449936
1775710457657228500,8.777228515625,0.1806153953075409,0.2792380154132843,0.22161318361759186
1775710457667242500,8.787242431640625,0.24755102396011353,0.41913437843322754,0.30812305212020874
1775710457677256700,8.797256591796875,0.2837960720062256,0.4073655307292938,0.36716607213020325
1775710457687270700,8.807270751953125,0.22834321856498718,0.3402109742164612,0.3693019151687622
1775710457697285600,8.81728564453125,0.15664590895175934,0.3462026119232178,0.3066725432872772
1775710457707299600,8.827299560546875,0.09849018603563309,0.3469986319541931,0.18402917683124542
1775710457717313500,8.8373134765625,0.05138071998953819,0.34047457575798035,0.0669495016336441
1775710457727328500,8.84732861328125,0.03825107216835022,0.3370361626148224,-0.01823410764336586
1775710457737342700,8.8573427734375,0.033821702003479004,0.3124370872974396,-0.10129756480455399
1775710457747356700,8.867356689453125,0.015135364606976509,0.3061232566833496,-0.1496078372001648
1775710457757370400,8.877370361328126,-0.010974377393722534,0.2957271337509155,-0.16282647848129272
1775710457767385600,8.887385498046875,-0.00751892663538456,0.37273162603378296,-0.17187537252902985
1775710457777399600,8.897399658203126,-0.012011362239718437,0.5864299535751343,-0.1646408885717392
1775710457787413500,8.90741357421875,-0.03873272240161896,0.7867699861526489,-0.1515842080116272
1775710457797428500,8.917428466796874,-0.06083099544048309,0.8257125616073608,-0.0910317525267601
1775710457807442700,8.927442626953125,-0.1032053530216217,0.6265712380409241,-0.020884353667497635
1775710457817456400,8.937456298828126,-0.16989891231060028,0.3451591730117798,0.02423485554754734
1775710457827470600,8.947470703125,-0.21227166056632996,0.13722407817840576,0.06777700036764145
1775710457837485600,8.957485595703124,-0.20727324485778809,0.10492083430290222,0.08022543787956238
1775710457847499500,8.96749951171875,-0.13291405141353607,0.1592826098203659,0.0378769151866436
1775710457857513700,8.977513671875,-0.029901301488280296,0.31556662917137146,-0.08697289973497391
1775710457867528700,8.98752880859375,0.101044200360775,0.4653835594654083,-0.21848590672016144
1775710457877542400,8.99754248046875,0.24847915768623352,0.5869510769844055,-0.28037962317466736
1775710457887556600,9.007556640625,0.37600037455558777,0.6602579951286316,-0.2701541483402252
1775710457897570600,9.017570556640624,0.42191630601882935,0.6296914219856262,-0.23931506276130676
1775710457907585500,9.02758544921875,0.37283584475517273,0.3836483359336853,-0.18677754700183868
1775710457917599700,9.037599853515625,0.2164963334798813,0.1466287225484848,-0.20914338529109955
1775710457927613400,9.047613525390625,0.016516368836164474,0.09100513905286789,-0.3344232738018036
1775710457937628400,9.05762841796875,-0.13220328092575073,0.16229389607906342,-0.47454988956451416
1775710457947642600,9.067642578125,-0.19460010528564453,0.22642973065376282,-0.534485399723053
1775710457957656600,9.077656494140625,-0.1501142531633377,0.23395244777202606,-0.47977957129478455
1775710457967670800,9.0876708984375,-0.05385297164320946,0.14238710701465607,-0.381864458322525
1775710457977685800,9.097685791015625,0.03282492235302925,0.023487228900194168,-0.3219560384750366
1775710457987699500,9.107699462890626,0.12625500559806824,0.07426651567220688,-0.30269524455070496
1775710457997713700,9.117713623046875,0.2291114777326584,0.2886781096458435,-0.327160507440567
1775710458007728600,9.127728759765626,0.3090425133705139,0.5096530914306641,-0.338331401348114
1775710458017742600,9.13774267578125,0.3425039052963257,0.530072033405304,-0.34881648421287537
1775710458027756800,9.1477568359375,0.2782519459724426,0.4610123336315155,-0.4042009115219116
1775710458037770500,9.1577705078125,0.18567585945129395,0.368452250957489,-0.45597267150878906
1775710458047785500,9.167785400390626,0.13137400150299072,0.33190542459487915,-0.4870498776435852
1775710458057799700,9.177799560546875,0.09677854180335999,0.420070081949234,-0.4975108206272125
1775710458067813600,9.187813720703126,0.08439617604017258,0.5524446368217468,-0.5080388188362122
1775710458077828600,9.19782861328125,0.08940213918685913,0.699298620223999,-0.5684541463851929
1775710458087842600,9.207842529296874,0.12070945650339127,0.8333624005317688,-0.6404428482055664
1775710458097856500,9.2178564453125,0.1991875022649765,0.9325293302536011,-0.6748783588409424
1775710458107870500,9.227870361328126,0.3160390257835388,0.9345029592514038,-0.6210460662841797
1775710458117885700,9.2378857421875,0.45448967814445496,0.7833263874053955,-0.43459978699684143
1775710458127899600,9.247899658203124,0.5547539591789246,0.468431293964386,-0.18698358535766602
1775710458137913300,9.257913330078125,0.5726452469825745,0.04105827957391739,0.033350132405757904
1775710458147927600,9.267927490234374,0.5030355453491211,-0.3692283034324646,0.1337539702653885
1775710458157942500,9.277942626953125,0.35983455181121826,-0.5089348554611206,0.11863444745540619
1775710458167956500,9.28795654296875,0.21448028087615967,-0.4204081892967224,0.04689474403858185
1775710458177970700,9.297970703125,0.12933607399463654,-0.2693488895893097,-0.055399250239133835
1775710458187985700,9.307985595703125,0.10832959413528442,-0.12184865027666092,-0.18371568620204926
1775710458197999400,9.317999267578125,0.039184845983982086,0.15619605779647827,-0.3241840898990631
1775710458208013300,9.328013427734374,0.014356996864080429,0.3605947494506836,-0.3948923647403717
1775710458218027300,9.33802734375,0.010227028280496597,0.39371025562286377,-0.36158448457717896
1775710458228042200,9.348042236328125,0.020641852170228958,0.22451724112033844,-0.24163196980953217
1775710458238056400,9.358056396484375,0.057079870253801346,-0.09867976605892181,-0.1419178694486618
1775710458248070100,9.368070068359375,0.11568618565797806,-0.3886740207672119,-0.07805339992046356
1775710458258084400,9.37808447265625,0.1451731026172638,-0.5345655083656311,-0.06488364189863205
1775710458268099300,9.388099365234375,0.1496453434228897,-0.5274852514266968,-0.06417897343635559
1775710458278113300,9.39811328125,0.15172110497951508,-0.38684237003326416,-0.04405474290251732
1775710458288127500,9.40812744140625,0.15353365242481232,-0.19122253358364105,-0.02673780359327793
1775710458298142500,9.418142578125,0.15130461752414703,0.01756392791867256,-0.014502985402941704
1775710458308156200,9.42815625,0.14348477125167847,0.20659403502941132,0.013412002474069595
1775710458318170400,9.43817041015625,0.13729766011238098,0.2968202829360962,0.03781011700630188
1775710458328184300,9.448184326171875,0.16182537376880646,0.29498565196990967,0.1372285783290863
1775710458338199300,9.45819921875,0.22467021644115448,0.09472350776195526,0.2340281754732132
1775710458348213500,9.468213623046875,0.2755887806415558,-0.17463339865207672,0.26258766651153564
1775710458358227200,9.478227294921876,0.30717018246650696,-0.3934108018875122,0.29962393641471863
1775710458368241400,9.488241455078125,0.2999061346054077,-0.5421984195709229,0.2935064136981964
1775710458378256400,9.49825634765625,0.23414459824562073,-0.534431517124176,0.31511926651000977
1775710458388270300,9.508270263671875,0.16464248299598694,-0.5272462964057922,0.3098464608192444
1775710458398284500,9.518284423828124,0.05884502828121185,-0.4554557502269745,0.19811278581619263
1775710458408299300,9.52829931640625,-0.04027409851551056,-0.2870321273803711,0.04303852096199989
1775710458418313200,9.538313232421874,-0.09547556936740875,-0.05978750064969063,-0.0981321930885315
1775710458428327400,9.548327392578125,0.001800385070964694,0.038825623691082,-0.13816003501415253
1775710458438341400,9.55834130859375,0.2736048698425293,-0.23105934262275696,-0.13222548365592957
1775710458448356400,9.5683564453125,0.5407215356826782,-0.8163068890571594,-0.3072798550128937
1775710458458370300,9.578370361328124,0.7271267175674438,-1.3698080778121948,-0.6612460613250732
1775710458468384300,9.58838427734375,0.7493222951889038,-1.6181880235671997,-1.0502878427505493
1775710458478398200,9.598398193359374,0.6953027844429016,-1.55677330493927,-1.348130702972412
1775710458488413400,9.608413330078125,0.6181116104125977,-1.3675302267074585,-1.505734920501709
1775710458498427400,9.618427490234374,0.5295366048812866,-1.080209732055664,-1.4807076454162598
1775710458508441000,9.628441162109375,0.48374995589256287,-0.840808629989624,-1.2694635391235352
1775710458518455300,9.638455322265624,0.45620280504226685,-0.7409807443618774,-0.9952210783958435
1775710458528470300,9.64847021484375,0.38657525181770325,-0.6443524360656738,-0.6500681638717651
1775710458538484200,9.658484130859375,0.2374916672706604,-0.4879993498325348,-0.3636503219604492
1775710458548498400,9.66849853515625,0.08653277903795242,-0.2509327232837677,-0.16969417035579681
1775710458558513400,9.678513427734375,0.01837267354130745,-0.10029254108667374,0.04304838180541992
1775710458568527000,9.688527099609376,0.04537472873926163,-0.16257242858409882,0.23349715769290924
1775710458578541300,9.698541259765625,0.08601449429988861,-0.2018951028585434,0.3905443847179413
1775710458588555300,9.70855517578125,0.16300222277641296,-0.19902874529361725,0.6080296039581299
1775710458598570200,9.7185703125,0.24016320705413818,-0.21177807450294495,0.7831867337226868
1775710458608584400,9.72858447265625,0.3069976270198822,-0.16450802981853485,0.8773127198219299
1775710458618598100,9.73859814453125,0.365977019071579,-0.13720296323299408,0.8588376045227051
1775710458628612400,9.7486123046875,0.379463791847229,-0.121837317943573,0.7979918122291565
1775710458638627300,9.75862744140625,0.37244370579719543,-0.1982056051492691,0.7302327156066895
1775710458648641300,9.768641357421876,0.34165439009666443,-0.3435545563697815,0.5622208118438721
1775710458658655500,9.778655517578125,0.3349088430404663,-0.44282984733581543,0.3456021845340729
1775710458668669200,9.788669189453126,0.32139092683792114,-0.41441500186920166,0.11555805802345276
1775710458678684200,9.79868408203125,0.2972901165485382,-0.25609779357910156,-0.09239992499351501
1775710458688698400,9.808698486328124,0.2429785430431366,-0.07984122633934021,-0.2527596652507782
1775710458698712300,9.81871240234375,0.16402220726013184,0.1109742671251297,-0.3188835382461548
1775710458708726500,9.8287265625,0.10485795140266418,0.19344303011894226,-0.29844483733177185
1775710458718741500,9.838741455078125,0.05197186768054962,0.1467718929052353,-0.27745410799980164
1775710458728755200,9.848755126953124,0.0031971351709216833,0.09456142783164978,-0.26648402214050293
1775710458738769400,9.858769287109375,-0.04132603853940964,0.06734711676836014,-0.23882757127285004
1775710458748784400,9.868784423828124,-0.06498955935239792,0.0749746784567833,-0.17681080102920532
1775710458758798300,9.87879833984375,-0.05040499195456505,0.04978219419717789,-0.08647718280553818
1775710458768812500,9.8888125,-0.029985206201672554,0.020055456086993217,-0.024082249030470848
1775710458778826200,9.898826171875,-0.015989180654287338,0.06002303585410118,0.02167285978794098
1775710458788841200,9.90884130859375,0.007492975331842899,0.11182870715856552,0.0413602814078331
1775710458798855400,9.91885546875,0.020297637209296227,0.14852866530418396,0.05264190956950188
1775710458808869400,9.928869384765624,0.023703552782535553,0.17802025377750397,0.061667364090681076
1775710458818883300,9.93888330078125,0.03319661691784859,0.1552320420742035,0.06400647014379501
1775710458828898300,9.948898193359375,0.04638831689953804,0.11015404760837555,0.08244220167398453
1775710458838912300,9.958912353515625,0.04965396970510483,0.06969903409481049,0.08253174275159836
1775710458848926200,9.96892626953125,0.050350919365882874,0.025886043906211853,0.05760694295167923
1775710458858940400,9.9789404296875,0.03883575648069382,0.030523281544446945,0.03289000689983368
1775710458868955400,9.988955322265625,-0.00582945067435503,0.11759532988071442,0.01027231477200985
1775710458878969300,9.99896923828125,-0.059571683406829834,0.2391788810491562,-0.018284521996974945
1775710458888983300,10.0089833984375,-0.09204679727554321,0.3401705026626587,-0.045105479657649994
1775710458898997200,10.018997314453125,-0.11170291900634766,0.41187602281570435,-0.05400626361370087
1775710458909012200,10.02901220703125,-0.13440370559692383,0.4152566194534302,-0.04812866821885109
1775710458919026400,10.0390263671875,-0.1500956118106842,0.32754772901535034,-0.04559820145368576
1775710458929040400,10.049040283203125,-0.17661936581134796,0.23188138008117676,-0.04435637220740318
1775710458939054300,10.059054443359376,-0.20939597487449646,0.1724761426448822,-0.03469521179795265
1775710458949069300,10.0690693359375,-0.22039777040481567,0.18979042768478394,-0.02211896702647209
1775710458959083300,10.079083251953126,-0.19408804178237915,0.22703233361244202,-0.013050318695604801
1775710458969097500,10.089097412109375,-0.16109387576580048,0.2362855076789856,-0.04525779187679291
1775710458979111400,10.099111328125,-0.13064640760421753,0.2098829299211502,-0.11095962673425674
1775710458989126100,10.109126220703125,-0.11052116751670837,0.20295925438404083,-0.12314651906490326
1775710458999140400,10.119140380859376,-0.1367257684469223,0.2444666028022766,-0.037468552589416504
1775710459009154300,10.129154296875,-0.1765213906764984,0.2651021182537079,0.12676434218883514
1775710459019168300,10.139168212890626,-0.2172154039144516,0.2950258255004883,0.3193095624446869
1775710459029183500,10.14918359375,-0.24865908920764923,0.3436226546764374,0.485325425863266
1775710459039197200,10.159197265625,-0.2700241208076477,0.37592965364456177,0.5899313688278198
1775710459049211100,10.169211181640625,-0.286325067281723,0.42032134532928467,0.6563780307769775
1775710459059226400,10.179226318359374,-0.2891828119754791,0.4335428774356842,0.6548851132392883
1775710459069240300,10.189240234375,-0.2843768894672394,0.38405442237854004,0.5986514091491699
1775710459079254300,10.199254150390624,-0.27304232120513916,0.32801297307014465,0.5509217977523804
1775710459089268200,10.209268310546875,-0.24026837944984436,0.23988419771194458,0.5129965543746948
1775710459099283200,10.219283203125,-0.195008784532547,0.16251128911972046,0.4804200530052185
1775710459109297200,10.229297119140625,-0.14398875832557678,0.07519848644733429,0.44361141324043274
1775710459119311400,10.239311279296874,-0.1387084424495697,0.007117336615920067,0.4282884895801544
1775710459129325300,10.2493251953125,-0.1723838448524475,-0.018001066520810127,0.41790056228637695
1775710459139339300,10.25933935546875,-0.21894203126430511,-0.08196751773357391,0.3851286470890045
1775710459149354200,10.269354248046875,-0.2464599460363388,-0.21640655398368835,0.33163586258888245
1775710459159368200,10.2793681640625,-0.24344903230667114,-0.37928980588912964,0.2621925473213196
1775710459169382400,10.28938232421875,-0.20777252316474915,-0.5669976472854614,0.20687335729599
1775710459179396400,10.299396240234374,-0.18104086816310883,-0.6546340584754944,0.19182537496089935
1775710459189411300,10.309411376953125,-0.18704602122306824,-0.5941200852394104,0.23409853875637054
1775710459199425300,10.31942529296875,-0.25147825479507446,-0.4865400195121765,0.3571976125240326
1775710459209439500,10.329439453125,-0.3678956925868988,-0.3742091953754425,0.6239861845970154
1775710459219453400,10.339453369140625,-0.4579208195209503,-0.4440831243991852,0.9639104008674622
1775710459229468400,10.349468505859376,-0.48210471868515015,-0.7208725810050964,1.2145646810531616
1775710459239482400,10.359482421875,-0.43085554242134094,-0.9849648475646973,1.2287405729293823
1775710459249496600,10.36949658203125,-0.3342539072036743,-1.0805081129074097,1.046383023262024
1775710459259510500,10.379510498046875,-0.2405119687318802,-0.9798665046691895,0.7660205960273743
1775710459269525500,10.389525390625,-0.18319915235042572,-0.7026023864746094,0.4717111885547638
1775710459279539500,10.39953955078125,-0.17807798087596893,-0.287495881319046,0.2586449980735779
1775710459289553400,10.409553466796876,-0.1776694506406784,0.027303621172904968,0.1595328003168106
1775710459299567400,10.4195673828125,-0.15126419067382812,0.07377666980028152,0.17348544299602509
1775710459309582600,10.42958251953125,-0.08024993538856506,-0.11356525868177414,0.21411862969398499
1775710459319596500,10.439596435546875,0.0014614681713283062,-0.38338398933410645,0.22987228631973267
1775710459329610200,10.4496103515625,0.029072590172290802,-0.6251569390296936,0.17288170754909515
1775710459339624400,10.45962451171875,0.0453815758228302,-0.7696292400360107,0.027348343282938004
1775710459349639400,10.469639404296874,0.07706493139266968,-0.6793782114982605,-0.1065806970000267
1775710459359653400,10.4796533203125,0.11416437476873398,-0.3953314423561096,-0.14263133704662323
1775710459369667600,10.48966748046875,0.12638935446739197,-0.07147107273340225,-0.07902093976736069
1775710459379681300,10.499681396484375,0.07632558792829514,0.16550175845623016,0.026999330148100853
1775710459389696300,10.5096962890625,0.0038407365791499615,0.18181228637695312,0.1531767100095749
1775710459399710500,10.51971044921875,-0.04550982266664505,-0.022787775844335556,0.2561344504356384
1775710459409724400,10.529724365234374,-0.08211177587509155,-0.2738162875175476,0.3308403789997101
1775710459419738600,10.539738525390625,-0.0868254154920578,-0.4514504075050354,0.326413094997406
1775710459429753600,10.549753662109374,-0.040537286549806595,-0.4769677519798279,0.2119525671005249
1775710459439767300,10.559767333984375,0.03389855846762657,-0.3698260486125946,0.03848560154438019
1775710459449781500,10.569781494140624,0.08572634309530258,-0.1460755318403244,-0.1273193359375
1775710459459795500,10.57979541015625,0.050894562155008316,0.15764938294887543,-0.23699450492858887
1775710459469810400,10.589810546875,-0.033511932939291,0.4243985116481781,-0.21557018160820007
1775710459479824600,10.59982470703125,-0.11824395507574081,0.5764391422271729,-0.02573222853243351
1775710459489838300,10.60983837890625,-0.23670269548892975,0.49298346042633057,0.2702573239803314
1775710459499852500,10.6198525390625,-0.34689316153526306,0.18803609907627106,0.5600718855857849
1775710459509867500,10.629867431640625,-0.4063756465911865,-0.18153183162212372,0.6969192028045654
1775710459519881500,10.639881591796875,-0.45350995659828186,-0.3517574667930603,0.6243038773536682
1775710459529895400,10.6498955078125,-0.4803250730037689,-0.2632923126220703,0.3955964148044586
1775710459539909400,10.659909423828125,-0.49637848138809204,-0.02833539992570877,0.08992459625005722
1775710459549923300,10.66992333984375,-0.49537527561187744,0.2088976502418518,-0.19297048449516296
1775710459559938300,10.679938232421875,-0.4174976646900177,0.3870697617530823,-0.384331613779068
1775710459569952500,10.689952392578125,-0.2861071527004242,0.5303829908370972,-0.5010049939155579
1775710459579966500,10.699966552734375,-0.13052845001220703,0.5162886381149292,-0.5040434002876282
1775710459589980400,10.70998046875,-0.05932909622788429,0.38381001353263855,-0.40304431319236755
1775710459599995400,10.719995361328126,-0.09053933620452881,0.19960437715053558,-0.2537173926830292
1775710459610009300,10.73000927734375,-0.12771625816822052,0.09179642796516418,-0.10865261405706406
1775710459620023600,10.7400234375,-0.1573936492204666,0.06093411147594452,0.034011490643024445
1775710459630037500,10.75003759765625,-0.18134477734565735,0.05611911788582802,0.20278799533843994
1775710459640052500,10.760052490234376,-0.16946640610694885,0.01663380302488804,0.3245013356208801
1775710459650066400,10.77006640625,-0.12252525240182877,-0.005296529270708561,0.4237200617790222
1775710459660080400,10.780080322265626,-0.04176507517695427,0.004561963025480509,0.4794140160083771
1775710459670094600,10.790094482421875,0.03977718949317932,0.0494503416121006,0.4712096154689789
1775710459680109600,10.800109619140626,0.1148746982216835,0.04896777868270874,0.45341920852661133
1775710459690123500,10.81012353515625,0.19830885529518127,-0.018872253596782684,0.42480939626693726
1775710459700137500,10.820137451171876,0.2326696813106537,-0.06342334300279617,0.364039808511734
1775710459710151400,10.8301513671875,0.2025810182094574,-0.030930645763874054,0.2729400098323822
1775710459720166400,10.84016650390625,0.16074535250663757,0.06293708086013794,0.16808311641216278
1775710459730180600,10.8501806640625,0.14573419094085693,0.1710457056760788,0.0875571146607399
1775710459740194600,10.860194580078126,0.1530710756778717,0.2862607538700104,0.10067394375801086
1775710459750208300,10.870208251953125,0.1602725237607956,0.30038535594940186,0.1596783995628357
1775710459760222500,10.880222412109376,0.1317589432001114,0.23663488030433655,0.2271815985441208
1775710459770237400,10.890237548828125,0.08232562243938446,0.13688671588897705,0.29991891980171204
1775710459780251400,10.90025146484375,0.0012761945836246014,0.060183193534612656,0.3342036306858063
1775710459790265600,10.910265625,-0.08414655923843384,-0.03112727589905262,0.3235640227794647
1775710459800279300,10.920279296875,-0.12411335110664368,-0.07249398529529572,0.2555769681930542
1775710459810294300,10.930294189453125,-0.12378605455160141,-0.03410611301660538,0.11012708395719528
1775710459820308500,10.94030859375,-0.13844925165176392,0.08735387027263641,-0.06418316811323166
1775710459830322400,10.950322509765625,-0.16066241264343262,0.20797456800937653,-0.20960640907287598
1775710459840336600,10.960336669921874,-0.2034815102815628,0.2982785105705261,-0.28399747610092163
1775710459850351400,10.970351318359375,-0.2273935079574585,0.3551875948905945,-0.2529681622982025
1775710459860365300,10.980365234375,-0.19492581486701965,0.324819952249527,-0.15640412271022797
1775710459870379500,10.990379638671875,-0.1584165394306183,0.2611818313598633,-0.026253584772348404
1775710459880393500,11.0003935546875,-0.11802318692207336,0.1447904407978058,0.10801766067743301
1775710459890407700,11.01040771484375,-0.09193193167448044,0.03178613260388374,0.19479329884052277
1775710459900422400,11.02042236328125,-0.10354947298765182,-0.03712683171033859,0.24190425872802734
1775710459910436400,11.030436279296875,-0.1256885975599289,0.0112614706158638,0.22517667710781097
1775710459920450600,11.040450439453124,-0.14943470060825348,0.15434116125106812,0.15048043429851532
1775710459930464500,11.050464599609375,-0.16564562916755676,0.2953624725341797,0.055836763232946396
1775710459940479500,11.0604794921875,-0.14760546386241913,0.3715541660785675,-0.012903737835586071
1775710459950493400,11.070493408203125,-0.1272815465927124,0.3812379539012909,-0.05439232289791107
1775710459960507400,11.08050732421875,-0.08895126730203629,0.3324611783027649,-0.0502685084939003
1775710459970521300,11.090521240234375,-0.03456445410847664,0.2607180178165436,0.02886119671165943
1775710459980535600,11.10053564453125,0.034779585897922516,0.15002156794071198,0.17317645251750946
1775710459990550500,11.110550537109376,0.08347388356924057,0.059869833290576935,0.29516521096229553
1775710460000564200,11.120564208984375,0.056958746165037155,0.0854063555598259,0.3223433494567871
1775710460010578400,11.130578369140625,0.021153876557946205,0.16822640597820282,0.2854346036911011
1775710460020592400,11.14059228515625,-0.027619581669569016,0.2694636285305023,0.2296115607023239
1775710460030607400,11.150607421875,-0.08623921871185303,0.3414672613143921,0.1700664758682251
1775710460040621600,11.16062158203125,-0.12769129872322083,0.35104313492774963,0.11693896353244781
1775710460050635300,11.17063525390625,-0.16128680109977722,0.293814480304718,0.07958200573921204
1775710460060649500,11.1806494140625,-0.1847505271434784,0.18269839882850647,0.017991408705711365
1775710460070664400,11.19066455078125,-0.19896195828914642,0.12144861370325089,-0.0666441097855568
1775710460080678400,11.200678466796875,-0.17702260613441467,0.1361224204301834,-0.15046469867229462
1775710460090692600,11.210692626953126,-0.09710698574781418,0.14189109206199646,-0.22254608571529388
1775710460100706300,11.220706298828125,-0.016040988266468048,0.18000343441963196,-0.2709718346595764
1775710460110720500,11.230720458984376,0.07086142152547836,0.2186584174633026,-0.2907724380493164
1775710460120735500,11.240735595703125,0.15821851789951324,0.3158420920372009,-0.31504926085472107
1775710460130749400,11.25074951171875,0.21915404498577118,0.4472355246543884,-0.37837284803390503
1775710460140763600,11.260763671875,0.2436058521270752,0.5261358022689819,-0.4778268337249756
1775710460150777300,11.27077734375,0.24533717334270477,0.6116325855255127,-0.5787302851676941
1775710460160792300,11.280792236328125,0.2685709297657013,0.6689715385437012,-0.6602522730827332
1775710460170806500,11.290806640625,0.32367730140686035,0.7174578905105591,-0.7315280437469482
1775710460180820500,11.300820556640625,0.4076235890388489,0.7516276240348816,-0.8221215009689331
1775710460190834400,11.31083447265625,0.4896886348724365,0.7965615391731262,-0.9096577763557434
1775710460200848400,11.320848388671875,0.5763636231422424,0.7737423777580261,-0.9446471333503723
1775710460210864000,11.330864013671874,0.6568669676780701,0.6652209758758545,-0.9457962512969971
1775710460220877800,11.3408779296875,0.712804913520813,0.5931602120399475,-0.8505387306213379
1775710460230892000,11.35089208984375,0.711085319519043,0.5420426726341248,-0.6715666055679321
1775710460240906000,11.360906005859375,0.6379701495170593,0.5132301449775696,-0.46395307779312134
1775710460250920000,11.370919921875,0.5139366388320923,0.47399187088012695,-0.1985246241092682
1775710460260935200,11.38093505859375,0.38272133469581604,0.37838906049728394,0.05608334764838219
1775710460270948900,11.390948974609374,0.2482263743877411,0.32891711592674255,0.2874494791030884
1775710460280963000,11.400963134765625,0.12772691249847412,0.282511442899704,0.4240087866783142
1775710460290977000,11.41097705078125,0.01715300790965557,0.2510211765766144,0.425258070230484
1775710460300992000,11.420991943359375,-0.10115017741918564,0.26183781027793884,0.2758431136608124
1775710460311006000,11.431005859375,-0.19244280457496643,0.337851345539093,0.015555600635707378
1775710460321020000,11.44102001953125,-0.1644514501094818,0.4241253435611725,-0.20788715779781342
1775710460331033900,11.451033935546874,-0.001746145891956985,0.46841344237327576,-0.2936798334121704
1775710460341048000,11.461048095703125,0.1940733939409256,0.4368792772293091,-0.25935930013656616
1775710460351063000,11.47106298828125,0.3275185227394104,0.38193294405937195,-0.16583333909511566
1775710460361076700,11.48107666015625,0.36968275904655457,0.2906811833381653,-0.0450194887816906
1775710460371091000,11.491091064453125,0.3371370732784271,0.21266229450702667,0.06758961081504822
1775710460381105000,11.50110498046875,0.2610726058483124,0.14805927872657776,0.15222135186195374
1775710460391120000,11.511119873046875,0.16075585782527924,0.07719628512859344,0.1782122105360031
1775710460401134000,11.521134033203126,0.04812805727124214,0.03193075954914093,0.16051480174064636
1775710460411147800,11.531147705078125,-0.07151152193546295,0.003446124028414488,0.12342868000268936
1775710460421162000,11.541161865234375,-0.17693252861499786,-0.015285441651940346,0.08783420920372009
1775710460431176000,11.551176025390625,-0.2572864890098572,0.009345071390271187,0.06842988729476929
1775710460441191000,11.56119091796875,-0.31757333874702454,0.05779183655977249,0.09884827584028244
1775710460451205000,11.571205078125,-0.38273531198501587,0.11188063025474548,0.1914708912372589
1775710460461218800,11.58121875,-0.4456545114517212,0.12794890999794006,0.33857348561286926
1775710460471232800,11.591232666015625,-0.49058017134666443,0.07779332250356674,0.5176377296447754
1775710460481247000,11.6012470703125,-0.5330857634544373,-0.027000775560736656,0.667397141456604
1775710460491262000,11.611261962890625,-0.5722610950469971,-0.11917704343795776,0.7653897404670715
1775710460501276000,11.62127587890625,-0.6098788976669312,-0.19337354600429535,0.7865979671478271
1775710460511289900,11.631289794921875,-0.6278768181800842,-0.26990213990211487,0.7622298002243042
1775710460521303800,11.6413037109375,-0.607864499092102,-0.30116286873817444,0.7244781255722046
1775710460531318000,11.651318115234375,-0.5557900667190552,-0.2735845148563385,0.6609388589859009
1775710460541333000,11.6613330078125,-0.4848174452781677,-0.18104328215122223,0.5698124170303345
1775710460551347000,11.671346923828125,-0.3914816379547119,-0.041847847402095795,0.4415462911128998
1775710460561361000,11.68136083984375,-0.28752782940864563,0.09033858776092529,0.3214464485645294
1775710460571374800,11.691374755859375,-0.18967637419700623,0.15512824058532715,0.2387840747833252
1775710460581389800,11.701389892578124,-0.11076116561889648,0.10444806516170502,0.14284488558769226
1775710460591404000,11.711404052734375,-0.06251533329486847,0.009132469072937965,0.017985235899686813
1775710460601418000,11.72141796875,-0.040774889290332794,-0.052433956414461136,-0.11067260801792145
1775710460611432000,11.731431884765625,-0.06175660341978073,-0.11396416276693344,-0.2402966469526291
1775710460621446000,11.74144580078125,-0.1489863395690918,-0.20754653215408325,-0.35842567682266235
1775710460631460900,11.7514609375,-0.277894526720047,-0.28992265462875366,-0.42669421434402466
1775710460641475000,11.76147509765625,-0.3946671187877655,-0.3287806808948517,-0.4401542842388153
1775710460651489000,11.771489013671875,-0.48537200689315796,-0.287775456905365,-0.3718758821487427
1775710460661502700,11.781502685546876,-0.5308578610420227,-0.2373618632555008,-0.22915491461753845
1775710460671517000,11.791516845703125,-0.5120404958724976,-0.20921677350997925,-0.062931589782238
1775710460681532000,11.801531982421874,-0.42048293352127075,-0.18528716266155243,0.09548922628164291
1775710460691545900,11.8115458984375,-0.2904772460460663,-0.18839427828788757,0.23587003350257874
1775710460701560000,11.82156005859375,-0.1723993569612503,-0.24210384488105774,0.2915162742137909
1775710460711573800,11.83157373046875,-0.08335708826780319,-0.2899238169193268,0.26123690605163574
1775710460721588000,11.841587890625,-0.03928494080901146,-0.3567560315132141,0.16076363623142242
1775710460731603000,11.85160302734375,-0.0228566974401474,-0.45153528451919556,0.03196624293923378
1775710460741617000,11.861616943359374,-0.021844014525413513,-0.5135377645492554,-0.04103096202015877
1775710460751631000,11.871631103515625,-0.011753564700484276,-0.5373749136924744,-0.07523634284734726
1775710460761644800,11.881644775390624,-0.019009584560990334,-0.502153217792511,-0.11242268234491348
1775710460771659000,11.891658935546875,-0.015658529475331306,-0.4428589642047882,-0.17111022770404816
1775710460781674000,11.901674072265624,0.024252936244010925,-0.3683824837207794,-0.2527613341808319
1775710460791688000,11.91168798828125,0.08485156297683716,-0.20297032594680786,-0.33487752079963684
1775710460801702100,11.9217021484375,0.1373288780450821,-0.029516395181417465,-0.39549219608306885
1775710460811715800,11.9317158203125,0.16524946689605713,0.09071706980466843,-0.3859724700450897
1775710460821730800,11.941730712890624,0.17815029621124268,0.05279667675495148,-0.324205219745636
1775710460831745000,11.9517451171875,0.1757209748029709,-0.06876730918884277,-0.24366962909698486
1775710460841759000,11.961759033203125,0.2056252807378769,-0.2150818109512329,-0.17342351377010345
1775710460851773000,11.97177294921875,0.24771226942539215,-0.3679659068584442,-0.16982345283031464
1775710460861787000,11.981786865234374,0.2695876955986023,-0.4356238543987274,-0.22189781069755554
1775710460871801900,11.9918017578125,0.29204827547073364,-0.41255316138267517,-0.2800399363040924
1775710460881815800,12.00181591796875,0.3002912700176239,-0.2515663802623749,-0.3283867835998535
1775710460891830000,12.011830078125,0.32029372453689575,-0.01997947506606579,-0.3117401599884033
1775710460901844000,12.021843994140625,0.3714095652103424,0.11769623309373856,-0.28322380781173706
1775710460911858000,12.03185791015625,0.41953927278518677,0.20173467695713043,-0.27510303258895874
1775710460921873000,12.041872802734375,0.47609227895736694,0.25954949855804443,-0.2639656960964203
1775710460931886800,12.051886962890626,0.5126644372940063,0.2717837989330292,-0.2525745630264282
1775710460941901000,12.061901123046875,0.4890219271183014,0.2284642904996872,-0.23768535256385803
1775710460951915000,12.0719150390625,0.42291510105133057,0.13326694071292877,-0.21424101293087006
1775710460961929000,12.081928955078125,0.3442005515098572,0.039023302495479584,-0.18021273612976074
1775710460971943000,12.09194287109375,0.2746683359146118,-0.05892350152134895,-0.1352095752954483
1775710460981958000,12.1019580078125,0.23285363614559174,-0.22562651336193085,-0.12761355936527252
1775710460991972000,12.11197216796875,0.1680096685886383,-0.2969478368759155,-0.1678030639886856
1775710461001986000,12.121986083984375,0.09852234274148941,-0.27379319071769714,-0.23228366672992706
1775710461011999700,12.131999755859376,0.05574505403637886,-0.24514131247997284,-0.31815701723098755
1775710461022014000,12.142013916015625,0.008643202483654022,-0.1592804193496704,-0.3959368169307709
1775710461032029000,12.15202880859375,-0.017823291942477226,-0.10462197661399841,-0.44640690088272095
1775710461042043000,12.16204296875,-0.022334154695272446,-0.08819559216499329,-0.4726558327674866
1775710461052057000,12.17205712890625,-0.03916266933083534,-0.029992474243044853,-0.44123077392578125
1775710461062070800,12.18207080078125,-0.04717588424682617,0.024156292900443077,-0.3806321620941162
1775710461072085000,12.1920849609375,-0.0754767581820488,0.0802328810095787,-0.3214639127254486
1775710461082100000,12.202099853515625,-0.09596680104732513,0.09773921966552734,-0.2721325159072876
1775710461092114000,12.212114013671876,-0.09518489241600037,0.07994237542152405,-0.2122979462146759
1775710461102128000,12.222128173828125,-0.03350670635700226,-0.051496610045433044,-0.12050548940896988
1775710461112141800,12.232141845703126,0.05763518437743187,-0.25540152192115784,-0.06779062002897263
1775710461122156000,12.242156005859375,0.09959401190280914,-0.3755923807621002,-0.0505911149084568
1775710461132171000,12.2521708984375,0.10960935801267624,-0.3951386511325836,-0.07843232899904251
1775710461142185000,12.26218505859375,0.10062693059444427,-0.2989610731601715,-0.14105510711669922
1775710461152199000,12.272198974609376,0.10288342833518982,-0.15324409306049347,-0.20546072721481323
1775710461162212900,12.282212890625,0.13455316424369812,0.018750617280602455,-0.27924758195877075
1775710461172226800,12.292226806640626,0.1624322086572647,0.1917698085308075,-0.33720728754997253
1775710461182241800,12.30224169921875,0.23359143733978271,0.28554394841194153,-0.34786921739578247
1775710461192256000,12.312256103515624,0.36425596475601196,0.2226795107126236,-0.24605174362659454
1775710461202270000,12.32227001953125,0.5660396218299866,-0.052612874656915665,-0.09480814635753632
1775710461212283100,12.332283203125,0.7149436473846436,-0.3726066052913666,-0.007906273938715458
1775710461222297000,12.342297119140625,0.7486464381217957,-0.6146195530891418,0.00004964473191648722
