time,seconds_elapsed,z,y,x
1775710448937197600,0.057197509765625,-0.2315959483385086,0.14434093236923218,0.35456207394599915
1775710448947211500,0.06721142578125,-0.14750982820987701,0.1476629674434662,0.34782108664512634
1775710448957226500,0.0772265625,-0.06394835561513901,0.1179058626294136,0.3241919279098511
1775710448967240400,0.087240478515625,0.0127584058791399,0.07114501297473907,0.3020024597644806
1775710448977254400,0.09725439453125,0.07200894504785538,0.020420853048563004,0.2933889925479889
1775710448987269400,0.107269287109375,0.09205589443445206,-0.005654956214129925,0.27937570214271545
1775710448997283600,0.11728369140625,0.04480661824345589,-0.03849439695477486,0.2546410858631134
1775710449007298600,0.127298583984375,-0.030597057193517685,-0.02617008425295353,0.24150450527668
1775710449017312500,0.1373125,-0.09926586598157883,0.05801030620932579,0.2546365559101105
1775710449027327500,0.147327392578125,-0.14563123881816864,0.12418106943368912,0.2882102131843567
1775710449037341400,0.157341552734375,-0.19016700983047485,0.0784122496843338,0.320649653673172
1775710449047356400,0.1673564453125,-0.25445517897605896,-0.14712606370449066,0.3112228512763977
1775710449057370400,0.177370361328125,-0.3081223964691162,-0.41509947180747986,0.3131347596645355
1775710449067385300,0.18738525390625,-0.35910144448280334,-0.4941529929637909,0.384571373462677
1775710449077399600,0.197399658203125,-0.372273713350296,-0.5103561878204346,0.5072911977767944
1775710449087413500,0.20741357421875,-0.3476671576499939,-0.5124193429946899,0.6357055902481079
1775710449097428500,0.217428466796875,-0.33582621812820435,-0.6625657081604004,0.7332702279090881
1775710449107442400,0.2274423828125,-0.32717466354370117,-0.8662722110748291,0.7969837188720703
1775710449117457400,0.23745751953125,-0.302306592464447,-1.0314204692840576,0.9135190844535828
1775710449127471400,0.247471435546875,-0.25138455629348755,-1.112931489944458,1.0492478609085083
1775710449137486300,0.257486328125,-0.1763763576745987,-1.4228459596633911,1.149458885192871
1775710449147500500,0.26750048828125,-0.08961590379476547,-2.002013921737671,1.25255286693573
1775710449157515500,0.277515625,-0.1440410614013672,-2.6359896659851074,1.3552616834640503
1775710449167529500,0.287529541015625,-0.4082338213920593,-3.10482120513916,1.364490032196045
1775710449177544400,0.29754443359375,-0.8120439052581787,-3.4264276027679443,1.3617714643478394
1775710449187558400,0.307558349609375,-1.2666068077087402,-3.5067408084869385,1.3953238725662231
1775710449197573400,0.317573486328125,-1.7569369077682495,-3.556565046310425,1.4631156921386719
1775710449207587600,0.327587646484375,-2.185519218444824,-3.3418431282043457,1.4975284337997437
1775710449217601300,0.337601318359375,-2.0794787406921387,-2.4486148357391357,1.309876561164856
1775710449227616300,0.3476162109375,-0.8782711029052734,-1.71065354347229,0.753296971321106
1775710449237630500,0.35763037109375,0.7755724191665649,-1.03514564037323,0.38486406207084656
1775710449247645400,0.3676455078125,1.7001540660858154,-0.7100507020950317,0.38381290435791016
1775710449257659400,0.377659423828125,1.6495046615600586,-0.43125393986701965,0.42878517508506775
1775710449267674400,0.38767431640625,1.024061918258667,-0.30316361784935,0.32718345522880554
1775710449277688300,0.397688232421875,0.46956750750541687,-0.3871825933456421,0.28191184997558594
1775710449287703300,0.407703369140625,0.32280123233795166,-0.4849056899547577,0.34755343198776245
1775710449297717200,0.41771728515625,0.38782790303230286,-0.600872278213501,0.5503041744232178
1775710449307732200,0.427732177734375,0.4359719753265381,-0.9070127606391907,0.8341910243034363
1775710449317746400,0.437746337890625,0.5003498792648315,-1.219016671180725,0.9022491574287415
1775710449327761400,0.447761474609375,0.5951102375984192,-1.5363776683807373,0.8404651284217834
1775710449337775400,0.457775390625,0.7116459012031555,-1.7681224346160889,0.7273489832878113
1775710449347789300,0.467789306640625,0.6606333255767822,-1.712009072303772,0.6571288704872131
1775710449357804300,0.47780419921875,0.38919302821159363,-1.326688289642334,0.40336716175079346
1775710449367818200,0.487818359375,0.30457454919815063,-0.7259960770606995,0.1616613268852234
1775710449377833500,0.49783349609375,0.4105880558490753,-0.24143844842910767,0.017495902255177498
1775710449387847400,0.507847412109375,0.5485472679138184,-0.11835940182209015,0.024403875693678856
1775710449397862400,0.5178623046875,0.5335747003555298,-0.1711491048336029,0.0780189037322998
1775710449407876400,0.52787646484375,0.353225439786911,-0.29678159952163696,0.13601508736610413
1775710449417891300,0.537891357421875,0.20639897882938385,-0.4314233064651489,0.1677147001028061
1775710449427905300,0.5479052734375,0.14168043434619904,-0.5346493124961853,0.13458417356014252
1775710449437920300,0.557920166015625,0.17879478633403778,-0.45875346660614014,0.04520369693636894
1775710449447934500,0.5679345703125,0.25151824951171875,-0.22528105974197388,-0.04458797350525856
1775710449457948400,0.577948486328125,0.3412116467952728,0.1619417667388916,-0.07017269730567932
1775710449467963400,0.58796337890625,0.37694862484931946,0.39695852994918823,-0.05390797182917595
1775710449477977300,0.597977294921875,0.3554057776927948,0.2745159864425659,0.00663473317399621
1775710449487992300,0.607992431640625,0.23710548877716064,0.015683621168136597,0.07695523649454117
1775710449498006300,0.61800634765625,0.06560377776622772,-0.20545248687267303,0.12023240327835083
1775710449508021200,0.628021240234375,-0.08984493464231491,-0.40689584612846375,0.150385782122612
1775710449518035500,0.638035400390625,-0.16691282391548157,-0.5171744227409363,0.1669013649225235
1775710449528050400,0.648050537109375,-0.10888227820396423,-0.6503812074661255,0.19111882150173187
1775710449538064400,0.658064453125,0.04140442982316017,-0.8550975918769836,0.20609404146671295
1775710449548079400,0.668079345703125,0.09901153296232224,-0.9018821716308594,0.10410003364086151
1775710449558093300,0.67809326171875,0.0428561195731163,-0.7631120085716248,-0.021614480763673782
1775710449568107300,0.688107177734375,-0.05371462553739548,-0.4979722499847412,-0.12060018628835678
1775710449578122500,0.69812255859375,-0.06162368133664131,-0.2593913674354553,-0.1727597862482071
1775710449588136400,0.708136474609375,-0.0062677497044205666,-0.12793533504009247,-0.18379566073417664
1775710449598151400,0.7181513671875,0.0013709953054785728,-0.13595330715179443,-0.17883393168449402
1775710449608165400,0.728165283203125,-0.04115675762295723,-0.2453431785106659,-0.1549070179462433
1775710449618180400,0.738180419921875,-0.105360247194767,-0.3978933095932007,-0.10275939851999283
1775710449628194300,0.7481943359375,-0.15413977205753326,-0.4423907399177551,-0.05612771585583687
1775710449638209300,0.758209228515625,-0.1803513914346695,-0.3316357135772705,-0.10822154581546783
1775710449648223500,0.768223388671875,-0.1888069361448288,-0.05048847571015358,-0.21016575396060944
1775710449658238500,0.778238525390625,-0.2063686102628708,0.11868670582771301,-0.25955620408058167
1775710449668252400,0.78825244140625,-0.20718248188495636,0.1142197847366333,-0.29964157938957214
1775710449678267400,0.798267333984375,-0.19427067041397095,0.07433974742889404,-0.33444029092788696
1775710449688281300,0.80828125,-0.1665697991847992,0.030782945454120636,-0.3168589174747467
1775710449698295300,0.81829541015625,-0.11461792141199112,-0.055776447057724,-0.26946157217025757
1775710449708310300,0.828310302734375,-0.05682653188705444,-0.08145491033792496,-0.24701617658138275
1775710449718324500,0.838324462890625,0.0035720979794859886,-0.06488285958766937,-0.2496098279953003
1775710449728339500,0.84833935546875,0.07347128540277481,-0.10365022718906403,-0.23889407515525818
1775710449738353200,0.858353271484375,0.12885625660419464,-0.1528814285993576,-0.23686766624450684
1775710449748368400,0.868368408203125,0.15174345672130585,-0.18205715715885162,-0.23257678747177124
1775710449758382300,0.87838232421875,0.1527480036020279,-0.1540401726961136,-0.2241864949464798
1775710449768397300,0.888397216796875,0.14608396589756012,-0.07869028300046921,-0.20499123632907867
1775710449778411300,0.898411376953125,0.15360073745250702,-0.03779025375843048,-0.18019667267799377
1775710449788426500,0.908426513671875,0.16717220842838287,-0.03485332056879997,-0.16208770871162415
1775710449798440400,0.9184404296875,0.15089178085327148,-0.03741155564785004,-0.1575659215450287
1775710449808454400,0.928454345703125,0.1047181561589241,-0.012988503091037273,-0.14513854682445526
1775710449818469400,0.938469482421875,0.04068830609321594,0.04674007371068001,-0.1135268285870552
1775710449828483300,0.9484833984375,-0.022712236270308495,0.08218462020158768,-0.055204931646585464
1775710449838498300,0.958498291015625,-0.07506758719682693,0.09151260554790497,0.033960629254579544
1775710449848512500,0.968512451171875,-0.09412836283445358,0.08185598254203796,0.12221192568540573
1775710449858527500,0.978527587890625,-0.09704292565584183,0.06107054278254509,0.19239448010921478
1775710449868541400,0.98854150390625,-0.12596911191940308,0.06119997426867485,0.2348623126745224
1775710449878556200,0.99855615234375,-0.1578761786222458,0.09637420624494553,0.23485511541366577
1775710449888570400,1.0085703125,-0.17747332155704498,0.13589072227478027,0.1931348443031311
1775710449898585300,1.01858544921875,-0.18354426324367523,0.17866668105125427,0.12739603221416473
1775710449908599300,1.028599365234375,-0.1870042383670807,0.21211065351963043,0.05505313351750374
1775710449918613500,1.038613525390625,-0.1897001564502716,0.2380724847316742,0.0005882922559976578
1775710449928628500,1.04862841796875,-0.19323550164699554,0.26883465051651,-0.026215093210339546
1775710449938642200,1.05864208984375,-0.2048170566558838,0.2864741086959839,-0.03489646315574646
1775710449948657200,1.0686572265625,-0.21878135204315186,0.30153587460517883,-0.027182884514331818
1775710449958671400,1.07867138671875,-0.22565843164920807,0.3137770891189575,-0.0016799219883978367
1775710449968686300,1.088686279296875,-0.2095063477754593,0.31209877133369446,0.02881992980837822
1775710449978700300,1.0987001953125,-0.18524415791034698,0.2954942286014557,0.08245572447776794
1775710449988715500,1.108715576171875,-0.1673237532377243,0.25926247239112854,0.15101268887519836
1775710449998729500,1.1187294921875,-0.1446770280599594,0.19358304142951965,0.21540072560310364
1775710450008743200,1.1287431640625,-0.13228267431259155,0.14921851456165314,0.24968039989471436
1775710450018758400,1.13875830078125,-0.1390518993139267,0.15105129778385162,0.2593543231487274
1775710450028772400,1.1487724609375,-0.16032202541828156,0.19165092706680298,0.25174516439437866
1775710450038787300,1.158787353515625,-0.16361981630325317,0.2222093641757965,0.24292130768299103
1775710450048801500,1.168801513671875,-0.12632039189338684,0.23055943846702576,0.23714357614517212
1775710450058816500,1.17881640625,-0.10136710107326508,0.1844121813774109,0.22982122004032135
1775710450068830200,1.188830322265625,-0.10280254483222961,0.13953925669193268,0.20882804691791534
1775710450078845200,1.19884521484375,-0.11168525367975235,0.11562886089086533,0.17940357327461243
1775710450088859400,1.208859375,-0.12917768955230713,0.14348739385604858,0.15332750976085663
1775710450098874400,1.218874267578125,-0.1234164759516716,0.24457992613315582,0.1498377025127411
1775710450108888300,1.228888427734375,-0.10397593677043915,0.27534714341163635,0.16318279504776
1775710450118902500,1.238902587890625,-0.12283138185739517,0.255683958530426,0.17329801619052887
1775710450128917500,1.24891748046875,-0.19258995354175568,0.18129122257232666,0.1927473545074463
1775710450138931200,1.25893115234375,-0.25559234619140625,0.1306954324245453,0.21646572649478912
1775710450148946200,1.2689462890625,-0.27889183163642883,0.10313969850540161,0.23412354290485382
1775710450158960400,1.27896044921875,-0.2774406671524048,0.08454471081495285,0.2414238005876541
1775710450168975400,1.288975341796875,-0.27784839272499084,0.08300886303186417,0.24849262833595276
1775710450178989300,1.2989892578125,-0.273989200592041,0.06684853881597519,0.25708532333374023
1775710450189004500,1.309004638671875,-0.261027067899704,0.051486093550920486,0.25965526700019836
1775710450199019300,1.319019287109375,-0.22986435890197754,0.06581416726112366,0.2565627992153168
1775710450209034200,1.3290341796875,-0.2188146412372589,0.07915953546762466,0.25162264704704285
1775710450219048000,1.3390478515625,-0.23013094067573547,0.08112041652202606,0.2582091689109802
1775710450229062100,1.349062255859375,-0.25082528591156006,0.06472732871770859,0.26359835267066956
1775710450239077000,1.3590771484375,-0.26192429661750793,0.03766961395740509,0.27358493208885193
1775710450249091000,1.369091064453125,-0.2712450921535492,-0.0010820423485711217,0.28142794966697693
1775710450259106000,1.37910595703125,-0.275628924369812,-0.025137843564152718,0.29779306054115295
1775710450269120300,1.389120361328125,-0.2918611466884613,-0.03478274866938591,0.3188301920890808
1775710450279135200,1.39913525390625,-0.3105866312980652,-0.042823098599910736,0.3421064615249634
1775710450289149000,1.40914892578125,-0.32635706663131714,-0.03364744037389755,0.3700923025608063
1775710450299164200,1.4191640625,-0.3338930308818817,0.0028687571175396442,0.4002978801727295
1775710450309178000,1.42917822265625,-0.3391982913017273,0.045995987951755524,0.3947068452835083
1775710450319192000,1.439192138671875,-0.34055545926094055,0.09099169075489044,0.36804458498954773
1775710450329207300,1.449207275390625,-0.3401288092136383,0.12287106364965439,0.3534693717956543
1775710450339221000,1.459220947265625,-0.34075412154197693,0.12903521955013275,0.35360628366470337
1775710450349236000,1.469236083984375,-0.3347764015197754,0.12447535246610641,0.36219656467437744
1775710450359250200,1.479250244140625,-0.33606481552124023,0.13298095762729645,0.36235156655311584
1775710450369265200,1.48926513671875,-0.3442130386829376,0.154085174202919,0.3494991362094879
1775710450379279000,1.499279052734375,-0.3636711537837982,0.11824488639831543,0.3270210027694702
1775710450389294000,1.509294189453125,-0.37418824434280396,0.06950663775205612,0.3071191906929016
1775710450399308300,1.519308349609375,-0.3706776797771454,-0.01816968247294426,0.29641488194465637
1775710450409322000,1.529322021484375,-0.36191320419311523,-0.08972243219614029,0.282766193151474
1775710450419337000,1.5393369140625,-0.3334812819957733,-0.18177832663059235,0.26883625984191895
1775710450429351200,1.54935107421875,-0.30983296036720276,-0.2573372721672058,0.27526378631591797
1775710450439366100,1.5593662109375,-0.31019195914268494,-0.2670503258705139,0.3057982623577118
1775710450449380000,1.569380126953125,-0.3316519558429718,-0.27060991525650024,0.3441469967365265
1775710450459395000,1.57939501953125,-0.3409213721752167,-0.3037082254886627,0.39114806056022644
1775710450469409300,1.5894091796875,-0.3299262523651123,-0.3594204783439636,0.45441409945487976
1775710450479424000,1.599424072265625,-0.3096385598182678,-0.45230889320373535,0.5188519358634949
1775710450489438000,1.60943798828125,-0.2884847819805145,-0.5635488629341125,0.5691814422607422
1775710450499452200,1.6194521484375,-0.2771732807159424,-0.6431475281715393,0.5958204865455627
1775710450509467100,1.629467041015625,-0.25309616327285767,-0.689643919467926,0.5911200046539307
1775710450519481000,1.639481201171875,-0.219387486577034,-0.6873456239700317,0.5718699097633362
1775710450529496300,1.649496337890625,-0.1933172643184662,-0.645937979221344,0.543952226638794
1775710450539510000,1.659510009765625,-0.16361050307750702,-0.5913578271865845,0.5212064385414124
1775710450549525000,1.66952490234375,-0.14453481137752533,-0.5270031094551086,0.5041587352752686
1775710450559539200,1.679539306640625,-0.13641057908535004,-0.44773435592651367,0.4819788932800293
1775710450569554200,1.68955419921875,-0.12262418866157532,-0.381690114736557,0.48261165618896484
1775710450579568000,1.699568115234375,-0.13438311219215393,-0.3765619099140167,0.5073170065879822
1775710450589583000,1.7095830078125,-0.19113373756408691,-0.41964173316955566,0.5578067898750305
1775710450599597300,1.719597412109375,-0.2845342457294464,-0.47365251183509827,0.6067743301391602
1775710450609611000,1.729611083984375,-0.383669376373291,-0.5375332236289978,0.6243736147880554
1775710450619626000,1.7396259765625,-0.4497663676738739,-0.5650990605354309,0.6113570928573608
1775710450629640200,1.74964013671875,-0.46090927720069885,-0.5435194969177246,0.588852047920227
1775710450639655200,1.7596552734375,-0.460114061832428,-0.5195611715316772,0.5760625004768372
1775710450649669000,1.769669189453125,-0.472920686006546,-0.4845605492591858,0.5808708667755127
1775710450659684000,1.77968408203125,-0.5031208992004395,-0.4677773118019104,0.5958915948867798
1775710450669698000,1.789697998046875,-0.4890413284301758,-0.48365241289138794,0.6233322620391846
1775710450679713000,1.799713134765625,-0.45543143153190613,-0.530483067035675,0.6611462235450745
1775710450689727000,1.80972705078125,-0.44170019030570984,-0.5846093893051147,0.6878755688667297
1775710450699741200,1.8197412109375,-0.4379879832267761,-0.7017136216163635,0.6939880847930908
1775710450709756200,1.829756103515625,-0.4346521198749542,-0.8175856471061707,0.6764993667602539
1775710450719770000,1.83977001953125,-0.42689141631126404,-0.9083091616630554,0.6442570090293884
1775710450729785000,1.84978515625,-0.4145370125770569,-1.0067318677902222,0.5966159701347351
1775710450739799000,1.859799072265625,-0.401643306016922,-1.0989151000976562,0.5534754395484924
1775710450749814000,1.86981396484375,-0.3997354209423065,-1.1480653285980225,0.5301661491394043
1775710450759828000,1.879827880859375,-0.4152664244174957,-1.200947642326355,0.5062762498855591
1775710450769843200,1.88984326171875,-0.4444373846054077,-1.213108777999878,0.4652816653251648
1775710450779857200,1.899857177734375,-0.48063504695892334,-1.1805601119995117,0.39998388290405273
1775710450789871000,1.90987109375,-0.5006266236305237,-1.17417573928833,0.32432135939598083
1775710450799886300,1.91988623046875,-0.49950435757637024,-1.172148585319519,0.27325019240379333
1775710450809900000,1.929900146484375,-0.48383858799934387,-1.1782314777374268,0.2415468394756317
1775710450819915000,1.9399150390625,-0.45562371611595154,-1.1957752704620361,0.22633087635040283
1775710450829929200,1.94992919921875,-0.42580562829971313,-1.2332183122634888,0.21052101254463196
1775710450839944200,1.959944091796875,-0.3800767660140991,-1.185755968093872,0.19164426624774933
1775710450849958100,1.969958251953125,-0.33370259404182434,-1.1188163757324219,0.1867067664861679
1775710450859972000,1.97997216796875,-0.30384698510169983,-1.0500109195709229,0.20622320473194122
1775710450869987000,1.989987060546875,-0.2785693109035492,-0.9285646080970764,0.22146448493003845
1775710450880001000,2.0000009765625,-0.2588113248348236,-0.7748405933380127,0.21910332143306732
1775710450890016000,2.01001611328125,-0.24340200424194336,-0.63935387134552,0.20333288609981537
1775710450900030200,2.0200302734375,-0.2428821474313736,-0.520635187625885,0.18308380246162415
1775710450910045200,2.030045166015625,-0.2655041217803955,-0.3769989311695099,0.16773653030395508
1775710450920059100,2.04005908203125,-0.2996455729007721,-0.24365873634815216,0.18030479550361633
1775710450930074000,2.05007421875,-0.3191241919994354,-0.16856291890144348,0.20347535610198975
1775710450940088000,2.060088134765625,-0.31920647621154785,-0.16482676565647125,0.25885552167892456
1775710450950102000,2.07010205078125,-0.30790722370147705,-0.17055149376392365,0.3506578803062439
1775710450960117000,2.080116943359375,-0.30526137351989746,-0.19842840731143951,0.47283118963241577
1775710450970131200,2.090131103515625,-0.32808759808540344,-0.34876251220703125,0.6172546744346619
1775710450980146200,2.100146240234375,-0.3887125849723816,-0.5945456624031067,0.7386711239814758
1775710450990160100,2.11016015625,-0.4925532341003418,-0.8198882341384888,0.8387072086334229
1775710451000175000,2.120175048828125,-0.5786556601524353,-1.0125503540039062,0.8982016444206238
1775710451010189000,2.13018896484375,-0.6319918036460876,-1.1515252590179443,0.8914279341697693
1775710451020204000,2.1402041015625,-0.6473340392112732,-1.1390656232833862,0.8357564210891724
1775710451030218200,2.15021826171875,-0.6317958235740662,-0.9522784948348999,0.7351171374320984
1775710451040232200,2.160232177734375,-0.5860123634338379,-0.6593675017356873,0.595422089099884
1775710451050247200,2.1702470703125,-0.5214647650718689,-0.39213502407073975,0.4352335035800934
1775710451060261000,2.18026123046875,-0.4811035096645355,-0.18102598190307617,0.26348063349723816
1775710451070276000,2.190276123046875,-0.45804691314697266,-0.05945054441690445,0.15740719437599182
1775710451080290000,2.2002900390625,-0.4768581688404083,0.004798483569175005,0.14407141506671906
1775710451090305000,2.210304931640625,-0.513759970664978,-0.05221233889460564,0.189764603972435
1775710451100319200,2.2203193359375,-0.5396667122840881,-0.19759376347064972,0.28604641556739807
1775710451110334200,2.230334228515625,-0.5510634183883667,-0.33494868874549866,0.4193621277809143
1775710451120348200,2.24034814453125,-0.5404075980186462,-0.43466436862945557,0.5659957528114319
1775710451130362000,2.250362060546875,-0.49250131845474243,-0.48981764912605286,0.7003077864646912
1775710451140377000,2.260377197265625,-0.4138416349887848,-0.5278467535972595,0.7938539385795593
1775710451150391000,2.27039111328125,-0.34414780139923096,-0.5341869592666626,0.8245490193367004
1775710451160406000,2.280406005859375,-0.28919586539268494,-0.5093697905540466,0.7984212636947632
1775710451170420200,2.290420166015625,-0.23815104365348816,-0.4420972466468811,0.7165874242782593
1775710451180435200,2.300435302734375,-0.17527274787425995,-0.33388105034828186,0.6032408475875854
1775710451190449000,2.310448974609375,-0.1558077037334442,-0.11035314202308655,0.4805133640766144
1775710451200462800,2.320462890625,-0.14613403379917145,0.11822863668203354,0.3817058205604553
1775710451210477600,2.3304775390625,-0.11956581473350525,0.2987840473651886,0.3291744291782379
1775710451220491500,2.340491455078125,-0.15009495615959167,0.5037462115287781,0.28791940212249756
1775710451230506800,2.3505068359375,-0.20282022655010223,0.6511750817298889,0.26603859663009644
1775710451240520700,2.360520751953125,-0.26612064242362976,0.6817018389701843,0.27273672819137573
1775710451250535700,2.37053564453125,-0.32455384731292725,0.5727274417877197,0.29594138264656067
1775710451260550000,2.3805498046875,-0.3461779057979584,0.3741197884082794,0.3318658173084259
1775710451270564900,2.39056494140625,-0.3173587918281555,0.16088049113750458,0.40231549739837646
1775710451280578600,2.40057861328125,-0.28234007954597473,0.026874225586652756,0.4970124363899231
1775710451290592800,2.4105927734375,-0.26800215244293213,0.005397961009293795,0.5347774028778076
1775710451300607700,2.420607666015625,-0.2786044776439667,0.0778423324227333,0.5017448663711548
1775710451310621700,2.43062158203125,-0.32384198904037476,0.1525930017232895,0.431681364774704
1775710451320636700,2.44063671875,-0.3838858902454376,0.2079923450946808,0.34952470660209656
1775710451330651000,2.45065087890625,-0.4170893728733063,0.27526724338531494,0.2660479247570038
1775710451340665900,2.460665771484375,-0.4170054793357849,0.33105701208114624,0.20744799077510834
1775710451350679600,2.470679443359375,-0.4077051877975464,0.3486783504486084,0.17850103974342346
1775710451360693800,2.48069384765625,-0.40338262915611267,0.3076510429382324,0.15434908866882324
1775710451370708700,2.490708740234375,-0.40798988938331604,0.23568841814994812,0.1210436001420021
1775710451380722700,2.50072265625,-0.40812888741493225,0.1859014332294464,0.11701104044914246
1775710451390737700,2.510737548828125,-0.38024213910102844,0.13276417553424835,0.15220871567726135
1775710451400751600,2.520751708984375,-0.31911274790763855,0.038568165153265,0.1909467875957489
1775710451410766600,2.5307666015625,-0.22177153825759888,-0.09899422526359558,0.23161804676055908
1775710451420780500,2.540780517578125,-0.13083843886852264,-0.20273473858833313,0.3113573491573334
1775710451430794800,2.550794677734375,-0.09218771755695343,-0.2366357147693634,0.423756867647171
1775710451440809700,2.560809814453125,-0.07897204905748367,-0.2342175543308258,0.5162580609321594
1775710451450823700,2.57082373046875,-0.06433797627687454,-0.20186308026313782,0.5472633838653564
1775710451460839000,2.5808388671875,-0.04170723259449005,-0.15118366479873657,0.5364367961883545
1775710451470852600,2.5908525390625,-0.030527548864483833,-0.023323964327573776,0.5087777376174927
1775710451480867600,2.60086767578125,-0.02749687246978283,0.130456805229187,0.45773425698280334
1775710451490881800,2.6108818359375,-0.03259709104895592,0.2771914005279541,0.3860779404640198
1775710451500896800,2.620896728515625,-0.03832395374774933,0.3827465772628784,0.30844756960868835
1775710451510910700,2.63091064453125,-0.055388156324625015,0.4213469624519348,0.23651346564292908
1775710451520925000,2.640925048828125,-0.08801907300949097,0.37382739782333374,0.18383242189884186
1775710451530940000,2.65093994140625,-0.11477664858102798,0.2870035469532013,0.16988517343997955
1775710451540953600,2.66095361328125,-0.11641103029251099,0.196580171585083,0.15859709680080414
1775710451550968600,2.670968505859375,-0.08970511704683304,0.11751943826675415,0.14487995207309723
1775710451560982800,2.680982666015625,-0.06273581832647324,0.0801859125494957,0.1420799046754837
1775710451570997800,2.690997802734375,-0.05143629387021065,0.08773491531610489,0.1523282825946808
1775710451581011700,2.70101171875,-0.04338342696428299,0.10598395764827728,0.17032858729362488
1775710451591025700,2.711025634765625,-0.026509106159210205,0.13552746176719666,0.18792036175727844
1775710451601040600,2.72104052734375,-0.0049678608775138855,0.20256242156028748,0.19346347451210022
1775710451611054600,2.7310546875,0.009077384136617184,0.3115434944629669,0.16624197363853455
1775710451621069600,2.741069580078125,0.02213832549750805,0.4182702302932739,0.10272478312253952
1775710451631083800,2.751083740234375,0.020683707669377327,0.4920829236507416,0.03295981511473656
1775710451641098800,2.7610986328125,0.019568907096982002,0.5039379596710205,-0.014357900246977806
1775710451651112700,2.77111279296875,0.007859254255890846,0.42718222737312317,-0.03464080020785332
1775710451661126700,2.781126708984375,-0.026503246277570724,0.30160513520240784,-0.02526807226240635
1775710451671141600,2.7911416015625,-0.07014739513397217,0.187688946723938,0.01251951977610588
1775710451681155600,2.801155517578125,-0.09013122320175171,0.11544563621282578,0.05446697026491165
1775710451691170800,2.8111708984375,-0.09451878070831299,0.069458968937397,0.07318340241909027
1775710451701184800,2.821184814453125,-0.08151909708976746,0.07322414964437485,0.07246940582990646
1775710451711199700,2.83119970703125,-0.057433996349573135,0.0948663279414177,0.07286222279071808
1775710451721213700,2.841213623046875,-0.03313717991113663,0.10313837230205536,0.08370927721261978
1775710451731227600,2.8512275390625,-0.007387875113636255,0.07720743864774704,0.09147026389837265
1775710451741242600,2.86124267578125,0.005893042776733637,0.02521747164428234,0.08119898289442062
1775710451751256800,2.8712568359375,0.018663698807358742,-0.011020959354937077,0.06308548897504807
1775710451761271800,2.881271728515625,0.041851840913295746,0.007465905509889126,0.035959064960479736
1775710451771285800,2.89128564453125,0.06620192527770996,0.0481446273624897,-0.00031079089967533946
1775710451781300700,2.90130078125,0.08325973898172379,0.09130781143903732,-0.03747573494911194
1775710451791314700,2.911314697265625,0.09293313324451447,0.0913674607872963,-0.06136136129498482
1775710451801328600,2.92132861328125,0.08384909480810165,0.06984246522188187,-0.05953017249703407
1775710451811342600,2.931342529296875,0.06660832464694977,0.0569642148911953,-0.04045954346656799
1775710451821357800,2.94135791015625,0.05420917645096779,0.06118159741163254,-0.020592892542481422
1775710451831371800,2.951371826171875,0.05390584096312523,0.09204044193029404,-0.007761250250041485
1775710451841386800,2.96138671875,0.05854133889079094,0.12430889904499054,-0.007388141471892595
1775710451851400700,2.971400634765625,0.05607791617512703,0.11750106513500214,-0.025477129966020584
1775710451861415700,2.981415771484375,0.054723434150218964,0.07761463522911072,-0.04062652215361595
1775710451871429600,2.9914296875,0.044198088347911835,0.03694549947977066,-0.03958149626851082
1775710451881444600,3.001444580078125,0.00996208656579256,0.019339876249432564,-0.03275661543011665
1775710451891458800,3.011458740234375,-0.05742494389414787,0.04935956001281738,-0.029653232544660568
1775710451901472800,3.02147265625,-0.1402399241924286,0.08316972106695175,-0.03020370937883854
1775710451911487700,3.03148779296875,-0.19677883386611938,0.12280102074146271,-0.01907462440431118
1775710451921501700,3.041501708984375,-0.2227553129196167,0.1510787308216095,-0.0007070692372508347
1775710451931516700,3.0515166015625,-0.2285817712545395,0.12923921644687653,0.012555206194519997
1775710451941530600,3.061530517578125,-0.22257155179977417,0.05729391425848007,0.016944894567131996
1775710451951544800,3.071544921875,-0.2126195877790451,-0.03765976056456566,0.007283213082700968
1775710451961559800,3.081559814453125,-0.1927870213985443,-0.0826014056801796,-0.010488327592611313
1775710451971573500,3.091573486328125,-0.17121489346027374,-0.07931958884000778,-0.03594361990690231
1775710451981588500,3.10158837890625,-0.1601068526506424,-0.02990943007171154,-0.06103858724236488
1775710451991602700,3.111602783203125,-0.15710945427417755,0.0556613989174366,-0.0895322784781456
1775710452001617700,3.12161767578125,-0.16464753448963165,0.12106011062860489,-0.11376731097698212
1775710452011631600,3.131631591796875,-0.18480341136455536,0.14334198832511902,-0.1245962604880333
1775710452021645800,3.141645751953125,-0.2106216847896576,0.12792733311653137,-0.12762853503227234
1775710452031660800,3.151660888671875,-0.23369957506656647,0.08392339944839478,-0.1099025309085846
1775710452041674500,3.161674560546875,-0.23842962086200714,0.04590384289622307,-0.06690606474876404
1775710452051689700,3.171689697265625,-0.21671366691589355,0.02623826265335083,-0.013439375907182693
1775710452061703700,3.18170361328125,-0.1789710819721222,0.04351978003978729,0.03409644961357117
1775710452071718700,3.19171875,-0.13877306878566742,0.048354484140872955,0.06675878912210464
1775710452081732900,3.20173291015625,-0.10703563690185547,0.044434577226638794,0.08471702039241791
1775710452091746800,3.211746826171875,-0.07950068265199661,0.024289093911647797,0.1164400577545166
1775710452101761800,3.22176171875,-0.058889683336019516,-0.005562810692936182,0.15758776664733887
1775710452111775700,3.231775634765625,-0.05409359559416771,-0.02105601690709591,0.18061211705207825
1775710452121790700,3.241790771484375,-0.06751406192779541,0.004804342519491911,0.15924876928329468
1775710452131804700,3.2518046875,-0.08644301444292068,0.05560227483510971,0.10230319947004318
1775710452141819600,3.261819580078125,-0.08791041374206543,0.1022624522447586,0.0542248897254467
1775710452151833900,3.271833740234375,-0.08147408813238144,0.11302348971366882,0.030483074486255646
1775710452161847600,3.28184765625,-0.06483492255210876,0.08549998700618744,0.020178237929940224
1775710452171862500,3.291862548828125,-0.047927044332027435,0.05777248740196228,0.029285717755556107
1775710452181876700,3.301876708984375,-0.04477386176586151,0.06029662862420082,0.04274080693721771
1775710452191892200,3.311892333984375,-0.03778066858649254,0.07357648015022278,0.0606502965092659
1775710452201906200,3.32190625,-0.01974121481180191,0.10602177679538727,0.08347678184509277
1775710452211920400,3.33192041015625,-0.004457599017769098,0.15074263513088226,0.08732771128416061
1775710452221935400,3.341935302734375,-0.0027632960118353367,0.18065500259399414,0.08695034682750702
1775710452231949300,3.35194921875,0.0006042712484486401,0.19822466373443604,0.1151801198720932
1775710452241964300,3.36196435546875,0.005741509143263102,0.1905214786529541,0.1522076427936554
1775710452251978200,3.371978271484375,0.012120578438043594,0.16941939294338226,0.1667889803647995
1775710452261993200,3.3819931640625,0.01215519942343235,0.16790485382080078,0.15344415605068207
1775710452272007200,3.392007080078125,0.0043928842060267925,0.1745062917470932,0.12206625193357468
1775710452282021400,3.402021484375,-0.006428870838135481,0.17698702216148376,0.09809248149394989
1775710452292036400,3.412036376953125,-0.022850187495350838,0.1769188493490219,0.08937808126211166
1775710452302050300,3.42205029296875,-0.04566202685236931,0.19666032493114471,0.07647187262773514
1775710452312065000,3.43206494140625,-0.04818084463477135,0.2148750275373459,0.06584985554218292
1775710452322079200,3.442079345703125,-0.03469539433717728,0.19238010048866272,0.074632428586483
1775710452332094200,3.45209423828125,-0.024870995432138443,0.13942474126815796,0.08972189575433731
1775710452342108200,3.462108154296875,-0.02748914808034897,0.06320666521787643,0.09039753675460815
1775710452352122400,3.472122314453125,-0.038891471922397614,0.026369554921984673,0.08833412081003189
1775710452362137300,3.482137451171875,-0.043424706906080246,0.014223410747945309,0.08068738877773285
1775710452372151000,3.492151123046875,-0.04242841526865959,0.005239502992480993,0.0772300735116005
1775710452382166300,3.502166259765625,-0.0347723625600338,-0.01387080829590559,0.06911488622426987
1775710452392180200,3.51218017578125,-0.01570492796599865,-0.023971112444996834,0.0600670650601387
1775710452402194200,3.522194091796875,-0.001404284848831594,-0.004504470620304346,0.05943696200847626
1775710452412209200,3.532209228515625,0.003427754621952772,0.01926583983004093,0.05459027364850044
1775710452422223400,3.542223388671875,0.0031518512405455112,0.03891837224364281,0.0325171984732151
1775710452432238300,3.55223828125,0.0006743124104104936,0.058998070657253265,-0.0038341530598700047
1775710452442252000,3.562251953125,-0.005929261911660433,0.0632237121462822,-0.05036596953868866
1775710452452267300,3.572267333984375,-0.030834611505270004,0.04926634952425957,-0.0952247828245163
1775710452462281200,3.58228125,-0.05734238401055336,0.03225913643836975,-0.11992400884628296
1775710452472295200,3.592295166015625,-0.06855668872594833,-0.0041031320579349995,-0.12841469049453735
1775710452482310400,3.602310302734375,-0.07355038076639175,-0.040133036673069,-0.12026329338550568
1775710452492324400,3.612324462890625,-0.06192275509238243,-0.08710214495658875,-0.11120375245809555
1775710452502339000,3.622339111328125,-0.03777614235877991,-0.13920742273330688,-0.11299392580986023
1775710452512353300,3.632353271484375,-0.017057014629244804,-0.16976186633110046,-0.12112163007259369
1775710452522367200,3.6423671875,-0.004480235744267702,-0.15320366621017456,-0.12647698819637299
1775710452532382200,3.65238232421875,0.003626160090789199,-0.15234878659248352,-0.12535898387432098
1775710452542396400,3.662396484375,0.0051809134893119335,-0.16328319907188416,-0.11248792707920074
1775710452552411400,3.672411376953125,0.004683967679738998,-0.17965418100357056,-0.09970927983522415
1775710452562425000,3.682425048828125,0.03242744877934456,-0.23191311955451965,-0.1018989309668541
1775710452572440000,3.692440185546875,0.05937331169843674,-0.24253727495670319,-0.1294514685869217
1775710452582454300,3.702454345703125,0.07978351414203644,-0.24941381812095642,-0.14643710851669312
1775710452592468200,3.71246826171875,0.07191760092973709,-0.2962748110294342,-0.14558009803295135
1775710452602483200,3.722483154296875,0.06331904977560043,-0.3427485525608063,-0.13556022942066193
1775710452612497400,3.732497314453125,0.049318015575408936,-0.36973118782043457,-0.1367405354976654
1775710452622512400,3.742512451171875,0.025298697873950005,-0.4109758138656616,-0.15822185575962067
1775710452632526000,3.752526123046875,-0.003849865635856986,-0.4189181625843048,-0.17375315725803375
1775710452642540300,3.762540283203125,-0.026440661400556564,-0.3794671595096588,-0.17286258935928345
1775710452652555300,3.77255517578125,-0.025371668860316277,-0.3099743723869324,-0.16729524731636047
1775710452662569200,3.7825693359375,-0.0041547976434230804,-0.2570011615753174,-0.13309013843536377
1775710452672584200,3.792584228515625,0.018921226263046265,-0.23326069116592407,-0.06843844801187515
1775710452682598400,3.802598388671875,0.036862943321466446,-0.2554093897342682,-0.0002103897277265787
1775710452692612000,3.812612060546875,0.05275855213403702,-0.3120545744895935,0.03612658008933067
1775710452702627000,3.822626953125,0.05272180214524269,-0.3051580488681793,0.03941158950328827
1775710452712641300,3.832641357421875,0.0472940132021904,-0.3089671730995178,0.04000547155737877
1775710452722656300,3.84265625,0.046127814799547195,-0.3991609811782837,0.06764562427997589
1775710452732670200,3.852670166015625,0.03248603641986847,-0.4775415360927582,0.08856289088726044
1775710452742685400,3.862685546875,0.004464789759367704,-0.5407226085662842,0.09088490158319473
1775710452752699100,3.87269921875,-0.04506973922252655,-0.5447900891304016,0.080067940056324
1775710452762713000,3.882713134765625,-0.11122186481952667,-0.472699910402298,0.05718126520514488
1775710452772728300,3.892728271484375,-0.14720650017261505,-0.34995588660240173,0.03154993802309036
1775710452782742300,3.9027421875,-0.15514031052589417,-0.3029686510562897,0.000794420950114727
1775710452792757200,3.91275732421875,-0.1460067331790924,-0.31840968132019043,-0.035716451704502106
1775710452802771500,3.922771484375,-0.11543577909469604,-0.34372594952583313,-0.02787051349878311
1775710452812785200,3.93278515625,-0.06732630729675293,-0.4368753135204315,0.035040806978940964
1775710452822800100,3.942800048828125,-0.04051227122545242,-0.5361822247505188,0.12103800475597382
1775710452832814300,3.952814453125,-0.024047546088695526,-0.6354914903640747,0.183710977435112
1775710452842829300,3.962829345703125,0.0037353497464209795,-0.8208272457122803,0.22185729444026947
1775710452852843300,3.97284326171875,0.005268531385809183,-1.0376766920089722,0.23082202672958374
1775710452862857200,3.982857177734375,-0.021621139720082283,-1.1251131296157837,0.1794685572385788
1775710452872872400,3.99287255859375,-0.061103302985429764,-1.1447077989578247,0.03055923990905285
1775710452882886100,4.00288623046875,-0.08178168535232544,-0.9817615747451782,-0.15977102518081665
1775710452892901000,4.012901123046875,-0.07766789942979813,-0.6727285981178284,-0.3624354600906372
1775710452902915300,4.022915283203125,-0.10793338716030121,-0.3639047145843506,-0.5501512885093689
1775710452912929300,4.03292919921875,-0.15447452664375305,-0.14673244953155518,-0.6900098323822021
1775710452922944300,4.0429443359375,-0.18475520610809326,-0.10633442550897598,-0.7786595821380615
1775710452932958200,4.052958251953125,-0.1814827024936676,-0.14478860795497894,-0.8224235773086548
1775710452942973200,4.06297314453125,-0.16742414236068726,-0.20689192414283752,-0.8397490382194519
1775710452952987100,4.072987060546875,-0.1563267558813095,-0.30093613266944885,-0.8354892730712891
1775710452963001300,4.08300146484375,-0.14886830747127533,-0.3799121677875519,-0.8106387853622437
1775710452973016300,4.093016357421875,-0.13086001574993134,-0.35201555490493774,-0.7870802283287048
1775710452983030300,4.1030302734375,-0.11515907943248749,-0.29372137784957886,-0.7114334106445312
1775710452993045200,4.113045166015625,-0.1404966562986374,-0.15492193400859833,-0.5884885787963867
1775710453003059200,4.12305908203125,-0.18829481303691864,0.024930384010076523,-0.4810265302658081
1775710453013073200,4.1330732421875,-0.24574558436870575,0.1348305195569992,-0.43001049757003784
1775710453023088000,4.143088134765625,-0.3120122253894806,0.1266373097896576,-0.4343565106391907
1775710453033102300,4.153102294921875,-0.37216317653656006,0.033060215413570404,-0.4268586337566376
1775710453043117300,4.163117431640625,-0.3962045907974243,-0.04761412367224693,-0.36850693821907043
1775710453053131300,4.17313134765625,-0.34748393297195435,-0.21684814989566803,-0.2727274000644684
1775710453063146200,4.183146240234375,-0.27304431796073914,-0.4195501208305359,-0.1368499994277954
1775710453073160200,4.19316015625,-0.21699783205986023,-0.5281269550323486,-0.00782436691224575
1775710453083174100,4.203174072265625,-0.17806826531887054,-0.553583562374115,0.06838970631361008
1775710453093189000,4.213189208984375,-0.16522757709026337,-0.5001791715621948,0.06319042295217514
1775710453103203300,4.223203369140625,-0.17102447152137756,-0.39994367957115173,-0.003236539661884308
1775710453113217300,4.23321728515625,-0.1517903208732605,-0.22927314043045044,-0.11264878511428833
1775710453123232000,4.24323193359375,-0.13695678114891052,-0.1283281445503235,-0.21496716141700745
1775710453133246200,4.25324609375,-0.15798670053482056,-0.09863390028476715,-0.26439303159713745
1775710453143261200,4.26326123046875,-0.1887214481830597,-0.09175548702478409,-0.2575242221355438
1775710453153275100,4.273275146484375,-0.2008683979511261,-0.08915197849273682,-0.21429391205310822
1775710453163290400,4.283290283203125,-0.2081417441368103,-0.07420525699853897,-0.16552051901817322
1775710453173304300,4.29330419921875,-0.21147629618644714,-0.0233553908765316,-0.12023825943470001
1775710453183318000,4.303318115234375,-0.19646884500980377,0.011656655929982662,-0.05433514341711998
1775710453193333200,4.313333251953125,-0.19862042367458344,-0.0032091091852635145,0.0508919432759285
1775710453203347000,4.323346923828125,-0.2132377028465271,-0.07957898080348969,0.1768525391817093
1775710453213362000,4.33336181640625,-0.2205347716808319,-0.2009056806564331,0.2545073926448822
1775710453223376100,4.343376220703125,-0.25480833649635315,-0.2555854320526123,0.2658383250236511
1775710453233390000,4.35339013671875,-0.3387080132961273,-0.24095135927200317,0.19908860325813293
1775710453243405000,4.363405029296875,-0.45313072204589844,-0.23176692426204681,0.07651368528604507
1775710453253419300,4.373419189453125,-0.5595849752426147,-0.20873324573040009,-0.04416879266500473
1775710453263434200,4.383434326171875,-0.605498194694519,-0.20605196058750153,-0.15035487711429596
1775710453273448000,4.393447998046875,-0.5899569988250732,-0.2676205337047577,-0.20868369936943054
1775710453283462100,4.403462158203125,-0.5504482388496399,-0.3615874946117401,-0.21660900115966797
1775710453293477000,4.41347705078125,-0.5192447900772095,-0.4737081825733185,-0.19319316744804382
1775710453303491000,4.423490966796875,-0.5395135283470154,-0.4886476993560791,-0.14463867247104645
1775710453313505300,4.43350537109375,-0.6158237457275391,-0.41994935274124146,-0.12413286417722702
1775710453323520300,4.443520263671875,-0.7026785016059875,-0.3600527048110962,-0.13518045842647552
1775710453333534000,4.453533935546875,-0.7725207209587097,-0.2923029661178589,-0.15382817387580872
1775710453343549000,4.463548828125,-0.7997658848762512,-0.29032450914382935,-0.1643066555261612
1775710453353563100,4.473563232421875,-0.8108544945716858,-0.3205910623073578,-0.1419544816017151
1775710453363577000,4.4835771484375,-0.8009188175201416,-0.30261126160621643,-0.12001562118530273
1775710453373592000,4.493592041015625,-0.7598605751991272,-0.29150986671447754,-0.09482318162918091
1775710453383606000,4.50360595703125,-0.6911557912826538,-0.2757330536842346,-0.03720622509717941
1775710453393621000,4.51362109375,-0.5826242566108704,-0.2925895154476166,0.0149211585521698
1775710453403635000,4.523635009765625,-0.4796920418739319,-0.31718701124191284,0.031974710524082184
1775710453413649200,4.533649169921875,-0.41336148977279663,-0.31184151768684387,-0.012381834909319878
1775710453423664000,4.5436640625,-0.3913813531398773,-0.21930758655071259,-0.11963798105716705
1775710453433678000,4.553677978515625,-0.3700917661190033,-0.09795106202363968,-0.23390650749206543
1775710453443693000,4.563693115234375,-0.2954345643520355,-0.053885336965322495,-0.2992093563079834
1775710453453707000,4.57370703125,-0.21669529378414154,-0.08133959770202637,-0.2967142164707184
1775710453463721000,4.583720947265625,-0.15134850144386292,-0.1771196573972702,-0.2299216091632843
1775710453473736000,4.59373583984375,-0.14743979275226593,-0.27138757705688477,-0.17256245017051697
1775710453483750100,4.603750244140625,-0.24338096380233765,-0.21301427483558655,-0.1671684831380844
1775710453493765000,4.61376513671875,-0.36377155780792236,-0.09805040061473846,-0.1832806020975113
1775710453503779000,4.623779052734375,-0.45693692564964294,-0.03947550430893898,-0.17048518359661102
1775710453513793000,4.63379296875,-0.4711930751800537,-0.001187503570690751,-0.09573078900575638
1775710453523808000,4.64380810546875,-0.40449342131614685,0.010397779755294323,-0.0011888351291418076
1775710453533822000,4.653822021484375,-0.42151927947998047,0.031929437071084976,0.03236006945371628
1775710453543837200,4.663837158203125,-0.5764646530151367,0.04902959242463112,-0.008762598969042301
1775710453553851100,4.67385107421875,-0.7037988901138306,0.05705476552248001,-0.069683738052845
1775710453563865000,4.683864990234375,-0.7268621325492859,0.004619252867996693,-0.09171873331069946
1775710453573880000,4.693880126953125,-0.5955853462219238,-0.11951654404401779,-0.057193513959646225
1775710453583894000,4.70389404296875,-0.4182736873626709,-0.18298499286174774,-0.028617795556783676
1775710453593909000,4.713908935546875,-0.26940858364105225,-0.12575127184391022,-0.05269570276141167
1775710453603923200,4.723923095703125,-0.1736634075641632,0.06261837482452393,-0.13423344492912292
1775710453613937200,4.733937255859375,-0.11825500428676605,0.24792379140853882,-0.20844481885433197
1775710453623952100,4.7439521484375,-0.0724550262093544,0.3022559881210327,-0.1991647630929947
1775710453633966000,4.753966064453125,-0.04802931100130081,0.24187467992305756,-0.08495616912841797
1775710453643980000,4.76397998046875,0.01327079813927412,0.13748222589492798,0.0934591069817543
1775710453653995000,4.7739951171875,0.1133316159248352,0.11670291423797607,0.26956942677497864
1775710453664009200,4.78400927734375,0.2201419472694397,0.2089015543460846,0.43058228492736816
1775710453674024200,4.794024169921875,0.31225642561912537,0.3271224796772003,0.5787994265556335
1775710453684038100,4.8040380859375,0.37379541993141174,0.37725168466567993,0.7008912563323975
1775710453694052000,4.814052001953125,0.35662442445755005,0.3731110095977783,0.7740908861160278
1775710453704067000,4.824067138671875,0.27052924036979675,0.25584137439727783,0.7641253471374512
1775710453714081000,4.8340810546875,0.13847266137599945,0.12838514149188995,0.656166672706604
1775710453724096000,4.844095947265625,0.005644037388265133,0.11451006680727005,0.4359719753265381
1775710453734110200,4.854110107421875,-0.06537288427352905,0.18266035616397858,0.18316982686519623
1775710453744124200,4.864124267578125,-0.07128483057022095,0.2418011724948883,0.01960699073970318
1775710453754139100,4.87413916015625,-0.029284652322530746,0.2556741237640381,-0.06604506075382233
1775710453764153000,4.884153076171875,0.07238338887691498,0.23181405663490295,-0.07895340770483017
1775710453774168000,4.89416796875,0.1708359271287918,0.178350031375885,-0.05198490247130394
1775710453784182000,4.90418212890625,0.17741286754608154,0.17778225243091583,-0.024020647630095482
1775710453794196200,4.9141962890625,0.11511300504207611,0.23094001412391663,-0.02413969114422798
1775710453804211200,4.924211181640625,0.015933958813548088,0.25661954283714294,-0.036375317722558975
1775710453814225000,4.934224853515625,-0.09558670967817307,0.1853317767381668,0.013609019108116627
1775710453824239000,4.944239013671875,-0.20170488953590393,0.0824650451540947,0.09628818929195404
1775710453834254000,4.954254150390625,-0.24357937276363373,0.00751970149576664,0.18129229545593262
1775710453844268000,4.96426806640625,-0.19913707673549652,-0.027484355494379997,0.2774758040904999
1775710453854283000,4.974282958984375,-0.08129166066646576,-0.042687542736530304,0.35536476969718933
1775710453864297200,4.984297119140625,0.07009067386388779,-0.04941149055957794,0.38456737995147705
1775710453874311000,4.994310791015625,0.21400177478790283,-0.03311534225940704,0.34054797887802124
1775710453884326000,5.004325927734375,0.2838735282421112,-0.007872037589550018,0.23313471674919128
1775710453894340000,5.014340087890625,0.2615368068218231,0.020179836079478264,0.07194822281599045
1775710453904355000,5.02435498046875,0.14992877840995789,0.024219585582613945,-0.13370053470134735
1775710453914369000,5.034369140625,-0.009779127314686775,0.006163886282593012,-0.3252742290496826
1775710453924383200,5.04438330078125,-0.12309610098600388,-0.01251978613436222,-0.4503898024559021
1775710453934398200,5.054398193359375,-0.16209782660007477,-0.011375426314771175,-0.49859675765037537
1775710453944412000,5.064411865234375,-0.15192773938179016,0.015000521205365658,-0.46837732195854187
1775710453954426000,5.074426025390625,-0.10888440907001495,0.022493591532111168,-0.377362996339798
1775710453964441000,5.084441162109375,-0.0574723482131958,-0.010282198898494244,-0.25119760632514954
1775710453974455000,5.094455078125,-0.014522217214107513,-0.03615986928343773,-0.10686253011226654
1775710453984470000,5.104469970703125,0.006566556170582771,-0.006627276539802551,0.005848834291100502
1775710453994484200,5.114484130859375,-0.045878008008003235,0.04105635732412338,0.02755492925643921
1775710454004498000,5.124497802734375,-0.14308685064315796,0.08866941183805466,0.006393983494490385
1775710454014513000,5.134512939453125,-0.21493999660015106,0.06671032309532166,-0.005335643421858549
1775710454024527000,5.144527099609375,-0.26824796199798584,0.007288805674761534,0.00791677925735712
1775710454034542000,5.1545419921875,-0.2825677692890167,-0.03423919528722763,0.046850863844156265
1775710454044556000,5.16455615234375,-0.2600877583026886,-0.04903518781065941,0.10124219954013824
1775710454054570000,5.174570068359375,-0.20878943800926208,0.003477289341390133,0.13240943849086761
1775710454064585000,5.1845849609375,-0.13759487867355347,0.0673566684126854,0.1701003611087799
1775710454074599000,5.194598876953125,-0.07841091603040695,0.10375675559043884,0.23049712181091309
1775710454084613000,5.204613037109375,-0.058812182396650314,0.05079314112663269,0.2664106488227844
1775710454094628000,5.214628173828125,-0.08764755725860596,-0.02804788015782833,0.2677174508571625
1775710454104642000,5.22464208984375,-0.15711744129657745,-0.08448319137096405,0.25611621141433716
1775710454114657300,5.2346572265625,-0.21333704888820648,-0.07695550471544266,0.22558172047138214
1775710454124671000,5.2446708984375,-0.21821889281272888,-0.03515798598527908,0.1556955873966217
1775710454134685000,5.254684814453125,-0.16732081770896912,-0.00999431125819683,0.07492297887802124
1775710454144700200,5.2647001953125,-0.05312979593873024,0.03724510595202446,0.008624380454421043
1775710454154714000,5.274714111328125,0.057437993586063385,0.1407454013824463,-0.02918984368443489
1775710454164728000,5.28472802734375,0.1427217274904251,0.2568826675415039,-0.0315864235162735
1775710454174743300,5.294743408203125,0.2013845145702362,0.30298489332199097,0.03261280432343483
1775710454184757000,5.304757080078125,0.24434103071689606,0.2557060718536377,0.14307913184165955
1775710454194771700,5.314771728515625,0.2387012541294098,0.18982400000095367,0.26329368352890015
1775710454204785700,5.32478564453125,0.20136134326457977,0.14571832120418549,0.3661649525165558
1775710454214799600,5.334799560546875,0.16437377035617828,0.1319441795349121,0.44777539372444153
1775710454224814600,5.344814697265625,0.13344433903694153,0.11026471853256226,0.5197209715843201
1775710454234828800,5.354828857421875,0.10528381168842316,0.07843488454818726,0.551560640335083
1775710454244842800,5.3648427734375,0.09562452882528305,0.07531366497278214,0.5191893577575684
1775710454254857700,5.374857666015625,0.10057534277439117,0.13569578528404236,0.43070051074028015
1775710454264871700,5.38487158203125,0.13771206140518188,0.24115988612174988,0.31295710802078247
1775710454274886700,5.39488671875,0.1637583076953888,0.3665761351585388,0.23323191702365875
1775710454284900600,5.404900634765625,0.24662789702415466,0.4462118446826935,0.21851876378059387
1775710454294914800,5.414914794921875,0.359578400850296,0.47331270575523376,0.25027376413345337
1775710454304929800,5.4249296875,0.4625559151172638,0.4945109188556671,0.3386435806751251
1775710454314943700,5.43494384765625,0.5297682285308838,0.49914270639419556,0.4534527063369751
1775710454324957700,5.444957763671875,0.5293120741844177,0.4613756239414215,0.5469323396682739
1775710454334972700,5.45497265625,0.49391278624534607,0.3617693781852722,0.6108519434928894
1775710454344986600,5.464986572265625,0.4296126067638397,0.2683374583721161,0.6343404650688171
1775710454355001600,5.475001708984375,0.33490315079689026,0.259380966424942,0.5922955274581909
1775710454365015800,5.485015869140625,0.2533230781555176,0.2978825569152832,0.49379053711891174
1775710454375029800,5.49502978515625,0.2128688544034958,0.32807987928390503,0.3637310862541199
1775710454385044700,5.505044677734375,0.20420107245445251,0.3543737828731537,0.2310153692960739
1775710454395058700,5.51505859375,0.222471684217453,0.37782877683639526,0.09983737766742706
1775710454405072600,5.52507275390625,0.29633551836013794,0.4204806387424469,-0.005820604972541332
1775710454415087600,5.535087646484375,0.41222724318504333,0.48269981145858765,-0.0723399743437767
1775710454425101800,5.545101806640625,0.5167813301086426,0.5504903197288513,-0.09430945664644241
1775710454435116800,5.55511669921875,0.5570645928382874,0.5669174790382385,-0.0848669558763504
1775710454445130500,5.565130615234375,0.4976430833339691,0.5758278965950012,-0.05403340607881546
1775710454455144700,5.575144775390625,0.3896247148513794,0.6289821863174438,0.003494866192340851
1775710454465159700,5.58515966796875,0.26794570684432983,0.6421472430229187,0.05811310559511185
1775710454475173600,5.595173583984375,0.13785320520401,0.5545796155929565,0.10300227999687195
1775710454485187800,5.605187744140625,0.015682822093367577,0.35979118943214417,0.14619235694408417
1775710454495202800,5.615202880859375,-0.10303450375795364,0.12970899045467377,0.23261140286922455
1775710454505216500,5.625216552734375,-0.1850060671567917,-0.010784736834466457,0.3824690878391266
1775710454515231500,5.6352314453125,-0.2002638578414917,-0.0490434430539608,0.5223846435546875
1775710454525245700,5.64524560546875,-0.1838688999414444,0.05124321207404137,0.6135087013244629
1775710454535259600,5.655259765625,-0.13995496928691864,0.17163513600826263,0.6539549231529236
1775710454545274600,5.665274658203125,-0.013409015722572803,0.19890165328979492,0.6244673132896423
1775710454555288800,5.675288818359375,0.07882530987262726,0.19237476587295532,0.5678032636642456
1775710454565302500,5.685302490234375,0.09457950294017792,0.19298329949378967,0.46297216415405273
1775710454575317500,5.6953173828125,0.05589335784316063,0.2467344105243683,0.29692620038986206
1775710454585331700,5.705331787109375,-0.0013177321525290608,0.31106388568878174,0.10435783118009567
1775710454595345700,5.715345703125,-0.05928782373666763,0.32917922735214233,-0.0663294866681099
1775710454605360600,5.725360595703125,-0.11650823801755905,0.3059082627296448,-0.18009068071842194
1775710454615374800,5.735374755859375,-0.16479480266571045,0.23893214762210846,-0.23323938250541687
1775710454625389800,5.745389892578125,-0.17716120183467865,0.21509553492069244,-0.23332753777503967
1775710454635403500,5.755403564453125,-0.15148459374904633,0.26118364930152893,-0.19527974724769592
1775710454645417700,5.765417724609375,-0.09688739478588104,0.24804656207561493,-0.1412266343832016
1775710454655432700,5.7754326171875,-0.08084451407194138,0.19913840293884277,-0.05632292851805687
1775710454665446700,5.78544677734375,-0.12184467911720276,0.12817475199699402,0.05817755311727524
1775710454675460900,5.7954609375,-0.17014271020889282,0.05047036334872246,0.1693810373544693
1775710454685475600,5.8054755859375,-0.19425202906131744,0.053703974932432175,0.2614489197731018
1775710454695489500,5.815489501953125,-0.17836441099643707,0.09207533299922943,0.31456512212753296
1775710454705503700,5.825503662109375,-0.14191213250160217,0.12845250964164734,0.2729385793209076
1775710454715518700,5.835518798828125,-0.13955096900463104,0.15755660831928253,0.14571432769298553
1775710454725532700,5.84553271484375,-0.16780498623847961,0.15835422277450562,-0.00023568976030219346
1775710454735548000,5.8555478515625,-0.19768990576267242,0.06166736036539078,-0.1444338709115982
1775710454745561600,5.8655615234375,-0.22675831615924835,-0.04898964613676071,-0.2891308665275574
1775710454755575600,5.875575439453125,-0.23054052889347076,-0.10199214518070221,-0.39369669556617737
1775710454765590800,5.8855908203125,-0.19084079563617706,-0.11466319859027863,-0.4554508626461029
1775710454775604700,5.895604736328125,-0.14787787199020386,-0.09836012870073318,-0.47932425141334534
1775710454785618700,5.90561865234375,-0.12041456252336502,-0.10974620282649994,-0.45704612135887146
1775710454795634000,5.915634033203125,-0.11211641877889633,-0.14758040010929108,-0.4231816232204437
1775710454805647600,5.925647705078125,-0.11148631572723389,-0.13334207236766815,-0.3600356876850128
1775710454815662600,5.93566259765625,-0.09502105414867401,-0.1076742634177208,-0.2997342646121979
1775710454825676800,5.9456767578125,-0.05294470861554146,-0.11928032338619232,-0.2642345726490021
1775710454835690800,5.955690673828125,-0.0005803027888759971,-0.1847115308046341,-0.23439599573612213
1775710454845705700,5.965705810546875,0.05721215531229973,-0.25114941596984863,-0.22573566436767578
1775710454855719700,5.9757197265625,0.11425546556711197,-0.2909010648727417,-0.24744467437267303
1775710454865733600,5.985733642578125,0.16085653007030487,-0.29873448610305786,-0.2950867712497711
1775710454875748600,5.99574853515625,0.18534988164901733,-0.24032925069332123,-0.3539319634437561
1775710454885762800,6.0057626953125,0.16386882960796356,-0.16197878122329712,-0.38288718461990356
1775710454895776800,6.01577685546875,0.11015260219573975,-0.1250162422657013,-0.39103299379348755
1775710454905791700,6.025791748046875,0.05169515311717987,-0.1121252030134201,-0.40707162022590637
1775710454915805700,6.0358056640625,0.03105565346777439,-0.11312362551689148,-0.43143048882484436
1775710454925820700,6.045820556640625,0.04892439767718315,-0.06995031982660294,-0.44337156414985657
1775710454935834600,6.055834716796875,0.08021920174360275,0.0803435742855072,-0.4211893081665039
1775710454945848600,6.0658486328125,0.12790150940418243,0.1886167824268341,-0.34577232599258423
1775710454955863800,6.07586376953125,0.16921591758728027,0.15443457663059235,-0.25211799144744873
1775710454965877800,6.085877685546875,0.1545669436454773,0.04153066501021385,-0.1707642823457718
1775710454975891700,6.0958916015625,0.102754607796669,-0.11276835948228836,-0.09038422256708145
1775710454985906700,6.10590673828125,0.029571739956736565,-0.23181672394275665,-0.055758338421583176
1775710454995920600,6.115920654296875,-0.04416746273636818,-0.2797730565071106,-0.05333086475729942
1775710455005934600,6.1259345703125,-0.09760698676109314,-0.331670343875885,-0.09979024529457092
1775710455015949800,6.13594970703125,-0.14374065399169922,-0.3640461266040802,-0.16621267795562744
1775710455025963800,6.1459638671875,-0.17754921317100525,-0.4089376926422119,-0.23304817080497742
1775710455035977700,6.155977783203125,-0.1907033771276474,-0.4538519084453583,-0.3061058521270752
1775710455045992700,6.16599267578125,-0.18319033086299896,-0.42879822850227356,-0.37383005023002625
1775710455056006700,6.176006591796875,-0.1307191252708435,-0.374558687210083,-0.4267190992832184
1775710455066021600,6.186021728515625,-0.031071899458765984,-0.29810279607772827,-0.45884692668914795
1775710455076035800,6.196035888671875,0.09544476121664047,-0.2344287484884262,-0.47202637791633606
1775710455086049800,6.2060498046875,0.18323346972465515,-0.1773686558008194,-0.4445367157459259
1775710455096064800,6.216064697265625,0.19754156470298767,-0.17265646159648895,-0.3880856931209564
1775710455106078700,6.22607861328125,0.1539434939622879,-0.22687868773937225,-0.34199702739715576
1775710455116092700,6.2360927734375,0.09905574470758438,-0.2591269016265869,-0.29364946484565735
1775710455126107600,6.246107666015625,0.05005970597267151,-0.22424136102199554,-0.21730782091617584
1775710455136121900,6.256121826171875,0.011200989596545696,-0.17219653725624084,-0.05782761424779892
1775710455146135800,6.2661357421875,-0.005539374891668558,-0.23296427726745605,0.1026424914598465
1775710455156150800,6.27615087890625,0.011629225686192513,-0.342801034450531,0.2656484544277191
1775710455166164700,6.286164794921875,0.12279116362333298,-0.5190956592559814,0.3915592432022095
1775710455176178700,6.2961787109375,0.26857075095176697,-0.6783515810966492,0.396304726600647
1775710455186193700,6.306193603515625,0.4039245545864105,-0.7224245071411133,0.3192767798900604
1775710455196207900,6.316207763671875,0.49193379282951355,-0.700920045375824,0.1509394496679306
1775710455206222800,6.326222900390625,0.4996974468231201,-0.50920170545578,-0.05474447086453438
1775710455216236800,6.33623681640625,0.4779175817966461,-0.26643675565719604,-0.27137291431427
1775710455226251000,6.3462509765625,0.3980379104614258,-0.049133725464344025,-0.4833248555660248
1775710455236266000,6.356265869140625,0.29029467701911926,0.07207845151424408,-0.5988218784332275
1775710455246279700,6.36627978515625,0.239262655377388,-0.03623736649751663,-0.6641929149627686
1775710455256294000,6.3762939453125,0.2778385281562805,-0.23119141161441803,-0.6882375478744507
1775710455266308900,6.386308837890625,0.34493288397789,-0.3460375666618347,-0.6429102420806885
1775710455276322800,6.39632275390625,0.352554589509964,-0.40333813428878784,-0.5787749290466309
1775710455286337000,6.4063369140625,0.30413034558296204,-0.3806706368923187,-0.4870399534702301
1775710455296352000,6.41635205078125,0.2130078822374344,-0.3416537344455719,-0.4259164333343506
1775710455306365700,6.42636572265625,0.10656186193227768,-0.27856796979904175,-0.3910852074623108
1775710455316380000,6.4363798828125,0.056962884962558746,-0.31508150696754456,-0.3958381414413452
1775710455326395000,6.446394775390625,0.01697099395096302,-0.3918852210044861,-0.44525229930877686
1775710455336408800,6.456408935546875,0.004852013196796179,-0.41010016202926636,-0.4509141743183136
1775710455346422800,6.4664228515625,0.025541312992572784,-0.3347865045070648,-0.4069563150405884
1775710455356438000,6.47643798828125,0.060082245618104935,-0.1785913109779358,-0.3352757394313812
1775710455366451700,6.48645166015625,0.0951014831662178,-0.025481924414634705,-0.2227047085762024
1775710455376466700,6.496466796875,0.1319982409477234,0.0357486754655838,-0.07443242520093918
1775710455386481000,6.50648095703125,0.1765846163034439,0.005679723806679249,0.09820566326379776
1775710455396494800,6.516494873046875,0.23299837112426758,-0.08671358972787857,0.2660202383995056
1775710455406509800,6.526509765625,0.3002397119998932,-0.2663712203502655,0.37276479601860046
1775710455416524000,6.53652392578125,0.36411458253860474,-0.4451015591621399,0.41518867015838623
1775710455426537700,6.546537841796875,0.3727418780326843,-0.5066434741020203,0.38840073347091675
1775710455436552700,6.556552734375,0.30578601360321045,-0.38841643929481506,0.3280114233493805
1775710455446567000,6.56656689453125,0.2381848692893982,-0.18406197428703308,0.2772478461265564
1775710455456580900,6.576580810546875,0.180648073554039,0.041912827640771866,0.2327248603105545
1775710455466595800,6.586595947265625,0.15654246509075165,0.16087543964385986,0.19345761835575104
1775710455476609800,6.59660986328125,0.1566162407398224,0.1654137223958969,0.14289243519306183
1775710455486623700,6.606623779296875,0.12389611452817917,0.17067666351795197,0.03195074200630188
1775710455496638700,6.616638671875,0.10712511837482452,0.157073512673378,-0.11272148787975311
1775710455506653000,6.62665283203125,0.12529294192790985,0.12155066430568695,-0.2504394054412842
1775710455516667000,6.6366669921875,0.13555969297885895,0.13250237703323364,-0.3346349895000458
1775710455526681900,6.646681884765625,0.15126702189445496,0.10967003554105759,-0.3338994085788727
1775710455536695800,6.65669580078125,0.16582651436328888,0.06565810739994049,-0.2857811450958252
1775710455546709800,6.666709716796875,0.14928855001926422,0.03747307136654854,-0.19436734914779663
1775710455556724700,6.676724853515625,0.13330665230751038,0.0017739315517246723,-0.11284079402685165
1775710455566739000,6.686739013671875,0.1133531928062439,-0.044973865151405334,-0.0856027826666832
1775710455576753000,6.6967529296875,0.08867953717708588,-0.11845394223928452,-0.09200236201286316
1775710455586768000,6.706767822265625,0.08642303943634033,-0.17878040671348572,-0.10098094493150711
1775710455596781800,6.71678173828125,0.11911121010780334,-0.19373777508735657,-0.10015642642974854
1775710455606796800,6.726796875,0.17739954590797424,-0.13877199590206146,-0.08744888752698898
1775710455616810800,6.736810791015625,0.2406299114227295,-0.04999366030097008,-0.018338793888688087
1775710455626825000,6.746824951171875,0.2652290165424347,-0.03771914914250374,0.09346869587898254
1775710455636840000,6.75683984375,0.2384069710969925,-0.15015381574630737,0.14716334640979767
1775710455646854000,6.76685400390625,0.19792400300502777,-0.31653666496276855,0.12921950221061707
1775710455656867800,6.776867919921875,0.16514235734939575,-0.41115984320640564,0.08608348667621613
1775710455666882800,6.7868828125,0.18406784534454346,-0.46087974309921265,0.07327527552843094
1775710455676896800,6.796896728515625,0.19346453249454498,-0.44888752698898315,0.08914931863546371
1775710455686911000,6.806910888671875,0.17521922290325165,-0.3566547930240631,0.12612757086753845
1775710455696926000,6.816926025390625,0.13435301184654236,-0.22711384296417236,0.1635628342628479
1775710455706940000,6.82693994140625,0.08303629606962204,-0.1121065616607666,0.17751353979110718
1775710455716953900,6.836953857421875,0.03927869722247124,-0.03255235031247139,0.16056197881698608
1775710455726968800,6.84696875,0.01847647875547409,-0.006641391199082136,0.10110317915678024
1775710455736982800,6.856982666015625,0.022551381960511208,-0.07252879440784454,0.014654310420155525
1775710455746997000,6.8669970703125,0.011227354407310486,-0.16240781545639038,-0.085495725274086
1775710455757012000,6.877011962890625,-0.0323166623711586,-0.1958419382572174,-0.17380428314208984
1775710455767025700,6.887025634765625,-0.08933467417955399,-0.13321052491664886,-0.23604369163513184
1775710455777040000,6.897039794921875,-0.15858964622020721,0.00024341292737517506,-0.27276894450187683
1775710455787054800,6.907054931640625,-0.19136862456798553,0.19565019011497498,-0.22784461081027985
1775710455797068800,6.91706884765625,-0.18863382935523987,0.41114094853401184,-0.06052513048052788
1775710455807083000,6.9270830078125,-0.17141808569431305,0.5537505745887756,0.19245919585227966
1775710455817098000,6.937097900390625,-0.15827272832393646,0.5073297619819641,0.5181310176849365
1775710455827111700,6.947111572265625,-0.1792224794626236,0.2738017141819,0.839828372001648
1775710455837126000,6.9571259765625,-0.21967723965644836,-0.1323910653591156,1.058227300643921
1775710455847140900,6.967140869140625,-0.2233947366476059,-0.656987726688385,1.1169524192810059
1775710455857154800,6.97715478515625,-0.18634724617004395,-1.0666905641555786,0.9554990530014038
1775710455867169000,6.9871689453125,-0.12162603437900543,-1.206690788269043,0.6597520709037781
1775710455877184000,6.99718408203125,-0.07373041659593582,-1.0396491289138794,0.36966192722320557
1775710455887197700,7.00719775390625,-0.04892200231552124,-0.4993389844894409,0.22969605028629303
1775710455897212000,7.0172119140625,-0.02526807226240635,0.1846739798784256,0.3321326673030853
1775710455907227000,7.027226806640625,-0.03871197625994682,0.6474325656890869,0.6411331295967102
1775710455917240800,7.03724072265625,-0.0937318205833435,0.6858507990837097,1.0384740829467773
1775710455927255000,7.047255126953125,-0.1664896458387375,0.30628642439842224,1.2918096780776978
1775710455937270000,7.05727001953125,-0.22645124793052673,-0.2843156158924103,1.3016239404678345
1775710455947283700,7.06728369140625,-0.30035850405693054,-0.7320545315742493,1.0286332368850708
1775710455957298000,7.0772978515625,-0.3215407431125641,-0.7501680254936218,0.5845620036125183
1775710455967313000,7.08731298828125,-0.2992120087146759,-0.3939712643623352,0.09306975454092026
1775710455977326800,7.097326904296875,-0.2918457090854645,0.14587731659412384,-0.3260156512260437
1775710455987340800,7.1073408203125,-0.285572350025177,0.6932637095451355,-0.5207289457321167
1775710455997356000,7.11735595703125,-0.2624422609806061,0.9494784474372864,-0.48528173565864563
1775710456007369700,7.12736962890625,-0.20879556238651276,0.8602918386459351,-0.28214433789253235
1775710456017384000,7.137384033203125,-0.17513319849967957,0.5211904644966125,-0.005566539242863655
1775710456027399000,7.14739892578125,-0.1690252423286438,0.042275551706552505,0.2222226858139038
1775710456037412900,7.157412841796875,-0.15837472677230835,-0.33366531133651733,0.36896365880966187
1775710456047426800,7.1674267578125,-0.14076536893844604,-0.49762043356895447,0.32237139344215393
1775710456057441800,7.17744189453125,-0.10710221529006958,-0.43071410059928894,0.08892454952001572
1775710456067455700,7.187455810546875,-0.11329113692045212,-0.11008575558662415,-0.20403115451335907
1775710456077470000,7.197469970703125,-0.11851679533720016,0.29739201068878174,-0.42340293526649475
1775710456087485000,7.20748486328125,-0.09767542779445648,0.5673425197601318,-0.5065017938613892
1775710456097499000,7.217498779296875,-0.060690246522426605,0.587121307849884,-0.43261533975601196
1775710456107512800,7.227512939453125,-0.03220773860812187,0.428315669298172,-0.2663739025592804
1775710456117527800,7.23752783203125,-0.02839542180299759,0.1852489560842514,-0.1037953719496727
1775710456127541800,7.247541748046875,-0.031258586794137955,-0.07804819941520691,0.0024684839881956577
1775710456137555700,7.2575556640625,-0.030904386192560196,-0.2271687090396881,0.02040913514792919
1775710456147571000,7.267571044921875,-0.03328844904899597,-0.25707173347473145,-0.03979801386594772
1775710456157585000,7.2775849609375,-0.04410061612725258,-0.2621740996837616,-0.14126046001911163
1775710456167598800,7.287598876953125,-0.07780557870864868,-0.20732203125953674,-0.2549300193786621
1775710456177613800,7.29761376953125,-0.1244463175535202,-0.10109759122133255,-0.32750436663627625
1775710456187627800,7.307627685546875,-0.16858848929405212,-0.09259677678346634,-0.3577112555503845
1775710456197641500,7.317641357421875,-0.19131191074848175,-0.18136046826839447,-0.33205729722976685
1775710456207656400,7.327656494140625,-0.16007861495018005,-0.3358600437641144,-0.3084896504878998
1775710456217670400,7.33767041015625,-0.0970144271850586,-0.45762109756469727,-0.34114640951156616
1775710456227684600,7.3476845703125,-0.029200496152043343,-0.49142247438430786,-0.3979322016239166
1775710456237699600,7.357699462890625,0.045576538890600204,-0.4766107499599457,-0.45870766043663025
1775710456247713500,7.367713623046875,0.11042957007884979,-0.44497132301330566,-0.4779159724712372
1775710456257727500,7.3777275390625,0.11918897181749344,-0.43884608149528503,-0.4621415436267853
1775710456267742500,7.387742431640625,0.06377311795949936,-0.43143555521965027,-0.4542183578014374
1775710456277756400,7.39775634765625,-0.016578443348407745,-0.3547716736793518,-0.4525807797908783
1775710456287770600,7.4077705078125,-0.06791327148675919,-0.24746333062648773,-0.42108356952667236
1775710456297785600,7.41778564453125,-0.07555148005485535,-0.1846500039100647,-0.3202033042907715
1775710456307799600,7.427799560546875,-0.0547010637819767,-0.188100665807724,-0.15942054986953735
1775710456317813500,7.4378134765625,-0.004059456288814545,-0.285829097032547,0.02755998820066452
1775710456327828500,7.447828369140625,0.04861041158437729,-0.39160212874412537,0.18961814045906067
1775710456337842400,7.457842529296875,0.08795222640037537,-0.48956358432769775,0.2665792405605316
1775710456347856600,7.467856689453125,0.1153271272778511,-0.510546863079071,0.24720525741577148
1775710456357871600,7.47787158203125,0.09622266888618469,-0.41560280323028564,0.15603007376194
1775710456367885600,7.487885498046875,0.08183228224515915,-0.3133467435836792,0.07271281629800797
1775710456377899500,7.4978994140625,0.11682328581809998,-0.23353073000907898,0.07099641114473343
1775710456387914500,7.50791455078125,0.17891594767570496,-0.17137335240840912,0.14454838633537292
1775710456397928400,7.517928466796875,0.24865083396434784,-0.12719124555587769,0.2048298418521881
1775710456407942700,7.527942626953125,0.2856743633747101,-0.11220217496156693,0.2155727744102478
1775710456417957600,7.53795751953125,0.3277443051338196,-0.13137081265449524,0.22423763573169708
1775710456427971600,7.5479716796875,0.3472312092781067,-0.15114690363407135,0.24583905935287476
1775710456437985500,7.557985595703125,0.3228539526462555,-0.18976114690303802,0.2493525743484497
1775710456448000500,7.56800048828125,0.24668088555335999,-0.21107734739780426,0.1540241837501526
1775710456458014500,7.578014404296875,0.10328910499811172,-0.13693015277385712,-0.03465837985277176
1775710456468028700,7.588028564453125,-0.02624225616455078,-0.010073406621813774,-0.21877574920654297
1775710456478043600,7.598043701171875,-0.06366340070962906,0.06703229993581772,-0.29589396715164185
1775710456488057300,7.608057373046875,-0.02905748412013054,0.08762305974960327,-0.22201122343540192
1775710456498071600,7.618071533203125,0.02280358225107193,0.03979002311825752,-0.057251837104558945
1775710456508086500,7.62808642578125,0.06608740985393524,-0.006297843065112829,0.134247824549675
1775710456518100500,7.6381005859375,0.09255363792181015,-0.009373261593282223,0.2921977639198303
1775710456528114400,7.648114501953125,0.05892670154571533,0.014550979249179363,0.38382941484451294
1775710456538129700,7.658129638671875,-0.027710989117622375,0.014518755488097668,0.38498443365097046
1775710456548143400,7.668143310546875,-0.13178598880767822,-0.004733502399176359,0.300321489572525
1775710456558157600,7.678157470703125,-0.24320732057094574,0.005107942968606949,0.16364511847496033
1775710456568171500,7.688171630859375,-0.2830229103565216,-0.03253290802240372,0.04607641324400902
1775710456578186500,7.6981865234375,-0.25579023361206055,-0.010706174187362194,0.001728391507640481
1775710456588200400,7.708200439453125,-0.19726593792438507,0.10070663690567017,0.0335283987224102
1775710456598214400,7.71821435546875,-0.10814910382032394,0.2301141619682312,0.11315318942070007
1775710456608229400,7.7282294921875,-0.051499143242836,0.2946428060531616,0.2143876552581787
1775710456618243300,7.738243408203125,-0.09111206978559494,0.22060054540634155,0.3045375347137451
1775710456628257500,7.748257568359375,-0.19033318758010864,0.00947898905724287,0.3781329095363617
1775710456638272500,7.7582724609375,-0.27586275339126587,-0.20552971959114075,0.4555206596851349
1775710456648286500,7.768286376953125,-0.33487358689308167,-0.2810990512371063,0.48213016986846924
1775710456658300400,7.778300537109375,-0.36619770526885986,-0.23971699178218842,0.47449299693107605
1775710456668315400,7.7883154296875,-0.35345181822776794,-0.12904027104377747,0.4631841778755188
1775710456678329300,7.798329345703125,-0.30939406156539917,0.04096048325300217,0.4266674220561981
1775710456688343600,7.808343505859375,-0.25426504015922546,0.20296935737133026,0.3708624839782715
1775710456698358500,7.818358642578125,-0.19274121522903442,0.3044581711292267,0.32030317187309265
1775710456708372500,7.82837255859375,-0.14367753267288208,0.36055925488471985,0.3032698631286621
1775710456718386400,7.838386474609375,-0.11061812192201614,0.30021893978118896,0.361031174659729
1775710456728401400,7.8484013671875,-0.11204797774553299,0.17727385461330414,0.35646143555641174
1775710456738415400,7.858415283203125,-0.11845500767230988,0.1684337556362152,0.26056501269340515
1775710456748429600,7.8684296875,-0.11376171559095383,0.2634337544441223,0.15452539920806885
1775710456758443500,7.878443603515625,-0.08797912299633026,0.3012823462486267,0.08967715501785278
1775710456768458500,7.88845849609375,-0.060567207634449005,0.28167402744293213,0.07461325079202652
1775710456778472400,7.898472412109375,-0.018626946955919266,0.3099714517593384,0.07290936261415482
1775710456788486400,7.908486328125,0.03997724503278732,0.4497426450252533,0.05473887920379639
1775710456798501400,7.91850146484375,0.08650719374418259,0.5927640199661255,0.0422838069498539
1775710456808515600,7.928515625,0.10275274515151978,0.6217349171638489,0.032398685812950134
1775710456818529500,7.938529541015625,0.09751830250024796,0.5252890586853027,-0.0015417039394378662
1775710456828544300,7.948544189453125,0.0690925195813179,0.37578320503234863,-0.049848783761262894
1775710456838558500,7.958558349609375,0.035303130745887756,0.2514668405056,-0.11325864493846893
1775710456848572400,7.968572509765625,-0.01636246219277382,0.1941756010055542,-0.16945160925388336
1775710456858587400,7.97858740234375,-0.08569466322660446,0.20100687444210052,-0.2713942229747772
1775710456868601600,7.9886015625,-0.13996562361717224,0.24812431633472443,-0.4200529456138611
1775710456878615300,7.998615234375,-0.189093217253685,0.28032514452934265,-0.5468207597732544
1775710456888630300,8.00863037109375,-0.2167016863822937,0.26614195108413696,-0.6706454753875732
1775710456898644500,8.01864453125,-0.2972431182861328,0.2878240644931793,-0.8219487071037292
1775710456908658400,8.028658447265625,-0.42155736684799194,0.2571588158607483,-0.9403917193412781
1775710456918672600,8.038672607421875,-0.5022953748703003,0.14824619889259338,-0.9355993866920471
1775710456928687600,8.0486875,-0.5074658989906311,0.08509918302297592,-0.8024716973304749
1775710456938701300,8.058701416015625,-0.4388439357280731,0.021854698657989502,-0.581372082233429
1775710456948715500,8.068715576171876,-0.3291270136833191,-0.07352295517921448,-0.3191082179546356
1775710456958730500,8.07873046875,-0.2553662657737732,-0.16071191430091858,-0.0578790120780468
1775710456968744400,8.088744384765626,-0.2267572432756424,-0.2519869804382324,0.1019255667924881
1775710456978758700,8.098758544921875,-0.249184250831604,-0.2578003704547882,0.1339961439371109
1775710456988773600,8.108773681640624,-0.2830258309841156,-0.15682077407836914,0.03964195027947426
1775710456998787300,8.118787353515625,-0.26488810777664185,0.012886770069599152,-0.11589091271162033
1775710457008801500,8.128801513671876,-0.21262171864509583,0.14166845381259918,-0.23075652122497559
1775710457018816500,8.13881640625,-0.12421302497386932,0.15706712007522583,-0.2482375055551529
1775710457028830500,8.14883056640625,-0.04663541167974472,0.06721845269203186,-0.19663342833518982
1775710457038844700,8.1588447265625,-0.003251453395932913,-0.049788329750299454,-0.09258745610713959
1775710457048859600,8.168859619140624,0.03212517872452736,-0.07326249778270721,0.006620085798203945
1775710457058873300,8.178873291015625,0.0942455381155014,-0.0003430151555221528,0.05956319347023964
1775710457068887600,8.188887451171874,0.15698935091495514,0.06221463903784752,0.04284600168466568
1775710457078901500,8.198901611328125,0.21690595149993896,0.08398810774087906,-0.08470343798398972
1775710457088916500,8.20891650390625,0.2392013967037201,0.17950505018234253,-0.3074563443660736
1775710457098930700,8.2189306640625,0.26100867986679077,0.26384496688842773,-0.5408622026443481
1775710457108944400,8.2289443359375,0.2870272397994995,0.3658224642276764,-0.743668258190155
1775710457118959400,8.23895947265625,0.24932913482189178,0.36402401328086853,-0.7912214398384094
1775710457128973600,8.2489736328125,0.15210963785648346,0.2601431608200073,-0.7097987532615662
1775710457138987500,8.258987548828125,0.06841021776199341,0.14137576520442963,-0.5867188572883606
1775710457149002500,8.26900244140625,0.04928818717598915,0.05180700495839119,-0.4489615559577942
1775710457159016700,8.2790166015625,0.0820663720369339,-0.005351622123271227,-0.3283562958240509
1775710457169030400,8.289030517578125,0.1550162136554718,-0.06855056434869766,-0.2855515778064728
1775710457179044600,8.299044677734376,0.2362772524356842,-0.03158988431096077,-0.29073435068130493
1775710457189059600,8.3090595703125,0.35000354051589966,0.09071631729602814,-0.3929656744003296
1775710457199073500,8.319073486328126,0.5147301554679871,0.2593223750591278,-0.6086025834083557
1775710457209087500,8.32908740234375,0.6531064510345459,0.3571360111236572,-0.7505810260772705
1775710457219102700,8.339102783203124,0.7583641409873962,0.33113932609558105,-0.7422158122062683
1775710457229116700,8.34911669921875,0.7857906818389893,0.27139928936958313,-0.6364374160766602
1775710457239130600,8.359130615234376,0.7152227759361267,0.17507541179656982,-0.4789458215236664
1775710457249145600,8.3691455078125,0.5824189186096191,0.08795382082462311,-0.2947900891304016
1775710457259159600,8.37915966796875,0.40474241971969604,0.0546930730342865,-0.0847495049238205
1775710457269173500,8.389173583984375,0.23053839802742004,0.04018523544073105,0.1252351552248001
1775710457279187700,8.399187744140624,0.041796714067459106,0.06587382405996323,0.2762867212295532
1775710457289202700,8.40920263671875,-0.1489223688840866,0.1313130110502243,0.331223726272583
1775710457299216400,8.41921630859375,-0.27300357818603516,0.15092426538467407,0.32355037331581116
1775710457309230600,8.429230712890625,-0.34056663513183594,0.09420239925384521,0.29127126932144165
1775710457319245600,8.43924560546875,-0.36725708842277527,0.02268240973353386,0.21336181461811066
1775710457329259500,8.449259521484375,-0.3356749415397644,0.06338030099868774,0.04980697110295296
1775710457339273700,8.459273681640624,-0.26286837458610535,0.18149256706237793,-0.10441508889198303
1775710457349288400,8.469288330078125,-0.20298799872398376,0.23682239651679993,-0.13717463612556458
1775710457359302400,8.479302490234375,-0.18500234186649323,0.22825899720191956,-0.0570068284869194
1775710457369316600,8.489316650390625,-0.21533574163913727,0.1785428524017334,0.07196953147649765
1775710457379330600,8.49933056640625,-0.2730752229690552,0.13955363631248474,0.18203477561473846
1775710457389345500,8.509345458984376,-0.349039763212204,0.13525129854679108,0.21026748418807983
1775710457399359500,8.519359375,-0.4215962290763855,0.1486256867647171,0.2145080417394638
1775710457409373400,8.52937353515625,-0.4629751145839691,0.13545475900173187,0.2258661538362503
1775710457419388400,8.539388427734375,-0.4513522684574127,0.0826093927025795,0.2339685559272766
1775710457429402600,8.549402587890626,-0.39231690764427185,0.063041552901268,0.2301141619682312
1775710457439416600,8.55941650390625,-0.30962949991226196,0.08836501836776733,0.25399819016456604
1775710457449431600,8.569431640625,-0.23392194509506226,0.10765641927719116,0.3352307379245758
1775710457459445500,8.579445556640625,-0.16254577040672302,0.07563777267932892,0.44341471791267395
1775710457469459500,8.58945947265625,-0.1381661295890808,0.039743684232234955,0.5132097601890564
1775710457479473700,8.5994736328125,-0.16100406646728516,0.003984089009463787,0.48818886280059814
1775710457489488600,8.609488525390624,-0.21297937631607056,-0.05459373816847801,0.4469876289367676
1775710457499502600,8.619502685546875,-0.24640977382659912,-0.11082318425178528,0.47364985942840576
1775710457509516500,8.6295166015625,-0.22765633463859558,-0.1885182410478592,0.5436294674873352
1775710457519531500,8.639531494140625,-0.16273166239261627,-0.31184178590774536,0.6187511086463928
1775710457529545500,8.64954541015625,-0.10194713622331619,-0.36447834968566895,0.6502733826637268
1775710457539559700,8.6595595703125,-0.031002923846244812,-0.30031853914260864,0.6017881035804749
1775710457549574700,8.66957470703125,0.06798357516527176,-0.184310182929039,0.5169283747673035
1775710457559588600,8.679588623046875,0.1931297779083252,-0.016772588714957237,0.4446304440498352
1775710457569602600,8.6896025390625,0.31803974509239197,0.12052854150533676,0.4073706865310669
1775710457579616500,8.699616455078125,0.4174864590167999,0.2073473334312439,0.41071030497550964
1775710457589631500,8.709631591796875,0.43567582964897156,0.2138449102640152,0.40314507484436035
1775710457599645700,8.719645751953125,0.3800373375415802,0.14015977084636688,0.3437959849834442
1775710457609659600,8.72965966796875,0.30604806542396545,0.0019984361715614796,0.26869723200798035
1775710457619674600,8.739674560546876,0.21425344049930573,-0.09203165769577026,0.2056194692850113
1775710457629688600,8.7496884765625,0.14996260404586792,-0.11933571845293045,0.1745355874300003
1775710457639702500,8.75970263671875,0.13081979751586914,-0.05059473216533661,0.16271966695785522
1775710457649716700,8.769716796875,0.15289446711540222,0.12939101457595825,0.17977482080459595
1775710457659731700,8.779731689453126,0.19528347253799438,0.3271389901638031,0.24041233956813812
1775710457669745700,8.78974560546875,0.26717764139175415,0.43376341462135315,0.3269123435020447
1775710457679759600,8.799759521484376,0.2790105938911438,0.3896063566207886,0.3735389709472656
1775710457689774600,8.809774658203125,0.21278762817382812,0.33998578786849976,0.35918986797332764
1775710457699788500,8.81978857421875,0.143569678068161,0.3482980728149414,0.27742496132850647
1775710457709802800,8.829802734375,0.0860786885023117,0.34793853759765625,0.15062493085861206
1775710457719816700,8.839816650390626,0.04875582084059715,0.34063881635665894,0.04243107885122299
1775710457729831400,8.84983154296875,0.0411602184176445,0.33338621258735657,-0.040099482983350754
1775710457739845600,8.859845703125,0.03267991542816162,0.3120891749858856,-0.11955276131629944
1775710457749859600,8.869859619140625,0.01104386243969202,0.30492421984672546,-0.15548013150691986
1775710457759874600,8.87987451171875,-0.01050324086099863,0.3053995966911316,-0.16621747612953186
1775710457769888500,8.889888427734375,-0.004069310147315264,0.41764649748802185,-0.17220371961593628
1775710457779902500,8.89990234375,-0.015248727984726429,0.6465414762496948,-0.16366083920001984
1775710457789916400,8.90991650390625,-0.04228993132710457,0.8185108304023743,-0.1423954963684082
1775710457799931600,8.919931640625,-0.0653260126709938,0.7993094325065613,-0.07285050302743912
1775710457809945600,8.929945556640625,-0.11618839204311371,0.5561615228652954,-0.009499229490756989
1775710457819959600,8.93995947265625,-0.18152105808258057,0.2841646075248718,0.035949479788541794
1775710457829974500,8.949974609375,-0.21375063061714172,0.11576095223426819,0.07251334935426712
1775710457839988500,8.959988525390624,-0.19188901782035828,0.11502112448215485,0.07697201520204544
1775710457850002400,8.97000244140625,-0.10509126633405685,0.1909252107143402,0.011524030938744545
1775710457860016600,8.9800166015625,0.0023696806747466326,0.3595523238182068,-0.12412993609905243
1775710457870031600,8.990031494140625,0.14082182943820953,0.4982665181159973,-0.24358735978603363
1775710457880045600,9.000045654296875,0.28684988617897034,0.616260290145874,-0.28276485204696655
1775710457890059500,9.0100595703125,0.4001447558403015,0.6683125495910645,-0.26595258712768555
1775710457900074500,9.020074462890625,0.4217911958694458,0.5867385864257812,-0.2273002713918686
1775710457910088400,9.03008837890625,0.346647709608078,0.3144990801811218,-0.18094368278980255
1775710457920102700,9.0401025390625,0.16984735429286957,0.11479848623275757,-0.23349425196647644
1775710457930116600,9.05011669921875,-0.02546035312116146,0.10792406648397446,-0.37408944964408875
1775710457940131600,9.060131591796875,-0.15645964443683624,0.18156926333904266,-0.5019773840904236
1775710457950145500,9.0701455078125,-0.18921147286891937,0.2376312017440796,-0.5312836170196533
1775710457960159500,9.080159423828125,-0.12425031512975693,0.2269441932439804,-0.4552077353000641
1775710457970174500,9.090174560546876,-0.0278574638068676,0.10821674764156342,-0.3637310862541199
1775710457980188700,9.100188720703125,0.05804599076509476,0.019584087654948235,-0.3144117295742035
1775710457990202600,9.11020263671875,0.15667030215263367,0.11888031661510468,-0.3062129318714142
1775710458000216600,9.120216552734375,0.2536253333091736,0.35643908381462097,-0.3359207510948181
1775710458010231600,9.1302314453125,0.326326459646225,0.5353878140449524,-0.3396523594856262
1775710458020245500,9.14024560546875,0.3370789587497711,0.5178481936454773,-0.35973259806632996
1775710458030259700,9.150259765625,0.25733140110969543,0.4388846755027771,-0.42059701681137085
1775710458040274700,9.160274658203125,0.1693599969148636,0.35218334197998047,-0.46791791915893555
1775710458050288600,9.17028857421875,0.12317519634962082,0.346947580575943,-0.49410906434059143
1775710458060302600,9.180302490234375,0.09540081769227982,0.4524971544742584,-0.4979535937309265
1775710458070316500,9.190316650390624,0.08699801564216614,0.5908305644989014,-0.5196767449378967
1775710458080331500,9.20033154296875,0.09591614454984665,0.7374990582466125,-0.5891194343566895
1775710458090345700,9.210345703125,0.13811233639717102,0.8646098971366882,-0.6542518734931946
1775710458100359700,9.220359619140625,0.2255135476589203,0.9471856951713562,-0.6738905310630798
1775710458110373400,9.230373291015624,0.3537258505821228,0.9116852283477783,-0.5866584181785583
1775710458120388600,9.240388671875,0.48703891038894653,0.7214260697364807,-0.374519020318985
1775710458130402600,9.250402587890624,0.5704823732376099,0.37220045924186707,-0.12702132761478424
1775710458140416500,9.26041650390625,0.5651470422744751,-0.07003501057624817,0.07006483525037766
1775710458150431700,9.270431640625,0.47482749819755554,-0.43391016125679016,0.13726411759853363
1775710458160445700,9.28044580078125,0.3228997588157654,-0.49810487031936646,0.10393545031547546
1775710458170459400,9.29045947265625,0.18775126338005066,-0.38168850541114807,0.022049108520150185
1775710458180473600,9.3004736328125,0.1212175041437149,-0.23098288476467133,-0.08697377890348434
1775710458190488600,9.310488525390625,0.09959530085325241,-0.07617439329624176,-0.2242690473794937
1775710458200502300,9.320502197265625,0.03057415410876274,0.22744807600975037,-0.3489436209201813
1775710458210516200,9.33051611328125,0.013379720970988274,0.38855332136154175,-0.40030771493911743
1775710458220531200,9.34053125,0.014851117506623268,0.3748417794704437,-0.334542840719223
1775710458230545400,9.35054541015625,0.03015603870153427,0.15360739827156067,-0.2138212025165558
1775710458240559400,9.360559326171876,0.07543297111988068,-0.17976497113704681,-0.1249999925494194
1775710458250573300,9.3705732421875,0.12935718894004822,-0.4374234080314636,-0.07085233181715012
1775710458260588300,9.38058837890625,0.15109391510486603,-0.5437138676643372,-0.06624693423509598
1775710458270602200,9.390602294921875,0.15289127826690674,-0.5028490424156189,-0.06323409825563431
1775710458280616200,9.4006162109375,0.15377651154994965,-0.3346933126449585,-0.03978016972541809
1775710458290630400,9.41063037109375,0.1566189080476761,-0.14172197878360748,-0.026560237631201744
1775710458300645400,9.420645263671876,0.15208807587623596,0.07464148104190826,-0.009374060668051243
1775710458310659300,9.430659423828125,0.14503522217273712,0.23767247796058655,0.017976338043808937
1775710458320673300,9.44067333984375,0.1406276822090149,0.310864120721817,0.0515739768743515
1775710458330688300,9.450688232421875,0.1795005202293396,0.26687297224998474,0.1673162877559662
1775710458340702200,9.4607021484375,0.243352472782135,0.025114940479397774,0.24123072624206543
1775710458350716400,9.47071630859375,0.2875572144985199,-0.23015864193439484,0.2713630497455597
1775710458360730400,9.48073046875,0.31424716114997864,-0.442699134349823,0.30058327317237854
1775710458370745300,9.490745361328125,0.2878778576850891,-0.5471653342247009,0.2928744852542877
1775710458380759300,9.50075927734375,0.2205134630203247,-0.5295419096946716,0.3223128020763397
1775710458390773200,9.510773193359375,0.1444738209247589,-0.5179568529129028,0.2886379361152649
1775710458400787500,9.520787353515624,0.03485971316695213,-0.42004549503326416,0.1600586473941803
1775710458410802400,9.530802490234375,-0.05782255157828331,-0.231191948056221,0.001829591696150601
1775710458420816400,9.54081640625,-0.08881136029958725,-0.007895473390817642,-0.12102042883634567
1775710458430830300,9.550830322265625,0.06289534270763397,0.012386894784867764,-0.1332363486289978
1775710458440845300,9.56084521484375,0.34615767002105713,-0.3593938648700714,-0.1542327105998993
1775710458450859300,9.570859375,0.600570797920227,-0.9660912156105042,-0.38647714257240295
1775710458460873500,9.58087353515625,0.7507797479629517,-1.4700052738189697,-0.7603489756584167
1775710458470887400,9.590887451171875,0.7400602102279663,-1.6175931692123413,-1.1390180587768555
1775710458480902400,9.60090234375,0.6811487078666687,-1.5183035135269165,-1.4007744789123535
1775710458490916400,9.610916259765625,0.5965736508369446,-1.3028950691223145,-1.5216010808944702
1775710458500930300,9.620930419921875,0.5164836049079895,-1.0018279552459717,-1.4403605461120605
1775710458510944300,9.6309443359375,0.4805927276611328,-0.8052805066108704,-1.2064911127090454
1775710458520959500,9.64095947265625,0.447818785905838,-0.7182907462120056,-0.9138455986976624
1775710458530973400,9.650973388671876,0.35724255442619324,-0.6092492341995239,-0.5683683753013611
1775710458540987100,9.660987060546875,0.1992340087890625,-0.4306725561618805,-0.3116396367549896
1775710458551001300,9.67100146484375,0.06168253719806671,-0.19481448829174042,-0.12189394980669022
1775710458561016300,9.681016357421875,0.022913571447134018,-0.0984749048948288,0.09677954018115997
1775710458571030300,9.6910302734375,0.057976216077804565,-0.18327048420906067,0.2694764733314514
1775710458581044500,9.70104443359375,0.10270587354898453,-0.19513247907161713,0.44168898463249207
1775710458591058200,9.71105810546875,0.1879424750804901,-0.2038431465625763,0.6579411029815674
1775710458601073200,9.7210732421875,0.2581913471221924,-0.20324712991714478,0.8151533603668213
1775710458611087400,9.73108740234375,0.32841116189956665,-0.1504502296447754,0.8823279142379761
1775710458621101300,9.741101318359375,0.3764681816101074,-0.12952177226543427,0.8415559530258179
1775710458631116300,9.7511162109375,0.38331595063209534,-0.12619762122631073,0.7872540950775146
1775710458641130200,9.761130126953125,0.3681676387786865,-0.2331533581018448,0.695462703704834
1775710458651144200,9.771144287109376,0.3405333459377289,-0.3724217712879181,0.509499728679657
1775710458661158400,9.781158447265625,0.33710452914237976,-0.4496278762817383,0.28699928522109985
1775710458671173400,9.79117333984375,0.31822219491004944,-0.37805861234664917,0.05952085182070732
1775710458681187300,9.801187255859375,0.28993329405784607,-0.21312159299850464,-0.14002448320388794
1775710458691201300,9.811201171875,0.2255401760339737,-0.030818365514278412,-0.28110650181770325
1775710458701215200,9.82121533203125,0.14956019818782806,0.15154904127120972,-0.31998997926712036
1775710458711230200,9.831230224609374,0.09585968405008316,0.19064079225063324,-0.29288753867149353
1775710458721244400,9.841244384765625,0.04008590057492256,0.1338653862476349,-0.2765490412712097
1775710458731258400,9.85125830078125,-0.007074687164276838,0.08410821855068207,-0.261507511138916
1775710458741272300,9.861272216796875,-0.04736059159040451,0.07059347629547119,-0.228934645652771
1775710458751287300,9.871287353515624,-0.06407325714826584,0.07520021498203278,-0.15557149052619934
1775710458761301200,9.88130126953125,-0.039438217878341675,0.04152320697903633,-0.06876548379659653
1775710458771315500,9.8913154296875,-0.025131985545158386,0.025538915768265724,-0.011936554685235023
1775710458781329400,9.901329345703125,-0.007504787761718035,0.07561752945184708,0.02852378599345684
1775710458791344400,9.911344482421875,0.015781359747052193,0.12239089608192444,0.04258048161864281
1775710458801358300,9.9213583984375,0.023668844252824783,0.16065359115600586,0.05403367429971695
1775710458811372300,9.931372314453125,0.02738581784069538,0.1780456304550171,0.060332849621772766
1775710458821387300,9.94138720703125,0.0408177375793457,0.14614681899547577,0.067003533244133
1775710458831401500,9.9514013671875,0.05107676610350609,0.10280600935220718,0.08344642072916031
1775710458841415400,9.96141552734375,0.05409066379070282,0.05957438051700592,0.07623405009508133
1775710458851429000,9.97142919921875,0.05311887711286545,0.021687984466552734,0.05001469701528549
1775710458861444400,9.9814443359375,0.033314015716314316,0.047580569982528687,0.02490641549229622
1775710458871458300,9.991458251953125,-0.017727598547935486,0.1506957709789276,0.0035183019936084747
1775710458881472300,10.00147216796875,-0.06818704307079315,0.2694740891456604,-0.027574103325605392
1775710458891486500,10.011486572265625,-0.09468922764062881,0.36386555433273315,-0.04946315661072731
1775710458901501400,10.02150146484375,-0.11577639728784561,0.4242388904094696,-0.05366962030529976
1775710458911515100,10.03151513671875,-0.13708780705928802,0.4014776647090912,-0.04868071898818016
1775710458921529300,10.041529296875,-0.15138259530067444,0.3032464385032654,-0.04734621196985245
1775710458931543300,10.051543212890625,-0.1828441172838211,0.21502947807312012,-0.044684115797281265
1775710458941558300,10.061558349609374,-0.21085017919540405,0.1718900054693222,-0.03261147439479828
1775710458951572500,10.071572509765625,-0.21528755128383636,0.20156027376651764,-0.021048294380307198
1775710458961586200,10.081586181640626,-0.18179109692573547,0.23639895021915436,-0.01637524552643299
1775710458971600400,10.091600341796875,-0.15136635303497314,0.23336800932884216,-0.062494270503520966
1775710458981615400,10.101615478515624,-0.11866140365600586,0.20638352632522583,-0.1230902373790741
1775710458991629300,10.11162939453125,-0.11084821820259094,0.21400682628154755,-0.11217820644378662
1775710459001643500,10.1216435546875,-0.1445300132036209,0.25583842396736145,-0.001912948559038341
1775710459011657200,10.1316572265625,-0.18552805483341217,0.27113136649131775,0.17236989736557007
1775710459021672200,10.141672119140624,-0.22488850355148315,0.30979859828948975,0.3639281392097473
1775710459031686400,10.151686279296875,-0.25121092796325684,0.3548305332660675,0.5160077214241028
1775710459041700400,10.161700439453124,-0.27201634645462036,0.3869282603263855,0.6091128587722778
1775710459051714300,10.17171435546875,-0.28494998812675476,0.4351040720939636,0.662888765335083
1775710459061729500,10.1817294921875,-0.2856128513813019,0.42520296573638916,0.6429646015167236
1775710459071743200,10.1917431640625,-0.2799954414367676,0.3712465167045593,0.5837108492851257
1775710459081757200,10.201757080078124,-0.2651307284832001,0.31281861662864685,0.5396720170974731
1775710459091771400,10.211771484375,-0.22630371153354645,0.21864072978496552,0.5026602149009705
1775710459101786400,10.221786376953125,-0.17934046685695648,0.1463838368654251,0.47129136323928833
1775710459111800300,10.23180029296875,-0.13473545014858246,0.05573650076985359,0.4359767735004425
1775710459121814300,10.241814208984374,-0.14112409949302673,0.002487126039341092,0.42616623640060425
1775710459131828200,10.251828125,-0.1817692667245865,-0.024772457778453827,0.410756915807724
1775710459141843200,10.26184326171875,-0.22521208226680756,-0.10938560962677002,0.37293681502342224
1775710459151857400,10.271857421875,-0.24614772200584412,-0.25219255685806274,0.31373369693756104
1775710459161871400,10.281871337890625,-0.2338321954011917,-0.42383089661598206,0.2458028495311737
1775710459171885300,10.29188525390625,-0.1982278674840927,-0.6038749814033508,0.1965058594942093
1775710459181900300,10.301900390625,-0.172074556350708,-0.6450176239013672,0.1974789798259735
1775710459191914200,10.311914306640626,-0.19498227536678314,-0.5711401700973511,0.25393107533454895
1775710459201928400,10.321928466796875,-0.2758089303970337,-0.4475213289260864,0.4098362624645233
1775710459211942400,10.3319423828125,-0.39247697591781616,-0.3652826249599457,0.7066341042518616
1775710459221957400,10.341957275390625,-0.46809902787208557,-0.4989544153213501,1.0408879518508911
1775710459231971600,10.3519716796875,-0.4727078974246979,-0.7950862050056458,1.2420506477355957
1775710459241985500,10.361985595703125,-0.4056902527809143,-1.0255098342895508,1.1946994066238403
1775710459251999500,10.37199951171875,-0.3050243556499481,-1.0698459148406982,0.9813199639320374
1775710459262014500,10.382014404296875,-0.21781648695468903,-0.9253158569335938,0.6879533529281616
1775710459272028400,10.3920283203125,-0.1747869849205017,-0.6016262173652649,0.40974703431129456
1775710459282042600,10.402042724609375,-0.17838172614574432,-0.18720637261867523,0.21768546104431152
1775710459292056600,10.412056640625,-0.17003192007541656,0.06634680181741714,0.15538612008094788
1775710459302071300,10.4220712890625,-0.1357133537530899,0.04649746045470238,0.18241667747497559
1775710459312085500,10.43208544921875,-0.054786015301942825,-0.18115860223770142,0.21947909891605377
1775710459322099500,10.442099365234375,0.017913220450282097,-0.4446461796760559,0.22428876161575317
1775710459332113400,10.452113525390626,0.03392307832837105,-0.6751736402511597,0.1417805701494217
1775710459342128600,10.462128662109375,0.056291766464710236,-0.767124593257904,-0.01293257623910904
1775710459352142300,10.472142333984374,0.0906478762626648,-0.6181753277778625,-0.1266503483057022
1775710459362156300,10.48215625,0.1258934885263443,-0.31105828285217285,-0.13458603620529175
1775710459372170500,10.49217041015625,0.12194481492042542,0.00196354859508574,-0.058037735521793365
1775710459382185500,10.502185546875,0.06069663539528847,0.19743478298187256,0.05788647010922432
1775710459392199400,10.512199462890624,-0.009108010679483414,0.1460442841053009,0.18008294701576233
1775710459402213400,10.52221337890625,-0.05222112685441971,-0.0840592160820961,0.2774451971054077
1775710459412227300,10.532227294921874,-0.08379130065441132,-0.3276686668395996,0.33730238676071167
1775710459422241500,10.542241455078125,-0.07517118006944656,-0.46982207894325256,0.30736100673675537
1775710459432256500,10.552256591796874,-0.021634988486766815,-0.4600115418434143,0.16873149573802948
1775710459442270500,10.5622705078125,0.05235135555267334,-0.3229130804538727,-0.006870955694466829
1775710459452284400,10.572284423828124,0.08965558558702469,-0.06821980327367783,-0.16307920217514038
1775710459462298400,10.58229833984375,0.03296913579106331,0.23117703199386597,-0.24777597188949585
1775710459472313300,10.592313232421875,-0.049729473888874054,0.4795399606227875,-0.1833980530500412
1775710459482327600,10.60232763671875,-0.1409749686717987,0.5849281549453735,0.03951704874634743
1775710459492341500,10.612341552734375,-0.2654934525489807,0.4356590509414673,0.34686073660850525
1775710459502355500,10.62235546875,-0.3636122941970825,0.09306682646274567,0.6119683384895325
1775710459512370400,10.632370361328125,-0.41444912552833557,-0.2503589689731598,0.6960163712501526
1775710459522384400,10.64238427734375,-0.4614246189594269,-0.3475736677646637,0.5777125954627991
1775710459532398300,10.6523984375,-0.48099565505981445,-0.2105303406715393,0.3230310380458832
1775710459542412500,10.66241259765625,-0.4999046325683594,0.037932466715574265,0.010867028497159481
1775710459552427500,10.672427490234375,-0.48060843348503113,0.2587681710720062,-0.2491278052330017
1775710459562441500,10.68244140625,-0.3853338360786438,0.4312741756439209,-0.42173153162002563
1775710459572455400,10.692455322265625,-0.24539057910442352,0.5490157008171082,-0.5143176317214966
1775710459582469400,10.702469482421876,-0.09605702757835388,0.4914863705635071,-0.48750388622283936
1775710459592484400,10.712484375,-0.05799486115574837,0.3401578366756439,-0.37008458375930786
1775710459602498600,10.72249853515625,-0.0979798287153244,0.16475778818130493,-0.2175339162349701
1775710459612512300,10.73251220703125,-0.13150343298912048,0.08264055103063583,-0.07524655014276505
1775710459622526500,10.7425263671875,-0.1616820991039276,0.05938849225640297,0.07523936033248901
1775710459632541400,10.75254150390625,-0.17837320268154144,0.053462158888578415,0.23734597861766815
1775710459642555400,10.762555419921876,-0.15812093019485474,0.006511695217341185,0.3486250936985016
1775710459652569600,10.772569580078125,-0.10227257758378983,-0.00210682675242424,0.4430863559246063
1775710459662583300,10.782583251953126,-0.019216837361454964,0.01495391596108675,0.48244813084602356
1775710459672597500,10.792597412109375,0.059897687286138535,0.06037412956357002,0.4650830030441284
1775710459682612500,10.802612548828124,0.1400628238916397,0.0366877056658268,0.446919709444046
1775710459692626400,10.81262646484375,0.21551178395748138,-0.03229935094714165,0.4108178913593292
1775710459702640600,10.822640625,0.232369065284729,-0.06480748951435089,0.3420438766479492
1775710459712654300,10.832654296875,0.19418439269065857,-0.007240335922688246,0.24625344574451447
1775710459722669300,10.84266943359375,0.15763835608959198,0.08807872235774994,0.1422642022371292
1775710459732683500,10.85268359375,0.14931118488311768,0.20845067501068115,0.08091029524803162
1775710459742697500,10.862697509765624,0.16115505993366241,0.30101361870765686,0.11220749467611313
1775710459752711400,10.87271142578125,0.15810520946979523,0.29276156425476074,0.1748272031545639
1775710459762726700,10.8827265625,0.12323271483182907,0.21249841153621674,0.24605824053287506
1775710459772740400,10.892740234375,0.06857506930828094,0.11818815767765045,0.3131355345249176
1775710459782754300,10.90275439453125,-0.020906347781419754,0.04200923442840576,0.33455055952072144
1775710459792768500,10.9127685546875,-0.09520187973976135,-0.04950736463069916,0.31203219294548035
1775710459802782500,10.922782470703124,-0.12387054413557053,-0.06805521994829178,0.22615191340446472
1775710459812797400,10.93279736328125,-0.12287558615207672,-0.007102650590240955,0.06516329199075699
1775710459822811400,10.942811279296874,-0.13857118785381317,0.12191392481327057,-0.10558182001113892
1775710459832825300,10.952825439453125,-0.1667437106370926,0.23313657939434052,-0.23769645392894745
1775710459842839600,10.962839599609374,-0.21227231621742249,0.319974809885025,-0.2860107123851776
1775710459852854500,10.9728544921875,-0.221291646361351,0.35744547843933105,-0.2353059947490692
1775710459862868500,10.982868408203124,-0.18203105032444,0.3146176040172577,-0.12853853404521942
1775710459872882400,10.99288232421875,-0.14548422396183014,0.23595207929611206,0.009602559730410576
1775710459882896400,11.002896484375,-0.10561484098434448,0.11684326082468033,0.13310186564922333
1775710459892911400,11.012911376953125,-0.08891203254461288,0.00830666534602642,0.21085737645626068
1775710459902925600,11.022925537109375,-0.10650167614221573,-0.03454146534204483,0.24222542345523834
1775710459912939500,11.032939453125,-0.12792600691318512,0.04144997149705887,0.21041636168956757
1775710459922953500,11.042953369140625,-0.15254800021648407,0.195853129029274,0.124871626496315
1775710459932967400,11.052967529296875,-0.15984292328357697,0.3210483193397522,0.03421789035201073
1775710459942982400,11.062982421875,-0.14009211957454681,0.38429468870162964,-0.02635916881263256
1775710459952996600,11.07299658203125,-0.12064439058303833,0.3769528865814209,-0.05967797711491585
1775710459963010600,11.083010498046875,-0.07250802218914032,0.31753242015838623,-0.038659512996673584
1775710459973024300,11.093024169921875,-0.016273245215415955,0.23921018838882446,0.061590392142534256
1775710459983039500,11.10303955078125,0.054728757590055466,0.12195227295160294,0.20814281702041626
1775710459993053400,11.113053466796876,0.08551649749279022,0.0597674585878849,0.31152379512786865
1775710460003067400,11.1230673828125,0.049006957560777664,0.10616105794906616,0.3141685724258423
1775710460013081600,11.13308154296875,0.015856994315981865,0.19275560975074768,0.2726192772388458
1775710460023095300,11.14309521484375,-0.039205458015203476,0.2962614893913269,0.21403159201145172
1775710460033110300,11.1531103515625,-0.09616541117429733,0.3503747880458832,0.15462659299373627
1775710460043124500,11.16312451171875,-0.1328509896993637,0.3469952344894409,0.10589048266410828
1775710460053138400,11.173138427734376,-0.16590747237205505,0.2715745270252228,0.06765095144510269
1775710460063152600,11.183152587890625,-0.18725430965423584,0.15760506689548492,-0.003590473672375083
1775710460073167600,11.193167724609374,-0.19584541022777557,0.12727859616279602,-0.08777299523353577
1775710460083181300,11.203181396484375,-0.158400297164917,0.1377195119857788,-0.17121808230876923
1775710460093195500,11.213195556640626,-0.07410991191864014,0.1504472941160202,-0.23906931281089783
1775710460103209500,11.22320947265625,0.008295480161905289,0.19287358224391937,-0.2783362865447998
1775710460113224400,11.233224365234374,0.09691589325666428,0.23561225831508636,-0.29723992943763733
1775710460123238700,11.24323876953125,0.17970184981822968,0.3537665903568268,-0.32653045654296875
1775710460133252400,11.25325244140625,0.23099620640277863,0.4705653786659241,-0.4032289385795593
1775710460143266600,11.2632666015625,0.24619272351264954,0.5501025319099426,-0.5051566362380981
1775710460153280500,11.273280517578126,0.2519001364707947,0.6290908455848694,-0.6010139584541321
1775710460163295500,11.28329541015625,0.2810652256011963,0.6835029721260071,-0.6800341606140137
1775710460173309400,11.293309326171874,0.34442341327667236,0.7292121052742004,-0.7530905604362488
1775710460183323400,11.303323486328125,0.4322156012058258,0.7634941935539246,-0.8478096127510071
1775710460193337300,11.31333740234375,0.5130411982536316,0.8057652115821838,-0.9247877597808838
1775710460203352800,11.323352783203125,0.6011819839477539,0.7504668235778809,-0.9492499232292175
1775710460213367000,11.333366943359374,0.6763268113136292,0.6479508280754089,-0.9356939196586609
1775710460223381000,11.343381103515625,0.7199448347091675,0.5821715593338013,-0.8100662231445312
1775710460233395000,11.35339501953125,0.7021530866622925,0.5319307446479797,-0.626659631729126
1775710460243409000,11.363408935546875,0.6124418377876282,0.513307511806488,-0.4015255868434906
1775710460253423900,11.373423828125,0.48279353976249695,0.4520833194255829,-0.13330772519111633
1775710460263438000,11.38343798828125,0.3522147834300995,0.36388128995895386,0.11665444076061249
1775710460273452000,11.3934521484375,0.2190854847431183,0.32194048166275024,0.33236515522003174
1775710460283466000,11.403466064453125,0.10377299785614014,0.27232685685157776,0.43608516454696655
1775710460293480000,11.41347998046875,-0.009069395251572132,0.24899251759052277,0.39996764063835144
1775710460303495000,11.423494873046875,-0.12775902450084686,0.2773573100566864,0.21614135801792145
1775710460313508900,11.4335087890625,-0.1957055926322937,0.3629177510738373,-0.05208983272314072
1775710460323523000,11.443523193359376,-0.13101448118686676,0.4419640898704529,-0.2457711547613144
1775710460333536800,11.453536865234375,0.04845648258924484,0.4721933603286743,-0.29516080021858215
1775710460343552000,11.463552001953126,0.23712413012981415,0.42520830035209656,-0.24056413769721985
1775710460353566000,11.47356591796875,0.3497329652309418,0.3655042052268982,-0.13863670825958252
1775710460363580000,11.483579833984376,0.37051922082901,0.26772892475128174,-0.01678989827632904
1775710460373594000,11.493593994140625,0.3239764869213104,0.19883346557617188,0.09199889749288559
1775710460383607800,11.50360791015625,0.2390432059764862,0.13099023699760437,0.16374897956848145
1775710460393622800,11.513622802734375,0.1370779573917389,0.06439097225666046,0.1747550368309021
1775710460403637000,11.523636962890626,0.019828299060463905,0.024585770443081856,0.15051254630088806
1775710460413651000,11.53365087890625,-0.09664904326200485,0.0007651261985301971,0.11316756904125214
1775710460423665200,11.5436650390625,-0.195962056517601,-0.012432434596121311,0.07983118295669556
1775710460433678800,11.553678955078125,-0.2698543965816498,0.022904783487319946,0.06916894763708115
1775710460443693800,11.56369384765625,-0.33012571930885315,0.07387768477201462,0.11518225073814392
1775710460453708000,11.5737080078125,-0.3980000913143158,0.12239115685224533,0.2225465178489685
1775710460463722000,11.583721923828126,-0.4564351737499237,0.1242135614156723,0.38148850202560425
1775710460473736000,11.59373583984375,-0.4979458749294281,0.05583237111568451,0.5590214729309082
1775710460483751200,11.603751220703124,-0.541101336479187,-0.05175081267952919,0.696744441986084
1775710460493764900,11.613764892578125,-0.5796349048614502,-0.13381452858448029,0.7752408385276794
1775710460503778800,11.62377880859375,-0.6163263320922852,-0.21223129332065582,0.7813381552696228
1775710460513793000,11.63379296875,-0.6242481470108032,-0.28187295794487,0.7542412877082825
1775710460523807000,11.643806884765626,-0.5952029228210449,-0.2984687089920044,0.7087164521217346
1775710460533822000,11.653822021484375,-0.5367609262466431,-0.2537877857685089,0.6402004957199097
1775710460543836000,11.6638359375,-0.46087121963500977,-0.1480288803577423,0.5395268797874451
1775710460553849900,11.673849853515625,-0.3640330731868744,-0.003367034485563636,0.4066055715084076
1775710460563864000,11.683864013671876,-0.258975088596344,0.11817111819982529,0.29676109552383423
1775710460573878000,11.6938779296875,-0.16466884315013885,0.15355733036994934,0.21652831137180328
1775710460583893000,11.70389306640625,-0.0922822579741478,0.0832943543791771,0.11267008632421494
1775710460593907000,11.713906982421875,-0.05229782685637474,-0.009939716197550297,-0.015148060396313667
1775710460603921000,11.7239208984375,-0.03634362667798996,-0.061878547072410583,-0.14538675546646118
1775710460613935000,11.73393505859375,-0.07574748992919922,-0.13363103568553925,-0.273617148399353
1775710460623949000,11.743948974609374,-0.17695826292037964,-0.22941908240318298,-0.38205283880233765
1775710460633964000,11.753964111328125,-0.30635327100753784,-0.3033255338668823,-0.43569448590278625
1775710460643978000,11.76397802734375,-0.4183160364627838,-0.321958065032959,-0.43181344866752625
1775710460653992000,11.773991943359375,-0.4989674687385559,-0.27080991864204407,-0.34332993626594543
1775710460664006000,11.784005859375,-0.5311712026596069,-0.22523897886276245,-0.18904103338718414
1775710460674021000,11.794021240234375,-0.4913311004638672,-0.20177680253982544,-0.025061678141355515
1775710460684035000,11.80403515625,-0.38699859380722046,-0.17581896483898163,0.13286057114601135
1775710460694048800,11.814048828125,-0.2568296492099762,-0.1988595724105835,0.2574073076248169
1775710460704063000,11.82406298828125,-0.1436583697795868,-0.25114142894744873,0.2892046570777893
1775710460714077000,11.834076904296875,-0.06598594039678574,-0.30376628041267395,0.24219664931297302
1775710460724092000,11.844091796875,-0.028593027964234352,-0.3767821490764618,0.12540292739868164
1775710460734106000,11.854106201171875,-0.01846262998878956,-0.4691086411476135,0.0057502975687384605
1775710460744119800,11.864119873046874,-0.016057530418038368,-0.5201800465583801,-0.05217026174068451
1775710460754134000,11.874134033203125,-0.007648598402738571,-0.5331739187240601,-0.08509225398302078
1775710460764148000,11.88414794921875,-0.01907382532954216,-0.48316505551338196,-0.1261664628982544
1775710460774163000,11.894162841796875,-0.005899967160075903,-0.4273870289325714,-0.1913854032754898
1775710460784177200,11.90417724609375,0.042277947068214417,-0.33230283856391907,-0.2758347690105438
1775710460794190800,11.91419091796875,0.102623850107193,-0.15497547388076782,-0.3554398715496063
1775710460804205000,11.924205078125,0.14946192502975464,0.009869142435491085,-0.40309232473373413
1775710460814219000,11.934218994140625,0.17306232452392578,0.09862031787633896,-0.37313735485076904
1775710460824234000,11.94423388671875,0.18017829954624176,0.028137894347310066,-0.30475351214408875
1775710460834248200,11.954248291015626,0.18192079663276672,-0.10096815973520279,-0.22364561259746552
1775710460844262000,11.964261962890625,0.2202836275100708,-0.2537899315357208,-0.16683585941791534
1775710460854275800,11.97427587890625,0.258257657289505,-0.39392706751823425,-0.18234530091285706
1775710460864290000,11.9842900390625,0.2787541449069977,-0.43512189388275146,-0.23639468848705292
1775710460874305000,11.994304931640626,0.298272967338562,-0.38568776845932007,-0.29793980717658997
1775710460884319000,12.004319091796875,0.3057023882865906,-0.18740157783031464,-0.32916751503944397
1775710460894333000,12.0143330078125,0.3349766731262207,0.02737276814877987,-0.3037324547767639
1775710460904347000,12.024346923828125,0.3875860869884491,0.14014992117881775,-0.2811690866947174
1775710460914361000,12.034361083984376,0.4357088506221771,0.22447198629379272,-0.27514609694480896
1775710460924376000,12.0443759765625,0.4914749264717102,0.2662833631038666,-0.2621237635612488
1775710460934390000,12.05439013671875,0.5153624415397644,0.2707745134830475,-0.25170838832855225
1775710460944404000,12.064404052734375,0.47790879011154175,0.21012607216835022,-0.23339198529720306
1775710460954418000,12.07441796875,0.40752169489860535,0.1087600365281105,-0.20839634537696838
1775710460964432100,12.08443212890625,0.32697945833206177,0.02275484800338745,-0.17007586359977722
1775710460974447000,12.094447021484376,0.26580318808555603,-0.09538697451353073,-0.12919794023036957
1775710460984460800,12.104460693359375,0.22269167006015778,-0.2584659159183502,-0.13597488403320312
1775710460994475000,12.11447509765625,0.15056580305099487,-0.2908523380756378,-0.1823357194662094
1775710461004489000,12.124489013671875,0.09021884202957153,-0.2684035003185272,-0.252356618642807
1775710461014503000,12.1345029296875,0.047561127692461014,-0.22606642544269562,-0.3420675992965698
1775710461024518000,12.144517822265625,0.0024224112275987864,-0.13632801175117493,-0.4110852777957916
1775710461034531800,12.15453173828125,-0.01732226461172104,-0.09967226535081863,-0.4583659768104553
1775710461044545800,12.1645458984375,-0.02268320880830288,-0.07455998659133911,-0.47312813997268677
1775710461054560000,12.17456005859375,-0.03794604912400246,-0.012924587354063988,-0.4270482659339905
1775710461064574000,12.184573974609375,-0.04833024740219116,0.04008430242538452,-0.36819028854370117
1775710461074589000,12.1945888671875,-0.08008790761232376,0.09152591973543167,-0.30764490365982056
1775710461084603000,12.204602783203125,-0.09503570199012756,0.09983578324317932,-0.26296743750572205
1775710461094616800,12.214616943359376,-0.0836176648736,0.060862019658088684,-0.18973717093467712
1775710461104631000,12.224631103515625,-0.005201153457164764,-0.10190479457378387,-0.10333171486854553
1775710461114645000,12.23464501953125,0.07729905098676682,-0.2938697040081024,-0.06222236156463623
1775710461124660000,12.244659912109375,0.10530325025320053,-0.38588377833366394,-0.053156960755586624
1775710461134674000,12.254673828125,0.11101866513490677,-0.38087064027786255,-0.09450280666351318
1775710461144687900,12.26468798828125,0.10136470198631287,-0.2627163231372833,-0.1574876308441162
1775710461154701800,12.274701904296874,0.11348501592874527,-0.1092817485332489,-0.22467172145843506
1775710461164716000,12.284716064453125,0.14461150765419006,0.06531615555286407,-0.29888418316841125
1775710461174731000,12.29473095703125,0.17811328172683716,0.22843609750270844,-0.34657925367355347
1775710461184745000,12.304744873046875,0.2614222764968872,0.2927522361278534,-0.3378390371799469
1775710461194759000,12.314759033203124,0.41611039638519287,0.16949263215065002,-0.20642028748989105
1775710461204772400,12.3247724609375,0.6161574721336365,-0.13354633748531342,-0.0683622807264328
1775710461214786300,12.334786376953126,0.7344492077827454,-0.4399632513523102,0.003166498616337776
