time,seconds_elapsed,z,y,x
1775714868141142300,0.048142333984375,-0.72662353515625,-0.9103546142578125,0.086334228515625
1775714868151156500,0.058156494140625,-0.7076568603515625,-0.9224395751953125,0.0706634521484375
1775714868161170400,0.06817041015625,-0.7227935791015625,-0.9381103515625,0.089202880859375
1775714868171184400,0.078184326171875,-0.7809295654296875,-0.9646453857421875,0.099639892578125
1775714868181197300,0.088197265625,-0.8079986572265625,-0.9818267822265625,0.0771331787109375
1775714868191211500,0.09821142578125,-0.8369140625,-0.9917449951171875,0.057342529296875
1775714868201225200,0.10822509765625,-0.805023193359375,-1.013214111328125,0.053131103515625
1775714868211239400,0.118239501953125,-0.7688446044921875,-1.01824951171875,0.0683441162109375
1775714868221254100,0.128254150390625,-0.815826416015625,-1.0118408203125,0.1180572509765625
1775714868231267000,0.13826708984375,-0.835235595703125,-0.9917144775390625,0.171478271484375
1775714868241281000,0.148281005859375,-0.8377685546875,-1.01519775390625,0.2591705322265625
1775714868251295000,0.158294921875,-0.7718048095703125,-1.0585784912109375,0.3358001708984375
1775714868261309000,0.168308837890625,-0.679595947265625,-1.093536376953125,0.3335723876953125
1775714868271323000,0.178322998046875,-0.6475677490234375,-1.1121826171875,0.33251953125
1775714868281337000,0.188337158203125,-0.66326904296875,-1.0761260986328125,0.2984771728515625
1775714868291350000,0.19835009765625,-0.6661529541015625,-1.02630615234375,0.257965087890625
1775714868301364000,0.208364013671875,-0.6799163818359375,-1.049102783203125,0.2772674560546875
1775714868311378000,0.2183779296875,-0.6356048583984375,-1.2658538818359375,0.4274139404296875
1775714868321392000,0.22839208984375,-0.3036956787109375,-1.3819122314453125,0.504608154296875
1775714868331406000,0.238406005859375,-0.4056396484375,-1.1918487548828125,0.4410400390625
1775714868341420000,0.248419921875,-0.710784912109375,-0.73992919921875,0.2430572509765625
1775714868351433000,0.258432861328125,-0.8211822509765625,-0.5179443359375,0.12457275390625
1775714868361447200,0.268447265625,-0.9017181396484375,-0.7305145263671875,0.1901397705078125
1775714868371460900,0.2784609375,-0.9705810546875,-0.94012451171875,0.2242279052734375
1775714868381475000,0.28847509765625,-1.0119171142578125,-0.86114501953125,0.102203369140625
1775714868391489000,0.298489013671875,-0.96466064453125,-0.5553131103515625,0.0352935791015625
1775714868401503000,0.3085029296875,-0.6494293212890625,-0.0140228271484375,0.0829315185546875
1775714868411516000,0.318515869140625,-0.4954071044921875,-0.2468719482421875,-0.0245513916015625
1775714868421530000,0.328530029296875,-0.5751953125,-0.57183837890625,-0.117279052734375
1775714868431544000,0.3385439453125,-0.5715484619140625,-0.58001708984375,-0.1527252197265625
1775714868441558000,0.34855810546875,-0.712615966796875,-0.5981597900390625,-0.10479736328125
1775714868451572000,0.358572021484375,-0.817291259765625,-0.5168609619140625,-0.0218505859375
1775714868461585200,0.368585205078125,-0.8556060791015625,-0.4449920654296875,0.0755767822265625
1775714868471599000,0.37859912109375,-0.87908935546875,-0.4242095947265625,0.1551666259765625
1775714868481612800,0.38861279296875,-0.8537750244140625,-0.3836669921875,0.195648193359375
1775714868491627000,0.398626953125,-0.7546539306640625,-0.3248138427734375,0.2400054931640625
1775714868501641000,0.408640869140625,-0.64471435546875,-0.3025360107421875,0.2797698974609375
1775714868511655200,0.4186552734375,-0.524139404296875,-0.2695465087890625,0.326141357421875
1775714868521667800,0.428667724609375,-0.3734283447265625,-0.274383544921875,0.3552093505859375
1775714868531682000,0.43868212890625,-0.2523956298828125,-0.3289947509765625,0.3556060791015625
1775714868541696000,0.448696044921875,-0.13348388671875,-0.354766845703125,0.3700408935546875
1775714868551710200,0.458710205078125,-0.043975830078125,-0.3962860107421875,0.4414520263671875
1775714868561724000,0.468723876953125,-0.0161895751953125,-0.333251953125,0.52783203125
1775714868571738000,0.478738037109375,0.04241943359375,-0.2835235595703125,0.6958770751953125
1775714868581751000,0.4887509765625,0.053985595703125,-0.3173675537109375,0.856170654296875
1775714868591765000,0.498764892578125,0.036773681640625,-0.4071197509765625,0.9768218994140625
1775714868601779000,0.508779052734375,0.00262451171875,-0.5040740966796875,1.04345703125
1775714868611793200,0.518793212890625,0.1086883544921875,-0.526641845703125,0.9987640380859375
1775714868621807000,0.52880712890625,0.17138671875,-0.52099609375,0.9549560546875
1775714868631820800,0.53882080078125,0.1865997314453125,-0.4082183837890625,0.8920745849609375
1775714868641834000,0.548833984375,0.193084716796875,-0.404815673828125,0.8616790771484375
1775714868651848200,0.55884814453125,0.156585693359375,-0.4341583251953125,0.85845947265625
1775714868661862000,0.56886181640625,0.143829345703125,-0.4111480712890625,0.885772705078125
1775714868671875800,0.578875732421875,0.12493896484375,-0.3732452392578125,0.9406585693359375
1775714868681890000,0.58889013671875,0.0856170654296875,-0.377044677734375,1.0115814208984375
1775714868691903200,0.5989033203125,0.10479736328125,-0.4049835205078125,1.1240997314453125
1775714868701917000,0.6089169921875,0.1244659423828125,-0.4266510009765625,1.2152252197265625
1775714868711931000,0.618930908203125,0.0789031982421875,-0.44305419921875,1.23565673828125
1775714868721945000,0.628945068359375,0.046966552734375,-0.4797515869140625,1.2309112548828125
1775714868731959000,0.638958984375,0.0445709228515625,-0.4915313720703125,1.2065887451171875
1775714868741973000,0.648972900390625,0.0833740234375,-0.4739532470703125,1.20220947265625
1775714868751986000,0.65898583984375,0.068359375,-0.4502716064453125,1.134613037109375
1775714868762000100,0.669000244140625,0.0379486083984375,-0.4808197021484375,1.0718536376953125
1775714868772013800,0.679013916015625,0.0754241943359375,-0.447021484375,1.0579681396484375
1775714868782028000,0.689028076171875,0.0720977783203125,-0.3731689453125,1.003662109375
1775714868792042000,0.6990419921875,-0.030242919921875,-0.372100830078125,0.9369354248046875
1775714868802056200,0.70905615234375,-0.105560302734375,-0.3498687744140625,0.8892059326171875
1775714868812068900,0.71906884765625,-0.08831787109375,-0.2990264892578125,0.864501953125
1775714868822083000,0.7290830078125,-0.0710906982421875,-0.303375244140625,0.8579559326171875
1775714868832097000,0.739096923828125,-0.0660858154296875,-0.29449462890625,0.863983154296875
1775714868842111200,0.749111328125,-0.0625457763671875,-0.268096923828125,0.863037109375
1775714868852125000,0.759125,-0.105804443359375,-0.256439208984375,0.83917236328125
1775714868862139000,0.769138916015625,-0.14007568359375,-0.249908447265625,0.8253021240234375
1775714868872152000,0.779152099609375,-0.161163330078125,-0.2365875244140625,0.7909393310546875
1775714868882166000,0.789166015625,-0.098907470703125,-0.18597412109375,0.7368621826171875
1775714868892180000,0.799179931640625,-0.01263427734375,-0.1180267333984375,0.6790618896484375
1775714868902194000,0.80919384765625,0.003936767578125,-0.0477447509765625,0.589202880859375
1775714868912208100,0.8192080078125,0.00469970703125,0.0138092041015625,0.5112457275390625
1775714868922221000,0.829220947265625,-0.038665771484375,0.054779052734375,0.4317779541015625
1775714868932235000,0.839235107421875,-0.07305908203125,0.0876617431640625,0.3824462890625
1775714868942249000,0.8492490234375,-0.0622406005859375,0.13287353515625,0.3495330810546875
1775714868952263200,0.85926318359375,-0.142303466796875,0.1200714111328125,0.3485107421875
1775714868962276900,0.86927685546875,-0.1911773681640625,0.1078948974609375,0.40142822265625
1775714868972291000,0.879291015625,-0.228424072265625,0.056884765625,0.441131591796875
1775714868982304000,0.889303955078125,-0.260284423828125,-0.02117919921875,0.483856201171875
1775714868992318000,0.89931787109375,-0.2586517333984375,-0.11334228515625,0.5402374267578125
1775714869002332000,0.909331787109375,-0.223388671875,-0.1947174072265625,0.59161376953125
1775714869012346000,0.91934619140625,-0.1806793212890625,-0.24456787109375,0.630157470703125
1775714869022360000,0.929360107421875,-0.161163330078125,-0.2987213134765625,0.643157958984375
1775714869032374000,0.9393740234375,-0.1109619140625,-0.373687744140625,0.6357421875
1775714869042387000,0.949386962890625,-0.0782318115234375,-0.421783447265625,0.6040802001953125
1775714869052401200,0.959401123046875,-0.067047119140625,-0.4439697265625,0.568450927734375
1775714869062415000,0.9694150390625,-0.0521240234375,-0.462646484375,0.54339599609375
1775714869072429000,0.979428955078125,-0.0246124267578125,-0.4756927490234375,0.5290985107421875
1775714869082443000,0.989443115234375,-0.0202178955078125,-0.4974365234375,0.5051422119140625
1775714869092457000,0.99945703125,-0.006256103515625,-0.5410919189453125,0.4843292236328125
1775714869102470000,1.009469970703125,0.0404815673828125,-0.5721588134765625,0.4529876708984375
1775714869112484000,1.019484130859375,0.0343780517578125,-0.5841064453125,0.4270782470703125
1775714869122498000,1.029498046875,0.0063629150390625,-0.5913543701171875,0.4251556396484375
1775714869132512000,1.039511962890625,-0.0072479248046875,-0.609375,0.4400482177734375
1775714869142526000,1.04952587890625,-0.0170745849609375,-0.6304473876953125,0.48016357421875
1775714869152539100,1.0595390625,-0.0232391357421875,-0.65167236328125,0.5374755859375
1775714869162553000,1.069552978515625,-0.01153564453125,-0.6651458740234375,0.596649169921875
1775714869172567000,1.079567138671875,-0.022918701171875,-0.6739044189453125,0.64263916015625
1775714869182581000,1.0895810546875,-0.0036468505859375,-0.692108154296875,0.6903076171875
1775714869192595000,1.099594970703125,0.0386962890625,-0.7053375244140625,0.7315521240234375
1775714869202609200,1.109609130859375,0.07208251953125,-0.7107696533203125,0.7723846435546875
1775714869212621800,1.119621826171875,0.100341796875,-0.7238311767578125,0.8152618408203125
1775714869222635000,1.129635009765625,0.1212921142578125,-0.7431488037109375,0.878570556640625
1775714869232649000,1.13964892578125,0.1247100830078125,-0.7680206298828125,0.9513397216796875
1775714869242663200,1.1496630859375,0.1206512451171875,-0.78216552734375,0.99224853515625
1775714869252677000,1.159677001953125,0.1142578125,-0.7813720703125,0.99945068359375
1775714869262691000,1.169691162109375,0.1349029541015625,-0.784759521484375,1.0008697509765625
1775714869272704000,1.1797041015625,0.16656494140625,-0.7785186767578125,0.99798583984375
1775714869282718200,1.18971826171875,0.2085723876953125,-0.7913665771484375,1.0009918212890625
1775714869292732200,1.199732177734375,0.20745849609375,-0.8085174560546875,0.9972686767578125
1775714869302746000,1.20974609375,0.1580963134765625,-0.8202362060546875,0.97442626953125
1775714869312760000,1.219760009765625,0.096099853515625,-0.8235626220703125,0.954620361328125
1775714869322774300,1.229774169921875,0.05889892578125,-0.83782958984375,0.9444732666015625
1775714869332787000,1.239786865234375,0.0595550537109375,-0.8511962890625,0.9313812255859375
1775714869342801200,1.24980126953125,0.1113739013671875,-0.8747406005859375,0.9269866943359375
1775714869352815000,1.259815185546875,0.128814697265625,-0.8834381103515625,0.916107177734375
1775714869362829300,1.269829345703125,0.127655029296875,-0.8971099853515625,0.915985107421875
1775714869372843000,1.279843017578125,0.105621337890625,-0.90655517578125,0.899383544921875
1775714869382857000,1.28985693359375,0.08538818359375,-0.8973388671875,0.8682403564453125
1775714869392870100,1.2998701171875,0.0688934326171875,-0.8967437744140625,0.8395233154296875
1775714869402884400,1.30988427734375,0.0579833984375,-0.8934173583984375,0.83489990234375
1775714869412898000,1.31989794921875,0.0464324951171875,-0.92041015625,0.84527587890625
1775714869422912000,1.329912109375,0.0450286865234375,-0.9250640869140625,0.8387298583984375
1775714869432926200,1.33992626953125,0.067138671875,-0.9253082275390625,0.8478851318359375
1775714869442939100,1.349939208984375,0.082794189453125,-0.9163818359375,0.8604583740234375
1775714869452953000,1.359953125,0.1002349853515625,-0.9019012451171875,0.86700439453125
1775714869462967000,1.369967041015625,0.1055145263671875,-0.8963470458984375,0.860931396484375
1775714869472981200,1.379981201171875,0.09027099609375,-0.8696441650390625,0.8509979248046875
1775714869482995000,1.389994873046875,0.0608367919921875,-0.848114013671875,0.8804779052734375
1775714869493009200,1.400009033203125,0.0449371337890625,-0.8455352783203125,0.9241790771484375
1775714869503022000,1.41002197265625,0.0349273681640625,-0.85223388671875,0.9556121826171875
1775714869513036300,1.420036376953125,0.0287322998046875,-0.857879638671875,0.9776458740234375
1775714869523050000,1.430050048828125,0.042755126953125,-0.8701629638671875,0.9731292724609375
1775714869533064200,1.440064208984375,0.0159454345703125,-0.8564300537109375,0.94183349609375
1775714869543078100,1.450078125,-0.015106201171875,-0.8688812255859375,0.920654296875
1775714869553092400,1.46009228515625,-0.0549468994140625,-0.8888397216796875,0.9051971435546875
1775714869563105000,1.47010498046875,-0.108795166015625,-0.9595947265625,0.9095611572265625
1775714869573119200,1.480119140625,-0.165740966796875,-1.1880950927734375,0.9611663818359375
1775714869583133200,1.49013330078125,-0.264923095703125,-1.6959991455078125,1.0113983154296875
1775714869593147100,1.500147216796875,-0.19873046875,-1.7747344970703125,0.7205963134765625
1775714869603161000,1.5101611328125,0.0662078857421875,-1.1929168701171875,0.5839080810546875
1775714869613175000,1.520175048828125,0.339080810546875,-0.804046630859375,0.9033050537109375
1775714869623188000,1.53018798828125,0.5318145751953125,-0.7545928955078125,1.11883544921875
1775714869633202200,1.5402021484375,0.546905517578125,-0.8977813720703125,1.19122314453125
1775714869643216100,1.550216064453125,0.3316497802734375,-1.0438690185546875,1.328094482421875
1775714869653230000,1.56022998046875,0.039459228515625,-1.033050537109375,1.4323883056640625
1775714869663244300,1.570244384765625,-0.1432342529296875,-0.98211669921875,1.3957366943359375
1775714869673258000,1.580258056640625,-0.1937103271484375,-0.9827880859375,1.299560546875
1775714869683271200,1.590271240234375,-0.149200439453125,-0.9744110107421875,1.2132415771484375
1775714869693285000,1.60028515625,-0.0491790771484375,-0.9843597412109375,1.137603759765625
1775714869703299000,1.610299072265625,0.046173095703125,-0.994720458984375,1.032928466796875
1775714869713313000,1.62031298828125,0.0991363525390625,-1.011199951171875,0.9479827880859375
1775714869723327200,1.6303271484375,0.1167755126953125,-1.027069091796875,0.87615966796875
1775714869733341200,1.640341064453125,0.1363677978515625,-1.0384368896484375,0.813140869140625
1775714869743354000,1.65035400390625,0.1618499755859375,-1.053436279296875,0.7813873291015625
1775714869753368000,1.6603681640625,0.167327880859375,-1.045623779296875,0.77581787109375
1775714869763382300,1.67038232421875,0.1567230224609375,-1.0164947509765625,0.7751007080078125
1775714869773396200,1.680396240234375,0.1444244384765625,-0.9739532470703125,0.7688140869140625
1775714869783410200,1.69041015625,0.125152587890625,-0.90850830078125,0.7518310546875
1775714869793424100,1.700424072265625,0.099395751953125,-0.865875244140625,0.7642364501953125
1775714869803437300,1.710437255859375,0.0702362060546875,-0.83758544921875,0.7801361083984375
1775714869813451000,1.720450927734375,0.0597991943359375,-0.796905517578125,0.783050537109375
1775714869823465200,1.73046533203125,0.0852813720703125,-0.76165771484375,0.785247802734375
1775714869833479200,1.740479248046875,0.1354522705078125,-0.7365570068359375,0.804779052734375
1775714869843493000,1.7504931640625,0.1486053466796875,-0.70318603515625,0.828460693359375
1775714869853507000,1.760507080078125,0.135986328125,-0.681243896484375,0.8488616943359375
1775714869863520300,1.770520263671875,0.110321044921875,-0.6664886474609375,0.874786376953125
1775714869873534200,1.7805341796875,0.0808868408203125,-0.652740478515625,0.9034271240234375
1775714869883548000,1.7905478515625,0.0785369873046875,-0.640045166015625,0.9038848876953125
1775714869893562000,1.80056201171875,0.07183837890625,-0.6260833740234375,0.8570098876953125
1775714869903576000,1.810576171875,0.058502197265625,-0.6282958984375,0.794586181640625
1775714869913589200,1.82058935546875,0.0390167236328125,-0.6525726318359375,0.7499542236328125
1775714869923603000,1.83060302734375,0.01910400390625,-0.6671600341796875,0.72357177734375
1775714869933617200,1.8406171875,0.0225677490234375,-0.67724609375,0.7118988037109375
1775714869943631000,1.850631103515625,0.0458526611328125,-0.70166015625,0.7178192138671875
1775714869953645300,1.860645263671875,0.060546875,-0.7099761962890625,0.72979736328125
1775714869963659000,1.870658935546875,0.046417236328125,-0.7028656005859375,0.7273406982421875
1775714869973672200,1.880672119140625,0.0425262451171875,-0.69696044921875,0.7274322509765625
1775714869983686100,1.89068603515625,0.037811279296875,-0.6894073486328125,0.727508544921875
1775714869993700000,1.9007001953125,0.042266845703125,-0.690399169921875,0.7376708984375
1775714870003714000,1.910714111328125,0.0550689697265625,-0.6793975830078125,0.7464141845703125
1775714870013728300,1.920728271484375,0.05645751953125,-0.652313232421875,0.739410400390625
1775714870023742200,1.9307421875,0.0356292724609375,-0.6348114013671875,0.7234039306640625
1775714870033755100,1.940755126953125,0.0220489501953125,-0.63153076171875,0.72705078125
1775714870043769000,1.95076904296875,-0.000579833984375,-0.6066131591796875,0.73785400390625
1775714870053783300,1.960783203125,-0.009368896484375,-0.5818634033203125,0.763916015625
1775714870063797200,1.97079736328125,-0.000274658203125,-0.561859130859375,0.77392578125
1775714870073811000,1.98081103515625,-0.0086669921875,-0.5483245849609375,0.7950439453125
1775714870083825200,1.9908251953125,0.0003509521484375,-0.544830322265625,0.8314361572265625
1775714870093838300,2.00083837890625,0.0113983154296875,-0.5322723388671875,0.8448028564453125
1775714870103852000,2.01085205078125,0.0276947021484375,-0.526824951171875,0.8612060546875
1775714870113866000,2.020865966796875,0.03857421875,-0.5282440185546875,0.8703765869140625
1775714870123880200,2.030880126953125,0.0489349365234375,-0.5392303466796875,0.865997314453125
1775714870133894100,2.04089404296875,0.020843505859375,-0.550048828125,0.839599609375
1775714870143908000,2.050908203125,-0.018890380859375,-0.5758056640625,0.80126953125
1775714870153921000,2.060921142578125,-0.0803070068359375,-0.599884033203125,0.7394866943359375
1775714870163935200,2.070935302734375,-0.137451171875,-0.6008758544921875,0.669219970703125
1775714870173949200,2.08094921875,-0.1399993896484375,-0.6030120849609375,0.6063385009765625
1775714870183963100,2.090963134765625,-0.0890655517578125,-0.5898895263671875,0.5417327880859375
1775714870193977000,2.10097705078125,-0.017913818359375,-0.5569305419921875,0.4765167236328125
1775714870203991300,2.1109912109375,0.0597991943359375,-0.5307769775390625,0.4486236572265625
1775714870214004000,2.12100390625,0.118927001953125,-0.52288818359375,0.4774627685546875
1775714870224018400,2.131018310546875,0.136199951171875,-0.5402374267578125,0.5488739013671875
1775714870234032000,2.1410322265625,0.1100006103515625,-0.5478363037109375,0.58807373046875
1775714870244046300,2.15104638671875,0.0807647705078125,-0.535003662109375,0.5959320068359375
1775714870254060300,2.161060302734375,0.08892822265625,-0.5112762451171875,0.6125946044921875
1775714870264074200,2.17107421875,0.115936279296875,-0.4619140625,0.61468505859375
1775714870274087200,2.181087158203125,0.119415283203125,-0.41595458984375,0.6060028076171875
1775714870284101000,2.19110107421875,0.07861328125,-0.384613037109375,0.5901641845703125
1775714870294115300,2.201115234375,0.0489501953125,-0.3584442138671875,0.5777130126953125
1775714870304129300,2.21112939453125,0.0514373779296875,-0.3323974609375,0.58343505859375
1775714870314143200,2.221143310546875,0.0781097412109375,-0.3320159912109375,0.6414794921875
1775714870324156200,2.23115625,0.09844970703125,-0.3446044921875,0.7142333984375
1775714870334170400,2.24117041015625,0.09613037109375,-0.36395263671875,0.7740478515625
1775714870344184000,2.25118408203125,0.0827484130859375,-0.3777923583984375,0.7909698486328125
1775714870354198300,2.2611982421875,0.087615966796875,-0.3628692626953125,0.75311279296875
1775714870364212200,2.271212158203125,0.0899200439453125,-0.3442230224609375,0.6838531494140625
1775714870374226400,2.281226318359375,0.0478057861328125,-0.3300018310546875,0.612213134765625
1775714870384239000,2.291239013671875,-0.0258636474609375,-0.300262451171875,0.560150146484375
1775714870394253300,2.30125341796875,-0.10235595703125,-0.29498291015625,0.54217529296875
1775714870404267300,2.311267333984375,-0.148223876953125,-0.319793701171875,0.559417724609375
1775714870414281500,2.321281494140625,-0.1440582275390625,-0.3673095703125,0.62286376953125
1775714870424295200,2.331295166015625,-0.094146728515625,-0.40411376953125,0.7076416015625
1775714870434309000,2.34130908203125,-0.03216552734375,-0.43072509765625,0.7804107666015625
1775714870444322300,2.351322265625,0.019866943359375,-0.46630859375,0.8178863525390625
1775714870454336300,2.361336181640625,0.055145263671875,-0.49072265625,0.8138275146484375
1775714870464350200,2.37135009765625,0.071136474609375,-0.50091552734375,0.775054931640625
1775714870474364200,2.3813642578125,0.0675811767578125,-0.4970855712890625,0.719573974609375
1775714870484378400,2.39137841796875,0.0697479248046875,-0.491241455078125,0.6521759033203125
1775714870494392000,2.40139208984375,0.0724945068359375,-0.4671630859375,0.5685882568359375
1775714870504405200,2.4114052734375,0.071380615234375,-0.456573486328125,0.5244903564453125
1775714870514419200,2.421419189453125,0.0704345703125,-0.4645233154296875,0.534454345703125
1775714870524433400,2.431433349609375,0.080535888671875,-0.474090576171875,0.5694580078125
1775714870534447000,2.441447021484375,0.07659912109375,-0.4824981689453125,0.621856689453125
1775714870544461300,2.45146142578125,0.06854248046875,-0.4947509765625,0.6745147705078125
1775714870554475300,2.461475341796875,0.0615692138671875,-0.50970458984375,0.7020111083984375
1775714870564488200,2.47148828125,0.0417022705078125,-0.51483154296875,0.70965576171875
1775714870574502100,2.481502197265625,0.027557373046875,-0.50689697265625,0.714874267578125
1775714870584516400,2.491516357421875,0.0269775390625,-0.5032501220703125,0.72552490234375
1775714870594530300,2.5015302734375,0.028961181640625,-0.5142669677734375,0.7518463134765625
1775714870604544300,2.511544189453125,0.0287628173828125,-0.55169677734375,0.7874603271484375
1775714870614558200,2.52155810546875,0.0241241455078125,-0.600982666015625,0.799468994140625
1775714870624571400,2.5315712890625,0.0001678466796875,-0.627197265625,0.7908172607421875
1775714870634585300,2.54158544921875,-0.04290771484375,-0.6597137451171875,0.7921295166015625
1775714870644599300,2.551599365234375,-0.07586669921875,-0.678985595703125,0.794677734375
1775714870654613200,2.56161328125,-0.10009765625,-0.6884002685546875,0.8033905029296875
1775714870664627200,2.571627197265625,-0.1139068603515625,-0.7064056396484375,0.816619873046875
1775714870674641400,2.581641357421875,-0.1201171875,-0.697235107421875,0.8250732421875
1775714870684654300,2.591654296875,-0.11846923828125,-0.6697235107421875,0.812103271484375
1775714870694668300,2.601668212890625,-0.1016845703125,-0.6292877197265625,0.79217529296875
1775714870704682200,2.61168212890625,-0.0941314697265625,-0.6009674072265625,0.8020172119140625
1775714870714696200,2.6216962890625,-0.1065826416015625,-0.5783843994140625,0.8331298828125
1775714870724710100,2.631710205078125,-0.1221466064453125,-0.5622711181640625,0.862701416015625
1775714870734724400,2.641724365234375,-0.1287841796875,-0.5594635009765625,0.8793487548828125
1775714870744737000,2.651737060546875,-0.13134765625,-0.5551910400390625,0.888427734375
1775714870754751200,2.661751220703125,-0.1242523193359375,-0.563323974609375,0.8943023681640625
1775714870764765200,2.67176513671875,-0.104827880859375,-0.5613861083984375,0.892730712890625
1775714870774779400,2.681779296875,-0.0850830078125,-0.5658416748046875,0.89776611328125
1775714870784793300,2.69179345703125,-0.0655517578125,-0.573333740234375,0.902496337890625
1775714870794807300,2.701807373046875,-0.04376220703125,-0.571807861328125,0.905670166015625
1775714870804820200,2.7118203125,-0.0097198486328125,-0.5803070068359375,0.8986053466796875
1775714870814834400,2.72183447265625,0.0209503173828125,-0.575653076171875,0.8789520263671875
1775714870824848100,2.73184814453125,0.035552978515625,-0.5764617919921875,0.8648681640625
1775714870834862300,2.7418623046875,0.031036376953125,-0.573760986328125,0.86083984375
1775714870844876300,2.751876220703125,0.0118865966796875,-0.5788726806640625,0.864166259765625
1775714870854890200,2.76189013671875,-0.00689697265625,-0.572113037109375,0.8611602783203125
1775714870864903200,2.771903076171875,-0.02008056640625,-0.5753021240234375,0.8577117919921875
1775714870874917400,2.78191748046875,-0.027252197265625,-0.576263427734375,0.8521575927734375
1775714870884931300,2.791931396484375,-0.0294952392578125,-0.56854248046875,0.8377685546875
1775714870894945000,2.801945068359375,-0.020477294921875,-0.57379150390625,0.8146514892578125
1775714870904959200,2.811959228515625,-0.007232666015625,-0.5739593505859375,0.7890625
1775714870914972400,2.821972412109375,0.0098876953125,-0.5724334716796875,0.7751617431640625
1775714870924986400,2.831986328125,0.0247802734375,-0.581298828125,0.7653350830078125
1775714870935000000,2.842,0.0351715087890625,-0.58880615234375,0.7517547607421875
1775714870945014300,2.85201416015625,0.0414886474609375,-0.5931549072265625,0.739410400390625
1775714870955028200,2.8620283203125,0.0323638916015625,-0.59613037109375,0.7264404296875
1775714870965042400,2.87204248046875,0.030792236328125,-0.597930908203125,0.7180633544921875
1775714870975055000,2.88205517578125,0.034454345703125,-0.5962371826171875,0.715179443359375
1775714870985069300,2.8920693359375,0.0331268310546875,-0.5966644287109375,0.7275543212890625
1775714870995083300,2.902083251953125,0.0343780517578125,-0.5980682373046875,0.74456787109375
1775714871005097200,2.91209716796875,0.0340423583984375,-0.5949249267578125,0.7558441162109375
1775714871015111200,2.922111083984375,0.0326385498046875,-0.593353271484375,0.769561767578125
1775714871025125400,2.93212548828125,0.02886962890625,-0.6029052734375,0.782379150390625
1775714871035138300,2.94213818359375,0.02716064453125,-0.608612060546875,0.78973388671875
1775714871045152300,2.95215234375,0.0300140380859375,-0.6078033447265625,0.787628173828125
1775714871055166200,2.962166259765625,0.0399932861328125,-0.6064300537109375,0.788604736328125
1775714871065180400,2.972180419921875,0.048492431640625,-0.6102142333984375,0.7948455810546875
1775714871075194400,2.9821943359375,0.0581512451171875,-0.6166839599609375,0.808349609375
1775714871085208000,2.9922080078125,0.0544281005859375,-0.619171142578125,0.818450927734375
1775714871095221200,3.00222119140625,0.0540008544921875,-0.6214752197265625,0.82696533203125
1775714871105235500,3.0122353515625,0.0529632568359375,-0.6160430908203125,0.82586669921875
1775714871115249200,3.022249267578125,0.04840087890625,-0.6069793701171875,0.8186492919921875
1775714871125263000,3.03226318359375,0.042755126953125,-0.60345458984375,0.81231689453125
1775714871135277300,3.04227734375,0.0333709716796875,-0.602447509765625,0.80645751953125
1775714871145291300,3.052291259765625,0.0212860107421875,-0.5986328125,0.8009185791015625
1775714871155304200,3.06230419921875,0.012298583984375,-0.6032257080078125,0.7946929931640625
1775714871165318100,3.072318115234375,0.0048370361328125,-0.6053924560546875,0.7859039306640625
1775714871175332400,3.082332275390625,-0.0117034912109375,-0.6045074462890625,0.782196044921875
1775714871185346300,3.09234619140625,-0.0290679931640625,-0.6083221435546875,0.7767486572265625
1775714871195360300,3.1023603515625,-0.0429840087890625,-0.6085205078125,0.7687225341796875
1775714871205374200,3.112374267578125,-0.049774169921875,-0.6143646240234375,0.7708282470703125
1775714871215387400,3.122387451171875,-0.0425872802734375,-0.6206207275390625,0.7779998779296875
1775714871225402000,3.132402099609375,-0.04150390625,-0.6246490478515625,0.779754638671875
1775714871235415800,3.142415771484375,-0.0438385009765625,-0.6275634765625,0.7874298095703125
1775714871245430000,3.152429931640625,-0.0506591796875,-0.6307373046875,0.7888641357421875
1775714871255444000,3.16244384765625,-0.0575714111328125,-0.631683349609375,0.7805328369140625
1775714871265458200,3.172458251953125,-0.0598297119140625,-0.6332244873046875,0.7799530029296875
1775714871275470800,3.182470947265625,-0.0518798828125,-0.6341094970703125,0.77679443359375
1775714871285485000,3.192485107421875,-0.0419464111328125,-0.6369171142578125,0.778778076171875
1775714871295499000,3.2024990234375,-0.0338897705078125,-0.6408233642578125,0.78759765625
1775714871305513000,3.212512939453125,-0.0294952392578125,-0.6402587890625,0.7916107177734375
1775714871315527000,3.22252685546875,-0.018798828125,-0.640106201171875,0.7911376953125
1775714871325541000,3.232541015625,-0.00750732421875,-0.6339569091796875,0.779937744140625
1775714871335554000,3.242553955078125,-0.000244140625,-0.62652587890625,0.7681732177734375
1775714871345568000,3.252568115234375,-0.0065460205078125,-0.6243896484375,0.7728729248046875
1775714871355582000,3.26258203125,-0.0203399658203125,-0.62353515625,0.7835540771484375
1775714871365596200,3.27259619140625,-0.03216552734375,-0.62603759765625,0.7909088134765625
1775714871375610000,3.282610107421875,-0.032928466796875,-0.6244659423828125,0.7966766357421875
1775714871385623800,3.292623779296875,-0.02777099609375,-0.612884521484375,0.795654296875
1775714871395637000,3.302636962890625,-0.0186767578125,-0.60272216796875,0.791534423828125
1775714871405651200,3.312651123046875,-0.0097808837890625,-0.5963897705078125,0.789581298828125
1775714871415665000,3.322664794921875,-0.01190185546875,-0.5884246826171875,0.794677734375
1775714871425678800,3.332678955078125,-0.0166015625,-0.578125,0.7994842529296875
1775714871435693000,3.342693115234375,-0.016571044921875,-0.566253662109375,0.8054962158203125
1775714871445706200,3.352706298828125,-0.011444091796875,-0.5505523681640625,0.806182861328125
1775714871455720000,3.362719970703125,-0.0081939697265625,-0.5373992919921875,0.81121826171875
1775714871465734000,3.37273388671875,-0.0124053955078125,-0.531524658203125,0.817230224609375
1775714871475748000,3.382748046875,-0.028564453125,-0.5311126708984375,0.8250274658203125
1775714871485762000,3.392761962890625,-0.0394439697265625,-0.5395965576171875,0.839324951171875
1775714871495776000,3.40277587890625,-0.049468994140625,-0.5450286865234375,0.850128173828125
1775714871505789000,3.412788818359375,-0.0578155517578125,-0.54534912109375,0.8523101806640625
1775714871515803100,3.42280322265625,-0.060211181640625,-0.5533294677734375,0.850555419921875
1775714871525816800,3.43281689453125,-0.06256103515625,-0.552764892578125,0.832794189453125
1775714871535831000,3.4428310546875,-0.066802978515625,-0.5597991943359375,0.8148040771484375
1775714871545845000,3.452844970703125,-0.0661773681640625,-0.576934814453125,0.7974090576171875
1775714871555859200,3.462859130859375,-0.05426025390625,-0.5779571533203125,0.7848358154296875
1775714871565871900,3.472871826171875,-0.0436859130859375,-0.5689239501953125,0.773101806640625
1775714871575886000,3.482885986328125,-0.0440216064453125,-0.5583038330078125,0.7685699462890625
1775714871585900000,3.492900146484375,-0.0554962158203125,-0.5510101318359375,0.7725982666015625
1775714871595914200,3.502914306640625,-0.0663604736328125,-0.5390777587890625,0.77423095703125
1775714871605928000,3.512927978515625,-0.074310302734375,-0.520538330078125,0.76873779296875
1775714871615942000,3.52294189453125,-0.08587646484375,-0.506072998046875,0.7672119140625
1775714871625955000,3.532955078125,-0.0884246826171875,-0.4847564697265625,0.7661590576171875
1775714871635969000,3.542968994140625,-0.0819549560546875,-0.459228515625,0.7615509033203125
1775714871645983000,3.55298291015625,-0.0658416748046875,-0.426666259765625,0.754150390625
1775714871655997000,3.562996826171875,-0.0547943115234375,-0.3887176513671875,0.7448272705078125
1775714871666011100,3.57301123046875,-0.0458526611328125,-0.3466339111328125,0.7337493896484375
1775714871676024800,3.58302490234375,-0.02679443359375,-0.305999755859375,0.7161102294921875
1775714871686038000,3.5930380859375,0.0108184814453125,-0.2759246826171875,0.68597412109375
1775714871696052000,3.603052001953125,0.0232696533203125,-0.2431640625,0.6348724365234375
1775714871706066200,3.613066162109375,0.0162353515625,-0.2105255126953125,0.579376220703125
1775714871716079900,3.623079833984375,-0.000152587890625,-0.2007904052734375,0.532562255859375
1775714871726094000,3.633093994140625,-0.0186767578125,-0.192657470703125,0.4887847900390625
1775714871736108000,3.64310791015625,-0.02166748046875,-0.1880950927734375,0.4436492919921875
1775714871746121000,3.653120849609375,-0.011749267578125,-0.1868438720703125,0.397247314453125
1775714871756135000,3.663135009765625,-0.01324462890625,-0.1905517578125,0.34149169921875
1775714871766149000,3.673149169921875,-0.0215606689453125,-0.2146148681640625,0.2968597412109375
1775714871776163000,3.6831630859375,-0.0394134521484375,-0.253204345703125,0.2729339599609375
1775714871786177000,3.693177001953125,-0.05572509765625,-0.3071136474609375,0.269744873046875
1775714871796191000,3.70319091796875,-0.0444793701171875,-0.371551513671875,0.3011474609375
1775714871806204200,3.7132041015625,-0.0207061767578125,-0.4268035888671875,0.3526763916015625
1775714871816217900,3.7232177734375,-0.0107269287109375,-0.473541259765625,0.401123046875
1775714871826232000,3.733232177734375,-0.0181427001953125,-0.541717529296875,0.4577484130859375
1775714871836246000,3.74324609375,-0.0443878173828125,-0.6343536376953125,0.51702880859375
1775714871846260000,3.753260009765625,-0.0568695068359375,-0.7382354736328125,0.5557403564453125
1775714871856274200,3.763274169921875,-0.0345306396484375,-0.8275146484375,0.5514984130859375
1775714871866287000,3.773287109375,0.021942138671875,-0.8910064697265625,0.5028076171875
1775714871876301000,3.783301025390625,0.113525390625,-0.91357421875,0.4198150634765625
1775714871886315000,3.79331494140625,0.2237091064453125,-0.90277099609375,0.34979248046875
1775714871896329000,3.803328857421875,0.309417724609375,-0.8731689453125,0.3145294189453125
1775714871906343000,3.813343017578125,0.3625946044921875,-0.8390960693359375,0.331512451171875
1775714871916356000,3.823356201171875,0.3679046630859375,-0.824462890625,0.389007568359375
1775714871926369800,3.833369873046875,0.3313446044921875,-0.847900390625,0.4907989501953125
1775714871936384000,3.843384033203125,0.282928466796875,-0.858123779296875,0.5954742431640625
1775714871946398000,3.85339794921875,0.2655487060546875,-0.8472137451171875,0.6939544677734375
1775714871956412200,3.863412109375,0.267333984375,-0.8375701904296875,0.7835235595703125
1775714871966425900,3.87342578125,0.26678466796875,-0.8151092529296875,0.8334503173828125
1775714871976439000,3.88343896484375,0.2596435546875,-0.788848876953125,0.8504791259765625
1775714871986453000,3.893452880859375,0.22589111328125,-0.769683837890625,0.8404083251953125
1775714871996467200,3.90346728515625,0.1884918212890625,-0.7443695068359375,0.822418212890625
1775714872006481000,3.91348095703125,0.139739990234375,-0.7197265625,0.8034820556640625
1775714872016495000,3.9234951171875,0.0904998779296875,-0.6994476318359375,0.7900238037109375
1775714872026509000,3.933509033203125,0.04107666015625,-0.6884002685546875,0.786529541015625
1775714872036522000,3.94352197265625,0.0044403076171875,-0.693695068359375,0.7826385498046875
1775714872046536000,3.953535888671875,-0.0155029296875,-0.6996612548828125,0.7714691162109375
1775714872056550100,3.963550048828125,-0.0324554443359375,-0.708099365234375,0.7629852294921875
1775714872066564000,3.973564208984375,-0.018524169921875,-0.7262725830078125,0.7646026611328125
1775714872076577800,3.983577880859375,0.01568603515625,-0.7297515869140625,0.7458343505859375
1775714872086592000,3.993592041015625,0.055267333984375,-0.7298736572265625,0.718017578125
1775714872096605200,4.003605224609375,0.111968994140625,-0.73486328125,0.70947265625
1775714872106619100,4.013619140625,0.1366424560546875,-0.7426300048828125,0.70526123046875
1775714872116632800,4.0236328125,0.157196044921875,-0.7378997802734375,0.68902587890625
1775714872126647000,4.03364697265625,0.1803741455078125,-0.76348876953125,0.6945343017578125
1775714872136661000,4.043660888671875,0.208740234375,-0.811492919921875,0.7351531982421875
1775714872146675200,4.05367529296875,0.219512939453125,-0.837921142578125,0.783355712890625
1775714872156688000,4.06368798828125,0.218170166015625,-0.8851318359375,0.8333740234375
1775714872166702000,4.0737021484375,0.207000732421875,-0.9227752685546875,0.8462982177734375
1775714872176716000,4.083716064453125,0.1826934814453125,-0.9232635498046875,0.8256683349609375
1775714872186730000,4.09372998046875,0.162200927734375,-0.9205322265625,0.7831268310546875
1775714872196744000,4.103743896484375,0.1396484375,-0.9087982177734375,0.741943359375
1775714872206758100,4.113758056640625,0.120819091796875,-0.8882293701171875,0.717498779296875
1775714872216771000,4.12377099609375,0.09051513671875,-0.8852996826171875,0.711181640625
1775714872226785000,4.133784912109375,0.085540771484375,-0.862213134765625,0.7141265869140625
1775714872236799000,4.143799072265625,0.0844268798828125,-0.85968017578125,0.741180419921875
1775714872246813000,4.15381298828125,0.09869384765625,-0.8699798583984375,0.7853240966796875
1775714872256827000,4.163826904296875,0.124298095703125,-0.86724853515625,0.8178253173828125
1775714872266840800,4.1738408203125,0.12945556640625,-0.8639678955078125,0.8416900634765625
1775714872276854000,4.18385400390625,0.1093597412109375,-0.892822265625,0.8693389892578125
1775714872286868000,4.193867919921875,0.08514404296875,-0.8936767578125,0.8667449951171875
1775714872296882000,4.2038818359375,0.0389404296875,-0.91204833984375,0.8601226806640625
1775714872306896000,4.213895751953125,0.0050506591796875,-0.9496612548828125,0.8674468994140625
1775714872316910000,4.22391015625,-0.013458251953125,-0.9552764892578125,0.8722991943359375
1775714872326923000,4.233923095703125,-0.0012054443359375,-0.9761199951171875,0.8908538818359375
1775714872336937000,4.24393701171875,0.0375823974609375,-0.9553680419921875,0.8912506103515625
1775714872346951000,4.253950927734375,0.067352294921875,-0.8970947265625,0.869537353515625
1775714872356964900,4.26396484375,0.0908660888671875,-0.8733978271484375,0.87066650390625
1775714872366978800,4.273978759765625,0.0850067138671875,-0.8700408935546875,0.90380859375
1775714872376993000,4.283992919921875,0.04632568359375,-0.852691650390625,0.963165283203125
1775714872387006000,4.294005859375,0.01416015625,-0.8606109619140625,1.0438079833984375
1775714872397020000,4.30402001953125,-0.010955810546875,-0.8790740966796875,1.112396240234375
1775714872407033900,4.314033935546875,-0.022552490234375,-0.875579833984375,1.1606597900390625
1775714872417048000,4.324048095703125,-0.0511932373046875,-0.8944091796875,1.19384765625
1775714872427062000,4.33406201171875,-0.069061279296875,-0.918701171875,1.2161102294921875
1775714872437076000,4.344075927734375,-0.0943450927734375,-0.9514923095703125,1.2036895751953125
1775714872447089000,4.3540888671875,-0.1183624267578125,-1.0022735595703125,1.16839599609375
1775714872457103000,4.36410302734375,-0.124664306640625,-1.035491943359375,1.1095123291015625
1775714872467116800,4.37411669921875,-0.11383056640625,-1.06085205078125,1.0376739501953125
1775714872477131000,4.384131103515625,-0.0661468505859375,-1.0980987548828125,0.96893310546875
1775714872487145000,4.39414501953125,-0.03228759765625,-1.1230621337890625,0.8990478515625
1775714872497159000,4.404158935546875,-0.022186279296875,-1.1280364990234375,0.8272247314453125
1775714872507171800,4.414171875,-0.0235137939453125,-1.1278076171875,0.7716064453125
1775714872517186000,4.42418603515625,-0.05194091796875,-1.1311798095703125,0.7272491455078125
1775714872527200000,4.434199951171875,-0.0806121826171875,-1.1394195556640625,0.714447021484375
1775714872537214000,4.4442138671875,-0.104736328125,-1.1380157470703125,0.72607421875
1775714872547228000,4.454227783203125,-0.103271484375,-1.127960205078125,0.7488861083984375
1775714872557241900,4.464241943359375,-0.085418701171875,-1.1211090087890625,0.7701416015625
1775714872567255000,4.474255126953125,-0.0709381103515625,-1.10498046875,0.7747039794921875
1775714872577268700,4.484268798828125,-0.04852294921875,-1.0775604248046875,0.7833099365234375
1775714872587283000,4.494282958984375,-0.0279693603515625,-1.036376953125,0.7962493896484375
1775714872597297000,4.504296875,-0.01568603515625,-0.99261474609375,0.8024444580078125
1775714872607311000,4.51431103515625,-0.0096893310546875,-0.9549407958984375,0.7933502197265625
1775714872617324800,4.52432470703125,0.0041351318359375,-0.93280029296875,0.7869720458984375
1775714872627338000,4.534337890625,0.02099609375,-0.90765380859375,0.7889251708984375
1775714872637352000,4.54435205078125,0.03399658203125,-0.8638916015625,0.781524658203125
1775714872647366100,4.5543662109375,0.0698089599609375,-0.8331298828125,0.792022705078125
1775714872657379800,4.5643798828125,0.1128387451171875,-0.807769775390625,0.82122802734375
1775714872667394000,4.57439404296875,0.1422271728515625,-0.7875518798828125,0.86614990234375
1775714872677407000,4.584406982421875,0.13299560546875,-0.7763214111328125,0.873016357421875
1775714872687421000,4.5944208984375,0.1260986328125,-0.788299560546875,0.8640899658203125
1775714872697435000,4.604434814453125,0.1249237060546875,-0.82275390625,0.8533782958984375
1775714872707448800,4.61444873046875,0.1392059326171875,-0.818389892578125,0.823822021484375
1775714872717463000,4.624463134765625,0.16632080078125,-0.8040008544921875,0.7926025390625
1775714872727476700,4.634476806640625,0.1885833740234375,-0.80108642578125,0.75982666015625
1775714872737490000,4.644489990234375,0.18524169921875,-0.79022216796875,0.7111358642578125
1775714872747503900,4.65450390625,0.195831298828125,-0.8016357421875,0.6823577880859375
1775714872757517800,4.664517822265625,0.218597412109375,-0.7817535400390625,0.6452484130859375
1775714872767531800,4.67453173828125,0.224151611328125,-0.7506866455078125,0.598846435546875
1775714872777546000,4.6845458984375,0.2107696533203125,-0.7540435791015625,0.583526611328125
1775714872787560000,4.694559814453125,0.16534423828125,-0.7420806884765625,0.5714874267578125
1775714872797572900,4.70457275390625,0.12298583984375,-0.7276763916015625,0.5683746337890625
1775714872807586800,4.7145869140625,0.0795440673828125,-0.7098388671875,0.5691070556640625
1775714872817601000,4.72460107421875,0.049835205078125,-0.7041015625,0.5891571044921875
1775714872827615000,4.734614990234375,0.032806396484375,-0.6965179443359375,0.6261444091796875
1775714872837629000,4.74462890625,0.0177764892578125,-0.68719482421875,0.6692352294921875
1775714872847643000,4.754642822265625,-0.0098114013671875,-0.6807708740234375,0.6753692626953125
1775714872857656000,4.764656005859375,-0.0353546142578125,-0.649322509765625,0.6421966552734375
1775714872867669800,4.774669677734375,-0.0339202880859375,-0.6394195556640625,0.61920166015625
1775714872877684000,4.78468408203125,-0.0272216796875,-0.626312255859375,0.6100006103515625
1775714872887698000,4.794697998046875,-0.034454345703125,-0.6003570556640625,0.5997772216796875
1775714872897711900,4.8047119140625,-0.0530242919921875,-0.592254638671875,0.593994140625
1775714872907725800,4.814725830078125,-0.0635986328125,-0.608367919921875,0.5954742431640625
1775714872917739000,4.824739013671875,-0.0750579833984375,-0.6157073974609375,0.59539794921875
1775714872927753000,4.8347529296875,-0.0770111083984375,-0.63519287109375,0.6064605712890625
1775714872937767000,4.844766845703125,-0.0689849853515625,-0.660552978515625,0.62554931640625
1775714872947780900,4.85478076171875,-0.050048828125,-0.6496429443359375,0.6165008544921875
1775714872957794800,4.864794921875,-0.03594970703125,-0.641448974609375,0.6064300537109375
1775714872967809000,4.87480908203125,-0.0296783447265625,-0.6398468017578125,0.597900390625
1775714872977822000,4.884822021484375,-0.0177154541015625,-0.621337890625,0.5844573974609375
1775714872987836000,4.8948359375,-0.0001678466796875,-0.5804901123046875,0.555511474609375
1775714872997849900,4.904849853515625,0.00146484375,-0.54486083984375,0.5309600830078125
1775714873007864000,4.914864013671875,-0.00189208984375,-0.54022216796875,0.5341339111328125
1775714873017877800,4.924877685546875,-0.00018310546875,-0.5449981689453125,0.5601806640625
1775714873027891000,4.934890869140625,0.019195556640625,-0.534027099609375,0.597503662109375
1775714873037905000,4.94490478515625,0.042510986328125,-0.531768798828125,0.6385498046875
1775714873047919000,4.954919189453125,0.0725555419921875,-0.517852783203125,0.66839599609375
1775714873057932800,4.964932861328125,0.0900421142578125,-0.5126495361328125,0.70208740234375
1775714873067947000,4.974947021484375,0.0943756103515625,-0.495391845703125,0.71649169921875
1775714873077961000,4.9849609375,0.078887939453125,-0.480072021484375,0.7037811279296875
1775714873087974000,4.994973876953125,0.0277252197265625,-0.4899139404296875,0.6863555908203125
1775714873097987800,5.00498779296875,-0.0493927001953125,-0.49310302734375,0.646881103515625
1775714873108002000,5.015001953125,-0.1131134033203125,-0.5060272216796875,0.610595703125
1775714873118016000,5.02501611328125,-0.1419525146484375,-0.5333709716796875,0.585418701171875
1775714873128029700,5.03502978515625,-0.1327362060546875,-0.5553131103515625,0.5618438720703125
1775714873138044000,5.0450439453125,-0.1127777099609375,-0.5807037353515625,0.5428009033203125
1775714873148057000,5.05505712890625,-0.1010589599609375,-0.609375,0.5213623046875
1775714873158071000,5.065071044921875,-0.08880615234375,-0.633880615234375,0.4984893798828125
1775714873168084700,5.075084716796875,-0.0770111083984375,-0.6494598388671875,0.4751129150390625
1775714873178099000,5.085098876953125,-0.0736846923828125,-0.6571197509765625,0.4653167724609375
1775714873188113000,5.09511279296875,-0.0767364501953125,-0.660125732421875,0.46209716796875
1775714873198127000,5.105127197265625,-0.072052001953125,-0.653167724609375,0.46734619140625
1775714873208139800,5.115139892578125,-0.0805206298828125,-0.6351165771484375,0.4755706787109375
1775714873218154000,5.125154052734375,-0.088470458984375,-0.6271514892578125,0.5023651123046875
1775714873228167400,5.13516748046875,-0.0961456298828125,-0.6334075927734375,0.5498809814453125
1775714873238181400,5.145181396484375,-0.09747314453125,-0.6425018310546875,0.602630615234375
1775714873248195300,5.1551953125,-0.0737762451171875,-0.636962890625,0.637451171875
1775714873258209500,5.16520947265625,-0.04901123046875,-0.623077392578125,0.6540069580078125
1775714873268222200,5.17522216796875,-0.0328521728515625,-0.618988037109375,0.6633453369140625
1775714873278236400,5.185236328125,-0.0408172607421875,-0.624908447265625,0.656158447265625
1775714873288250400,5.19525048828125,-0.039764404296875,-0.6357574462890625,0.6493072509765625
1775714873298264600,5.2052646484375,-0.0157928466796875,-0.63543701171875,0.6334075927734375
1775714873308278300,5.2152783203125,0.00762939453125,-0.6072998046875,0.6087493896484375
1775714873318292500,5.22529248046875,0.006195068359375,-0.578887939453125,0.590301513671875
1775714873328305400,5.235305419921875,-0.0178070068359375,-0.5743865966796875,0.5737457275390625
1775714873338319600,5.245319580078125,-0.04095458984375,-0.569580078125,0.5466461181640625
1775714873348333300,5.255333251953125,-0.0576324462890625,-0.545562744140625,0.51715087890625
1775714873358347500,5.265347412109375,-0.0626220703125,-0.5406646728515625,0.5046844482421875
1775714873368361500,5.275361572265625,-0.0678863525390625,-0.52734375,0.4949188232421875
1775714873378374400,5.28537451171875,-0.0791473388671875,-0.50262451171875,0.4905548095703125
1775714873388388400,5.295388427734375,-0.096893310546875,-0.505767822265625,0.50775146484375
1775714873398402600,5.305402587890625,-0.1126251220703125,-0.536041259765625,0.542022705078125
1775714873408416500,5.31541650390625,-0.1158905029296875,-0.57537841796875,0.585693359375
1775714873418430200,5.32543017578125,-0.1027984619140625,-0.6219940185546875,0.6286468505859375
1775714873428444400,5.3354443359375,-0.0819854736328125,-0.6486053466796875,0.655792236328125
1775714873438457600,5.34545751953125,-0.0750885009765625,-0.6755218505859375,0.6737060546875
1775714873448471600,5.355471435546875,-0.0831756591796875,-0.711090087890625,0.703338623046875
1775714873458485200,5.3654853515625,-0.084686279296875,-0.740570068359375,0.7348175048828125
1775714873468499500,5.37549951171875,-0.09332275390625,-0.785552978515625,0.778778076171875
1775714873478513400,5.385513427734375,-0.1287689208984375,-0.82684326171875,0.8167572021484375
1775714873488527600,5.395527587890625,-0.1744384765625,-0.8608856201171875,0.82562255859375
1775714873498540300,5.405540283203125,-0.2111358642578125,-0.8748016357421875,0.7975921630859375
1775714873508554500,5.415554443359375,-0.2424774169921875,-0.85430908203125,0.7296295166015625
1775714873518568400,5.425568359375,-0.26055908203125,-0.8341522216796875,0.6725921630859375
1775714873528582400,5.43558251953125,-0.2638092041015625,-0.8139495849609375,0.636627197265625
1775714873538596400,5.445596435546875,-0.2574920654296875,-0.77850341796875,0.6143646240234375
1775714873548610600,5.455610595703125,-0.250457763671875,-0.74237060546875,0.61492919921875
1775714873558623200,5.465623291015625,-0.2441253662109375,-0.7188262939453125,0.6265106201171875
1775714873568637400,5.475637451171875,-0.240966796875,-0.6979522705078125,0.651153564453125
1775714873578651400,5.4856513671875,-0.2303619384765625,-0.67938232421875,0.694091796875
1775714873588665600,5.49566552734375,-0.2082061767578125,-0.6662750244140625,0.747100830078125
1775714873598679600,5.505679443359375,-0.19415283203125,-0.6638031005859375,0.800872802734375
1775714873608693200,5.515693359375,-0.1878509521484375,-0.6527099609375,0.821746826171875
1775714873618706400,5.52570654296875,-0.1817626953125,-0.642608642578125,0.8184814453125
1775714873628720600,5.535720703125,-0.1610870361328125,-0.647796630859375,0.7974395751953125
1775714873638734300,5.545734375,-0.13525390625,-0.6558380126953125,0.766876220703125
1775714873648748300,5.555748291015625,-0.1187744140625,-0.6630859375,0.7372589111328125
1775714873658762500,5.565762451171875,-0.1121673583984375,-0.667236328125,0.710205078125
1775714873668775400,5.575775390625,-0.1140289306640625,-0.6724853515625,0.687835693359375
1775714873678789400,5.585789306640625,-0.10498046875,-0.6872406005859375,0.6771087646484375
1775714873688803300,5.59580322265625,-0.08489990234375,-0.7000579833984375,0.6699676513671875
1775714873698817500,5.605817626953125,-0.0597991943359375,-0.7089691162109375,0.665069580078125
1775714873708831500,5.61583154296875,-0.0430755615234375,-0.712127685546875,0.6643218994140625
1775714873718845400,5.625845458984375,-0.036285400390625,-0.7126007080078125,0.66900634765625
1775714873728858400,5.6358583984375,-0.0453033447265625,-0.711517333984375,0.6776275634765625
1775714873738872600,5.64587255859375,-0.05902099609375,-0.7159423828125,0.676116943359375
1775714873748886300,5.65588623046875,-0.05712890625,-0.7226409912109375,0.666168212890625
1775714873758900500,5.665900390625,-0.0405426025390625,-0.71563720703125,0.6504974365234375
1775714873768914400,5.67591455078125,-0.031829833984375,-0.7003936767578125,0.6347198486328125
1775714873778928600,5.6859287109375,-0.03204345703125,-0.6951446533203125,0.629608154296875
1775714873788941300,5.69594140625,-0.034332275390625,-0.6888580322265625,0.636138916015625
1775714873798955500,5.70595556640625,-0.040496826171875,-0.6815338134765625,0.6468048095703125
1775714873808969500,5.715969482421875,-0.0448150634765625,-0.69146728515625,0.6640777587890625
1775714873818983400,5.7259833984375,-0.0512237548828125,-0.69268798828125,0.6806640625
1775714873828997400,5.735997314453125,-0.0664215087890625,-0.693817138671875,0.6999664306640625
1775714873839011300,5.74601123046875,-0.088409423828125,-0.701873779296875,0.7250518798828125
1775714873849024500,5.7560244140625,-0.1137542724609375,-0.710479736328125,0.7491302490234375
1775714873859038500,5.76603857421875,-0.1272430419921875,-0.7158355712890625,0.7498321533203125
1775714873869052400,5.776052490234375,-0.13092041015625,-0.7200164794921875,0.733978271484375
1775714873879066400,5.78606640625,-0.1207733154296875,-0.71929931640625,0.7108917236328125
1775714873889080600,5.79608056640625,-0.1025543212890625,-0.7256317138671875,0.6905670166015625
1775714873899093500,5.806093505859375,-0.099395751953125,-0.7295989990234375,0.6887969970703125
1775714873909107500,5.816107421875,-0.1056365966796875,-0.737518310546875,0.6847991943359375
1775714873919121400,5.826121337890625,-0.1049652099609375,-0.746917724609375,0.6804351806640625
1775714873929135400,5.83613525390625,-0.0933380126953125,-0.752197265625,0.67950439453125
1775714873939149300,5.8461494140625,-0.072052001953125,-0.751617431640625,0.6789398193359375
1775714873949163500,5.85616357421875,-0.0538787841796875,-0.7568817138671875,0.68341064453125
1775714873959176400,5.866176513671875,-0.052093505859375,-0.7603607177734375,0.687225341796875
1775714873969190400,5.8761904296875,-0.0545501708984375,-0.7606964111328125,0.690277099609375
1775714873979204400,5.886204345703125,-0.0582122802734375,-0.752532958984375,0.687408447265625
1775714873989218600,5.896218505859375,-0.063568115234375,-0.7445220947265625,0.67852783203125
1775714873999232500,5.906232421875,-0.0706329345703125,-0.7374725341796875,0.6667938232421875
1775714874009246500,5.91624658203125,-0.07147216796875,-0.7307586669921875,0.657196044921875
1775714874019259400,5.92625927734375,-0.067718505859375,-0.7267608642578125,0.6534423828125
1775714874029273600,5.936273681640625,-0.060272216796875,-0.7242431640625,0.6661834716796875
1775714874039287300,5.946287353515625,-0.059906005859375,-0.729278564453125,0.6812591552734375
1775714874049301500,5.956301513671875,-0.059722900390625,-0.7309112548828125,0.692962646484375
1775714874059315500,5.9663154296875,-0.0568695068359375,-0.7335205078125,0.69854736328125
1775714874069329400,5.976329345703125,-0.05596923828125,-0.7339019775390625,0.6962738037109375
1775714874079342300,5.98634228515625,-0.0507659912109375,-0.725677490234375,0.6958160400390625
1775714874089356500,5.9963564453125,-0.0509796142578125,-0.718109130859375,0.6915130615234375
1775714874099370500,6.00637060546875,-0.05950927734375,-0.713623046875,0.6891632080078125
1775714874109384400,6.016384521484375,-0.070526123046875,-0.7079620361328125,0.689239501953125
1775714874119398400,6.0263984375,-0.0792999267578125,-0.7021636962890625,0.68048095703125
1775714874129412400,6.036412353515625,-0.08880615234375,-0.6930694580078125,0.66619873046875
1775714874139425500,6.046425537109375,-0.0919036865234375,-0.6869354248046875,0.6606597900390625
1775714874149439200,6.056439208984375,-0.087310791015625,-0.6884002685546875,0.6644134521484375
1775714874159453400,6.066453369140625,-0.081268310546875,-0.6917877197265625,0.6688385009765625
1775714874169467400,6.07646728515625,-0.0825653076171875,-0.6957244873046875,0.6755828857421875
1775714874179481600,6.086481689453125,-0.0959014892578125,-0.7039031982421875,0.6897125244140625
1775714874189494300,6.096494384765625,-0.1070709228515625,-0.710235595703125,0.6942901611328125
1775714874199508500,6.106508544921875,-0.1088104248046875,-0.7152099609375,0.6964263916015625
1775714874209522400,6.1165224609375,-0.09747314453125,-0.7210693359375,0.6949615478515625
1775714874219536600,6.12653662109375,-0.082275390625,-0.7151641845703125,0.6876220703125
1775714874229550300,6.13655029296875,-0.07244873046875,-0.7118988037109375,0.685821533203125
1775714874239564300,6.146564208984375,-0.0733795166015625,-0.714813232421875,0.6930999755859375
1775714874249577200,6.1565771484375,-0.095428466796875,-0.716888427734375,0.696563720703125
1775714874259591400,6.16659130859375,-0.1220550537109375,-0.718963623046875,0.6958465576171875
1775714874269605000,6.176605224609375,-0.136993408203125,-0.719085693359375,0.6916046142578125
1775714874279619300,6.186619384765625,-0.133270263671875,-0.714080810546875,0.6837158203125
1775714874289633300,6.19663330078125,-0.1223602294921875,-0.7168426513671875,0.6868896484375
1775714874299647200,6.206647216796875,-0.10760498046875,-0.7216339111328125,0.7010955810546875
1775714874309660200,6.21666015625,-0.0965118408203125,-0.73040771484375,0.713043212890625
1775714874319674400,6.22667431640625,-0.078338623046875,-0.7320556640625,0.7067718505859375
1775714874329688300,6.236688232421875,-0.0626068115234375,-0.7314300537109375,0.6926116943359375
1775714874339702300,6.246702392578125,-0.0497283935546875,-0.7389984130859375,0.68743896484375
1775714874349716200,6.25671630859375,-0.04266357421875,-0.745086669921875,0.6806793212890625
1775714874359730200,6.266730224609375,-0.0381317138671875,-0.7476348876953125,0.6722412109375
1775714874369743400,6.276743408203125,-0.0361785888671875,-0.7544097900390625,0.6766510009765625
1775714874379757000,6.286757080078125,-0.0308074951171875,-0.7598724365234375,0.677154541015625
1775714874389771300,6.296771240234375,-0.023284912109375,-0.76080322265625,0.6745147705078125
1775714874399785200,6.30678515625,-0.029296875,-0.7628631591796875,0.67706298828125
1775714874409799400,6.31679931640625,-0.0396728515625,-0.7637176513671875,0.6742401123046875
1775714874419812000,6.32681201171875,-0.0582427978515625,-0.7599945068359375,0.660614013671875
1775714874429826300,6.336826416015625,-0.0746307373046875,-0.749755859375,0.649017333984375
1775714874439840300,6.34684033203125,-0.0883331298828125,-0.739776611328125,0.64349365234375
1775714874449854500,6.3568544921875,-0.1068572998046875,-0.7279815673828125,0.6394500732421875
1775714874459868200,6.3668681640625,-0.116302490234375,-0.715301513671875,0.639251708984375
1775714874469882400,6.37688232421875,-0.1252288818359375,-0.7165069580078125,0.64190673828125
1775714874479895300,6.386895263671875,-0.1215057373046875,-0.7190399169921875,0.6525421142578125
1775714874489909200,6.3969091796875,-0.1056060791015625,-0.7195281982421875,0.6645355224609375
1775714874499923200,6.406923095703125,-0.0830841064453125,-0.7163848876953125,0.672149658203125
1775714874509937400,6.4169375,-0.0660247802734375,-0.71917724609375,0.68438720703125
1775714874519951400,6.426951416015625,-0.05712890625,-0.7172088623046875,0.703521728515625
1775714874529965000,6.436965087890625,-0.059051513671875,-0.72015380859375,0.719085693359375
1775714874539978200,6.446978271484375,-0.0569000244140625,-0.7174530029296875,0.720367431640625
1775714874549992400,6.456992431640625,-0.0606689453125,-0.710540771484375,0.70758056640625
1775714874560006400,6.46700634765625,-0.0689544677734375,-0.7131805419921875,0.693878173828125
1775714874570020000,6.47702001953125,-0.0761566162109375,-0.720458984375,0.6923065185546875
1775714874580034300,6.487034423828125,-0.0755767822265625,-0.72784423828125,0.700469970703125
1775714874590048300,6.49704833984375,-0.059783935546875,-0.7342529296875,0.7108612060546875
1775714874600061200,6.507061279296875,-0.037811279296875,-0.7447967529296875,0.7300262451171875
1775714874610075100,6.5170751953125,-0.022369384765625,-0.749908447265625,0.742889404296875
1775714874620089300,6.52708935546875,-0.0282745361328125,-0.7461395263671875,0.7433624267578125
1775714874630103300,6.537103271484375,-0.0426788330078125,-0.746612548828125,0.7448883056640625
1775714874640117200,6.5471171875,-0.0598602294921875,-0.7484283447265625,0.75457763671875
1775714874650130200,6.557130126953125,-0.086761474609375,-0.7375640869140625,0.76861572265625
1775714874660144400,6.567144287109375,-0.1143951416015625,-0.7209625244140625,0.7809600830078125
1775714874670158000,6.577157958984375,-0.1355743408203125,-0.706207275390625,0.780426025390625
1775714874680172300,6.58717236328125,-0.1441192626953125,-0.6936187744140625,0.79046630859375
1775714874690186200,6.597186279296875,-0.14398193359375,-0.6785430908203125,0.8096923828125
1775714874700200200,6.6072001953125,-0.1327667236328125,-0.675506591796875,0.8335723876953125
1775714874710213000,6.617213134765625,-0.10162353515625,-0.682830810546875,0.86669921875
1775714874720227300,6.627227294921875,-0.0611114501953125,-0.68670654296875,0.91162109375
1775714874730241300,6.6372412109375,-0.032012939453125,-0.6878509521484375,0.9525604248046875
1775714874740255200,6.647255126953125,-0.022552490234375,-0.6907806396484375,0.965362548828125
1775714874750269200,6.657269287109375,-0.0143280029296875,-0.684814453125,0.959625244140625
1775714874760283100,6.667283203125,-0.0139007568359375,-0.66845703125,0.9420318603515625
1775714874770296300,6.67729638671875,-0.01812744140625,-0.650543212890625,0.91192626953125
1775714874780310300,6.687310302734375,-0.0348663330078125,-0.6307525634765625,0.8714752197265625
1775714874790324200,6.69732421875,-0.0532073974609375,-0.594451904296875,0.80914306640625
1775714874800338200,6.707338134765625,-0.074066162109375,-0.5666961669921875,0.7316131591796875
1775714874810352400,6.717352294921875,-0.0941162109375,-0.5534515380859375,0.6623687744140625
1775714874820366000,6.727365966796875,-0.109405517578125,-0.534149169921875,0.6060638427734375
1775714874830379300,6.737379150390625,-0.1268310546875,-0.528717041015625,0.5712127685546875
1775714874840393200,6.747393310546875,-0.136016845703125,-0.5247650146484375,0.541107177734375
1775714874850407400,6.757407470703125,-0.139068603515625,-0.50958251953125,0.50128173828125
1775714874860421000,6.767421142578125,-0.1320648193359375,-0.4975738525390625,0.4805755615234375
1775714874870435300,6.777435302734375,-0.119354248046875,-0.482513427734375,0.475311279296875
1775714874880448300,6.7874482421875,-0.1134490966796875,-0.4812469482421875,0.478363037109375
1775714874890462200,6.797462158203125,-0.1189727783203125,-0.4909210205078125,0.47991943359375
1775714874900476200,6.80747607421875,-0.11566162109375,-0.494171142578125,0.47802734375
1775714874910490400,6.817490478515625,-0.095367431640625,-0.4979705810546875,0.472259521484375
1775714874920504300,6.82750439453125,-0.0708160400390625,-0.4922637939453125,0.4564666748046875
1775714874930518300,6.837518310546875,-0.052337646484375,-0.4918212890625,0.4253997802734375
1775714874940531200,6.84753125,-0.03106689453125,-0.4971771240234375,0.3838348388671875
1775714874950545400,6.85754541015625,-0.0132293701171875,-0.50958251953125,0.3766632080078125
1775714874960559400,6.867559326171875,-0.000823974609375,-0.5312652587890625,0.382354736328125
1775714874970573300,6.8775732421875,0.0066986083984375,-0.56024169921875,0.381134033203125
1775714874980587300,6.887587158203125,-0.002288818359375,-0.5897674560546875,0.3856964111328125
1775714874990601200,6.897601318359375,-0.0139312744140625,-0.6097869873046875,0.386322021484375
1775714875000614100,6.9076142578125,-0.02960205078125,-0.6237640380859375,0.391448974609375
1775714875010628000,6.917628173828125,-0.0272674560546875,-0.64459228515625,0.3997039794921875
1775714875020642300,6.927642333984375,0.0028533935546875,-0.6468048095703125,0.3845977783203125
1775714875030656300,6.93765625,0.032440185546875,-0.628143310546875,0.365203857421875
1775714875040670200,6.947670166015625,0.0529937744140625,-0.616851806640625,0.3626556396484375
1775714875050683100,6.95768310546875,0.0699615478515625,-0.6096343994140625,0.3549652099609375
1775714875060697300,6.967697265625,0.1054229736328125,-0.607086181640625,0.3479461669921875
1775714875070711300,6.977711181640625,0.14764404296875,-0.6059722900390625,0.384368896484375
1775714875080725200,6.987725341796875,0.1685333251953125,-0.5977935791015625,0.4523162841796875
1775714875090739200,6.9977392578125,0.17498779296875,-0.58966064453125,0.5090484619140625
1775714875100753400,7.00775341796875,0.1743316650390625,-0.589691162109375,0.5695953369140625
1775714875110766000,7.01776611328125,0.183441162109375,-0.5855865478515625,0.6381378173828125
1775714875120780300,7.0277802734375,0.1994171142578125,-0.5917816162109375,0.69140625
1775714875130794200,7.037794189453125,0.2226104736328125,-0.6280975341796875,0.73150634765625
1775714875140808400,7.047808349609375,0.232421875,-0.63690185546875,0.72442626953125
1775714875150822100,7.057822265625,0.2380523681640625,-0.623504638671875,0.695465087890625
1775714875160836000,7.067836181640625,0.2464447021484375,-0.6018218994140625,0.6619873046875
1775714875170849300,7.077849365234375,0.235687255859375,-0.563079833984375,0.62158203125
1775714875180863500,7.087863525390625,0.20111083984375,-0.54742431640625,0.618804931640625
1775714875190877200,7.097877197265625,0.163970947265625,-0.5442047119140625,0.659759521484375
1775714875200891100,7.10789111328125,0.13446044921875,-0.5590972900390625,0.72882080078125
1775714875210905300,7.1179052734375,0.108917236328125,-0.578094482421875,0.797637939453125
1775714875220918300,7.127918212890625,0.09503173828125,-0.588470458984375,0.843780517578125
1775714875230932000,7.137931884765625,0.101318359375,-0.5936279296875,0.8657684326171875
1775714875240946000,7.14794580078125,0.1173095703125,-0.5734710693359375,0.8495330810546875
1775714875250960000,7.1579599609375,0.114654541015625,-0.570556640625,0.83056640625
1775714875260973800,7.167973876953125,0.11065673828125,-0.578125,0.8182525634765625
1775714875270988000,7.177988037109375,0.119049072265625,-0.571929931640625,0.8049774169921875
1775714875281001000,7.1880009765625,0.12884521484375,-0.5784149169921875,0.8047332763671875
1775714875291015000,7.198014892578125,0.142181396484375,-0.5840911865234375,0.811279296875
1775714875301028900,7.20802880859375,0.1570281982421875,-0.60040283203125,0.8294677734375
1775714875311043000,7.21804296875,0.18804931640625,-0.6210784912109375,0.8606109619140625
1775714875321056800,7.228056884765625,0.2227935791015625,-0.63311767578125,0.8780670166015625
1775714875331071000,7.238071044921875,0.247711181640625,-0.642913818359375,0.8782958984375
1775714875341084000,7.248083984375,0.239227294921875,-0.6484832763671875,0.855377197265625
1775714875351097900,7.258097900390625,0.224822998046875,-0.6453094482421875,0.8265838623046875
1775714875361111800,7.26811181640625,0.20611572265625,-0.6535491943359375,0.8003387451171875
1775714875371126000,7.2781259765625,0.217620849609375,-0.6558685302734375,0.7741241455078125
1775714875381140000,7.288139892578125,0.2160491943359375,-0.65045166015625,0.764556884765625
1775714875391153000,7.29815283203125,0.1848907470703125,-0.6531219482421875,0.7711029052734375
1775714875401166800,7.308166748046875,0.147064208984375,-0.6636199951171875,0.7646026611328125
1775714875411181000,7.31818115234375,0.1161956787109375,-0.6809539794921875,0.7525787353515625
1775714875421195000,7.328195068359375,0.1102142333984375,-0.689727783203125,0.750732421875
1775714875431209000,7.338208984375,0.11065673828125,-0.6986236572265625,0.745086669921875
1775714875441223000,7.348222900390625,0.1122589111328125,-0.724761962890625,0.752593994140625
1775714875451236000,7.358236083984375,0.10565185546875,-0.7633209228515625,0.7570953369140625
1775714875461249800,7.368249755859375,0.0783843994140625,-0.802764892578125,0.7535247802734375
1775714875471264000,7.378263916015625,0.0933990478515625,-0.8155517578125,0.727996826171875
1775714875481278000,7.38827783203125,0.1157989501953125,-0.810272216796875,0.7053375244140625
1775714875491292000,7.3982919921875,0.1326904296875,-0.7866363525390625,0.6827850341796875
1775714875501305900,7.408305908203125,0.12994384765625,-0.7545013427734375,0.656707763671875
1775714875511319000,7.418319091796875,0.0891265869140625,-0.7202301025390625,0.660675048828125
1775714875521333000,7.4283330078125,0.0426177978515625,-0.69073486328125,0.68231201171875
1775714875531347000,7.438346923828125,0.0010833740234375,-0.6682891845703125,0.7135162353515625
1775714875541361000,7.44836083984375,-0.0015869140625,-0.6717681884765625,0.7451019287109375
1775714875551374800,7.458374755859375,0.011505126953125,-0.687744140625,0.7848968505859375
1775714875561388000,7.468387939453125,0.0525970458984375,-0.708099365234375,0.8582305908203125
1775714875571401700,7.478401611328125,0.0951080322265625,-0.7223968505859375,0.9181365966796875
1775714875581416000,7.488416015625,0.1326751708984375,-0.743865966796875,0.96185302734375
1775714875591430000,7.498429931640625,0.1554718017578125,-0.7761077880859375,0.986541748046875
1775714875601444000,7.508444091796875,0.196990966796875,-0.780853271484375,0.974761962890625
1775714875611457800,7.518457763671875,0.2100982666015625,-0.77020263671875,0.944671630859375
1775714875621471000,7.528470947265625,0.2236328125,-0.78497314453125,0.9239044189453125
1775714875631485000,7.53848486328125,0.2171783447265625,-0.798797607421875,0.8990325927734375
1775714875641499100,7.5484990234375,0.19671630859375,-0.80462646484375,0.8940582275390625
1775714875651512800,7.558512939453125,0.1903533935546875,-0.8017730712890625,0.8873748779296875
1775714875661527000,7.568527099609375,0.19403076171875,-0.7872772216796875,0.880218505859375
1775714875671540000,7.5785400390625,0.2003173828125,-0.7747039794921875,0.8927459716796875
1775714875681554000,7.588553955078125,0.190093994140625,-0.777008056640625,0.9218292236328125
1775714875691567900,7.59856787109375,0.167572021484375,-0.809814453125,0.971405029296875
1775714875701582000,7.60858203125,0.1613616943359375,-0.8223876953125,0.9886932373046875
1775714875711596000,7.618595947265625,0.1533050537109375,-0.836822509765625,0.989898681640625
1775714875721609700,7.628609619140625,0.158416748046875,-0.8669891357421875,1.008636474609375
1775714875731623000,7.638622802734375,0.1690673828125,-0.8914031982421875,1.0137481689453125
1775714875741636900,7.648636962890625,0.152374267578125,-0.9106597900390625,0.992584228515625
1775714875751651000,7.658651123046875,0.1132659912109375,-0.9510955810546875,0.97265625
1775714875761664800,7.668664794921875,0.1092529296875,-0.9869232177734375,0.947174072265625
1775714875771679000,7.678678955078125,0.1242523193359375,-1.0021514892578125,0.92352294921875
1775714875781693000,7.68869287109375,0.1195068359375,-1.0387420654296875,0.9352264404296875
1775714875791705900,7.698705810546875,0.1133575439453125,-1.09130859375,0.9576263427734375
1775714875801719800,7.7087197265625,0.118194580078125,-1.1339569091796875,0.9598236083984375
1775714875811734000,7.718734130859375,0.1306304931640625,-1.13897705078125,0.949371337890625
1775714875821748000,7.728748046875,0.13507080078125,-1.1502532958984375,0.9329986572265625
1775714875831762000,7.738761962890625,0.1327056884765625,-1.14422607421875,0.897064208984375
1775714875841774800,7.74877490234375,0.1185760498046875,-1.131683349609375,0.870269775390625
1775714875851789000,7.7587890625,0.1063385009765625,-1.1045074462890625,0.8687896728515625
1775714875861802800,7.768802734375,0.09912109375,-1.0646514892578125,0.8792266845703125
1775714875871817000,7.77881689453125,0.0874176025390625,-1.034576416015625,0.89923095703125
1775714875881831000,7.788830810546875,0.108612060546875,-1.0032196044921875,0.898040771484375
1775714875891844900,7.798844970703125,0.1364288330078125,-0.96405029296875,0.892486572265625
1775714875901857800,7.80885791015625,0.1538238525390625,-0.9563140869140625,0.9134368896484375
1775714875911872000,7.8188720703125,0.168121337890625,-0.946533203125,0.9455413818359375
1775714875921886000,7.828885986328125,0.1651153564453125,-0.92547607421875,0.9675140380859375
1775714875931900000,7.83889990234375,0.178070068359375,-0.910858154296875,0.96417236328125
1775714875941913900,7.848913818359375,0.184173583984375,-0.9159088134765625,0.9455413818359375
1775714875951927800,7.858927734375,0.19268798828125,-0.9087066650390625,0.91326904296875
1775714875961941000,7.86894091796875,0.191070556640625,-0.9020538330078125,0.8774566650390625
1775714875971955000,7.878954833984375,0.1891326904296875,-0.88702392578125,0.8294219970703125
1775714875981969000,7.888968994140625,0.1938629150390625,-0.865081787109375,0.7975921630859375
1775714875991982800,7.89898291015625,0.20172119140625,-0.8332366943359375,0.7819976806640625
1775714876001997000,7.9089970703125,0.2080841064453125,-0.788482666015625,0.7811126708984375
1775714876012010000,7.919010009765625,0.1938018798828125,-0.7493743896484375,0.7933807373046875
1775714876022024000,7.92902392578125,0.1742706298828125,-0.7301025390625,0.813018798828125
1775714876032038000,7.939037841796875,0.145416259765625,-0.732421875,0.836944580078125
1775714876042052000,7.949052001953125,0.1298370361328125,-0.725921630859375,0.853729248046875
1775714876052065800,7.959065673828125,0.130279541015625,-0.7228546142578125,0.859222412109375
1775714876062080000,7.969080078125,0.14617919921875,-0.7290191650390625,0.8609771728515625
1775714876072093000,7.979093017578125,0.13232421875,-0.73321533203125,0.8571624755859375
1775714876082107000,7.98910693359375,0.096923828125,-0.72235107421875,0.825347900390625
1775714876092120800,7.999120849609375,0.068817138671875,-0.715667724609375,0.77886962890625
1775714876102135000,8.009135009765625,0.061737060546875,-0.7192535400390625,0.7533416748046875
1775714876112149000,8.01914892578125,0.0855865478515625,-0.732086181640625,0.7505340576171875
1775714876122163000,8.029162841796875,0.10552978515625,-0.727294921875,0.7478790283203125
1775714876132176000,8.03917578125,0.103057861328125,-0.7230072021484375,0.75323486328125
1775714876142190000,8.049190185546875,0.11053466796875,-0.7147674560546875,0.7713470458984375
1775714876152204000,8.0592041015625,0.102508544921875,-0.7089996337890625,0.7666168212890625
1775714876162217700,8.0692177734375,0.0970458984375,-0.7020263671875,0.7247314453125
1775714876172232000,8.07923193359375,0.089935302734375,-0.69403076171875,0.6671905517578125
1775714876182245000,8.0892451171875,0.0855560302734375,-0.674774169921875,0.62518310546875
1775714876192258800,8.0992587890625,0.0631561279296875,-0.6583709716796875,0.6119384765625
1775714876202272800,8.109272705078125,0.02166748046875,-0.6684112548828125,0.631134033203125
1775714876212287000,8.119286865234375,-0.004058837890625,-0.67730712890625,0.6559906005859375
1775714876222301000,8.129301025390625,-0.0095672607421875,-0.657196044921875,0.657379150390625
1775714876232315100,8.139315185546875,-0.010589599609375,-0.6385040283203125,0.6596527099609375
1775714876242328000,8.149328125,-0.0182342529296875,-0.6289520263671875,0.6467742919921875
1775714876252342300,8.15934228515625,-0.004974365234375,-0.608978271484375,0.61279296875
1775714876262356200,8.169356201171874,0.0192718505859375,-0.58758544921875,0.5928802490234375
1775714876272370200,8.1793701171875,0.0388946533203125,-0.5653533935546875,0.579376220703125
1775714876282384100,8.189384033203124,0.0402984619140625,-0.56829833984375,0.573455810546875
1775714876292397300,8.199397216796875,0.02728271484375,-0.578521728515625,0.5690765380859375
1775714876302411000,8.209410888671876,0.0044097900390625,-0.5967559814453125,0.571685791015625
1775714876312425200,8.21942529296875,-0.0040435791015625,-0.6199951171875,0.5791168212890625
1775714876322439200,8.229439208984376,0.009521484375,-0.6220855712890625,0.57257080078125
1775714876332453400,8.239453369140625,0.0391387939453125,-0.6183319091796875,0.5497894287109375
1775714876342467000,8.249467041015626,0.0709381103515625,-0.598663330078125,0.511138916015625
1775714876352480300,8.259480224609375,0.094940185546875,-0.5615234375,0.4806976318359375
1775714876362494200,8.269494140625,0.1005859375,-0.530364990234375,0.4675750732421875
1775714876372508200,8.279508056640625,0.10504150390625,-0.5122833251953125,0.460418701171875
1775714876382522000,8.289522216796875,0.0883331298828125,-0.4720001220703125,0.4474639892578125
1775714876392536000,8.2995361328125,0.017822265625,-0.4528045654296875,0.457916259765625
1775714876402550300,8.30955029296875,-0.0818634033203125,-0.4640045166015625,0.483489990234375
1775714876412563200,8.319563232421874,-0.172821044921875,-0.4900054931640625,0.5009918212890625
1775714876422577200,8.3295771484375,-0.2379608154296875,-0.5232391357421875,0.500732421875
1775714876432591000,8.339591064453124,-0.2531585693359375,-0.5364837646484375,0.483978271484375
1775714876442605300,8.349605224609375,-0.223785400390625,-0.552825927734375,0.469818115234375
1775714876452619000,8.359618896484376,-0.167388916015625,-0.5675048828125,0.4476470947265625
1775714876462632200,8.369632080078125,-0.088104248046875,-0.5812225341796875,0.4282073974609375
1775714876472646100,8.379646240234376,-0.0070953369140625,-0.59161376953125,0.412841796875
1775714876482660400,8.389660400390625,0.052581787109375,-0.603912353515625,0.4039306640625
1775714876492674000,8.399674072265626,0.0598297119140625,-0.618072509765625,0.42578125
1775714876502688300,8.409688232421875,0.0283660888671875,-0.625335693359375,0.4705963134765625
1775714876512702200,8.4197021484375,-0.017974853515625,-0.6360626220703125,0.519287109375
1775714876522715100,8.429715087890624,-0.0574951171875,-0.642852783203125,0.5428466796875
1775714876532729000,8.43972900390625,-0.0710296630859375,-0.637237548828125,0.5423583984375
1775714876542743300,8.449743408203124,-0.0671234130859375,-0.6450347900390625,0.5427398681640625
1775714876552757200,8.45975732421875,-0.0434722900390625,-0.6477813720703125,0.532501220703125
1775714876562771200,8.469771240234374,-0.0008544921875,-0.650238037109375,0.5286865234375
1775714876572784000,8.4797841796875,0.0433197021484375,-0.6467742919921875,0.5368499755859375
1775714876582798300,8.48979833984375,0.0906524658203125,-0.638275146484375,0.5482025146484375
1775714876592812000,8.49981201171875,0.1193084716796875,-0.6093902587890625,0.56884765625
1775714876602826200,8.509826171875,0.1134490966796875,-0.587860107421875,0.59747314453125
1775714876612840200,8.519840087890625,0.0570220947265625,-0.5765838623046875,0.6273193359375
1775714876622854100,8.529854248046876,-0.0362548828125,-0.59002685546875,0.656036376953125
1775714876632867000,8.5398671875,-0.1380615234375,-0.6311798095703125,0.6739044189453125
1775714876642881300,8.54988134765625,-0.1926116943359375,-0.63592529296875,0.6632080078125
1775714876652895200,8.559895263671875,-0.186187744140625,-0.6331329345703125,0.648162841796875
1775714876662909200,8.5699091796875,-0.1415557861328125,-0.6299591064453125,0.6313323974609375
1775714876672923100,8.579923095703125,-0.085906982421875,-0.6359405517578125,0.59075927734375
1775714876682936000,8.58993603515625,-0.030426025390625,-0.6432647705078125,0.5507354736328125
1775714876692950300,8.5999501953125,0.008148193359375,-0.6505279541015625,0.550445556640625
1775714876702964000,8.6099638671875,0.041595458984375,-0.6546630859375,0.5667572021484375
1775714876712978200,8.619978271484374,0.064666748046875,-0.64556884765625,0.589599609375
1775714876722992000,8.6299921875,0.0299072265625,-0.6384429931640625,0.614105224609375
1775714876733006300,8.64000634765625,-0.065338134765625,-0.673095703125,0.649169921875
1775714876743019000,8.65001904296875,-0.1516265869140625,-0.702484130859375,0.66522216796875
1775714876753033200,8.660033203125,-0.1773223876953125,-0.7020721435546875,0.646209716796875
1775714876763047200,8.670047119140625,-0.1572113037109375,-0.6974029541015625,0.616455078125
1775714876773061400,8.680061279296876,-0.1096649169921875,-0.700592041015625,0.589385986328125
1775714876783075000,8.690074951171875,-0.0548248291015625,-0.713226318359375,0.5790252685546875
1775714876793089000,8.700089111328126,-0.01416015625,-0.739654541015625,0.5889739990234375
1775714876803102200,8.710102294921874,0.0108184814453125,-0.7768707275390625,0.6094818115234375
1775714876813116200,8.7201162109375,0.0301361083984375,-0.8050689697265625,0.61669921875
1775714876823130000,8.730130126953124,0.019744873046875,-0.8293609619140625,0.63153076171875
1775714876833144000,8.74014404296875,0.0019683837890625,-0.851104736328125,0.6496429443359375
1775714876843158300,8.750158203125,-0.020660400390625,-0.8534698486328125,0.661529541015625
1775714876853171200,8.760171142578125,-0.0533905029296875,-0.8510589599609375,0.6728973388671875
1775714876863185200,8.77018505859375,-0.0904083251953125,-0.84637451171875,0.68121337890625
1775714876873199000,8.78019921875,-0.1203155517578125,-0.8300018310546875,0.6619720458984375
1775714876883213300,8.79021337890625,-0.13836669921875,-0.8173980712890625,0.6259307861328125
1775714876893227000,8.80022705078125,-0.143218994140625,-0.80767822265625,0.6016693115234375
1775714876903240200,8.810240234375,-0.1395263671875,-0.793853759765625,0.6030426025390625
1775714876913254100,8.820254150390625,-0.1318206787109375,-0.8013916015625,0.6334381103515625
1775714876923268000,8.83026806640625,-0.1180419921875,-0.811279296875,0.6704559326171875
1775714876933282000,8.840281982421875,-0.100982666015625,-0.8201446533203125,0.6910552978515625
1775714876943296300,8.850296142578125,-0.08233642578125,-0.821685791015625,0.694671630859375
1775714876953310200,8.860310302734375,-0.0706939697265625,-0.8032684326171875,0.6934967041015625
1775714876963323100,8.8703232421875,-0.074188232421875,-0.7874755859375,0.697265625
1775714876973337000,8.880337158203124,-0.0953826904296875,-0.7848663330078125,0.7035980224609375
1775714876983351300,8.890351318359375,-0.1081085205078125,-0.788299560546875,0.713592529296875
1775714876993365200,8.900365234375,-0.1060638427734375,-0.783203125,0.7071990966796875
1775714877003379200,8.910379150390625,-0.1074066162109375,-0.7828216552734375,0.69073486328125
1775714877013392100,8.92039208984375,-0.103851318359375,-0.7815704345703125,0.669189453125
1775714877023406300,8.93040625,-0.0919036865234375,-0.775360107421875,0.6434326171875
1775714877033420000,8.940419921875,-0.0781097412109375,-0.78411865234375,0.638916015625
1775714877043434200,8.950434326171875,-0.0584869384765625,-0.7923431396484375,0.6423492431640625
1775714877053448200,8.9604482421875,-0.0444488525390625,-0.7945556640625,0.649505615234375
1775714877063462100,8.970462158203125,-0.035003662109375,-0.7968597412109375,0.6620635986328125
1775714877073475000,8.98047509765625,-0.03021240234375,-0.7927398681640625,0.6628265380859375
1775714877083489300,8.9904892578125,-0.039520263671875,-0.7858734130859375,0.6455078125
1775714877093503200,9.000503173828125,-0.051727294921875,-0.7689361572265625,0.6149749755859375
1775714877103517200,9.01051708984375,-0.0678558349609375,-0.7523651123046875,0.5856170654296875
1775714877113531100,9.02053125,-0.1005401611328125,-0.7456817626953125,0.564788818359375
1775714877123544300,9.03054443359375,-0.128448486328125,-0.7383880615234375,0.5561370849609375
1775714877133558300,9.040558349609375,-0.13623046875,-0.73431396484375,0.552581787109375
1775714877143572000,9.050572021484374,-0.13385009765625,-0.7267913818359375,0.545196533203125
1775714877153586200,9.060586181640625,-0.1290130615234375,-0.7310791015625,0.55133056640625
1775714877163600100,9.07060009765625,-0.12677001953125,-0.741668701171875,0.5751495361328125
1775714877173614300,9.0806142578125,-0.1249237060546875,-0.7573089599609375,0.612640380859375
1775714877183627000,9.090626953125,-0.108795166015625,-0.771728515625,0.6480560302734375
1775714877193641200,9.10064111328125,-0.0811767578125,-0.7809295654296875,0.659942626953125
1775714877203655200,9.1106552734375,-0.0528106689453125,-0.7849273681640625,0.6524505615234375
1775714877213669000,9.120669189453125,-0.0393524169921875,-0.7790985107421875,0.6463775634765625
1775714877223683000,9.13068310546875,-0.0401611328125,-0.7717132568359375,0.6418609619140625
1775714877233696300,9.1406962890625,-0.054412841796875,-0.764984130859375,0.626007080078125
1775714877243710200,9.150710205078125,-0.06182861328125,-0.7637176513671875,0.611541748046875
1775714877253724400,9.160724365234374,-0.0632476806640625,-0.7658843994140625,0.605316162109375
1775714877263738000,9.170738037109375,-0.066253662109375,-0.7718658447265625,0.6080169677734375
1775714877273752300,9.18075244140625,-0.0689239501953125,-0.7781524658203125,0.6166839599609375
1775714877283766300,9.190766357421875,-0.0662078857421875,-0.78460693359375,0.6311492919921875
1775714877293779500,9.200779541015624,-0.0571441650390625,-0.79095458984375,0.6431427001953125
1775714877303793200,9.210793212890625,-0.054718017578125,-0.7947235107421875,0.653228759765625
1775714877313807400,9.220807373046876,-0.0495452880859375,-0.7998504638671875,0.6587982177734375
1775714877323821300,9.2308212890625,-0.04736328125,-0.805145263671875,0.6464080810546875
1775714877333835300,9.240835205078126,-0.047332763671875,-0.8005828857421875,0.626495361328125
1775714877343848200,9.25084814453125,-0.057525634765625,-0.7989654541015625,0.6068878173828125
1775714877353862400,9.2608623046875,-0.069244384765625,-0.79718017578125,0.5892791748046875
1775714877363876400,9.27087646484375,-0.0763702392578125,-0.79669189453125,0.583251953125
1775714877373890000,9.28089013671875,-0.0732269287109375,-0.7914886474609375,0.58746337890625
1775714877383904300,9.290904296875,-0.0666656494140625,-0.78912353515625,0.600830078125
1775714877393918200,9.300918212890625,-0.0677947998046875,-0.7895660400390625,0.6159515380859375
1775714877403931400,9.310931396484374,-0.070159912109375,-0.7899169921875,0.62200927734375
1775714877413945000,9.320945068359375,-0.073822021484375,-0.7866058349609375,0.6208343505859375
1775714877423959300,9.330959228515624,-0.0812835693359375,-0.7787933349609375,0.6173095703125
1775714877433973200,9.34097314453125,-0.08258056640625,-0.77008056640625,0.61846923828125
1775714877443987500,9.350987548828124,-0.0933380126953125,-0.7671356201171875,0.624847412109375
1775714877454000000,9.361000244140625,-0.1092987060546875,-0.77679443359375,0.634368896484375
1775714877464014300,9.371014404296876,-0.117767333984375,-0.7741851806640625,0.6279754638671875
1775714877474028300,9.3810283203125,-0.1080169677734375,-0.7585296630859375,0.61163330078125
1775714877484042200,9.391042236328126,-0.0998992919921875,-0.759185791015625,0.59710693359375
1775714877494056200,9.40105615234375,-0.087310791015625,-0.7613372802734375,0.589080810546875
1775714877504070400,9.4110703125,-0.0788726806640625,-0.760833740234375,0.5961761474609375
1775714877514083000,9.4210830078125,-0.079376220703125,-0.7599334716796875,0.6165313720703125
1775714877524097300,9.43109716796875,-0.0966796875,-0.76397705078125,0.63507080078125
1775714877534111200,9.441111328125,-0.1067352294921875,-0.7678680419921875,0.647491455078125
1775714877544125400,9.45112548828125,-0.1016693115234375,-0.7653350830078125,0.65216064453125
1775714877554139400,9.461139404296874,-0.087554931640625,-0.7635040283203125,0.6529693603515625
1775714877564152300,9.47115234375,-0.081634521484375,-0.765228271484375,0.6420745849609375
1775714877574166300,9.481166259765626,-0.0754241943359375,-0.767791748046875,0.630279541015625
1775714877584180500,9.491180419921875,-0.0732269287109375,-0.7716064453125,0.624053955078125
1775714877594194200,9.501194091796876,-0.066375732421875,-0.7732696533203125,0.6204986572265625
1775714877604208000,9.5112080078125,-0.055816650390625,-0.7800445556640625,0.619384765625
1775714877614221300,9.52122119140625,-0.0560760498046875,-0.7775115966796875,0.6181182861328125
1775714877624235300,9.5312353515625,-0.0562286376953125,-0.7791595458984375,0.6182708740234375
1775714877634249200,9.541249267578126,-0.0608673095703125,-0.7776336669921875,0.6171722412109375
1775714877644263200,9.55126318359375,-0.05767822265625,-0.7737274169921875,0.6239013671875
1775714877654277400,9.56127734375,-0.0594940185546875,-0.773712158203125,0.63287353515625
1775714877664291300,9.571291259765625,-0.0665435791015625,-0.773101806640625,0.6382598876953125
1775714877674304300,9.58130419921875,-0.07391357421875,-0.776153564453125,0.6433563232421875
1775714877684318200,9.591318115234374,-0.0843353271484375,-0.7735137939453125,0.639007568359375
1775714877694332400,9.60133251953125,-0.085113525390625,-0.767486572265625,0.628265380859375
1775714877704346000,9.61134619140625,-0.09649658203125,-0.7618408203125,0.6150970458984375
1775714877714360300,9.6213603515625,-0.1098175048828125,-0.762298583984375,0.6077117919921875
1775714877724373200,9.631373291015626,-0.1206512451171875,-0.7674713134765625,0.6042022705078125
1775714877734387200,9.64138720703125,-0.123626708984375,-0.77630615234375,0.6136932373046875
1775714877744401200,9.651401123046876,-0.12725830078125,-0.7873687744140625,0.6258697509765625
1775714877754415400,9.661415283203125,-0.121124267578125,-0.7987213134765625,0.6244964599609375
1775714877764429300,9.67142919921875,-0.0984039306640625,-0.806671142578125,0.6155853271484375
1775714877774443300,9.681443359375,-0.0726470947265625,-0.8095855712890625,0.6062774658203125
1775714877784456200,9.691456298828125,-0.0663604736328125,-0.805419921875,0.59381103515625
1775714877794470400,9.701470458984375,-0.06298828125,-0.8041839599609375,0.57904052734375
1775714877804484400,9.711484375,-0.0676727294921875,-0.800140380859375,0.5569915771484375
1775714877814498300,9.721498291015624,-0.072540283203125,-0.799041748046875,0.538330078125
1775714877824512300,9.73151220703125,-0.07366943359375,-0.797882080078125,0.5154876708984375
1775714877834525400,9.741525390625,-0.0720062255859375,-0.8027801513671875,0.500579833984375
1775714877844539100,9.7515390625,-0.073089599609375,-0.8078155517578125,0.505645751953125
1775714877854553300,9.76155322265625,-0.0785064697265625,-0.8111419677734375,0.54388427734375
1775714877864567300,9.7715673828125,-0.0935516357421875,-0.81683349609375,0.5922698974609375
1775714877874581200,9.781581298828126,-0.1019134521484375,-0.829376220703125,0.6297454833984375
1775714877884594200,9.79159423828125,-0.103363037109375,-0.8302459716796875,0.6459808349609375
1775714877894608400,9.8016083984375,-0.0865325927734375,-0.8219757080078125,0.65728759765625
1775714877904622300,9.811622314453125,-0.071258544921875,-0.812896728515625,0.66802978515625
1775714877914636300,9.82163623046875,-0.0640716552734375,-0.80615234375,0.673828125
1775714877924650200,9.831650146484375,-0.063568115234375,-0.8023223876953125,0.6717376708984375
1775714877934664200,9.841664306640626,-0.0735015869140625,-0.788818359375,0.65557861328125
1775714877944677400,9.851677490234374,-0.08197021484375,-0.774749755859375,0.63116455078125
1775714877954691000,9.861691162109375,-0.08868408203125,-0.7672882080078125,0.6168365478515625
1775714877964705300,9.871705322265624,-0.0859527587890625,-0.7557373046875,0.603179931640625
1775714877974719200,9.88171923828125,-0.0950164794921875,-0.754547119140625,0.6025390625
1775714877984733400,9.8917333984375,-0.1046600341796875,-0.7614898681640625,0.6241607666015625
1775714877994746000,9.90174609375,-0.111236572265625,-0.7678680419921875,0.6391754150390625
1775714878004760300,9.91176025390625,-0.11798095703125,-0.7724456787109375,0.6402130126953125
1775714878014774300,9.921774169921875,-0.1184844970703125,-0.767608642578125,0.6320037841796875
1775714878024788500,9.93178857421875,-0.1113128662109375,-0.75885009765625,0.6179351806640625
1775714878034802200,9.94180224609375,-0.1044769287109375,-0.7593841552734375,0.6092071533203125
1775714878044815400,9.9518154296875,-0.1072998046875,-0.758270263671875,0.6062469482421875
1775714878054829300,9.961829345703125,-0.1052398681640625,-0.7588653564453125,0.605560302734375
1775714878064843300,9.97184326171875,-0.1049346923828125,-0.760711669921875,0.6031036376953125
1775714878074857200,9.981857177734375,-0.1137542724609375,-0.75872802734375,0.60400390625
1775714878084871200,9.99187109375,-0.1096649169921875,-0.7516021728515625,0.600555419921875
1775714878094885400,10.001885498046875,-0.1113128662109375,-0.7407989501953125,0.607330322265625
1775714878104898300,10.011898193359375,-0.114501953125,-0.7268829345703125,0.6171112060546875
1775714878114912300,10.021912353515624,-0.110565185546875,-0.7161712646484375,0.625823974609375
1775714878124926200,10.03192626953125,-0.1058807373046875,-0.704803466796875,0.6284637451171875
1775714878134940200,10.041940185546874,-0.0975494384765625,-0.69439697265625,0.636627197265625
1775714878144954000,10.0519541015625,-0.08502197265625,-0.6808624267578125,0.64306640625
1775714878154967300,10.06196728515625,-0.0668792724609375,-0.65997314453125,0.6461944580078125
1775714878164981200,10.071981201171875,-0.0643463134765625,-0.633575439453125,0.65045166015625
1775714878174995200,10.0819951171875,-0.0772552490234375,-0.613861083984375,0.656829833984375
1775714878185009200,10.092009033203125,-0.0854339599609375,-0.5987396240234375,0.656463623046875
1775714878195023400,10.1020234375,-0.0892333984375,-0.5760040283203125,0.65771484375
1775714878205036300,10.112036376953125,-0.089935302734375,-0.5594329833984375,0.6675567626953125
1775714878215050200,10.12205029296875,-0.086517333984375,-0.55047607421875,0.6756134033203125
1775714878225064200,10.132064208984374,-0.097412109375,-0.53875732421875,0.684722900390625
1775714878235078400,10.142078369140625,-0.0991973876953125,-0.5399932861328125,0.6845245361328125
1775714878245092000,10.152092041015624,-0.091766357421875,-0.5403900146484375,0.6608123779296875
1775714878255106300,10.162106201171875,-0.06890869140625,-0.537445068359375,0.6395263671875
1775714878265119200,10.172119140625,-0.0504913330078125,-0.516387939453125,0.6175384521484375
1775714878275133400,10.182133544921875,-0.0474853515625,-0.4952850341796875,0.5996551513671875
1775714878285147100,10.192147216796876,-0.0536651611328125,-0.48406982421875,0.5817718505859375
1775714878295161300,10.202161376953125,-0.068603515625,-0.46893310546875,0.5620269775390625
1775714878305175300,10.21217529296875,-0.087371826171875,-0.4447784423828125,0.553314208984375
1775714878315188200,10.222188232421875,-0.09857177734375,-0.4254302978515625,0.546905517578125
1775714878325202200,10.2322021484375,-0.1024169921875,-0.4091949462890625,0.535614013671875
1775714878335216400,10.24221630859375,-0.1130218505859375,-0.407562255859375,0.5430450439453125
1775714878345230300,10.252230224609375,-0.10687255859375,-0.4087371826171875,0.5621185302734375
1775714878355244000,10.262244140625,-0.1071929931640625,-0.4134979248046875,0.581512451171875
1775714878365257200,10.27225732421875,-0.109771728515625,-0.4402618408203125,0.60699462890625
1775714878375271400,10.282271484375,-0.106292724609375,-0.4700927734375,0.6081390380859375
1775714878385285400,10.292285400390625,-0.09552001953125,-0.50927734375,0.5811309814453125
1775714878395299000,10.302299072265624,-0.0685272216796875,-0.5612030029296875,0.561676025390625
1775714878405313300,10.312313232421875,-0.03240966796875,-0.6137847900390625,0.5564727783203125
1775714878415327200,10.3223271484375,-0.0020904541015625,-0.6731414794921875,0.5405731201171875
1775714878425340200,10.332340087890625,0.03125,-0.7312774658203125,0.5085296630859375
1775714878435354000,10.34235400390625,0.0550994873046875,-0.7709503173828125,0.473419189453125
1775714878445368300,10.352368408203125,0.068206787109375,-0.8187255859375,0.44671630859375
1775714878455382300,10.36238232421875,0.0833282470703125,-0.8524627685546875,0.434661865234375
1775714878465396200,10.372396240234375,0.0966949462890625,-0.8660736083984375,0.432342529296875
1775714878475409200,10.3824091796875,0.09912109375,-0.8662261962890625,0.4383087158203125
1775714878485423400,10.39242333984375,0.0864105224609375,-0.8562469482421875,0.43658447265625
1775714878495437000,10.40243701171875,0.0753173828125,-0.8545379638671875,0.415771484375
1775714878505451300,10.412451171875,0.0790252685546875,-0.8459625244140625,0.3851776123046875
1775714878515465200,10.42246533203125,0.0962371826171875,-0.8321533203125,0.3703460693359375
1775714878525478400,10.432478515625,0.0969390869140625,-0.8106842041015625,0.378631591796875
1775714878535492000,10.4424921875,0.0780181884765625,-0.7964935302734375,0.4074859619140625
1775714878545506300,10.45250634765625,0.0571441650390625,-0.8041534423828125,0.4570770263671875
1775714878555520300,10.462520263671875,0.0406951904296875,-0.802276611328125,0.514984130859375
1775714878565534500,10.472534423828124,0.0449066162109375,-0.795745849609375,0.57757568359375
1775714878575547100,10.482547119140625,0.0643768310546875,-0.8011932373046875,0.6370391845703125
1775714878585561300,10.492561279296876,0.093963623046875,-0.7954864501953125,0.68695068359375
1775714878595575300,10.5025751953125,0.11297607421875,-0.8021240234375,0.7357330322265625
1775714878605589200,10.51258935546875,0.1137847900390625,-0.815338134765625,0.7632904052734375
1775714878615603200,10.522603271484375,0.113525390625,-0.811126708984375,0.7705535888671875
1775714878625617200,10.5326171875,0.103546142578125,-0.7910308837890625,0.75799560546875
1775714878635630300,10.54263037109375,0.0797119140625,-0.75909423828125,0.7194061279296875
1775714878645644300,10.552644287109375,0.0368804931640625,-0.7442474365234375,0.6675872802734375
1775714878655658200,10.562658203125,-0.007415771484375,-0.7308197021484375,0.628936767578125
1775714878665672200,10.572672119140625,-0.03961181640625,-0.7356719970703125,0.6200408935546875
1775714878675686400,10.582686279296874,-0.0599212646484375,-0.7497100830078125,0.6309967041015625
1775714878685699300,10.59269921875,-0.077362060546875,-0.7627410888671875,0.6445770263671875
1775714878695713300,10.60271337890625,-0.0846710205078125,-0.7819976806640625,0.6616058349609375
1775714878705727200,10.612727294921875,-0.0680999755859375,-0.80072021484375,0.670074462890625
1775714878715741200,10.6227412109375,-0.036163330078125,-0.806488037109375,0.65948486328125
1775714878725755100,10.632755126953125,-0.02081298828125,-0.799835205078125,0.6408233642578125
1775714878735768300,10.642768310546876,-0.017852783203125,-0.7996978759765625,0.6171112060546875
1775714878745782300,10.6527822265625,-0.0090789794921875,-0.7943878173828125,0.5969085693359375
1775714878755796200,10.662796142578125,-0.0119171142578125,-0.798828125,0.5877532958984375
1775714878765810200,10.67281005859375,-0.0117645263671875,-0.8177337646484375,0.5903778076171875
1775714878775824400,10.682824462890625,-0.002593994140625,-0.8265533447265625,0.5897674560546875
1775714878785838300,10.69283837890625,0.0225982666015625,-0.8361053466796875,0.5945587158203125
1775714878795851300,10.702851318359375,0.0526580810546875,-0.8465423583984375,0.5928497314453125
1775714878805865200,10.712865234375,0.0583343505859375,-0.8540496826171875,0.5818634033203125
1775714878815879400,10.72287939453125,0.0524444580078125,-0.8570709228515625,0.56048583984375
1775714878825893000,10.73289306640625,0.0496063232421875,-0.8583984375,0.5520172119140625
1775714878835907300,10.7429072265625,0.048065185546875,-0.8601837158203125,0.5577392578125
1775714878845920300,10.752920166015626,0.046478271484375,-0.851318359375,0.570709228515625
1775714878855934500,10.7629345703125,0.042694091796875,-0.8453826904296875,0.5961456298828125
1775714878865948200,10.7729482421875,0.0378570556640625,-0.8453216552734375,0.6147003173828125
1775714878875962400,10.78296240234375,0.0408935546875,-0.8434295654296875,0.6210174560546875
1775714878885976300,10.792976318359376,0.0507354736328125,-0.8397064208984375,0.63153076171875
1775714878895989200,10.8029892578125,0.0672149658203125,-0.8462371826171875,0.643798828125
1775714878906003200,10.813003173828125,0.0838165283203125,-0.8459930419921875,0.63958740234375
1775714878916017400,10.823017333984374,0.091522216796875,-0.848236083984375,0.62738037109375
1775714878926031400,10.83303125,0.0891265869140625,-0.8569183349609375,0.6265106201171875
1775714878936045000,10.843045166015624,0.0933685302734375,-0.873870849609375,0.63800048828125
1775714878946058200,10.853058349609375,0.1012115478515625,-0.8853912353515625,0.6302642822265625
1775714878956072400,10.863072509765624,0.0943603515625,-0.8885498046875,0.6173248291015625
1775714878966086100,10.873086181640625,0.0703125,-0.8941802978515625,0.6219635009765625
1775714878976100000,10.88310009765625,0.050445556640625,-0.892242431640625,0.6339111328125
1775714878986114300,10.8931142578125,0.023834228515625,-0.888092041015625,0.6273193359375
1775714878996127500,10.90312744140625,-0.010162353515625,-0.87945556640625,0.6189727783203125
1775714879006141200,10.91314111328125,-0.038787841796875,-0.8797454833984375,0.61822509765625
1775714879016155100,10.923155029296876,-0.053314208984375,-0.873504638671875,0.6071929931640625
1775714879026169300,10.93316943359375,-0.051116943359375,-0.8746490478515625,0.613525390625
1775714879036183300,10.943183349609376,-0.037628173828125,-0.8724822998046875,0.6454010009765625
1775714879046197200,10.953197265625,-0.021728515625,-0.878173828125,0.6806640625
1775714879056210200,10.963210205078125,-0.0102691650390625,-0.890716552734375,0.710296630859375
1775714879066224400,10.973224365234374,-0.0030670166015625,-0.8922882080078125,0.730712890625
1775714879076238000,10.983238037109375,0.0017852783203125,-0.8920745849609375,0.744110107421875
1775714879086252300,10.993252197265624,-0.0037078857421875,-0.9105072021484375,0.7599334716796875
1775714879096266200,11.003266357421875,-0.0005340576171875,-0.8987274169921875,0.7471160888671875
1775714879106279400,11.013279541015624,0.0028076171875,-0.896484375,0.7445068359375
1775714879116293000,11.023293212890625,-0.0022125244140625,-0.890716552734375,0.7399444580078125
1775714879126307300,11.033307373046876,-0.0099334716796875,-0.9151763916015625,0.748565673828125
1775714879136321300,11.0433212890625,-0.030364990234375,-0.993896484375,0.7719879150390625
1775714879146335500,11.05333544921875,-0.0600128173828125,-1.079437255859375,0.78277587890625
1775714879156348200,11.06334814453125,-0.082794189453125,-1.196258544921875,0.801666259765625
1775714879166362400,11.0733623046875,-0.095062255859375,-1.3270263671875,0.800445556640625
1775714879176376300,11.083376220703125,-0.0656890869140625,-1.380584716796875,0.733642578125
1775714879186390300,11.093390380859375,0.0237274169921875,-1.309814453125,0.64422607421875
1775714879196404200,11.103404296875,0.1811981201171875,-1.1392974853515625,0.595062255859375
1775714879206417400,11.11341748046875,0.3039703369140625,-1.0225372314453125,0.65301513671875
1775714879216431400,11.123431396484374,0.3110809326171875,-0.9881134033203125,0.7891693115234375
1775714879226445300,11.1334453125,0.1948394775390625,-0.9959259033203125,0.94000244140625
1775714879236459000,11.143458984375,0.027557373046875,-1.029876708984375,1.0866241455078125
1775714879246473000,11.153472900390625,-0.0973052978515625,-1.0688629150390625,1.2062530517578125
1775714879256487200,11.163487060546874,-0.17291259765625,-1.1009368896484375,1.2353057861328125
1775714879266500000,11.1735,-0.2005462646484375,-1.1484527587890625,1.2045745849609375
1775714879276514000,11.18351416015625,-0.1934051513671875,-1.1850433349609375,1.107818603515625
1775714879286528000,11.193528076171875,-0.1575775146484375,-1.1916961669921875,0.9572296142578125
1775714879296542200,11.203542236328126,-0.1095733642578125,-1.1927490234375,0.79541015625
1775714879306556000,11.213555908203125,-0.057159423828125,-1.1793365478515625,0.6454925537109375
1775714879316569000,11.223569091796875,-0.0128631591796875,-1.1771087646484375,0.5540313720703125
1775714879326583000,11.2335830078125,0.019744873046875,-1.1914520263671875,0.5330963134765625
1775714879336597000,11.243596923828125,0.028594970703125,-1.1894378662109375,0.5489959716796875
1775714879346611000,11.25361083984375,0.0090789794921875,-1.1702728271484375,0.578857421875
1775714879356625200,11.263625244140625,-0.021942138671875,-1.1462249755859375,0.6128997802734375
1775714879366637800,11.273637939453126,-0.0412445068359375,-1.1111602783203125,0.650543212890625
1775714879376652000,11.283652099609375,-0.050048828125,-1.07611083984375,0.686126708984375
1775714879386666000,11.293666015625,-0.0573272705078125,-1.0426483154296875,0.7029571533203125
1775714879396680200,11.30368017578125,-0.0533599853515625,-0.997314453125,0.7118988037109375
1775714879406694000,11.31369384765625,-0.0323486328125,-0.9658203125,0.733184814453125
1775714879416707000,11.32370703125,-0.0042877197265625,-0.9232177734375,0.7277984619140625
1775714879426721000,11.333720947265626,0.02252197265625,-0.8949127197265625,0.71954345703125
1775714879436735200,11.3437353515625,0.0376129150390625,-0.8756103515625,0.7268829345703125
1775714879446749000,11.3537490234375,0.0536956787109375,-0.852081298828125,0.7369842529296875
1775714879456763100,11.36376318359375,0.0643310546875,-0.8346405029296875,0.754486083984375
1775714879466776000,11.373776123046875,0.0659637451171875,-0.8246307373046875,0.777496337890625
1775714879476790000,11.3837900390625,0.05413818359375,-0.8205108642578125,0.7888946533203125
1775714879486804000,11.393803955078125,0.0377197265625,-0.8088836669921875,0.778839111328125
1775714879496818200,11.403818115234374,0.0318145751953125,-0.7945404052734375,0.7603607177734375
1775714879506832100,11.41383203125,0.0305938720703125,-0.7789459228515625,0.731781005859375
1775714879516845800,11.423845703125,0.0310211181640625,-0.7785186767578125,0.711395263671875
1775714879526859000,11.43385888671875,0.045013427734375,-0.786285400390625,0.702728271484375
1775714879536873200,11.443873291015626,0.063720703125,-0.7859039306640625,0.7012481689453125
1775714879546887200,11.45388720703125,0.0712432861328125,-0.78460693359375,0.695526123046875
1775714879556900900,11.46390087890625,0.077850341796875,-0.7838592529296875,0.667938232421875
1775714879566915000,11.4739150390625,0.0868377685546875,-0.781890869140625,0.6508331298828125
1775714879576928300,11.48392822265625,0.0958251953125,-0.78472900390625,0.6599884033203125
1775714879586942000,11.49394189453125,0.0948028564453125,-0.7884674072265625,0.6635284423828125
1775714879596956000,11.503955810546875,0.0869598388671875,-0.7806243896484375,0.663665771484375
1775714879606970000,11.51397021484375,0.0655517578125,-0.770660400390625,0.658203125
1775714879616984000,11.523984130859375,0.04345703125,-0.7484588623046875,0.636688232421875
1775714879626997000,11.5339970703125,0.034393310546875,-0.7262420654296875,0.620452880859375
1775714879637011000,11.544010986328125,0.029144287109375,-0.6983642578125,0.6123046875
1775714879647025200,11.554025146484374,0.01910400390625,-0.6803741455078125,0.60595703125
1775714879657039000,11.5640390625,0.0108184814453125,-0.662261962890625,0.60552978515625
1775714879667053000,11.574052978515626,0.0067138671875,-0.6450042724609375,0.604156494140625
1775714879677066000,11.58406591796875,-0.007537841796875,-0.635589599609375,0.6007843017578125
1775714879687080200,11.594080078125,-0.0239715576171875,-0.6356658935546875,0.6025848388671875
1775714879697094000,11.604093994140625,-0.0387115478515625,-0.6415252685546875,0.6007843017578125
1775714879707108000,11.614108154296876,-0.0564727783203125,-0.6517181396484375,0.5867919921875
1775714879717122000,11.6241220703125,-0.06561279296875,-0.645233154296875,0.5600738525390625
1775714879727135000,11.634135009765625,-0.05157470703125,-0.634429931640625,0.531951904296875
1775714879737149000,11.64414892578125,-0.0251922607421875,-0.6157073974609375,0.5079498291015625
1775714879747163100,11.6541630859375,-0.0034332275390625,-0.5915985107421875,0.48870849609375
1775714879757177000,11.664177001953124,-0.0046234130859375,-0.579345703125,0.4780120849609375
1775714879767191300,11.67419140625,-0.0078125,-0.575897216796875,0.466644287109375
1775714879777204000,11.684203857421876,0.009735107421875,-0.546051025390625,0.4385833740234375
1775714879787218200,11.69421826171875,0.016815185546875,-0.5102996826171875,0.4329376220703125
1775714879797232000,11.704232177734376,0.007598876953125,-0.4704437255859375,0.445526123046875
1775714879807246000,11.71424609375,-0.0414276123046875,-0.4357147216796875,0.4650421142578125
1775714879817260000,11.724260009765626,-0.149322509765625,-0.434173583984375,0.490936279296875
1775714879827273200,11.734273193359375,-0.2848358154296875,-0.4628448486328125,0.5208892822265625
1775714879837287000,11.744286865234375,-0.3630523681640625,-0.47784423828125,0.5290679931640625
1775714879847301000,11.754301025390625,-0.360015869140625,-0.48382568359375,0.5095672607421875
1775714879857315000,11.764315185546875,-0.2777252197265625,-0.4969635009765625,0.4790191650390625
1775714879867329000,11.7743291015625,-0.117706298828125,-0.5145111083984375,0.45355224609375
1775714879877343000,11.784343017578125,0.0279083251953125,-0.5331268310546875,0.462615966796875
1775714879887356200,11.794356201171874,0.1405792236328125,-0.575927734375,0.497711181640625
1775714879897370000,11.8043701171875,0.2265625,-0.60504150390625,0.539642333984375
1775714879907384000,11.814384033203124,0.2733154296875,-0.6280364990234375,0.566925048828125
1775714879917398000,11.82439794921875,0.2645416259765625,-0.6503143310546875,0.5786590576171875
1775714879927412000,11.834411865234374,0.2008514404296875,-0.6607513427734375,0.5749664306640625
1775714879937425200,11.844425048828125,0.107696533203125,-0.66192626953125,0.557708740234375
1775714879947438800,11.85443896484375,0.0240478515625,-0.646484375,0.5373687744140625
1775714879957453000,11.864453125,-0.0252227783203125,-0.6279144287109375,0.5334930419921875
1775714879967467000,11.874467041015626,-0.027069091796875,-0.616241455078125,0.5323944091796875
1775714879977481200,11.884481201171875,0.01495361328125,-0.5991058349609375,0.525238037109375
1775714879987494000,11.894493896484375,0.0689544677734375,-0.574127197265625,0.530242919921875
1775714879997508000,11.904508056640625,0.1171722412109375,-0.5607757568359375,0.5563201904296875
1775714880007522000,11.91452197265625,0.12176513671875,-0.562042236328125,0.583953857421875
1775714880017536300,11.924536376953125,0.0548858642578125,-0.589813232421875,0.6126556396484375
1775714880027550000,11.934550048828125,-0.0423583984375,-0.6040802001953125,0.6285400390625
1775714880037563100,11.944563232421874,-0.1057281494140625,-0.6023406982421875,0.6304168701171875
1775714880047577000,11.9545771484375,-0.1326141357421875,-0.5947418212890625,0.625640869140625
1775714880057591000,11.964591064453124,-0.1453857421875,-0.58697509765625,0.6141357421875
1775714880067605000,11.97460498046875,-0.1234283447265625,-0.5832366943359375,0.6115875244140625
1775714880077619200,11.984619140625,-0.0774688720703125,-0.57806396484375,0.614044189453125
1775714880087632000,11.9946318359375,-0.03424072265625,-0.56243896484375,0.600738525390625
1775714880097646000,12.00464599609375,-0.0316009521484375,-0.562896728515625,0.5908966064453125
1775714880107660000,12.014659912109375,-0.0621337890625,-0.57696533203125,0.6127166748046875
1775714880117674200,12.02467431640625,-0.1021881103515625,-0.58856201171875,0.64764404296875
1775714880127688200,12.034688232421875,-0.13275146484375,-0.59747314453125,0.6774139404296875
1775714880137701000,12.044701171875,-0.14593505859375,-0.6009368896484375,0.6936492919921875
1775714880147715000,12.054715087890624,-0.146759033203125,-0.6065826416015625,0.7056427001953125
1775714880157729000,12.06472900390625,-0.1521148681640625,-0.61810302734375,0.7148895263671875
1775714880167743000,12.074742919921874,-0.160400390625,-0.6431884765625,0.72186279296875
1775714880177757000,12.0847568359375,-0.1584014892578125,-0.6694183349609375,0.699554443359375
1775714880187770000,12.09477001953125,-0.1382293701171875,-0.6788330078125,0.6689605712890625
1775714880197784000,12.1047841796875,-0.1135711669921875,-0.6885528564453125,0.6490325927734375
1775714880207798000,12.114798095703126,-0.09906005859375,-0.6950531005859375,0.6369171142578125
1775714880217812000,12.12481201171875,-0.09393310546875,-0.6972808837890625,0.6373443603515625
1775714880227826200,12.134826171875,-0.0975799560546875,-0.711822509765625,0.645233154296875
1775714880237839400,12.14483935546875,-0.1070556640625,-0.725067138671875,0.6513824462890625
1775714880247853600,12.154853515625,-0.1168365478515625,-0.727081298828125,0.6512908935546875
1775714880257867500,12.164867431640625,-0.124053955078125,-0.72833251953125,0.64752197265625
1775714880267881700,12.1748818359375,-0.128662109375,-0.729156494140625,0.646881103515625
1775714880277895400,12.1848955078125,-0.1328125,-0.7349395751953125,0.6495819091796875
1775714880287908600,12.19490869140625,-0.119720458984375,-0.739715576171875,0.6605224609375
1775714880297922600,12.204922607421874,-0.101898193359375,-0.74609375,0.6827239990234375
1775714880307936500,12.2149365234375,-0.0807342529296875,-0.7597503662109375,0.706298828125
1775714880317950500,12.224950439453124,-0.074737548828125,-0.775665283203125,0.7285003662109375
1775714880327964700,12.234964599609375,-0.0782318115234375,-0.7924346923828125,0.74383544921875
1775714880337978600,12.244978515625,-0.0738067626953125,-0.8052825927734375,0.7369232177734375
1775714880347991600,12.254991455078125,-0.0652923583984375,-0.8045654296875,0.7095184326171875
1775714880358005500,12.265005615234376,-0.0510406494140625,-0.8015594482421875,0.690155029296875
1775714880368019500,12.27501953125,-0.03863525390625,-0.8062744140625,0.683685302734375
1775714880378033400,12.285033447265626,-0.02728271484375,-0.80755615234375,0.6781768798828125
1775714880388047400,12.29504736328125,-0.0125579833984375,-0.8069305419921875,0.6707763671875
1775714880398060500,12.305060546875,-0.0167388916015625,-0.8065338134765625,0.65814208984375
1775714880408074500,12.315074462890625,-0.0274505615234375,-0.8073577880859375,0.651885986328125
1775714880418088400,12.32508837890625,-0.0433502197265625,-0.8043365478515625,0.654296875
1775714880428102400,12.335102294921874,-0.0501861572265625,-0.7971954345703125,0.6616058349609375
1775714880438116600,12.34511669921875,-0.055938720703125,-0.795623779296875,0.6556549072265625
1775714880448129500,12.355129638671874,-0.0650634765625,-0.7957916259765625,0.638458251953125
1775714880458143500,12.3651435546875,-0.07244873046875,-0.7891845703125,0.6251678466796875
1775714880468157400,12.375157470703124,-0.0735931396484375,-0.7749481201171875,0.6251068115234375
1775714880478171600,12.385171630859375,-0.075958251953125,-0.7625579833984375,0.6324005126953125
1775714880488185300,12.395185302734374,-0.08221435546875,-0.767303466796875,0.6342010498046875
1775714880498198500,12.405198486328125,-0.0755615234375,-0.76788330078125,0.6093597412109375
1775714880508212500,12.41521240234375,-0.0742950439453125,-0.7578582763671875,0.5870819091796875
1775714880518226700,12.425226806640625,-0.07281494140625,-0.7447967529296875,0.5930328369140625
1775714880528240400,12.435240478515626,-0.073028564453125,-0.7367706298828125,0.6158905029296875
1775714880538254600,12.445254638671875,-0.0819244384765625,-0.743194580078125,0.6479644775390625
1775714880548267500,12.455267578125,-0.088958740234375,-0.7485504150390625,0.66961669921875
1775714880558281500,12.465281494140624,-0.099090576171875,-0.7433013916015625,0.6744842529296875
1775714880568295400,12.47529541015625,-0.107452392578125,-0.739349365234375,0.6781463623046875
1775714880578309600,12.4853095703125,-0.113189697265625,-0.736175537109375,0.678253173828125
1775714880588323600,12.495323486328125,-0.1115875244140625,-0.737640380859375,0.6652374267578125
1775714880598336500,12.50533642578125,-0.1067047119140625,-0.7427978515625,0.648223876953125
1775714880608350500,12.5153505859375,-0.1105499267578125,-0.7422943115234375,0.64056396484375
1775714880618364700,12.52536474609375,-0.106414794921875,-0.7443695068359375,0.6431732177734375
1775714880628378600,12.535378662109375,-0.0971832275390625,-0.7520751953125,0.649505615234375
1775714880638392600,12.545392578125,-0.0841217041015625,-0.7546539306640625,0.6456146240234375
1775714880648405500,12.555405517578125,-0.0717315673828125,-0.760101318359375,0.643157958984375
1775714880658419700,12.565419677734376,-0.0545806884765625,-0.770599365234375,0.6430206298828125
1775714880668433400,12.575433349609375,-0.0401611328125,-0.779998779296875,0.6446533203125
1775714880678447400,12.585447265625,-0.0395965576171875,-0.7840576171875,0.6495513916015625
1775714880688461600,12.595461669921875,-0.0423126220703125,-0.79168701171875,0.6498565673828125
1775714880698474500,12.605474609375,-0.03717041015625,-0.7944488525390625,0.6376953125
1775714880708488400,12.615488525390624,-0.0267791748046875,-0.7950592041015625,0.6215972900390625
1775714880718502400,12.62550244140625,-0.0189056396484375,-0.801422119140625,0.610595703125
1775714880728516600,12.6355166015625,-0.0063934326171875,-0.805023193359375,0.606964111328125
1775714880738530300,12.6455302734375,-0.0040740966796875,-0.8039398193359375,0.6050872802734375
1775714880748543500,12.65554345703125,-0.00384521484375,-0.7980194091796875,0.605072021484375
1775714880758557400,12.665557373046875,-0.0125579833984375,-0.792694091796875,0.6099395751953125
1775714880768571600,12.675571533203126,-0.02392578125,-0.788787841796875,0.6150054931640625
1775714880778585300,12.68558544921875,-0.0316619873046875,-0.7794342041015625,0.6103057861328125
1775714880788599600,12.695599609375,-0.0411529541015625,-0.7748260498046875,0.6126708984375
1775714880798612500,12.705612548828125,-0.0510406494140625,-0.7721710205078125,0.6290435791015625
1775714880808626400,12.71562646484375,-0.0583343505859375,-0.77484130859375,0.646728515625
1775714880818640400,12.725640380859375,-0.0639495849609375,-0.777069091796875,0.6547698974609375
1775714880828654600,12.735654541015625,-0.0673828125,-0.770843505859375,0.6464080810546875
1775714880838668500,12.74566845703125,-0.07281494140625,-0.7730865478515625,0.64508056640625
1775714880848682500,12.7556826171875,-0.073883056640625,-0.774444580078125,0.646759033203125
1775714880858695400,12.7656953125,-0.0759429931640625,-0.7653350830078125,0.6422119140625
1775714880868709600,12.775709716796875,-0.0781402587890625,-0.76214599609375,0.6272735595703125
1775714880878723600,12.7857236328125,-0.08612060546875,-0.7635955810546875,0.61175537109375
1775714880888737500,12.795737548828125,-0.0974273681640625,-0.7664031982421875,0.6032562255859375
1775714880898751500,12.80575146484375,-0.1043701171875,-0.7721405029296875,0.595703125
1775714880908764700,12.8157646484375,-0.0988922119140625,-0.774322509765625,0.5970611572265625
1775714880918778400,12.8257783203125,-0.0928497314453125,-0.7718658447265625,0.6069793701171875
1775714880928792600,12.83579248046875,-0.0978240966796875,-0.767791748046875,0.6212921142578125
1775714880938806500,12.845806640625,-0.1036376953125,-0.7667083740234375,0.6352386474609375
1775714880948820500,12.855820556640625,-0.1062164306640625,-0.7675323486328125,0.6360015869140625
1775714880958833400,12.86583349609375,-0.1001129150390625,-0.754669189453125,0.6247711181640625
1775714880968847600,12.87584765625,-0.0921630859375,-0.74481201171875,0.6169891357421875
1775714880978861600,12.885861572265625,-0.0823822021484375,-0.7454681396484375,0.6154632568359375
1775714880988875500,12.89587548828125,-0.076416015625,-0.7465667724609375,0.62103271484375
1775714880998889500,12.905889404296875,-0.0693359375,-0.74566650390625,0.638763427734375
1775714881008902700,12.915902587890624,-0.06365966796875,-0.7524261474609375,0.65655517578125
1775714881018916600,12.92591650390625,-0.055419921875,-0.7529754638671875,0.661834716796875
1775714881028930300,12.935930419921876,-0.04351806640625,-0.7510986328125,0.6613922119140625
1775714881038944500,12.945944580078125,-0.032867431640625,-0.749603271484375,0.6671295166015625
1775714881048958500,12.95595849609375,-0.0214691162109375,-0.74530029296875,0.6617431640625
1775714881058971400,12.965971435546875,-0.01519775390625,-0.741363525390625,0.6507568359375
