time,seconds_elapsed,z,y,x
1775714868146149400,0.0531494140625,-0.398652583360672,0.1786203384399414,0.9998025894165039
1775714868156163300,0.063163330078125,-0.5277935266494751,0.414197713136673,0.987917959690094
1775714868166177300,0.07317724609375,-0.6251437664031982,0.5109567642211914,1.0193560123443604
1775714868176190500,0.0831904296875,-0.7505677342414856,0.4926256835460663,1.096474289894104
1775714868186204400,0.093204345703125,-0.981853187084198,0.35336604714393616,1.1991358995437622
1775714868196218400,0.10321826171875,-1.2177761793136597,0.2349129170179367,1.3298766613006592
1775714868206232300,0.113232421875,-1.3920766115188599,0.1881352812051773,1.473425030708313
1775714868216246300,0.123246337890625,-1.5237348079681396,0.07607559114694595,1.6556826829910278
1775714868226261000,0.133260986328125,-1.637953758239746,-0.0933869406580925,1.8605972528457642
1775714868236274000,0.14327392578125,-1.673604965209961,-0.3952045738697052,2.054548978805542
1775714868246288100,0.1532880859375,-1.5661349296569824,-0.7581982016563416,2.151489019393921
1775714868256302000,0.163302001953125,-1.3818551301956177,-1.1687543392181396,2.126511812210083
1775714868266316000,0.17331591796875,-1.0864675045013428,-1.7327338457107544,2.0261781215667725
1775714868276330000,0.183330078125,-0.7542381286621094,-2.5347816944122314,1.885801076889038
1775714868286344000,0.193343994140625,-0.7223965525627136,-3.3633980751037598,1.7071341276168823
1775714868296356900,0.20335693359375,-0.8045569658279419,-4.209504127502441,1.541739583015442
1775714868306371000,0.21337109375,-0.6068776845932007,-4.811269760131836,1.507207989692688
1775714868316385000,0.223385009765625,-0.1533253788948059,-3.70619797706604,1.3043901920318604
1775714868326399000,0.23339892578125,0.3654429614543915,-2.324162721633911,1.1337870359420776
1775714868336413000,0.243412841796875,0.6132551431655884,-1.9738247394561768,1.0088530778884888
1775714868346426000,0.253426025390625,0.5172138214111328,-2.356741428375244,0.9115752577781677
1775714868356440000,0.263440185546875,0.42150115966796875,-2.9241034984588623,1.0474345684051514
1775714868366454000,0.2734541015625,0.5421993732452393,-3.5400211811065674,1.4202073812484741
1775714868376468000,0.283468017578125,0.8666735887527466,-4.34776496887207,1.814502477645874
1775714868386482000,0.29348193359375,1.329763412475586,-5.274026393890381,2.1280276775360107
1775714868396496100,0.30349609375,1.4390630722045898,-5.813982009887695,1.7865946292877197
1775714868406508800,0.3135087890625,0.9163234233856201,-4.617989540100098,1.1358054876327515
1775714868416523000,0.32352294921875,-0.2162015438079834,-3.9177324771881104,1.22896146774292
1775714868426537000,0.333536865234375,-1.3507689237594604,-3.145803928375244,1.4834800958633423
1775714868436551200,0.34355126953125,-1.757504940032959,-2.6349024772644043,1.7014890909194946
1775714868446564900,0.35356494140625,-1.8833531141281128,-2.545295238494873,1.9369492530822754
1775714868456579000,0.3635791015625,-2.145808219909668,-2.6251583099365234,2.277801752090454
1775714868466592000,0.373592041015625,-2.554570198059082,-2.9945833683013916,2.7576053142547607
1775714868476606200,0.383606201171875,-2.983325719833374,-3.5334322452545166,3.251586675643921
1775714868486620000,0.393619873046875,-3.4222464561462402,-3.9464337825775146,3.684269905090332
1775714868496634000,0.403634033203125,-3.75303316116333,-4.126799583435059,4.0343732833862305
1775714868506648000,0.41364794921875,-3.9483718872070312,-4.156932830810547,4.269901275634766
1775714868516662000,0.423662109375,-4.0326995849609375,-4.011231899261475,4.377591133117676
1775714868526675000,0.433675048828125,-4.074318885803223,-3.809690237045288,4.367176055908203
1775714868536689200,0.443689208984375,-4.183386325836182,-3.583876848220825,4.236403942108154
1775714868546703000,0.453703125,-4.355480194091797,-3.4272706508636475,4.035450458526611
1775714868556716800,0.463716796875,-4.5553669929504395,-3.489312171936035,3.671489953994751
1775714868566731000,0.47373095703125,-4.700979232788086,-3.398423433303833,3.2611083984375
1775714868576744200,0.483744140625,-4.613692283630371,-3.1784846782684326,2.9379327297210693
1775714868586758000,0.4937578125,-4.299835205078125,-2.9396095275878906,2.752575397491455
1775714868596771800,0.503771728515625,-3.8575992584228516,-2.9377949237823486,2.6326160430908203
1775714868606786000,0.5137861328125,-3.4453868865966797,-2.698878765106201,2.4538931846618652
1775714868616800000,0.523800048828125,-3.100764274597168,-2.1737983226776123,2.1942925453186035
1775714868626814200,0.533814208984375,-2.8437840938568115,-1.6871042251586914,2.016599178314209
1775714868636827000,0.543826904296875,-2.680305004119873,-1.35117769241333,1.8602938652038574
1775714868646841000,0.553841064453125,-2.640559196472168,-1.3256733417510986,1.609420657157898
1775714868656855000,0.56385498046875,-2.6968884468078613,-1.5285532474517822,1.3057292699813843
1775714868666869000,0.573868896484375,-2.7649693489074707,-1.7086803913116455,1.046575665473938
1775714868676883000,0.583883056640625,-2.7066845893859863,-1.871898889541626,0.8192458748817444
1775714868686897200,0.593897216796875,-2.5277047157287598,-1.8294055461883545,0.5682397484779358
1775714868696909800,0.603909912109375,-2.2596395015716553,-1.5482102632522583,0.3322301506996155
1775714868706924000,0.613924072265625,-1.9251378774642944,-1.2289189100265503,0.16326189041137695
1775714868716938000,0.62393798828125,-1.5788670778274536,-0.9966771006584167,0.08435908704996109
1775714868726952200,0.6339521484375,-1.298655390739441,-0.8533228635787964,0.06516142934560776
1775714868736966000,0.6439658203125,-1.1809351444244385,-0.6767012476921082,0.03584881126880646
1775714868746979800,0.653979736328125,-1.2235342264175415,-0.454054594039917,-0.07531099766492844
1775714868756993000,0.663992919921875,-1.1798021793365479,-0.2674271762371063,-0.25315290689468384
1775714868767007200,0.67400732421875,-1.0351765155792236,-0.015047659166157246,-0.4265587627887726
1775714868777021000,0.68402099609375,-0.9491932392120361,0.34800776839256287,-0.5217375159263611
1775714868787035000,0.694034912109375,-0.8382664322853088,0.447709858417511,-0.5835893750190735
1775714868797049000,0.704049072265625,-0.6958837509155273,0.20679739117622375,-0.6256524324417114
1775714868807062000,0.71406201171875,-0.6629018187522888,-0.017417872324585915,-0.6351116895675659
1775714868817076000,0.724075927734375,-0.6685231924057007,-0.06418724358081818,-0.663634717464447
1775714868827090000,0.73408984375,-0.6485268473625183,0.002779008587822318,-0.717731237411499
1775714868837104000,0.744104248046875,-0.6195202469825745,0.15180844068527222,-0.7737151384353638
1775714868847117800,0.754117919921875,-0.5577945709228516,0.22037310898303986,-0.8083399534225464
1775714868857132000,0.764132080078125,-0.4744642376899719,0.20707967877388,-0.7982588410377502
1775714868867145000,0.77414501953125,-0.303053617477417,0.06126522272825241,-0.7896797060966492
1775714868877159200,0.7841591796875,-0.13201050460338593,0.021914886310696602,-0.7731981873512268
1775714868887172900,0.7941728515625,-0.005106078926473856,0.19896742701530457,-0.7916176915168762
1775714868897187000,0.80418701171875,0.13130661845207214,0.45105504989624023,-0.9043018817901611
1775714868907201000,0.814200927734375,0.26933959126472473,0.6775984764099121,-1.065930962562561
1775714868917215200,0.82421533203125,0.3822576105594635,0.7708114981651306,-1.2025690078735352
1775714868927228000,0.834227783203125,0.4631527364253998,0.6344946622848511,-1.3241969347000122
1775714868937242000,0.8442421875,0.3526131808757782,0.6653311252593994,-1.3025150299072266
1775714868947256000,0.854256103515625,0.23207691311836243,0.5882565975189209,-1.2086708545684814
1775714868957270000,0.86427001953125,0.1411920040845871,0.4235643148422241,-1.0449037551879883
1775714868967284000,0.874283935546875,0.10350082814693451,0.2293303906917572,-0.862466037273407
1775714868977298000,0.8842978515625,0.10162010043859482,0.058462511748075485,-0.6491044759750366
1775714868987311000,0.89431103515625,0.15333469212055206,-0.03990906476974487,-0.40179669857025146
1775714868997325000,0.904324951171875,0.2546943426132202,-0.006706372369080782,-0.17043139040470123
1775714869007339000,0.914339111328125,0.38169994950294495,0.061830878257751465,-0.004324707202613354
1775714869017353000,0.92435302734375,0.5391305685043335,0.060087837278842926,0.07902264595031738
1775714869027367200,0.9343671875,0.7114514708518982,0.14219442009925842,0.11212094873189926
1775714869037380000,0.944380126953125,0.8507782220840454,0.27965056896209717,0.12186118960380554
1775714869047394000,0.95439404296875,0.9341450333595276,0.3666802644729614,0.1262817680835724
1775714869057408000,0.964407958984375,0.9745502471923828,0.4010683298110962,0.13565875589847565
1775714869067422000,0.974421875,0.9619337916374207,0.441209077835083,0.1322523057460785
1775714869077436000,0.984435791015625,0.9330600500106812,0.4244527518749237,0.10700128227472305
1775714869087450000,0.9944501953125,0.8945485949516296,0.38125520944595337,0.10150132328271866
1775714869097463000,1.004463134765625,0.8209806680679321,0.4795759320259094,0.10414265096187592
1775714869107477000,1.01447705078125,0.7030321955680847,0.5654157400131226,0.06884457916021347
1775714869117491000,1.024490966796875,0.5664136409759521,0.53370600938797,0.039377499371767044
1775714869127505200,1.034505126953125,0.4252309203147888,0.49822551012039185,0.056179650127887726
1775714869137519000,1.04451904296875,0.29688572883605957,0.48322898149490356,0.1114620789885521
1775714869147533000,1.054532958984375,0.22024394571781158,0.44389808177948,0.18353334069252014
1775714869157546000,1.0645458984375,0.1481497883796692,0.44270578026771545,0.26980671286582947
1775714869167560200,1.074560302734375,0.09871406108140945,0.346051424741745,0.3628743290901184
1775714869177574000,1.084573974609375,0.06958413869142532,0.2330913096666336,0.4773753583431244
1775714869187588000,1.094588134765625,0.052567869424819946,0.16175641119480133,0.5597431659698486
1775714869197602000,1.10460205078125,0.058940280228853226,0.10080836713314056,0.5721353888511658
1775714869207616000,1.114615966796875,0.08057820051908493,0.06934578716754913,0.5426885485649109
1775714869217629000,1.12462890625,0.11689625680446625,0.1123822033405304,0.4840657413005829
1775714869227642000,1.13464208984375,0.18603964149951935,0.1401728242635727,0.40338847041130066
1775714869237656000,1.144656005859375,0.2782342731952667,0.1182190477848053,0.3202328681945801
1775714869247670300,1.154670166015625,0.36193716526031494,0.03483867272734642,0.25384610891342163
1775714869257684200,1.164684326171875,0.4406175911426544,-0.03286580368876457,0.20422610640525818
1775714869267698200,1.1746982421875,0.5190242528915405,-0.03869173675775528,0.13605956733226776
1775714869277711000,1.184711181640625,0.5971222519874573,0.06190997362136841,0.017348630353808403
1775714869287725300,1.194725341796875,0.6858510375022888,0.20199809968471527,-0.1017998680472374
1775714869297739000,1.204739013671875,0.7347880005836487,0.2653970420360565,-0.1623830497264862
1775714869307753000,1.2147529296875,0.7100538611412048,0.19159872829914093,-0.16274124383926392
1775714869317767200,1.22476708984375,0.6710734367370605,0.05145120620727539,-0.10201851278543472
1775714869327780400,1.2347802734375,0.629859983921051,-0.06485063582658768,-0.014960573986172676
1775714869337794000,1.2447939453125,0.5920108556747437,-0.024228639900684357,0.030041255056858063
1775714869347808000,1.25480810546875,0.5907706022262573,0.06263541430234909,-0.0012298477813601494
1775714869357822200,1.264822265625,0.5902369022369385,0.1392902433872223,-0.06820941716432571
1775714869367836200,1.274836181640625,0.5919890403747559,0.16527125239372253,-0.1316182166337967
1775714869377850000,1.28485009765625,0.5604901909828186,0.18615922331809998,-0.15005287528038025
1775714869387863000,1.294863037109375,0.5111215710639954,0.22754554450511932,-0.12500612437725067
1775714869397877200,1.304877197265625,0.43862077593803406,0.24575623869895935,-0.059373579919338226
1775714869407891000,1.314890869140625,0.3910468518733978,0.19633302092552185,0.007389206904917955
1775714869417905200,1.3249052734375,0.3318415880203247,0.1393056958913803,0.07403960824012756
1775714869427919000,1.334919189453125,0.24933792650699615,0.10791368037462234,0.12483087927103043
1775714869437933300,1.344933349609375,0.19562675058841705,0.054851796478033066,0.12848953902721405
1775714869447946000,1.354946044921875,0.14954209327697754,0.018367022275924683,0.11080428212881088
1775714869457960200,1.364960205078125,0.11543790996074677,0.007509581744670868,0.07223664969205856
1775714869467974100,1.37497412109375,0.07185474783182144,-0.01569507271051407,0.01950445957481861
1775714869477988400,1.38498828125,0.06520190834999084,-0.10225473344326019,-0.02799088880419731
1775714869488002000,1.395001953125,0.09788262099027634,-0.18534162640571594,-0.07705483585596085
1775714869498016000,1.40501611328125,0.1770583987236023,-0.24662016332149506,-0.14907070994377136
1775714869508029200,1.415029296875,0.3228587508201599,-0.25165486335754395,-0.235303595662117
1775714869518043100,1.425043212890625,0.4613945186138153,-0.11281230300664902,-0.33562353253364563
1775714869528057000,1.43505712890625,0.5579202771186829,0.012205267325043678,-0.41911205649375916
1775714869538071000,1.445071044921875,0.6148415803909302,0.10703883320093155,-0.4551462233066559
1775714869548085200,1.455085205078125,0.6100761294364929,0.14144474267959595,-0.4016536772251129
1775714869558099000,1.465098876953125,0.5749914050102234,0.0486287884414196,-0.27703559398651123
1775714869568112000,1.475112060546875,0.4954313039779663,-0.05778447166085243,-0.06549352407455444
1775714869578126000,1.4851259765625,0.462387353181839,-0.09514196217060089,0.33298489451408386
1775714869588140300,1.495140380859375,0.08618255704641342,0.03964861109852791,1.096561312675476
1775714869598154000,1.505154052734375,-0.6079472303390503,-0.19829390943050385,1.6241029500961304
1775714869608168200,1.515168212890625,-0.8406249284744263,-0.9480536580085754,1.3577858209609985
1775714869618182100,1.52518212890625,-0.6905456781387329,-1.3611969947814941,0.6309449076652527
1775714869628195000,1.535195068359375,-0.5615245699882507,-0.8702232837677002,-0.05355430394411087
1775714869638209000,1.545208984375,-0.391369104385376,-0.006205431651324034,-0.4304632246494293
1775714869648223200,1.55522314453125,-0.09153337776660919,0.4354923367500305,-0.48352912068367004
1775714869658237200,1.5652373046875,0.13240385055541992,0.39037013053894043,-0.30551543831825256
1775714869668251100,1.575251220703125,0.20369240641593933,0.1798137128353119,-0.028123512864112854
1775714869678264000,1.58526416015625,0.21680821478366852,0.017487380653619766,0.2596190571784973
1775714869688278300,1.5952783203125,0.2591484785079956,-0.04747670516371727,0.4505496025085449
1775714869698292200,1.605292236328125,0.2386557161808014,-0.07733660191297531,0.5204511880874634
1775714869708306200,1.61530615234375,0.1675458550453186,-0.09149716049432755,0.5192932486534119
1775714869718320000,1.625320068359375,0.09520694613456726,-0.1476730853319168,0.49644145369529724
1775714869728334000,1.635333984375,0.023799339309334755,-0.16642972826957703,0.46845003962516785
1775714869738347000,1.645346923828125,-0.06877986341714859,-0.0842088833451271,0.4162962734699249
1775714869748361200,1.655361328125,-0.15425482392311096,-0.008027033880352974,0.32579195499420166
1775714869758375200,1.665375244140625,-0.2139655500650406,0.06193234398961067,0.23950126767158508
1775714869768389000,1.67538916015625,-0.2608635425567627,0.11075714230537415,0.1884191781282425
1775714869778403000,1.685403076171875,-0.3343620002269745,0.10348005592823029,0.15414589643478394
1775714869788417000,1.6954169921875,-0.4129878282546997,0.07028721272945404,0.1554657518863678
1775714869798430200,1.70543017578125,-0.4795359671115875,-0.004039216320961714,0.2080429494380951
1775714869808444000,1.71544384765625,-0.5358618497848511,-0.1390572190284729,0.29807695746421814
1775714869818458000,1.7254580078125,-0.595426082611084,-0.27691149711608887,0.3659031391143799
1775714869828472000,1.73547216796875,-0.6293744444847107,-0.302975058555603,0.3673178255558014
1775714869838486300,1.745486328125,-0.5986487865447998,-0.2836082875728607,0.31082284450531006
1775714869848500200,1.755500244140625,-0.5293285846710205,-0.23763225972652435,0.24196948111057281
1775714869858513200,1.76551318359375,-0.4512593150138855,-0.18121160566806793,0.19641345739364624
1775714869868527000,1.775527099609375,-0.3445539176464081,-0.18078362941741943,0.157057523727417
1775714869878541300,1.785541259765625,-0.23326601088047028,-0.18195568025112152,0.12037941068410873
1775714869888555000,1.795554931640625,-0.1693331003189087,-0.21050530672073364,0.06506821513175964
1775714869898569200,1.8055693359375,-0.14436890184879303,-0.24376125633716583,0.01691586710512638
1775714869908583200,1.815583251953125,-0.1662595421075821,-0.2644340395927429,0.013008476234972477
1775714869918596000,1.82559619140625,-0.20074854791164398,-0.30778685212135315,0.038787875324487686
1775714869928610000,1.835610107421875,-0.24228107929229736,-0.3603496551513672,0.07056204974651337
1775714869938624300,1.845624267578125,-0.27151939272880554,-0.33727285265922546,0.07418208569288254
1775714869948638200,1.85563818359375,-0.2768220007419586,-0.2749796509742737,0.04604712128639221
1775714869958652000,1.86565185546875,-0.28581684827804565,-0.2788603901863098,0.009752762503921986
1775714869968666000,1.875666015625,-0.2976037263870239,-0.29944637417793274,-0.009974337182939053
1775714869978679300,1.88567919921875,-0.31424635648727417,-0.3210352659225464,-0.021710354834794998
1775714869988693200,1.895693359375,-0.3384630084037781,-0.3262004852294922,-0.03636066988110542
1775714869998707000,1.90570703125,-0.34243538975715637,-0.29106247425079346,-0.061771489679813385
1775714870008721200,1.91572119140625,-0.345903605222702,-0.2623448073863983,-0.08800655603408813
1775714870018735000,1.925735107421875,-0.36889973282814026,-0.2793504297733307,-0.09915401041507721
1775714870028749300,1.935749267578125,-0.403136283159256,-0.27836742997169495,-0.07620955258607864
1775714870038762000,1.945761962890625,-0.44490450620651245,-0.30449438095092773,-0.027053721249103546
1775714870048776200,1.955776123046875,-0.4721957743167877,-0.34839844703674316,0.028389563784003258
1775714870058790100,1.9657900390625,-0.49946174025535583,-0.31641364097595215,0.07292800396680832
1775714870068804000,1.97580419921875,-0.4997459053993225,-0.2903953492641449,0.10486702620983124
1775714870078818000,1.985818115234375,-0.4375174045562744,-0.22767683863639832,0.13712535798549652
1775714870088832300,1.995832275390625,-0.3558337390422821,-0.15484310686588287,0.14796815812587738
1775714870098845200,2.00584521484375,-0.2629906237125397,-0.08274521678686142,0.11042557656764984
1775714870108859100,2.015859130859375,-0.15047313272953033,-0.020322848111391068,0.011009774170815945
1775714870118873000,2.025873046875,-0.034394193440675735,0.11535828560590744,-0.12471982836723328
1775714870128887300,2.03588720703125,0.08726779371500015,0.28724268078804016,-0.24990251660346985
1775714870138901200,2.0459013671875,0.19143468141555786,0.4948883056640625,-0.29926154017448425
1775714870148914200,2.0559140625,0.24344009160995483,0.6463454365730286,-0.2373531609773636
1775714870158928100,2.06592822265625,0.23765569925308228,0.6664323806762695,-0.053820621222257614
1775714870168942300,2.0759423828125,0.1854548156261444,0.6048457026481628,0.20727941393852234
1775714870178956000,2.0859560546875,0.09228252619504929,0.49625715613365173,0.4189991354942322
1775714870188970000,2.095969970703125,-0.051177967339754105,0.33706432580947876,0.5238475203514099
1775714870198984200,2.105984130859375,-0.2051805853843689,0.23708072304725647,0.5439106822013855
1775714870208997400,2.115997314453125,-0.32009437680244446,0.23276746273040771,0.47671833634376526
1775714870219011000,2.126010986328125,-0.35575437545776367,0.2887239456176758,0.372165322303772
1775714870229025300,2.136025390625,-0.344372034072876,0.3141475319862366,0.2853686213493347
1775714870239039200,2.146039306640625,-0.33186182379722595,0.27445924282073975,0.24987028539180756
1775714870249053200,2.15605322265625,-0.2980961501598358,0.23312300443649292,0.226842999458313
1775714870259067400,2.1660673828125,-0.24344168603420258,0.23048673570156097,0.16670669615268707
1775714870269080000,2.176080078125,-0.21671552956104279,0.2511294186115265,0.0865870863199234
1775714870279094300,2.18609423828125,-0.2201901525259018,0.17318803071975708,0.04315226525068283
1775714870289108200,2.196108154296875,-0.26065582036972046,0.04170030727982521,0.06803151220083237
1775714870299122400,2.206122314453125,-0.3090401291847229,-0.09088703244924545,0.11089376360177994
1775714870309136100,2.21613623046875,-0.3173010051250458,-0.16114947199821472,0.10065390914678574
1775714870319150300,2.226150390625,-0.23326468467712402,-0.1379445493221283,0.030407706275582314
1775714870329163300,2.236163330078125,-0.08123333752155304,-0.06381946057081223,-0.06467167288064957
1775714870339177500,2.246177490234375,0.10137828439474106,-0.012850284576416016,-0.17803418636322021
1775714870349191200,2.256191162109375,0.26099804043769836,0.0377817340195179,-0.3157092332839966
1775714870359205000,2.266205078125,0.3506653308868408,0.17088279128074646,-0.4545954763889313
1775714870369219300,2.27621923828125,0.36132997274398804,0.3259245753288269,-0.5317925214767456
1775714870379233300,2.2862333984375,0.2906781733036041,0.3655036687850952,-0.5185225009918213
1775714870389246200,2.29624609375,0.16596552729606628,0.2510407567024231,-0.40329766273498535
1775714870399260200,2.30626025390625,0.020809940993785858,0.07094421237707138,-0.19518068432807922
1775714870409274400,2.3162744140625,-0.06349215656518936,-0.08166663348674774,0.046368297189474106
1775714870419288000,2.3262880859375,-0.06293529272079468,-0.1561475247144699,0.2229614406824112
1775714870429302300,2.33630224609375,0.023576965555548668,-0.18895207345485687,0.2758776545524597
1775714870439316200,2.346316162109375,0.14739744365215302,-0.17498086392879486,0.2280890941619873
1775714870449329400,2.356329345703125,0.2828143835067749,-0.12333817780017853,0.13012418150901794
1775714870459343000,2.366343017578125,0.38845667243003845,-0.048230379819869995,0.02780979312956333
1775714870469357300,2.376357421875,0.4475138485431671,-0.021884791553020477,-0.04575284197926521
1775714870479371300,2.386371337890625,0.46834591031074524,-0.043411124497652054,-0.1032843068242073
1775714870489385500,2.396385498046875,0.41223496198654175,-0.07380631566047668,-0.14421522617340088
1775714870499398100,2.406398193359375,0.2928933799266815,-0.10592377185821533,-0.16231434047222137
1775714870509412400,2.416412353515625,0.18476052582263947,-0.12949460744857788,-0.17813138663768768
1775714870519426300,2.42642626953125,0.10047867149114609,-0.11242800951004028,-0.20242634415626526
1775714870529440300,2.436440185546875,0.04800427705049515,-0.12989701330661774,-0.24794508516788483
1775714870539454200,2.4464541015625,0.03846563398838043,-0.15333202481269836,-0.3006940484046936
1775714870549468200,2.45646826171875,0.04752624034881592,-0.13150742650032043,-0.3396534323692322
1775714870559481000,2.466481201171875,0.04496347904205322,-0.10533814132213593,-0.3392300009727478
1775714870569495300,2.476495361328125,0.028427647426724434,-0.11164051294326782,-0.31569138169288635
1775714870579509200,2.48650927734375,-0.0032205607276409864,-0.14973942935466766,-0.30698496103286743
1775714870589523200,2.496523193359375,-0.043644681572914124,-0.22424454987049103,-0.3337912857532501
1775714870599537400,2.506537353515625,-0.050285276025533676,-0.2919152081012726,-0.4067879915237427
1775714870609551000,2.516551025390625,-0.01404844131320715,-0.2992998957633972,-0.48428598046302795
1775714870619564300,2.526564208984375,0.013172793202102184,-0.27525049448013306,-0.5496431589126587
1775714870629578200,2.536578125,0.03224102780222893,-0.2967826724052429,-0.5994415879249573
1775714870639592200,2.54659228515625,0.049726542085409164,-0.3255535960197449,-0.6258599162101746
1775714870649606100,2.556606201171875,0.06327378004789352,-0.3334605097770691,-0.6192978620529175
1775714870659620400,2.566620361328125,0.08940604329109192,-0.3128138482570648,-0.5874608159065247
1775714870669634300,2.57663427734375,0.11008815467357635,-0.29503777623176575,-0.5411524772644043
1775714870679647200,2.586647216796875,0.11899510025978088,-0.29383695125579834,-0.4892543852329254
1775714870689661200,2.5966611328125,0.09831831604242325,-0.25209882855415344,-0.4468054473400116
1775714870699675400,2.60667529296875,0.05501531437039375,-0.18408088386058807,-0.41210633516311646
1775714870709689300,2.616689453125,0.02274446003139019,-0.13964498043060303,-0.37551289796829224
1775714870719703300,2.626703369140625,0.006986536551266909,-0.11199657618999481,-0.3211631178855896
1775714870729717200,2.63671728515625,0.002359027974307537,-0.06601603329181671,-0.23181778192520142
1775714870739730400,2.64673046875,-0.004280232358723879,-0.006346845533698797,-0.11540835350751877
1775714870749744000,2.656744140625,-0.013450294733047485,0.03111184574663639,0.0057372478768229485
1775714870759758300,2.66675830078125,-0.02787051349878311,0.07120094448328018,0.11204265058040619
1775714870769772300,2.676772216796875,-0.047149401158094406,0.11460194736719131,0.20948638021945953
1775714870779786200,2.6867861328125,-0.06571269780397415,0.1319873332977295,0.2824431359767914
1775714870789800200,2.69680029296875,-0.08046022057533264,0.12394244968891144,0.32078495621681213
1775714870799813400,2.7068134765625,-0.08302058279514313,0.11249805241823196,0.31502237915992737
1775714870809827300,2.716827392578125,-0.0871008113026619,0.13523265719413757,0.26317065954208374
1775714870819841000,2.726841064453125,-0.08382778614759445,0.17508739233016968,0.18213491141796112
1775714870829855200,2.736855224609375,-0.07198178023099899,0.22412391006946564,0.10686147212982178
1775714870839869200,2.746869140625,-0.05031190812587738,0.2388778179883957,0.051121506839990616
1775714870849883400,2.75688330078125,-0.026103505864739418,0.21912889182567596,0.01817634142935276
1775714870859896000,2.76689599609375,-0.0003677825443446636,0.18847137689590454,0.00740145705640316
1775714870869910300,2.77691015625,0.024582307785749435,0.1779998242855072,0.018269285559654236
1775714870879924200,2.78692431640625,0.050274621695280075,0.15296530723571777,0.035960398614406586
1775714870889938400,2.7969384765625,0.07050665467977524,0.1234004944562912,0.06792312115430832
1775714870899952000,2.8069521484375,0.08149006217718124,0.08223681896924973,0.0893905982375145
1775714870909966300,2.81696630859375,0.0879620760679245,0.040371123701334,0.08713623136281967
1775714870919979300,2.826979248046875,0.1006360650062561,0.022911706939339638,0.06569059938192368
1775714870929993200,2.8369931640625,0.10930625349283218,0.03681234270334244,0.036326583474874496
1775714870940007200,2.847007080078125,0.11235690116882324,0.0733242779970169,0.00917139369994402
1775714870950021400,2.857021484375,0.10532402247190475,0.07655096799135208,-0.014956312254071236
1775714870960035300,2.867035400390625,0.08449411392211914,0.06035708263516426,-0.023305322974920273
1775714870970049300,2.87704931640625,0.05625981092453003,0.06244100630283356,-0.024326112121343613
1775714870980062200,2.887062255859375,0.029795711860060692,0.07704844325780869,-0.009100819937884808
1775714870990076400,2.897076416015625,0.00657694274559617,0.09352116286754608,0.009609484113752842
1775714871000090400,2.90709033203125,-0.006689061876386404,0.09010512381792068,0.01685328222811222
1775714871010104000,2.91710400390625,-0.016147810965776443,0.07667933404445648,0.036682646721601486
1775714871020118300,2.9271181640625,-0.012366387993097305,0.055571116507053375,0.062245797365903854
1775714871030132200,2.93713232421875,-0.002662362065166235,0.02147945947945118,0.09580269455909729
1775714871040145200,2.947145263671875,-0.0004985437262803316,-0.016704145818948746,0.12363778799772263
1775714871050159000,2.9571591796875,-0.004831506870687008,-0.04240764304995537,0.14129747450351715
1775714871060173300,2.96717333984375,0.00643845833837986,-0.05387122184038162,0.13743215799331665
1775714871070187300,2.977187255859375,0.023071764037013054,-0.034393392503261566,0.1287987232208252
1775714871080201200,2.987201171875,0.04711984097957611,-0.04054263234138489,0.10936297476291656
1775714871090215200,2.997215087890625,0.07780478149652481,-0.046308375895023346,0.08419450372457504
1775714871100228400,3.007228271484375,0.1063069999217987,-0.051789961755275726,0.059716593474149704
1775714871110242300,3.0172421875,0.1345285177230835,-0.05826250836253166,0.022533271461725235
1775714871120256300,3.02725634765625,0.14861370623111725,-0.06569112837314606,-0.0075575183145701885
1775714871130270200,3.037270263671875,0.1626235395669937,-0.07946233451366425,-0.03840810805559158
1775714871140284400,3.047284423828125,0.17357498407363892,-0.10712485760450363,-0.07155673950910568
1775714871150298400,3.05729833984375,0.18519222736358643,-0.11169856786727905,-0.10061076283454895
1775714871160311300,3.067311279296875,0.19276759028434753,-0.0826493427157402,-0.11878444254398346
1775714871170325200,3.0773251953125,0.1934370994567871,-0.05950087681412697,-0.12937183678150177
1775714871180339500,3.08733935546875,0.18905355036258698,-0.06581709533929825,-0.12702985107898712
1775714871190353200,3.097353271484375,0.1686718463897705,-0.10094685107469559,-0.10775522887706757
1775714871200367000,3.1073671875,0.1429307907819748,-0.14018560945987701,-0.07798907160758972
1775714871210380300,3.11738037109375,0.12426842004060745,-0.1496475487947464,-0.056416403502225876
1775714871220394500,3.12739453125,0.1132218986749649,-0.13965296745300293,-0.053640324622392654
1775714871230409000,3.137408935546875,0.10535784810781479,-0.11966221779584885,-0.04219139739871025
1775714871240423000,3.1474228515625,0.10134392976760864,-0.10859651863574982,-0.026731746271252632
1775714871250437000,3.15743701171875,0.08811227977275848,-0.10517062991857529,-0.006705839652568102
1775714871260451000,3.167451171875,0.06985151767730713,-0.10664469003677368,0.022038988769054413
1775714871270464000,3.177464111328125,0.05067569389939308,-0.09233924746513367,0.047692686319351196
1775714871280478000,3.18747802734375,0.03135126456618309,-0.06891781836748123,0.06178879737854004
1775714871290492200,3.1974921875,0.023665914312005043,-0.051849350333213806,0.07108056545257568
1775714871300506000,3.207506103515625,0.020717263221740723,-0.053463757038116455,0.07301349192857742
1775714871310519800,3.217519775390625,0.01842268370091915,-0.057747453451156616,0.06802912056446075
1775714871320534000,3.227533935546875,0.020193951204419136,-0.049798183143138885,0.04746818169951439
1775714871330547200,3.237547119140625,0.004357464145869017,-0.015747804194688797,0.020049341022968292
1775714871340561000,3.247560791015625,-0.008246212266385555,0.015956329181790352,-0.0005717806634493172
1775714871350574800,3.257574951171875,-0.01435257401317358,0.03368552401661873,-0.0030629015527665615
1775714871360589000,3.267589111328125,-0.01654941588640213,0.02261822670698166,0.012510998174548149
1775714871370603000,3.27760302734375,-0.020370252430438995,0.007486678194254637,0.03772260993719101
1775714871380617000,3.287616943359375,-0.02678207866847515,-0.005757221486419439,0.05988463759422302
1775714871390630000,3.2976298828125,-0.03208629786968231,-0.010658769868314266,0.06906082481145859
1775714871400644000,3.30764404296875,-0.036078907549381256,0.002508165081962943,0.07193011790513992
1775714871410658000,3.317657958984375,-0.03368685767054558,0.021866416558623314,0.07420925050973892
1775714871420672000,3.327672119140625,-0.032521989196538925,0.020685570314526558,0.0865013375878334
1775714871430686000,3.33768603515625,-0.03331428021192551,-0.00004447478931979276,0.10419884324073792
1775714871440700200,3.3477001953125,-0.03141837567090988,-0.024517327547073364,0.1134895458817482
1775714871450712800,3.357712890625,-0.03110145963728428,-0.038359906524419785,0.11639132350683212
1775714871460727000,3.36772705078125,-0.024565530940890312,-0.02905801683664322,0.11715325713157654
1775714871470741000,3.377740966796875,-0.010035057552158833,-0.017721472308039665,0.12964694201946259
1775714871480755200,3.387755126953125,0.014483069069683552,0.005890646018087864,0.15680985152721405
1775714871490769000,3.397768798828125,0.050030943006277084,0.023249927908182144,0.18866924941539764
1775714871500782800,3.407782958984375,0.08395455777645111,0.016474846750497818,0.218606635928154
1775714871510796000,3.417796142578125,0.12024199217557907,0.013305152766406536,0.24031700193881989
1775714871520810200,3.427810302734375,0.1443939357995987,0.013429788872599602,0.25525012612342834
1775714871530824000,3.437823974609375,0.1524643748998642,0.015742477029561996,0.2742888033390045
1775714871540838000,3.447837890625,0.15300419926643372,0.01065078005194664,0.27982500195503235
1775714871550852000,3.45785205078125,0.14448368549346924,0.03286980092525482,0.274998277425766
1775714871560866000,3.467865966796875,0.12394005060195923,0.07229071110486984,0.256134569644928
1775714871570879000,3.47787890625,0.10554506629705429,0.1038542240858078,0.21266326308250427
1775714871580893000,3.487892822265625,0.08821241557598114,0.12272405624389648,0.178949773311615
1775714871590907100,3.4979072265625,0.0871969535946846,0.13988760113716125,0.16613784432411194
1775714871600920800,3.5079208984375,0.07885433733463287,0.16504913568496704,0.1752181500196457
1775714871610935000,3.51793505859375,0.06834257394075394,0.16630695760250092,0.20121273398399353
1775714871620949000,3.527948974609375,0.0659736916422844,0.15315492451190948,0.23246680200099945
1775714871630962000,3.5379619140625,0.0713503435254097,0.1386343091726303,0.2585660517215729
1775714871640976000,3.547975830078125,0.0849875956773758,0.13297322392463684,0.268088698387146
1775714871650990000,3.557989990234375,0.10113487392663956,0.1213943362236023,0.2547697126865387
1775714871661004000,3.568004150390625,0.13470721244812012,0.10557223111391068,0.2254384458065033
1775714871671018200,3.578018310546875,0.2005767822265625,0.11592473834753036,0.17950130999088287
1775714871681031000,3.588031005859375,0.2791789174079895,0.19276998937129974,0.10839278250932693
1775714871691045000,3.598045166015625,0.3473321199417114,0.28007400035858154,-0.014341388829052448
1775714871701059000,3.60805908203125,0.3913712203502655,0.3371868133544922,-0.1420263797044754
1775714871711073000,3.618072998046875,0.42745786905288696,0.38429680466651917,-0.2335781306028366
1775714871721087000,3.6280869140625,0.46494024991989136,0.4166257083415985,-0.2811483144760132
1775714871731101000,3.638100830078125,0.5043401122093201,0.4482733905315399,-0.3011893928050995
1775714871741113900,3.64811376953125,0.5461030006408691,0.4980153739452362,-0.31914177536964417
1775714871751128000,3.658128173828125,0.5676546692848206,0.5310524106025696,-0.3451067805290222
1775714871761142000,3.66814208984375,0.5593826174736023,0.5624918341636658,-0.351882666349411
1775714871771156000,3.678156005859375,0.5219289660453796,0.5719205141067505,-0.30841508507728577
1775714871781170200,3.688170166015625,0.4660736918449402,0.5356181263923645,-0.22379155457019806
1775714871791184000,3.698183837890625,0.41172948479652405,0.5044061541557312,-0.12293018400669098
1775714871801197000,3.708197021484375,0.382476270198822,0.4728327989578247,-0.053534865379333496
1775714871811211000,3.7182109375,0.36678677797317505,0.40465080738067627,-0.0310513935983181
1775714871821225000,3.728224853515625,0.34920406341552734,0.31739288568496704,-0.03272758796811104
1775714871831239000,3.738239013671875,0.3460511565208435,0.24219265580177307,0.02413942478597164
1775714871841253000,3.748253173828125,0.3841570019721985,0.1793319433927536,0.14711275696754456
1775714871851267000,3.75826708984375,0.42660245299339294,0.14430631697177887,0.3003057539463043
1775714871861280000,3.768280029296875,0.44151002168655396,0.11415001004934311,0.4542196989059448
1775714871871294000,3.7782939453125,0.39246925711631775,0.08898846060037613,0.5657467842102051
1775714871881308200,3.78830810546875,0.26561224460601807,0.08003837615251541,0.5761397480964661
1775714871891321900,3.79832177734375,0.08707577735185623,0.052856821566820145,0.4631412923336029
1775714871901336000,3.808336181640625,-0.11106792837381363,0.013371732085943222,0.23769591748714447
1775714871911350000,3.81835009765625,-0.29645857214927673,-0.008646485395729542,-0.01726500689983368
1775714871921363200,3.82836328125,-0.41675594449043274,-0.004524177871644497,-0.2050173282623291
1775714871931377000,3.838376953125,-0.45135414600372314,0.009602027013897896,-0.3158429265022278
1775714871941391000,3.84839111328125,-0.4252746105194092,0.03825604170560837,-0.40093037486076355
1775714871951405000,3.858405029296875,-0.3307829797267914,0.09494835138320923,-0.507402777671814
1775714871961419000,3.8684189453125,-0.20052005350589752,0.18184037506580353,-0.6289196014404297
1775714871971433000,3.878432861328125,-0.08139658719301224,0.280792772769928,-0.7423279285430908
1775714871981446100,3.888446044921875,0.02262089028954506,0.3135283589363098,-0.8322202563285828
1775714871991460000,3.898460205078125,0.07241960614919662,0.31844455003738403,-0.8819747567176819
1775714872001473800,3.908473876953125,0.08309195935726166,0.3088182806968689,-0.8785983920097351
1775714872011488000,3.918488037109375,0.06937987357378006,0.3125978410243988,-0.8199156522750854
1775714872021502000,3.928501953125,0.04297516494989395,0.3152306377887726,-0.7090709209442139
1775714872031516200,3.93851611328125,0.0076275598257780075,0.29329660534858704,-0.524145245552063
1775714872041528800,3.94852880859375,-0.04433657228946686,0.26103878021240234,-0.3084457218647003
1775714872051543000,3.95854296875,-0.08560305088758469,0.16770005226135254,-0.09822563827037811
1775714872061557000,3.968556884765625,-0.08032786101102829,0.08213375508785248,0.10822314023971558
1775714872071571200,3.9785712890625,-0.040339965373277664,0.07835233211517334,0.2846791446208954
1775714872081585000,3.9885849609375,0.016149142757058144,0.1308285892009735,0.42007479071617126
1775714872091599000,3.99859912109375,0.05085492506623268,0.2390570491552353,0.5058525204658508
1775714872101612000,4.008612060546875,0.06290999054908752,0.2619815468788147,0.5185587406158447
1775714872111626000,4.0186259765625,0.042243592441082,0.22413429617881775,0.48965758085250854
1775714872121640000,4.028639892578125,0.010058226995170116,0.18077456951141357,0.4279193878173828
1775714872131654100,4.038654052734375,0.008225705474615097,0.20542532205581665,0.3385319709777832
1775714872141668000,4.048668212890625,0.04531661421060562,0.23471583425998688,0.22155636548995972
1775714872151681000,4.058680908203125,0.12591426074504852,0.24150289595127106,0.08435402810573578
1775714872161695000,4.068695068359375,0.22729013860225677,0.24892885982990265,-0.046791475266218185
1775714872171709200,4.078709228515625,0.28951171040534973,0.21847055852413177,-0.14294250309467316
1775714872181723100,4.08872314453125,0.29590675234794617,0.1800941377878189,-0.20041166245937347
1775714872191736800,4.09873681640625,0.2427694946527481,0.11541181057691574,-0.20104682445526123
1775714872201751000,4.1087509765625,0.13071300089359283,0.020231768488883972,-0.1735377013683319
1775714872211764200,4.11876416015625,0.018815498799085617,-0.14788773655891418,-0.1414490044116974
1775714872221778000,4.12877783203125,-0.09245030581951141,-0.2844242751598358,-0.09667514264583588
1775714872231791900,4.1387919921875,-0.16089513897895813,-0.383669376373291,-0.061945393681526184
1775714872241806000,4.14880615234375,-0.1605398803949356,-0.42579925060272217,-0.0680171325802803
1775714872251819800,4.15881982421875,-0.12419039011001587,-0.41198596358299255,-0.12849432229995728
1775714872261834000,4.168833984375,-0.0908055379986763,-0.3633374571800232,-0.23471343517303467
1775714872271847000,4.178846923828125,-0.036737240850925446,-0.3403637111186981,-0.3488897979259491
1775714872281860900,4.18886083984375,0.0030945930629968643,-0.3250068426132202,-0.4405995011329651
1775714872291874800,4.198874755859375,0.013538178987801075,-0.3433120846748352,-0.4924781322479248
1775714872301889000,4.208888916015625,0.018262093886733055,-0.34184014797210693,-0.47638171911239624
1775714872311903000,4.218903076171875,0.008742358535528183,-0.3440801501274109,-0.4072335362434387
1775714872321917000,4.2289169921875,0.006849383935332298,-0.3473433256149292,-0.3249301612377167
1775714872331929900,4.238929931640625,0.011898737400770187,-0.3396576941013336,-0.27767235040664673
1775714872341944000,4.248944091796875,0.00014407701382879168,-0.3366813361644745,-0.29915526509284973
1775714872351958000,4.2589580078125,-0.03627012297511101,-0.30062374472618103,-0.3542323708534241
1775714872361972000,4.268971923828125,-0.07884395122528076,-0.24413783848285675,-0.4015980362892151
1775714872371986000,4.27898583984375,-0.09294858574867249,-0.2566637396812439,-0.42298322916030884
1775714872381999900,4.288999755859375,-0.08878686279058456,-0.2835262417793274,-0.42149290442466736
1775714872392012800,4.2990126953125,-0.04644712805747986,-0.2784249782562256,-0.4039120376110077
1775714872402027000,4.309027099609375,0.02574504353106022,-0.2162976861000061,-0.3530060052871704
1775714872412041000,4.319041015625,0.14104394614696503,-0.16461610794067383,-0.3052685558795929
1775714872422055000,4.329054931640625,0.29681915044784546,-0.10256179422140121,-0.25407087802886963
1775714872432068900,4.33906884765625,0.45345190167427063,-0.030888140201568604,-0.19257716834545135
1775714872442082800,4.349082763671875,0.5769109725952148,0.007098389323800802,-0.10509791970252991
1775714872452096000,4.359095947265625,0.6665559411048889,0.0025033713318407536,0.012878513894975185
1775714872462110000,4.36910986328125,0.7230634093284607,-0.05287200212478638,0.09100580960512161
1775714872472124000,4.3791240234375,0.730066180229187,-0.04869936406612396,0.12457361817359924
1775714872482137900,4.389137939453125,0.6996619701385498,0.005063468124717474,0.11343707889318466
1775714872492152000,4.399152099609375,0.6407434940338135,0.031557925045490265,0.06799289584159851
1775714872502166000,4.409166015625,0.5417754054069519,0.044558677822351456,0.037153761833906174
1775714872512179000,4.419178955078125,0.408518522977829,0.024572720751166344,0.023935426026582718
1775714872522193000,4.42919287109375,0.2523534297943115,-0.007399060297757387,0.06426899880170822
1775714872532207000,4.43920703125,0.1162206158041954,-0.0535026378929615,0.1551389843225479
1775714872542220800,4.449220703125,0.011322695761919022,-0.07512111216783524,0.2549430727958679
1775714872552235000,4.459235107421875,-0.07175860553979874,-0.055095475167036057,0.34048888087272644
1775714872562248000,4.469248046875,-0.13653786480426788,-0.04964345321059227,0.3876534402370453
1775714872572262100,4.47926220703125,-0.20728953182697296,-0.012516324408352375,0.4247547388076782
1775714872582275800,4.48927587890625,-0.26449209451675415,0.030604781582951546,0.45191365480422974
1775714872592290000,4.4992900390625,-0.3055441975593567,0.03476650267839432,0.4569403827190399
1775714872602304000,4.509303955078125,-0.34237679839134216,0.009521333500742912,0.4600083529949188
1775714872612318000,4.51931787109375,-0.36182692646980286,0.0006522081675939262,0.48810896277427673
1775714872622331000,4.529330810546875,-0.35797545313835144,0.014332067221403122,0.5325731039047241
1775714872632345000,4.539344970703125,-0.35902634263038635,-0.01703011617064476,0.5630119442939758
1775714872642359000,4.549359130859375,-0.3439781367778778,-0.04844076931476593,0.5565921664237976
1775714872652372700,4.559372802734375,-0.2874951660633087,-0.014357101172208786,0.5119277238845825
1775714872662387000,4.569386962890625,-0.17847786843776703,0.0364120714366436,0.4356931447982788
1775714872672401000,4.57940087890625,-0.0783720389008522,0.022409435361623764,0.3307182788848877
1775714872682413800,4.589413818359375,-0.02112472616136074,0.004482366610318422,0.2573274075984955
1775714872692427800,4.599427734375,0.037824079394340515,0.001014398061670363,0.22240164875984192
1775714872702442000,4.60944189453125,0.1004408523440361,0.022821692749857903,0.2014913111925125
1775714872712456000,4.6194560546875,0.17313449084758759,0.06366020441055298,0.16794054210186005
1775714872722470100,4.62947021484375,0.20255737006664276,0.12046729028224945,0.10171730816364288
1775714872732483800,4.63948388671875,0.18795578181743622,0.07120813429355621,0.017502561211586
1775714872742497000,4.6494970703125,0.16939382255077362,-0.015780294314026833,-0.05270235985517502
1775714872752511000,4.659510986328125,0.1503804475069046,-0.06416700035333633,-0.1311124861240387
1775714872762525000,4.66952490234375,0.08401154726743698,-0.09676382690668106,-0.23467962443828583
1775714872772539000,4.679538818359375,-0.008374043740332127,-0.09898703545331955,-0.3384036123752594
1775714872782552800,4.689552734375,-0.09298613667488098,-0.13731497526168823,-0.4105968475341797
1775714872792567000,4.699567138671875,-0.16855253279209137,-0.20109981298446655,-0.43993237614631653
1775714872802580000,4.709580078125,-0.23604901134967804,-0.27849528193473816,-0.4395802915096283
1775714872812594000,4.719593994140625,-0.2868962287902832,-0.30062136054039,-0.42461228370666504
1775714872822608000,4.72960791015625,-0.3028024733066559,-0.26352325081825256,-0.4038228392601013
1775714872832621800,4.739621826171875,-0.2692895233631134,-0.1946488469839096,-0.3930748403072357
1775714872842635800,4.7496357421875,-0.2186998575925827,-0.15668335556983948,-0.38064321875572205
1775714872852650000,4.75964990234375,-0.19823479652404785,-0.18154822289943695,-0.350425660610199
1775714872862663000,4.769662841796875,-0.2056056261062622,-0.18434268236160278,-0.31946587562561035
1775714872872676900,4.7796767578125,-0.20627062022686005,-0.1469806581735611,-0.2940753102302551
1775714872882690800,4.78969091796875,-0.20605942606925964,-0.12328518182039261,-0.2773226797580719
1775714872892705000,4.799705078125,-0.220436230301857,-0.14042341709136963,-0.2560078203678131
1775714872902719000,4.809718994140625,-0.230767160654068,-0.1491423398256302,-0.2210463583469391
1775714872912733000,4.81973291015625,-0.22997061908245087,-0.14063593745231628,-0.1721525937318802
1775714872922745900,4.829745849609375,-0.2163858264684677,-0.11648426949977875,-0.11638892441987991
1775714872932760000,4.839760009765625,-0.16768087446689606,-0.07858588546514511,-0.08085224032402039
1775714872942773800,4.849773681640625,-0.1266881674528122,-0.030940605327486992,-0.07054048031568527
1775714872952788000,4.8597880859375,-0.0975734293460846,0.023267505690455437,-0.08129938691854477
1775714872962802000,4.869802001953125,-0.08305094391107559,0.06936921924352646,-0.07402895390987396
1775714872972815000,4.879815185546875,-0.06725999712944031,0.08361553400754929,-0.05899114906787872
1775714872982828800,4.889828857421875,-0.0733778104186058,0.0770748108625412,-0.05626087635755539
1775714872992843000,4.899843017578125,-0.11564537137746811,0.02840767242014408,-0.06221383810043335
1775714873002857000,4.90985693359375,-0.1733129322528839,-0.015109976753592491,-0.03916418179869652
1775714873012871000,4.919870849609375,-0.19115984439849854,-0.05088608339428902,0.008079764433205128
1775714873022884900,4.929884765625,-0.18463322520256042,-0.07863009721040726,0.03447861596941948
1775714873032898000,4.93989794921875,-0.14692260324954987,-0.12672652304172516,0.0008367652189917862
1775714873042912000,4.949912109375,-0.07664178311824799,-0.14075419306755066,-0.08838046342134476
1775714873052926000,4.959926025390625,0.038966573774814606,-0.12810418009757996,-0.24408909678459167
1775714873062940000,4.96993994140625,0.17260000109672546,-0.09548391401767731,-0.45318424701690674
1775714873072953900,4.979953857421875,0.28706052899360657,-0.0387125089764595,-0.6849543452262878
1775714873082968000,4.989968017578125,0.39483359456062317,0.05648458003997803,-0.8492559790611267
1775714873092980700,4.999980712890625,0.45683544874191284,0.09957665950059891,-0.9190605878829956
1775714873102995000,5.009994873046875,0.4641721844673157,0.06904005259275436,-0.891910195350647
1775714873113009000,5.0200087890625,0.4562026858329773,0.026033997535705566,-0.8023710250854492
1775714873123023000,5.030023193359375,0.43463054299354553,0.017100157216191292,-0.7028124928474426
1775714873133036800,5.040036865234375,0.40409979224205017,0.02552107162773609,-0.6336978673934937
1775714873143051000,5.050051025390625,0.3675311505794525,0.003858387703076005,-0.5910334587097168
1775714873153064000,5.06006396484375,0.32756295800209045,-0.019518308341503143,-0.5626425743103027
1775714873163078000,5.070077880859375,0.2872917056083679,-0.010128534398972988,-0.5380434989929199
1775714873173091800,5.080091796875,0.24107439815998077,0.02256469801068306,-0.5120329260826111
1775714873183106000,5.09010595703125,0.19247330725193024,0.03329244256019592,-0.4887177646160126
1775714873193120000,5.1001201171875,0.13631044328212738,0.06954525411128998,-0.44855010509490967
1775714873203133000,5.1101328125,0.06873911619186401,0.08667550981044769,-0.3906915783882141
1775714873213147000,5.12014697265625,-0.012042282149195671,0.07256980985403061,-0.31654679775238037
1775714873223161000,5.1301611328125,-0.07585694640874863,0.056825198233127594,-0.21965140104293823
1775714873233174300,5.14017431640625,-0.09841551631689072,0.007404919248074293,-0.13150982558727264
1775714873243188500,5.1501884765625,-0.09090966731309891,-0.00893623661249876,-0.07150667160749435
1775714873253202400,5.160202392578125,-0.05554927885532379,-0.002665557898581028,-0.05880073085427284
1775714873263215600,5.170215576171875,-0.007001183927059174,0.04765007644891739,-0.0794743224978447
1775714873273229300,5.180229248046875,0.04012105241417885,0.08603927493095398,-0.08923427015542984
1775714873283243500,5.190243408203125,0.09266655147075653,0.11312442272901535,-0.07630249112844467
1775714873293257500,5.200257568359375,0.14801716804504395,0.14933089911937714,-0.07156925648450851
1775714873303271400,5.210271484375,0.18723247945308685,0.2026364654302597,-0.10272424668073654
1775714873313285400,5.220285400390625,0.20507805049419403,0.2433154433965683,-0.15507693588733673
1775714873323298600,5.230298583984375,0.20960116386413574,0.2507520616054535,-0.19589173793792725
1775714873333312500,5.2403125,0.20045879483222961,0.22819162905216217,-0.2062375843524933
1775714873343326200,5.250326171875,0.1780477613210678,0.1919744908809662,-0.19237476587295532
1775714873353340400,5.26034033203125,0.14991839230060577,0.1773819774389267,-0.16731922328472137
1775714873363354400,5.270354248046875,0.12743918597698212,0.18291975557804108,-0.13987214863300323
1775714873373368600,5.28036865234375,0.08277291059494019,0.1822691410779953,-0.11144423484802246
1775714873383381200,5.29038134765625,0.022191587835550308,0.1538497507572174,-0.08452101051807404
1775714873393395500,5.3003955078125,-0.03467648848891258,0.09012509882450104,-0.05245175585150719
1775714873403409400,5.310409423828125,-0.0656152293086052,0.005532184615731239,-0.02810274064540863
1775714873413423600,5.320423583984375,-0.044372525066137314,-0.037688255310058594,-0.03014565259218216
1775714873423437300,5.330437255859375,0.012326174415647984,-0.01757606491446495,-0.06871168315410614
1775714873433451500,5.340451416015625,0.056950900703668594,0.032945167273283005,-0.14708398282527924
1775714873443464400,5.35046435546875,0.09934656322002411,0.05190687254071236,-0.2469160407781601
1775714873453478400,5.360478515625,0.12938781082630157,0.06288735568523407,-0.371944785118103
1775714873463492400,5.370492431640625,0.17063193023204803,0.11427943408489227,-0.5126358866691589
1775714873473506600,5.380506591796875,0.23023347556591034,0.15193946659564972,-0.6435518264770508
1775714873483520500,5.3905205078125,0.292672336101532,0.1447790265083313,-0.7401654124259949
1775714873493533400,5.400533447265625,0.3296426236629486,0.12205826491117477,-0.7849164009094238
1775714873503547400,5.41054736328125,0.3119208812713623,0.08211297541856766,-0.7840966582298279
1775714873513561600,5.4205615234375,0.24240517616271973,0.03729304298758507,-0.7369217276573181
1775714873523575600,5.430575439453125,0.1577986776828766,0.022962573915719986,-0.6521136164665222
1775714873533589200,5.44058935546875,0.060983192175626755,0.030671626329421997,-0.5528043508529663
1775714873543603500,5.450603515625,-0.030658842995762825,0.038725558668375015,-0.4516492187976837
1775714873553616600,5.46061669921875,-0.11580702662467957,0.06157095357775688,-0.3406641185283661
1775714873563630300,5.47063037109375,-0.20189769566059113,0.06003271043300629,-0.22486719489097595
1775714873573644300,5.480644287109375,-0.2507352828979492,0.04833158105611801,-0.11484535783529282
1775714873583658500,5.490658447265625,-0.2502079904079437,0.08191829919815063,-0.009770072996616364
1775714873593672400,5.50067236328125,-0.2072352170944214,0.1357671469449997,0.07499594986438751
1775714873603686400,5.510686279296875,-0.1551768034696579,0.1651277095079422,0.1472107619047165
1775714873613699300,5.52069921875,-0.10371414572000504,0.14540007710456848,0.20529375970363617
1775714873623713500,5.530713623046875,-0.0656874030828476,0.14247778058052063,0.25372734665870667
1775714873633727200,5.540727294921875,-0.034032803028821945,0.17207828164100647,0.28862592577934265
1775714873643741400,5.550741455078125,-0.015297463163733482,0.20085987448692322,0.3058997392654419
1775714873653755400,5.56075537109375,-0.02081872895359993,0.19750961661338806,0.318744957447052
1775714873663769600,5.57076953125,-0.04038817062973976,0.14550286531448364,0.32737812399864197
1775714873673782300,5.5807822265625,-0.0612734779715538,0.08992429822683334,0.3422257900238037
1775714873683796500,5.59079638671875,-0.07525747269392014,0.058751195669174194,0.3350626826286316
1775714873693810400,5.600810546875,-0.07963277399539948,0.05432768538594246,0.3036070168018341
1775714873703824600,5.61082470703125,-0.07334638386964798,0.06653028726577759,0.2513744533061981
1775714873713838300,5.62083837890625,-0.06360134482383728,0.07232026755809784,0.19081628322601318
1775714873723852300,5.630852294921875,-0.04253973811864853,0.06407245993614197,0.13810114562511444
1775714873733865500,5.640865478515625,-0.019716447219252586,0.023975640535354614,0.10665427148342133
1775714873743879400,5.65087939453125,0.0012950951931998134,-0.01540585421025753,0.09664851427078247
1775714873753893400,5.660893310546875,0.012850817292928696,-0.031382422894239426,0.07185794413089752
1775714873763907300,5.6709072265625,0.009659551084041595,-0.04139404371380806,0.02431359514594078
1775714873773921500,5.680921630859375,-0.0006359628750942647,-0.049300968647003174,-0.016859406605362892
1775714873783934500,5.6909345703125,-0.013817012310028076,-0.04746445268392563,-0.04820587858557701
1775714873793948400,5.700948486328125,-0.021815549582242966,-0.06726319342851639,-0.08262590318918228
1775714873803962400,5.71096240234375,-0.021979600191116333,-0.07910680025815964,-0.1152656078338623
1775714873813976600,5.7209765625,-0.011130149476230145,-0.0650106891989708,-0.14787760376930237
1775714873823990300,5.730990234375,0.013501694425940514,-0.02057291939854622,-0.1670936495065689
1775714873834004500,5.74100439453125,0.050096191465854645,0.02745000086724758,-0.16584862768650055
1775714873844017400,5.751017333984375,0.09961234033107758,0.045403167605400085,-0.13179397583007812
1775714873854031400,5.76103125,0.13931608200073242,0.037641651928424835,-0.07752168923616409
1775714873864045300,5.77104541015625,0.16549575328826904,0.018211228772997856,-0.014786136336624622
1775714873874059500,5.7810595703125,0.16850405931472778,-0.0010759170399978757,0.04543193057179451
1775714873884073500,5.791073486328125,0.15793104469776154,0.011304319836199284,0.0907147228717804
1775714873894087400,5.80108740234375,0.1405179649591446,0.027593810111284256,0.1215546578168869
1775714873904100400,5.811100341796875,0.12289875745773315,0.016561666503548622,0.1537560075521469
1775714873914114600,5.821114501953125,0.09709565341472626,-0.007290403358638287,0.19690720736980438
1775714873924128500,5.83112841796875,0.07320737093687057,-0.025857696309685707,0.22630584239959717
1775714873934142500,5.841142578125,0.05372288450598717,-0.01492568664252758,0.23516350984573364
1775714873944156400,5.851156494140625,0.044684648513793945,0.0256907157599926,0.21941357851028442
1775714873954170400,5.86117041015625,0.042205777019262314,0.049851711839437485,0.1959514021873474
1775714873964183300,5.871183349609375,0.041606031358242035,0.04999366030097008,0.17649061977863312
1775714873974197500,5.881197509765625,0.03909307345747948,0.03597451373934746,0.16317906975746155
1775714873984211500,5.89121142578125,0.022401979193091393,0.009357016533613205,0.15870602428913116
1775714873994225400,5.901225341796875,-0.0044165863655507565,-0.03688318282365799,0.15824423730373383
1775714874004239400,5.9112392578125,-0.03724297508597374,-0.08035103231668472,0.16908755898475647
1775714874014252500,5.92125244140625,-0.07735950499773026,-0.11379261314868927,0.17415741086006165
1775714874024266500,5.9312666015625,-0.10304542630910873,-0.11235663294792175,0.1749640852212906
1775714874034280400,5.941280517578125,-0.1055637076497078,-0.1110391691327095,0.16631600260734558
1775714874044294400,5.95129443359375,-0.09448176622390747,-0.11410899460315704,0.15156768262386322
1775714874054308400,5.961308349609375,-0.07851158827543259,-0.10802207142114639,0.1278090924024582
1775714874064322600,5.971322509765625,-0.057817492634058,-0.10084965080022812,0.10383664816617966
1775714874074335200,5.981335205078125,-0.0371289923787117,-0.07831691205501556,0.07557891309261322
1775714874084349400,5.991349365234375,-0.02286669984459877,-0.06121941655874252,0.03759478032588959
1775714874094363400,6.00136328125,-0.014213024638593197,-0.051045872271060944,0.008829976432025433
1775714874104377600,6.011377685546875,-0.004358795937150717,-0.046668436378240585,-0.008363391272723675
1775714874114391300,6.021391357421875,0.004283428192138672,-0.04809828847646713,-0.0003920173039659858
1775714874124405500,6.031405517578125,-0.005664277356117964,-0.07516505569219589,0.01637098379433155
1775714874134418400,6.04141845703125,-0.024806812405586243,-0.10436715185642242,0.035894885659217834
1775714874144432600,6.0514326171875,-0.03616759181022644,-0.11079975217580795,0.05447522550821304
1775714874154446300,6.0614462890625,-0.03803792968392372,-0.09509162604808807,0.06131076067686081
1775714874164460500,6.07146044921875,-0.03960786387324333,-0.0740467980504036,0.06157654523849487
1775714874174474500,6.081474609375,-0.029857764020562172,-0.07791450619697571,0.06273635476827621
1775714874184488400,6.091488525390625,-0.019166769459843636,-0.08521422743797302,0.08538839966058731
1775714874194501400,6.10150146484375,-0.008404403924942017,-0.09705118089914322,0.10736427456140518
1775714874204515600,6.111515625,0.006411293987184763,-0.09985096007585526,0.1165817379951477
1775714874214529500,6.121529541015625,0.014661766588687897,-0.08785581588745117,0.10343904048204422
1775714874224543200,6.131543212890625,0.016591493040323257,-0.053889330476522446,0.0696222186088562
1775714874234557200,6.14155712890625,0.030295055359601974,-0.008986304514110088,0.03045324608683586
1775714874244571100,6.151571044921875,0.04657655581831932,0.022962307557463646,0.006146575789898634
1775714874254584300,6.161584228515625,0.047923583537340164,0.03291613981127739,0.01673903316259384
1775714874264598300,6.171598388671875,0.0429764948785305,0.01525804866105318,0.056663013994693756
1775714874274612200,6.1816123046875,0.027042802423238754,0.003141997382044792,0.10781648010015488
1775714874284626200,6.191626220703125,0.014054832980036736,0.0036077843979001045,0.15069417655467987
1775714874294640400,6.201640380859375,0.010881409980356693,0.013547234237194061,0.18278419971466064
1775714874304653000,6.211653076171875,0.026223348453640938,0.001845038030296564,0.19713357090950012
1775714874314667300,6.221667236328125,0.03525279462337494,-0.01050617080181837,0.20017702877521515
1775714874324681200,6.23168115234375,0.03263011574745178,-0.015359515324234962,0.19547788798809052
1775714874334695400,6.2416953125,0.020169982686638832,-0.009355951100587845,0.1811833679676056
1775714874344709000,6.251709228515625,0.012325108982622623,-0.014057761989533901,0.15861627459526062
1775714874354723300,6.261723388671875,-0.0029523803386837244,-0.029448436573147774,0.13258041441440582
1775714874364736300,6.271736328125,-0.01786874607205391,-0.03796975314617157,0.09993751347064972
1775714874374750500,6.28175048828125,-0.01787646859884262,-0.032711874693632126,0.06557155400514603
1775714874384764200,6.29176416015625,-0.020384900271892548,-0.008791361004114151,0.017775801941752434
1775714874394778400,6.3017783203125,-0.016411995515227318,0.00022690132027491927,-0.04271337389945984
1775714874404792300,6.311792236328125,0.003261040663346648,0.030524618923664093,-0.08260353654623032
1775714874414806300,6.32180615234375,0.007816378027200699,0.05441450700163841,-0.10243423283100128
1775714874424819200,6.331819091796875,-0.004824848845601082,0.06078052520751953,-0.10529313236474991
1775714874434833400,6.34183349609375,-0.026995131745934486,0.059534698724746704,-0.09061778336763382
1775714874444847400,6.351847412109375,-0.05018727108836174,0.051058657467365265,-0.05727367475628853
1775714874454861000,6.361861083984375,-0.08332525193691254,0.03415956720709801,-0.015415174886584282
1775714874464875300,6.371875244140625,-0.1144309714436531,-0.007704258430749178,0.03622112050652504
1775714874474889200,6.38188916015625,-0.13680632412433624,-0.041480064392089844,0.09082444757223129
1775714874484902400,6.39190234375,-0.14203064143657684,-0.05092683061957359,0.12971778213977814
1775714874494916000,6.401916015625,-0.14067988097667694,-0.039623044431209564,0.14748506247997284
1775714874504930300,6.411930419921875,-0.13130129873752594,-0.01841096580028534,0.13372237980365753
1775714874514944300,6.4219443359375,-0.10683776438236237,0.009159409441053867,0.10856456309556961
1775714874524958500,6.43195849609375,-0.07272613793611526,0.03299257159233093,0.08045622706413269
1775714874534971100,6.44197119140625,-0.03796602413058281,0.05109940469264984,0.050331346690654755
1775714874544985300,6.4519853515625,-0.021150825545191765,0.046121690422296524,0.02191009186208248
1775714874554999300,6.461999267578125,-0.026093119755387306,0.037807565182447433,0.014343253336846828
1775714874565013200,6.47201318359375,-0.04575124382972717,0.02544517256319523,0.03316354751586914
1775714874575027200,6.482027099609375,-0.06132248044013977,0.0031963258516043425,0.059965331107378006
1775714874585041400,6.49204150390625,-0.07616826891899109,-0.0113400062546134,0.06817799061536789
1775714874595054000,6.50205419921875,-0.06970717757940292,0.01404710952192545,0.052689310163259506
1775714874605068300,6.512068359375,-0.057560231536626816,0.06834416836500168,0.00999244675040245
1775714874615082200,6.522082275390625,-0.05634529888629913,0.09719472378492355,-0.048705488443374634
1775714874625096400,6.532096435546875,-0.07172399014234543,0.12462235242128372,-0.09176480770111084
1775714874635110400,6.5421103515625,-0.093004509806633,0.1676558405160904,-0.10483826696872711
1775714874645124000,6.5521240234375,-0.1162286028265953,0.1855429708957672,-0.08920444548130035
1775714874655137300,6.56213720703125,-0.1429014950990677,0.17728370428085327,-0.035222169011831284
1775714874665151200,6.572151123046875,-0.18712835013866425,0.14643950760364532,0.05583876371383667
1775714874675165200,6.582165283203125,-0.24038997292518616,0.10662684589624405,0.17157414555549622
1775714874685179100,6.59217919921875,-0.29048189520835876,0.053215283900499344,0.2867034077644348
1775714874695193300,6.602193359375,-0.34079301357269287,-0.021040836349129677,0.3874766230583191
1775714874705207300,6.612207275390625,-0.3619630038738251,-0.074287548661232,0.4534801244735718
1775714874715220200,6.62222021484375,-0.34668684005737305,-0.06734335422515869,0.4720354378223419
1775714874725234200,6.632234130859375,-0.28352412581443787,-0.020591827109456062,0.44513005018234253
1775714874735248400,6.642248291015625,-0.20206016302108765,0.024321850389242172,0.3791305422782898
1775714874745262000,6.652261962890625,-0.12649215757846832,0.07971186935901642,0.3039225935935974
1775714874755276300,6.6622763671875,-0.04246383532881737,0.15726232528686523,0.2160462737083435
1775714874765289200,6.672289306640625,0.04199352115392685,0.25656893849372864,0.140020489692688
1775714874775303400,6.682303466796875,0.11420886218547821,0.3349878489971161,0.07134421914815903
1775714874785317000,6.692317138671875,0.16524435579776764,0.3658711910247803,0.022774821147322655
1775714874795331300,6.702331298828125,0.16894827783107758,0.3566579818725586,-0.005902896635234356
1775714874805345300,6.71234521484375,0.14433427155017853,0.3490530550479889,-0.0100238723680377
1775714874815359200,6.722359130859375,0.10279961675405502,0.36425092816352844,0.00034168356796726584
1775714874825372200,6.7323720703125,0.064162477850914,0.38447123765945435,0.021144965663552284
1775714874835386400,6.742386474609375,0.03604215756058693,0.39341068267822266,0.059001266956329346
1775714874845400300,6.752400390625,-0.007835552096366882,0.37685540318489075,0.09794893115758896
1775714874855414300,6.762414306640625,-0.055327437818050385,0.3491058051586151,0.13477538526058197
1775714874865428200,6.77242822265625,-0.08800628781318665,0.34863921999931335,0.16623930633068085
1775714874875442200,6.782442138671875,-0.10769796371459961,0.37462741136550903,0.18786896765232086
1775714874885455400,6.792455322265625,-0.11357422918081284,0.36238911747932434,0.21142728626728058
1775714874895469300,6.80246923828125,-0.10725907981395721,0.3087623715400696,0.24667049944400787
1775714874905483300,6.812483154296875,-0.08495616912841797,0.2625943422317505,0.2711681127548218
1775714874915497200,6.822497314453125,-0.06046121194958687,0.2499736249446869,0.28169745206832886
1775714874925511400,6.832511474609375,-0.0426206961274147,0.24341025948524475,0.2808876037597656
1775714874935524400,6.8425244140625,-0.0691380575299263,0.2601082921028137,0.2719462811946869
1775714874945538300,6.852538330078125,-0.11985503137111664,0.2857835590839386,0.2440720498561859
1775714874955552300,6.86255224609375,-0.14189136028289795,0.33176514506340027,0.195200115442276
1775714874965566200,6.872566162109375,-0.15011359751224518,0.4177008271217346,0.1560647040605545
1775714874975580200,6.882580078125,-0.15318848192691803,0.483982115983963,0.13318708539009094
1775714874985594400,6.892594482421875,-0.15714195370674133,0.47368180751800537,0.12094692885875702
1775714874995607300,6.902607177734375,-0.16327254474163055,0.4072929322719574,0.14048786461353302
1775714875005621200,6.912621337890625,-0.16162511706352234,0.3308040201663971,0.18276289105415344
1775714875015635200,6.92263525390625,-0.1633058339357376,0.3000703454017639,0.21369603276252747
1775714875025649400,6.9326494140625,-0.18650782108306885,0.30377188324928284,0.22469249367713928
1775714875035663400,6.942663330078125,-0.22196941077709198,0.29702475666999817,0.2324897050857544
1775714875045677300,6.95267724609375,-0.28279921412467957,0.24934431910514832,0.2647554874420166
1775714875055690200,6.962690185546875,-0.37648680806159973,0.23329290747642517,0.31116533279418945
1775714875065704400,6.972704345703125,-0.4680987596511841,0.2797626852989197,0.3374131917953491
1775714875075718100,6.98271826171875,-0.515247106552124,0.2915402352809906,0.32776376605033875
1775714875085732000,6.992732177734375,-0.5483019948005676,0.2528333067893982,0.3054659068584442
1775714875095746300,7.002746337890625,-0.5693755745887756,0.19901323318481445,0.2958873212337494
1775714875105759200,7.01275927734375,-0.542597770690918,0.17512574791908264,0.28945231437683105
1775714875115773200,7.022773193359375,-0.4789934754371643,0.18347714841365814,0.27042749524116516
1775714875125787100,7.032787109375,-0.3870888650417328,0.23612837493419647,0.23278184235095978
1775714875135801300,7.04280126953125,-0.2937605082988739,0.2930281460285187,0.18994037806987762
1775714875145815300,7.052815185546875,-0.23282232880592346,0.3246196210384369,0.15347157418727875
1775714875155829200,7.062829345703125,-0.21440577507019043,0.3294101357460022,0.11101493239402771
1775714875165842200,7.07284228515625,-0.2551873028278351,0.30307677388191223,0.060027915984392166
1775714875175856400,7.0828564453125,-0.33512207865715027,0.23192670941352844,0.03737373650074005
1775714875185870000,7.0928701171875,-0.41579481959342957,0.1330222338438034,0.04860455542802811
1775714875195884300,7.10288427734375,-0.4432213604450226,0.053170543164014816,0.08861535042524338
1775714875205898200,7.112898193359375,-0.3953169584274292,-0.00011877698125317693,0.1574157178401947
1775714875215912400,7.122912353515625,-0.3092273473739624,-0.03381548821926117,0.23619548976421356
1775714875225925000,7.132925048828125,-0.18376584351062775,-0.040885645896196365,0.3019191026687622
1775714875235939000,7.14293896484375,-0.0813065767288208,-0.019414709880948067,0.33456093072891235
1775714875245952800,7.152952880859375,-0.013259612955152988,-0.0013073458103463054,0.3529585897922516
1775714875255967000,7.162967041015625,0.02996588870882988,0.003163036424666643,0.3845953345298767
1775714875265981000,7.17298095703125,0.03165566548705101,-0.004619785584509373,0.43364864587783813
1775714875275993900,7.182993896484375,0.01889033429324627,-0.053032856434583664,0.4812372028827667
1775714875286007800,7.1930078125,0.003748399205505848,-0.11861879378557205,0.5264155864715576
1775714875296022000,7.20302197265625,0.0038424087688326836,-0.20010726153850555,0.5623629689216614
1775714875306036000,7.213035888671875,0.03793033957481384,-0.25648850202560425,0.5591937899589539
1775714875316050000,7.2230498046875,0.11119389533996582,-0.25730130076408386,0.4991094172000885
1775714875326063900,7.23306396484375,0.1953154355287552,-0.20038928091526031,0.40150776505470276
1775714875336077000,7.2430771484375,0.2685241401195526,-0.17082606256008148,0.2887236773967743
1775714875346091000,7.253091064453125,0.29895395040512085,-0.17666052281856537,0.19584406912326813
1775714875356105000,7.26310498046875,0.3126833438873291,-0.2150137722492218,0.13713255524635315
1775714875366119000,7.273118896484375,0.3121885359287262,-0.17092354595661163,0.09983791410923004
1775714875376132900,7.2831328125,0.2838175892829895,-0.0856589749455452,0.04337996616959572
1775714875386147000,7.29314697265625,0.27579668164253235,-0.06245112791657448,-0.017198961228132248
1775714875396160000,7.303159912109375,0.2617573142051697,-0.08732664585113525,-0.032523322850465775
1775714875406174000,7.313174072265625,0.2310854196548462,-0.1607063263654709,-0.006383064668625593
1775714875416188000,7.32318798828125,0.20896919071674347,-0.24899064004421234,0.013951501809060574
1775714875426201900,7.333201904296875,0.19364802539348602,-0.2959347069263458,0.010350375436246395
1775714875436215800,7.3432158203125,0.19210658967494965,-0.2607133388519287,-0.009227853268384933
1775714875446229000,7.35322900390625,0.2131253182888031,-0.15437225997447968,-0.044008202850818634
1775714875456243000,7.363242919921875,0.2535443902015686,-0.0940050557255745,-0.08101335912942886
1775714875466257000,7.3732568359375,0.2782774269580841,0.027117904275655746,-0.11990616470575333
1775714875476270800,7.383270751953125,0.28313982486724854,0.20711643993854523,-0.19005969166755676
1775714875486285000,7.39328515625,0.26806899905204773,0.4032987356185913,-0.2909460961818695
1775714875496299000,7.403299072265625,0.20393821597099304,0.5987361073493958,-0.3743256628513336
1775714875506312000,7.41331201171875,0.10747586190700531,0.6669538021087646,-0.39577823877334595
1775714875516326000,7.423325927734375,-0.020714066922664642,0.573093593120575,-0.3478301465511322
1775714875526340000,7.433340087890625,-0.145027756690979,0.3394494354724884,-0.2428768277168274
1775714875536353800,7.443353759765625,-0.2514905631542206,0.15801146626472473,-0.09206414967775345
1775714875546368000,7.453367919921875,-0.33606722950935364,0.054898135364055634,0.06857986003160477
1775714875556382000,7.4633818359375,-0.37353044748306274,0.013072658330202103,0.1966768354177475
1775714875566395100,7.47339501953125,-0.3439163565635681,-0.017362212762236595,0.23699603974819183
1775714875576408800,7.483408935546875,-0.2664697766304016,-0.009036105126142502,0.23452915251255035
1775714875586423000,7.493423095703125,-0.15472540259361267,-0.024406805634498596,0.20242421329021454
1775714875596437000,7.50343701171875,-0.03617718070745468,0.015340073965489864,0.14205114543437958
1775714875606451000,7.513450927734375,0.04421086981892586,-0.013489976525306702,0.0427357442677021
1775714875616464000,7.5234638671875,0.10372133553028107,-0.043946683406829834,-0.05533995479345322
1775714875626478000,7.53347802734375,0.1486014574766159,-0.04384734854102135,-0.11836366355419159
1775714875636492000,7.543491943359375,0.1865997016429901,-0.08506935089826584,-0.1440860629081726
1775714875646505700,7.553505615234375,0.21107149124145508,-0.151359423995018,-0.1421763151884079
1775714875656520000,7.56352001953125,0.22698254883289337,-0.22546720504760742,-0.13681404292583466
1775714875666534000,7.573533935546875,0.25050705671310425,-0.24870967864990234,-0.1326557844877243
1775714875676546800,7.583546875,0.26966342329978943,-0.24409282207489014,-0.12867940962314606
1775714875686560800,7.593560791015625,0.32173436880111694,-0.269692987203598,-0.1385304480791092
1775714875696575000,7.603574951171875,0.37561196088790894,-0.2936939299106598,-0.1415046602487564
1775714875706589000,7.6135888671875,0.3989207446575165,-0.3431272506713867,-0.1654030680656433
1775714875716603100,7.62360302734375,0.43084779381752014,-0.3727583885192871,-0.21398551762104034
1775714875726616800,7.633616943359375,0.46801406145095825,-0.3191036880016327,-0.28218668699264526
1775714875736630000,7.643630126953125,0.47395798563957214,-0.24155856668949127,-0.3480519950389862
1775714875746644000,7.65364404296875,0.4656563699245453,-0.2039824277162552,-0.33687204122543335
1775714875756658000,7.663657958984375,0.42805466055870056,-0.13538286089897156,-0.2715606689453125
1775714875766672000,7.673671875,0.33361098170280457,-0.06595957279205322,-0.250524640083313
1775714875776686000,7.68368603515625,0.2395859658718109,-0.0780511274933815,-0.28356513381004333
1775714875786698800,7.69369873046875,0.18577492237091064,-0.0938577875494957,-0.31058424711227417
1775714875796713000,7.703712890625,0.15169978141784668,-0.04411020129919052,-0.3304695188999176
1775714875806727000,7.713726806640625,0.11205916106700897,0.040055274963378906,-0.36210548877716064
1775714875816740900,7.723740966796875,0.08515164256095886,0.08484618365764618,-0.4110375940799713
1775714875826755000,7.733755126953125,0.025604428723454475,0.1284932643175125,-0.4394300878047943
1775714875836768800,7.743768798828125,-0.06003643944859505,0.14796710014343262,-0.4264218807220459
1775714875846782000,7.753781982421875,-0.13366271555423737,0.13736291229724884,-0.37177568674087524
1775714875856796000,7.7637958984375,-0.19217289984226227,0.10988229513168335,-0.28009742498397827
1775714875866809900,7.773809814453125,-0.2307211011648178,0.039383359253406525,-0.16398893296718597
1775714875876823800,7.78382373046875,-0.26049044728279114,-0.03281067684292793,-0.060996510088443756
1775714875886838000,7.793838134765625,-0.2940353453159332,-0.059716857969760895,0.008086422458291054
1775714875896852000,7.80385205078125,-0.3001507818698883,-0.03592817485332489,0.06379282474517822
1775714875906865000,7.813864990234375,-0.287514865398407,0.014957377687096596,0.11651010066270828
1775714875916878800,7.82387890625,-0.2388213723897934,-0.03584614768624306,0.1335868239402771
1775714875926893000,7.83389306640625,-0.18711796402931213,-0.06006946042180061,0.14235128462314606
1775714875936906800,7.84390673828125,-0.11582700163125992,-0.03779025375843048,0.15696005523204803
1775714875946921000,7.8539208984375,-0.05812855064868927,0.008886169642210007,0.167088583111763
1775714875956934000,7.863933837890625,-0.018076471984386444,0.02221236191689968,0.16763827204704285
1775714875966948000,7.873947998046875,-0.02352956123650074,-0.007256847806274891,0.17298829555511475
1775714875976961800,7.8839619140625,-0.05329864099621773,-0.05950940027832985,0.1808059960603714
1775714875986976000,7.89397607421875,-0.08397746086120605,-0.10067121684551239,0.1770528107881546
1775714875996990000,7.903989990234375,-0.11454015970230103,-0.1175742968916893,0.1664731353521347
1775714876007004000,7.91400390625,-0.1299595981836319,-0.16727900505065918,0.13368935883045197
1775714876017016800,7.924016845703125,-0.11266742646694183,-0.17950130999088287,0.12505725026130676
1775714876027031000,7.934031005859375,-0.07404626160860062,-0.18232107162475586,0.14603310823440552
1775714876037045000,7.944044921875,-0.006403304636478424,-0.2164880931377411,0.16706036031246185
1775714876047059000,7.954058837890625,0.07222200185060501,-0.2594662010669708,0.16476312279701233
1775714876057073000,7.964072998046875,0.16228504478931427,-0.21906471252441406,0.12163988500833511
1775714876067086000,7.974086181640625,0.25846296548843384,-0.16041497886180878,0.04571608826518059
1775714876077100000,7.98410009765625,0.3184663951396942,-0.16557511687278748,-0.018255969509482384
1775714876087114000,7.994114013671875,0.32562577724456787,-0.20360958576202393,-0.03415424004197121
1775714876097128000,8.0041279296875,0.311127245426178,-0.23578189313411713,-0.020720457658171654
1775714876107142000,8.014141845703126,0.32559728622436523,-0.18556825816631317,-0.025972478091716766
1775714876117156000,8.024156005859375,0.3502048850059509,-0.07633498311042786,-0.0551343597471714
1775714876127168800,8.034168701171875,0.3815409541130066,-0.030943535268306732,-0.09052377194166183
1775714876137183000,8.044182861328125,0.4071645736694336,-0.01841788925230503,-0.14307726919651031
1775714876147197000,8.054197021484375,0.42832446098327637,-0.08970484882593155,-0.21052101254463196
1775714876157211000,8.0642109375,0.4234950840473175,-0.18573205173015594,-0.2619333565235138
1775714876167224800,8.074224853515625,0.37341034412384033,-0.273577481508255,-0.28567808866500854
1775714876177239000,8.084239013671874,0.2993331849575043,-0.3282551169395447,-0.3045961260795593
1775714876187252000,8.094251953125,0.22238992154598236,-0.3467012345790863,-0.30674636363983154
1775714876197266000,8.104265869140624,0.17133712768554688,-0.35954564809799194,-0.27389705181121826
1775714876207279900,8.11427978515625,0.1700098067522049,-0.35101500153541565,-0.21254661679267883
1775714876217294000,8.124294189453124,0.1773819774389267,-0.33005380630493164,-0.1582929641008377
1775714876227308000,8.13430810546875,0.18568384647369385,-0.3126756250858307,-0.12748952209949493
1775714876237321200,8.1443212890625,0.20939210057258606,-0.32482922077178955,-0.10076522827148438
1775714876247335200,8.154335205078125,0.2173064798116684,-0.32649528980255127,-0.06362025439739227
1775714876257349400,8.164349365234376,0.21267499029636383,-0.32476475834846497,-0.05353992432355881
1775714876267363000,8.174363037109375,0.20381012558937073,-0.3240438401699066,-0.07618771493434906
1775714876277377000,8.184376953125,0.19582410156726837,-0.31864190101623535,-0.1014680340886116
1775714876287391200,8.19439111328125,0.18311576545238495,-0.3010181486606598,-0.09598245471715927
1775714876297404400,8.204404296875,0.16464407742023468,-0.3075524866580963,-0.059250008314847946
1775714876307418000,8.214418212890624,0.16707873344421387,-0.32590168714523315,0.0037558560725301504
1775714876317432000,8.22443212890625,0.18606840074062347,-0.33951708674430847,0.05395431071519852
1775714876327446300,8.2344462890625,0.2059699445962906,-0.3333028554916382,0.05397561565041542
1775714876337460200,8.244460205078125,0.21977150440216064,-0.2796558737754822,0.006099437829107046
1775714876347473200,8.25447314453125,0.22246742248535156,-0.21512721478939056,-0.089997798204422
1775714876357487000,8.264487060546875,0.23615580797195435,-0.14265914261341095,-0.23230834305286407
1775714876367501300,8.274501220703126,0.26930445432662964,0.0033665020018815994,-0.39797985553741455
1775714876377515000,8.284514892578125,0.28052592277526855,0.17500536143779755,-0.588931679725647
1775714876387529200,8.294529296875,0.2632526755332947,0.26702529191970825,-0.7605186700820923
1775714876397543200,8.304543212890625,0.2592366337776184,0.2982066571712494,-0.831453800201416
1775714876407556400,8.314556396484376,0.25842541456222534,0.3057601749897003,-0.7613146305084229
1775714876417570000,8.324570068359375,0.2579362094402313,0.267005056142807,-0.5670405030250549
1775714876427584300,8.334584228515626,0.23568522930145264,0.17708982527256012,-0.33257848024368286
1775714876437598200,8.34459814453125,0.1946064978837967,0.0737392008304596,-0.1262250393629074
1775714876447612200,8.354612060546875,0.15845222771167755,-0.005495699122548103,0.020339360460639
1775714876457626000,8.364626220703125,0.11783955246210098,-0.012630308046936989,0.0857175663113594
1775714876467639300,8.374639404296875,0.08459371328353882,0.038608379662036896,0.044913679361343384
1775714876477653200,8.3846533203125,0.06066201627254486,0.17640165984630585,-0.0724044218659401
1775714876487667200,8.394667236328125,0.028554147109389305,0.3187936842441559,-0.20855960249900818
1775714876497681200,8.40468115234375,0.005595567636191845,0.3741448223590851,-0.3272241950035095
1775714876507695000,8.414695068359375,0.00296329939737916,0.3727259039878845,-0.3773803114891052
1775714876517708000,8.4247080078125,0.007703992538154125,0.3230568766593933,-0.35871660709381104
1775714876527722200,8.43472216796875,-0.006825948134064674,0.2687845826148987,-0.28992342948913574
1775714876537736200,8.444736083984376,-0.02425527200102806,0.21199987828731537,-0.20304632186889648
1775714876547750100,8.454750244140625,-0.04891587793827057,0.1348707377910614,-0.12668684124946594
1775714876557764400,8.464764404296876,-0.07670196890830994,0.07786577194929123,-0.09289664775133133
1775714876567778000,8.474778076171875,-0.08311033248901367,0.05733918771147728,-0.11227726936340332
1775714876577791200,8.484791259765625,-0.07168084383010864,0.11563897877931595,-0.19156835973262787
1775714876587805200,8.49480517578125,-0.046413570642471313,0.20722295343875885,-0.3501606583595276
1775714876597819100,8.504819091796875,-0.011597000993788242,0.2928755581378937,-0.5568898916244507
1775714876607833000,8.5148330078125,0.03003539703786373,0.3400062918663025,-0.7266155481338501
1775714876617847300,8.524847412109375,0.06869304180145264,0.35438472032546997,-0.7895944714546204
1775714876627860000,8.53485986328125,0.12352246791124344,0.3338828980922699,-0.6789337396621704
1775714876637874200,8.544874267578125,0.14956392347812653,0.2572594881057739,-0.46698397397994995
1775714876647888100,8.55488818359375,0.15247662365436554,0.154609814286232,-0.248082235455513
1775714876657902300,8.56490234375,0.16274631023406982,0.06168200448155403,-0.08973894268274307
1775714876667916300,8.574916259765626,0.17198027670383453,0.0006378270918503404,-0.006702377460896969
1775714876677930200,8.58493017578125,0.1452099233865738,-0.004710599314421415,0.014191186055541039
1775714876687943200,8.594943115234376,0.12201938033103943,0.014300109818577766,-0.033904705196619034
1775714876697957400,8.604957275390625,0.13699780404567719,0.06214646250009537,-0.13967694342136383
1775714876707971000,8.61497119140625,0.17279228568077087,0.16201873123645782,-0.3025191128253937
1775714876717985300,8.6249853515625,0.21480178833007812,0.27738526463508606,-0.4537448585033417
1775714876727999200,8.634999267578126,0.27239611744880676,0.35532480478286743,-0.4781990647315979
1775714876738012200,8.64501220703125,0.3171324133872986,0.31586048007011414,-0.37649106979370117
1775714876748026000,8.655026123046875,0.3397170901298523,0.182309091091156,-0.21980080008506775
1775714876758040000,8.6650400390625,0.3252318799495697,0.027038808912038803,-0.05706275254487991
1775714876768054300,8.67505419921875,0.2815110385417938,-0.10749556869268417,0.05254576727747917
1775714876778068000,8.68506787109375,0.22723528742790222,-0.18747109174728394,0.09005612134933472
1775714876788082200,8.695082275390625,0.19484485685825348,-0.20794761180877686,0.0745442733168602
1775714876798095000,8.70509521484375,0.19428957998752594,-0.18769720196723938,0.014475345611572266
1775714876808109300,8.715109375,0.2088823765516281,-0.10909239947795868,-0.08343364298343658
1775714876818123000,8.725123046875,0.21955420076847076,-0.05284270644187927,-0.2008444219827652
1775714876828137200,8.73513720703125,0.2371630221605301,-0.01810683123767376,-0.3132639229297638
1775714876838151200,8.745151123046876,0.2659169137477875,0.018560102209448814,-0.40254878997802734
1775714876848164000,8.7551640625,0.2993936240673065,0.05813467502593994,-0.44436681270599365
1775714876858178000,8.765177978515625,0.3254505395889282,0.06359895318746567,-0.44646748900413513
1775714876868192300,8.775192138671875,0.33346930146217346,0.026551982387900352,-0.4063059687614441
1775714876878206200,8.785206298828125,0.30451807379722595,-0.01335974782705307,-0.3251429498195648
1775714876888220200,8.79522021484375,0.2406858503818512,-0.045827675610780716,-0.22377930581569672
1775714876898234000,8.805234130859375,0.16044586896896362,-0.07324518263339996,-0.1364894062280655
1775714876908247300,8.815247314453124,0.09787436574697495,-0.10708384215831757,-0.06751246750354767
1775714876918261200,8.82526123046875,0.07101931422948837,-0.13070209324359894,-0.03044578991830349
1775714876928275200,8.835275146484374,0.07505373656749725,-0.10354769974946976,-0.02003735676407814
1775714876938289200,8.8452890625,0.08966889977455139,-0.03735189884901047,-0.025645975023508072
1775714876948303000,8.85530322265625,0.09997480362653732,0.01581571437418461,-0.053895190358161926
1775714876958317300,8.8653173828125,0.10054764896631241,0.055996689945459366,-0.08671678602695465
1775714876968330200,8.875330322265626,0.0911240503191948,0.0754217877984047,-0.09314192831516266
1775714876978344200,8.88534423828125,0.09553743898868561,0.09340132027864456,-0.0659065768122673
1775714876988358100,8.895358154296876,0.09522904455661774,0.12646499276161194,-0.024143153801560402
1775714876998372000,8.9053720703125,0.0789123922586441,0.10909426212310791,0.016920659691095352
1775714877008386000,8.915385986328126,0.04773183539509773,0.04217488318681717,0.05330955982208252
1775714877018399200,8.925399169921874,-0.0029843382071703672,-0.033556096255779266,0.07793235033750534
1775714877028413200,8.9354130859375,-0.044191695749759674,-0.07169283181428909,0.08802466094493866
1775714877038427100,8.94542724609375,-0.05980101600289345,-0.06129664555191994,0.08022080361843109
1775714877048441000,8.955441162109375,-0.058449726551771164,-0.04032345488667488,0.03966591879725456
1775714877058455300,8.965455322265624,-0.029741117730736732,-0.011262774467468262,-0.02190183661878109
1775714877068469200,8.97546923828125,0.021703431382775307,0.02918558195233345,-0.09266841411590576
1775714877078482200,8.985482177734376,0.06746532768011093,0.05457190051674843,-0.16455592215061188
1775714877088496000,8.99549609375,0.09472624212503433,0.06957215070724487,-0.2259412556886673
1775714877098510300,9.00551025390625,0.10112874954938889,0.09765012562274933,-0.26183080673217773
1775714877108524000,9.01552392578125,0.08494231849908829,0.10938002169132233,-0.2636087238788605
1775714877118538200,9.025538330078126,0.048416536301374435,0.08298756182193756,-0.2176865190267563
1775714877128551200,9.03555126953125,0.013017531484365463,0.03344637528061867,-0.15564392507076263
1775714877138565000,9.045565185546875,-0.03116937167942524,-0.002478870330378413,-0.09737288951873779
1775714877148579000,9.0555791015625,-0.07625429332256317,-0.008583101443946362,-0.04050375148653984
1775714877158593300,9.06559326171875,-0.10686572641134262,-0.00826964806765318,0.017912155017256737
1775714877168607200,9.075607177734375,-0.1207815483212471,-0.037760160863399506,0.06562241911888123
1775714877178620200,9.0856201171875,-0.09598032385110855,-0.07098975777626038,0.0953691303730011
1775714877188634000,9.095634033203124,-0.04157434031367302,-0.05847929045557976,0.0971854031085968
1775714877198648300,9.1056484375,0.005361475981771946,0.007134874816983938,0.06915989518165588
1775714877208662300,9.115662353515624,0.036740705370903015,0.07743966579437256,0.0217905156314373
1775714877218676000,9.125676025390625,0.05687899515032768,0.11816951632499695,-0.029103023931384087
1775714877228690200,9.135690185546874,0.057681936770677567,0.10259215533733368,-0.06091581657528877
1775714877238703400,9.145703369140625,0.03322772681713104,0.06930983066558838,-0.07350590825080872
1775714877248717300,9.15571728515625,0.006139917764812708,0.04971376061439514,-0.07139668613672256
1775714877258731300,9.165731201171875,-0.016445819288492203,0.03548315912485123,-0.05712160840630531
1775714877268745200,9.1757451171875,-0.030960312113165855,0.013005813583731651,-0.037705566734075546
1775714877278759200,9.18575927734375,-0.03364797309041023,-0.005519401282072067,-0.024582574144005775
1775714877288772400,9.1957724609375,-0.021698104217648506,0.002645051572471857,-0.021567609161138535
1775714877298786000,9.2057861328125,-0.0010066748363897204,0.015190936625003815,-0.024761006236076355
1775714877308800300,9.21580029296875,0.02526407688856125,0.03069799207150936,-0.039750874042510986
1775714877318814200,9.225814208984374,0.046123020350933075,0.029619410634040833,-0.05914641171693802
1775714877328828400,9.235828369140625,0.057497646659612656,0.0311611145734787,-0.0825771689414978
1775714877338842000,9.245842041015624,0.05559615045785904,0.029944850131869316,-0.09716916084289551
1775714877348855300,9.255855224609375,0.041124533861875534,0.02750486135482788,-0.08885157853364944
1775714877358869200,9.265869140625,0.013585849665105343,0.013970676809549332,-0.06840861588716507
1775714877368883500,9.275883544921875,-0.012075038626790047,-0.009402556344866753,-0.05404725670814514
1775714877378897200,9.285897216796876,-0.029089175164699554,-0.019653329625725746,-0.05417695268988609
1775714877388911400,9.295911376953125,-0.028810076415538788,-0.03295848146080971,-0.060801032930612564
1775714877398924300,9.30592431640625,-0.011628426611423492,-0.03816309943795204,-0.07144142687320709
1775714877408938200,9.315938232421875,0.0030535804107785225,-0.024162327870726585,-0.07897178083658218
1775714877418952200,9.3259521484375,0.005429386626929045,-0.025290708988904953,-0.0832086056470871
1775714877428966400,9.33596630859375,0.0002487392339389771,-0.011697135865688324,-0.09058476239442825
1775714877438980400,9.34598046875,0.00845740083605051,0.008022240363061428,-0.09395978599786758
1775714877448994000,9.355994140625,0.019421901553869247,0.024349281564354897,-0.06621310859918594
1775714877459007200,9.36600732421875,0.02767583541572094,0.0021017666440457106,-0.018809374421834946
1775714877469021400,9.376021484375,0.014642059803009033,-0.034508973360061646,0.018030932173132896
1775714877479035400,9.386035400390625,-0.01040576957166195,-0.08031614124774933,0.036373186856508255
1775714877489049000,9.396049072265624,-0.041551437228918076,-0.08078592270612717,0.04675738513469696
1775714877499063300,9.406063232421875,-0.061419952660799026,-0.05169781669974327,0.04150749742984772
1775714877509076500,9.416076416015626,-0.06382105499505997,-0.023023027926683426,0.026076074689626694
1775714877519090200,9.426090087890625,-0.052989181131124496,-0.023541012778878212,0.027881698682904243
1775714877529104100,9.436104248046876,-0.04312882944941521,-0.04765939712524414,0.04946395754814148
1775714877539118300,9.446118408203125,-0.027656128630042076,-0.06805121898651123,0.07156340032815933
1775714877549132300,9.45613232421875,-0.008824383839964867,-0.055204398930072784,0.08152788132429123
1775714877559145200,9.466145263671875,0.007503456436097622,-0.045169342309236526,0.07225209474563599
1775714877569159200,9.4761591796875,0.01079672109335661,-0.033669281750917435,0.0636676624417305
1775714877579173400,9.48617333984375,0.01113494299352169,-0.025847310200333595,0.05904307961463928
1775714877589187000,9.49618701171875,0.009333847090601921,-0.02256842516362667,0.05200008302927017
1775714877599201300,9.506201171875,-0.000603738590143621,-0.00558198569342494,0.04133811965584755
1775714877609215200,9.51621533203125,-0.007309312000870705,-0.014112357050180435,0.020241089165210724
1775714877619228400,9.526228515625,-0.014068414457142353,-0.02978798933327198,0.0019020296167582273
1775714877629242000,9.5362421875,-0.019781693816184998,-0.05529894307255745,-0.019046396017074585
1775714877639256300,9.54625634765625,-0.015475362539291382,-0.05842229723930359,-0.03910212963819504
1775714877649270300,9.556270263671875,-0.0015909724170342088,-0.03831569850444794,-0.06316884607076645
1775714877659284500,9.566284423828124,0.019476762041449547,-0.014104633592069149,-0.08515138179063797
1775714877669297200,9.576297119140625,0.04428330808877945,0.014240188524127007,-0.09894708544015884
1775714877679311400,9.586311279296876,0.07219083607196808,0.028138959780335426,-0.09881685674190521
1775714877689325300,9.5963251953125,0.08286798745393753,0.03231985494494438,-0.09421598166227341
1775714877699339300,9.60633935546875,0.07147631049156189,0.016384299844503403,-0.08842094242572784
1775714877709353200,9.616353271484375,0.0577210858464241,-0.01098580565303564,-0.0657808780670166
1775714877719367200,9.6263671875,0.03545333072543144,-0.03600141033530235,-0.03161065652966499
1775714877729380400,9.63638037109375,0.025378594174981117,-0.05372394993901253,0.01441329438239336
1775714877739394300,9.646394287109375,0.0334375835955143,-0.06398271024227142,0.06403650343418121
1775714877749408300,9.656408203125,0.045586127787828445,-0.077053502202034,0.10507022589445114
1775714877759422200,9.666422119140625,0.055926114320755005,-0.06686824560165405,0.1280631572008133
1775714877769436400,9.6764365234375,0.0673697218298912,-0.020977720618247986,0.12171179056167603
1775714877779449300,9.686449462890625,0.0783480703830719,-0.00589757040143013,0.08418651670217514
1775714877789463300,9.69646337890625,0.07864420861005783,0.009706422686576843,0.05007382109761238
1775714877799477200,9.706477294921875,0.06630498915910721,0.017555823549628258,0.024210531264543533
1775714877809491200,9.7164912109375,0.03229748457670212,0.003951598424464464,0.009591907262802124
1775714877819505200,9.726505126953125,-0.017254620790481567,-0.00866352953016758,0.011678493581712246
1775714877829518300,9.736518310546876,-0.08537881076335907,-0.016679910942912102,0.020050672814249992
1775714877839532300,9.7465322265625,-0.15952707827091217,-0.03335209935903549,0.0255783312022686
1775714877849546200,9.756546142578125,-0.21294263005256653,-0.04161748290061951,0.0328357107937336
1775714877859560200,9.766560302734375,-0.2289314568042755,-0.07240042835474014,0.042578354477882385
1775714877869574400,9.776574462890625,-0.2121892273426056,-0.09371717274188995,0.06970717757940292
1775714877879588400,9.78658837890625,-0.18515335023403168,-0.10822048038244247,0.09825892746448517
1775714877889601300,9.796601318359375,-0.16059207916259766,-0.10497701913118362,0.11069269478321075
1775714877899615200,9.806615234375,-0.12332592904567719,-0.09172406047582626,0.09001058340072632
1775714877909629400,9.81662939453125,-0.0760289877653122,-0.06247616186738014,0.060513678938150406
1775714877919643100,9.82664306640625,-0.03230094909667969,-0.036734577268362045,0.029820213094353676
1775714877929657300,9.8366572265625,-0.001606152392923832,-0.03440963849425316,0.003698331769555807
1775714877939670300,9.846670166015626,-0.00743155088275671,-0.04469103738665581,-0.008755408227443695
1775714877949684500,9.8566845703125,-0.019604593515396118,-0.04683834686875343,-0.011120561510324478
1775714877959698200,9.8666982421875,-0.035712189972400665,-0.0129349734634161,-0.0037763623986393213
1775714877969712400,9.87671240234375,-0.06327324360609055,0.002046106616035104,0.0010279801208525896
1775714877979726300,9.886726318359376,-0.0755152627825737,0.0032988577149808407,0.009575662203133106
1775714877989740300,9.896740234375,-0.0644112154841423,0.010416954755783081,0.031376831233501434
1775714877999753200,9.906753173828125,-0.05210501328110695,0.011683819815516472,0.0568009652197361
1775714878009767200,9.91676708984375,-0.0501803457736969,0.008984440006315708,0.08048658818006516
1775714878019781400,9.926781494140625,-0.05679643899202347,0.011392470449209213,0.09244657307863235
1775714878029795000,9.936795166015624,-0.07904182374477386,0.02737862803041935,0.10116789489984512
1775714878039809300,9.946809326171875,-0.09456592053174973,0.03172517195343971,0.10534932464361191
1775714878049822200,9.956822265625,-0.11749600619077682,0.020898623391985893,0.10730621963739395
1775714878059836200,9.966836181640625,-0.14604482054710388,0.00458756135776639,0.11426346004009247
1775714878069850000,9.97685009765625,-0.16802442073822021,-0.021613681688904762,0.12529027462005615
1775714878079864300,9.9868642578125,-0.19255852699279785,-0.020173711702227592,0.1523093730211258
1775714878089878300,9.996878173828126,-0.2145751416683197,-0.003537476761266589,0.18000838160514832
1775714878099891200,10.00689111328125,-0.23201805353164673,-0.018938537687063217,0.20862458646297455
1775714878109905200,10.0169052734375,-0.24980956315994263,-0.053834203630685806,0.23817048966884613
1775714878119919400,10.02691943359375,-0.2653784155845642,-0.09828289598226547,0.25917989015579224
1775714878129933300,10.036933349609376,-0.27269411087036133,-0.12150752544403076,0.28042927384376526
1775714878139947300,10.046947265625,-0.26645511388778687,-0.12731587886810303,0.29152506589889526
1775714878149961200,10.056961181640625,-0.25119495391845703,-0.08824091404676437,0.2877718508243561
1775714878159974400,10.066974365234374,-0.2404797226190567,-0.05253937467932701,0.26519277691841125
1775714878169988000,10.076988037109375,-0.22903850674629211,-0.051112983375787735,0.25543949007987976
1775714878180002300,10.087002197265624,-0.22906167805194855,-0.06189825385808945,0.272347629070282
1775714878190016300,10.097016357421875,-0.2382969856262207,-0.08708296716213226,0.2946699857711792
1775714878200030200,10.1070302734375,-0.24372504651546478,-0.11086180061101913,0.3140351474285126
1775714878210043100,10.117043212890625,-0.23476722836494446,-0.09682907164096832,0.33231455087661743
1775714878220057300,10.127057373046876,-0.20941847562789917,-0.1043303981423378,0.34377521276474
1775714878230071300,10.1370712890625,-0.1642075777053833,-0.09853935986757278,0.3662776052951813
1775714878240085200,10.147085205078126,-0.12387986481189728,-0.08317025750875473,0.38517138361930847
1775714878250099200,10.15709912109375,-0.08824144303798676,-0.04132799804210663,0.37260687351226807
1775714878260112400,10.1671123046875,-0.05633570998907089,0.012930446304380894,0.32187309861183167
1775714878270126300,10.177126220703125,-0.029267340898513794,0.05949049070477486,0.254486620426178
1775714878280140300,10.187140380859375,0.0013307816116139293,0.11209937185049057,0.20188093185424805
1775714878290154200,10.197154296875,0.017550764605402946,0.15798591077327728,0.1658954918384552
1775714878300168200,10.207168212890625,0.023926105350255966,0.18527105450630188,0.1527107208967209
1775714878310181400,10.217181396484374,0.04199432209134102,0.201868936419487,0.1642206311225891
1775714878320195000,10.227195068359375,0.036922063678503036,0.2209813892841339,0.19518281519412994
1775714878330209300,10.237209228515624,0.02954351156949997,0.20969784259796143,0.24081739783287048
1775714878340223200,10.24722314453125,0.03492229804396629,0.21670807898044586,0.3007047176361084
1775714878350237400,10.257237548828124,0.044555217027664185,0.19748058915138245,0.35416579246520996
1775714878360251100,10.267251220703125,0.06520510464906693,0.14617158472537994,0.409229040145874
1775714878370264300,10.277264404296876,0.1043732762336731,0.08360381424427032,0.46753495931625366
1775714878380278300,10.2872783203125,0.12988236546516418,0.01974014937877655,0.5323352813720703
1775714878390292200,10.297292236328126,0.13572055101394653,-0.01661599427461624,0.5849984884262085
1775714878400306200,10.30730615234375,0.17000208795070648,-0.028258269652724266,0.5997872948646545
1775714878410320400,10.3173203125,0.21555891633033752,-0.030661506578326225,0.569503664970398
1775714878420333000,10.3273330078125,0.24478258192539215,0.009492305107414722,0.5048075318336487
1775714878430347300,10.33734716796875,0.2483818531036377,0.07913822680711746,0.409151554107666
1775714878440361200,10.347361328125,0.24913285672664642,0.13616769015789032,0.3047572374343872
1775714878450375400,10.35737548828125,0.2515164017677307,0.18463243544101715,0.20299625396728516
1775714878460389400,10.367389404296874,0.23554594814777374,0.244679257273674,0.08348743617534637
1775714878470402300,10.37740234375,0.21715468168258667,0.284305214881897,-0.04007125273346901
1775714878480416300,10.387416259765626,0.1934882402420044,0.2940601110458374,-0.13606701791286469
1775714878490430500,10.397430419921875,0.14777587354183197,0.27127784490585327,-0.18138577044010162
1775714878500444200,10.407444091796876,0.08133932948112488,0.24534717202186584,-0.20800459384918213
1775714878510458000,10.4174580078125,-0.017116136848926544,0.25084981322288513,-0.2190292924642563
1775714878520472300,10.427472412109376,-0.1254119873046875,0.2557089924812317,-0.22628825902938843
1775714878530485200,10.4374853515625,-0.23815983533859253,0.21851475536823273,-0.2145911306142807
1775714878540499200,10.447499267578126,-0.34603917598724365,0.14858654141426086,-0.16884547472000122
1775714878550513200,10.45751318359375,-0.42685359716415405,0.04225904121994972,-0.1086931899189949
1775714878560527400,10.46752734375,-0.4710114598274231,-0.05913975089788437,-0.055095475167036057
1775714878570541300,10.477541259765625,-0.46040329337120056,-0.13752350211143494,-0.03289802744984627
1775714878580554200,10.48755419921875,-0.4068223536014557,-0.1521703600883484,-0.06940916925668716
1775714878590568200,10.497568115234374,-0.3111024796962738,-0.10797759890556335,-0.14801129698753357
1775714878600582400,10.50758251953125,-0.1867419183254242,-0.052807021886110306,-0.24114444851875305
1775714878610596000,10.51759619140625,-0.049981940537691116,0.04368995502591133,-0.33835646510124207
1775714878620610300,10.5276103515625,0.0905325636267662,0.15659573674201965,-0.42567887902259827
1775714878630623200,10.537623291015626,0.200391948223114,0.24875974655151367,-0.49034735560417175
1775714878640637200,10.54763720703125,0.23076742887496948,0.26286330819129944,-0.5082792043685913
1775714878650651100,10.557651123046876,0.20739606022834778,0.20889009535312653,-0.4754735827445984
1775714878660665300,10.567665283203125,0.17319148778915405,0.13304832577705383,-0.3980264663696289
1775714878670679300,10.57767919921875,0.15294480323791504,0.09034454077482224,-0.29205527901649475
1775714878680693200,10.587693359375,0.15164412558078766,0.06005055457353592,-0.1750602275133133
1775714878690706200,10.5977060546875,0.1670164167881012,0.028504079207777977,-0.05450292304158211
1775714878700720400,10.607720458984375,0.20664185285568237,0.026040920987725258,0.04577281326055527
1775714878710734300,10.617734375,0.25510767102241516,0.0860145092010498,0.09804720431566238
1775714878720748300,10.627748291015624,0.28862860798835754,0.1409858763217926,0.11136860400438309
1775714878730762200,10.63776220703125,0.2962433695793152,0.16035692393779755,0.11845873296260834
1775714878740775400,10.647775390625,0.278435617685318,0.17901794612407684,0.1283252090215683
1775714878750789000,10.6577890625,0.24645079672336578,0.18087364733219147,0.14168523252010345
1775714878760803300,10.66780322265625,0.21205686032772064,0.1668481081724167,0.18012875318527222
1775714878770817300,10.6778173828125,0.18480953574180603,0.1149207279086113,0.20910315215587616
1775714878780831200,10.687831298828126,0.17591243982315063,0.08107434958219528,0.21446649730205536
1775714878790844200,10.69784423828125,0.18235675990581512,0.11551141738891602,0.19224533438682556
1775714878800858400,10.7078583984375,0.19305174052715302,0.13616369664669037,0.14736495912075043
1775714878810872300,10.717872314453125,0.18646813929080963,0.13932965695858002,0.11747576296329498
1775714878820886300,10.72788623046875,0.15702369809150696,0.154850572347641,0.11349993199110031
1775714878830900200,10.737900146484375,0.1239112913608551,0.15601995587348938,0.10786441713571548
1775714878840913400,10.747913330078125,0.09163404256105423,0.1484224945306778,0.10923061519861221
1775714878850927400,10.75792724609375,0.06915084272623062,0.13380226492881775,0.12006781995296478
1775714878860941000,10.767941162109375,0.06118239834904671,0.09837929904460907,0.13690271973609924
1775714878870955300,10.777955322265624,0.051786232739686966,0.05254044011235237,0.1633087694644928
1775714878880969200,10.78796923828125,0.04344521090388298,0.003463174682110548,0.19093267619609833
1775714878890983400,10.7979833984375,0.05480918660759926,-0.02353036031126976,0.2046271711587906
1775714878900996000,10.80799609375,0.07198551297187805,-0.043832167983055115,0.19471623003482819
1775714878911010300,10.81801025390625,0.07760211825370789,-0.05277586355805397,0.1704218089580536
1775714878921024300,10.828024169921875,0.0765720084309578,-0.06920011341571808,0.14348739385604858
1775714878931038500,10.83803857421875,0.09124123305082321,-0.08930884301662445,0.09225189685821533
1775714878941052200,10.84805224609375,0.11708561331033707,-0.07852543145418167,0.018014153465628624
1775714878951065300,10.8580654296875,0.1222928911447525,-0.04447612166404724,-0.05817994847893715
1775714878961079300,10.868079345703125,0.12386708706617355,-0.035781167447566986,-0.12616698443889618
1775714878971093200,10.87809326171875,0.13960769772529602,-0.029398635029792786,-0.1747283935546875
1775714878981107200,10.888107177734375,0.15399809181690216,-0.03105378895998001,-0.2038218379020691
1775714878991121400,10.898121337890625,0.14234516024589539,-0.05163629725575447,-0.19862627983093262
1775714879001134000,10.908134033203124,0.12716834247112274,-0.09071099758148193,-0.16102111339569092
1775714879011148300,10.918148193359375,0.0986408218741417,-0.1270197331905365,-0.09882857650518417
1775714879021162200,10.928162353515624,0.057198572903871536,-0.14672338962554932,-0.02424355410039425
1775714879031176400,10.938176513671875,0.02869263105094433,-0.18179616332054138,0.02213193289935589
1775714879041190100,10.948190185546874,0.03748958557844162,-0.2113090455532074,0.03050038404762745
1775714879051203300,10.958203369140625,0.06326126307249069,-0.21589846909046173,0.03585440292954445
1775714879061217300,10.96821728515625,0.09160475432872772,-0.23153388500213623,0.01943282037973404
1775714879071231500,10.9782314453125,0.11568505316972733,-0.23938941955566406,-0.003260508179664612
1775714879081245200,10.9882451171875,0.1602996587753296,-0.2504998743534088,-0.021885856986045837
1775714879091259100,10.998259033203125,0.18821172416210175,-0.23748739063739777,-0.02363795042037964
1775714879101272300,11.008272216796875,0.1948922574520111,-0.2309703677892685,-0.01900298520922661
1775714879111286300,11.018286376953125,0.18396903574466705,-0.2650393843650818,-0.023814784362912178
1775714879121300200,11.02830029296875,0.16722095012664795,-0.31205350160598755,-0.021167602390050888
1775714879131314200,11.038314208984374,0.1658739149570465,-0.3192347288131714,0.003988349810242653
1775714879141328400,11.048328369140625,0.15850761532783508,-0.3293805718421936,0.06649859994649887
1775714879151342000,11.058342041015624,0.1412215679883957,-0.3417442739009857,0.15607935190200806
1775714879161355300,11.068355224609375,0.13644012808799744,-0.3684033155441284,0.26612141728401184
1775714879171369200,11.078369140625,0.05807768553495407,-0.35757145285606384,0.3902148902416229
1775714879181383400,11.088383544921875,-0.10220519453287125,-0.3800935447216034,0.4391065239906311
1775714879191397000,11.098397216796876,-0.3228222727775574,-0.3877149820327759,0.31553852558135986
1775714879201411300,11.108411376953125,-0.505462646484375,-0.33817005157470703,-0.03774098679423332
1775714879211424300,11.11842431640625,-0.5865657329559326,-0.21456103026866913,-0.47967153787612915
1775714879221438200,11.128438232421875,-0.5631906390190125,-0.0389721654355526,-0.7883926033973694
1775714879231452200,11.1384521484375,-0.45231473445892334,0.05636607110500336,-0.8829867839813232
1775714879241466000,11.148466064453125,-0.2538740932941437,0.053457632660865784,-0.8249602317810059
1775714879251480000,11.15847998046875,-0.03991412743926048,0.0008591357618570328,-0.6805601716041565
1775714879261493000,11.168492919921874,0.1614229828119278,-0.004077565856277943,-0.49227041006088257
1775714879271507000,11.1785068359375,0.33992746472358704,0.050939079374074936,-0.2870730459690094
1775714879281521200,11.188521240234374,0.4331788718700409,0.07285689562559128,-0.1080327257514
1775714879291535000,11.19853515625,0.4136621654033661,0.0409570187330246,0.00436172541230917
1775714879301549000,11.208549072265624,0.2929519712924957,0.039321038872003555,0.07691022753715515
1775714879311562000,11.21856201171875,0.12148115783929825,0.07523643225431442,0.10633176565170288
1775714879321576200,11.228576171875,-0.04915822669863701,0.1091291531920433,0.07665695995092392
1775714879331590000,11.23858984375,-0.18610942363739014,0.14389193058013916,0.0128159299492836
1775714879341604000,11.24860400390625,-0.28613215684890747,0.1671527773141861,-0.026703249663114548
1775714879351618000,11.2586181640625,-0.36998844146728516,0.162080779671669,-0.024945296347141266
1775714879361632000,11.268632080078126,-0.431196391582489,0.12398453056812286,0.003191798459738493
1775714879371645000,11.27864501953125,-0.45753800868988037,0.11326610296964645,0.0565093494951725
1775714879381659100,11.2886591796875,-0.4622661769390106,0.11074968427419662,0.13033324480056763
1775714879391673000,11.298673095703125,-0.47801077365875244,0.08006767183542252,0.21434184908866882
1775714879401687000,11.30868701171875,-0.4714772403240204,0.02653520368039608,0.2870003581047058
1775714879411701000,11.318700927734374,-0.46145790815353394,-0.01392913144081831,0.3307158648967743
1775714879421714200,11.328714111328125,-0.4681927561759949,-0.02666649781167507,0.3546936511993408
1775714879431728000,11.33872802734375,-0.45810604095458984,-0.04005394130945206,0.35445767641067505
1775714879441741800,11.348741943359375,-0.4384545683860779,-0.04411659389734268,0.33983612060546875
1775714879451756000,11.358756103515624,-0.40630489587783813,-0.04375520348548889,0.2993166744709015
1775714879461770000,11.36877001953125,-0.3600500524044037,-0.028733644634485245,0.24951022863388062
1775714879471783200,11.378783203125,-0.3034392297267914,-0.01683703623712063,0.21500924229621887
1775714879481796900,11.388796875,-0.2525901794433594,-0.039747145026922226,0.21013645827770233
1775714879491811000,11.39881103515625,-0.22120802104473114,-0.07766709476709366,0.22201788425445557
1775714879501825000,11.408824951171875,-0.21133089065551758,-0.13082991540431976,0.24029462039470673
1775714879511839200,11.418839111328126,-0.21194633841514587,-0.1718420684337616,0.26655471324920654
1775714879521852000,11.428851806640624,-0.19755861163139343,-0.16721056401729584,0.301895409822464
1775714879531866000,11.4388662109375,-0.181881383061409,-0.1570492684841156,0.3166293501853943
1775714879541880000,11.448880126953124,-0.15778829157352448,-0.1917736977338791,0.3056240975856781
1775714879551894000,11.45889404296875,-0.15055888891220093,-0.22785606980323792,0.2968764007091522
1775714879561908000,11.468907958984374,-0.15788550674915314,-0.23203296959400177,0.27470478415489197
1775714879571921200,11.478921142578125,-0.15190111100673676,-0.21629369258880615,0.22540755569934845
1775714879581935000,11.48893505859375,-0.12984135746955872,-0.18529555201530457,0.15561115741729736
1775714879591949000,11.498948974609375,-0.11011212319135666,-0.13931022584438324,0.09356909990310669
1775714879601963000,11.508962890625,-0.08238701522350311,-0.10875311493873596,0.05042562261223793
1775714879611977200,11.518977294921875,-0.08402220159769058,-0.12399198859930038,0.022231269627809525
1775714879621990000,11.528989990234376,-0.10032900422811508,-0.14450977742671967,-0.0019893813878297806
1775714879632004000,11.539004150390625,-0.11955489218235016,-0.13275457918643951,-0.019173694774508476
1775714879642018000,11.54901806640625,-0.12943948805332184,-0.13251329958438873,-0.03586026281118393
1775714879652032300,11.5590322265625,-0.12947037816047668,-0.14026683568954468,-0.05678844824433327
1775714879662046000,11.5690458984375,-0.12070964276790619,-0.1312674731016159,-0.08719722181558609
1775714879672059100,11.57905908203125,-0.10087228566408157,-0.0995526909828186,-0.10837041586637497
1775714879682073000,11.589072998046875,-0.07606600224971771,-0.06981849670410156,-0.11125142127275467
1775714879692087300,11.59908740234375,-0.0472833588719368,-0.039138615131378174,-0.09519895166158676
1775714879702101000,11.60910107421875,-0.02359187789261341,-0.03365356847643852,-0.04970576986670494
1775714879712115000,11.619114990234374,-0.02429814822971821,-0.07304837554693222,0.009514675475656986
1775714879722129200,11.629129150390625,-0.041367944329977036,-0.11087005585432053,0.050633084028959274
1775714879732142000,11.63914208984375,-0.05670296028256416,-0.1195698082447052,0.05309038236737251
1775714879742156000,11.649156005859375,-0.07769373059272766,-0.10362119972705841,0.00836658664047718
1775714879752170000,11.659169921875,-0.0898960679769516,-0.09654438495635986,-0.07533629983663559
1775714879762184200,11.66918408203125,-0.0693010464310646,-0.08296439051628113,-0.17872127890586853
1775714879772198000,11.679197998046876,-0.04327556863427162,0.007473362609744072,-0.3028546869754791
1775714879782211000,11.689211181640625,-0.014459899626672268,0.13321638107299805,-0.47600194811820984
1775714879792225000,11.69922509765625,0.02883271314203739,0.2556892931461334,-0.6908583641052246
1775714879802239000,11.709239013671874,0.06387592107057571,0.3483606278896332,-0.8835247159004211
1775714879812253000,11.7192529296875,0.08429863303899765,0.39028120040893555,-0.9250572323799133
1775714879822267100,11.72926708984375,0.10849744826555252,0.35502946376800537,-0.7127998471260071
1775714879832280000,11.739280029296875,0.11032304167747498,0.2135319858789444,-0.2988215982913971
1775714879842294000,11.7492939453125,0.0763312578201294,-0.04924344643950462,0.17257682979106903
1775714879852308000,11.759307861328125,0.007217166479676962,-0.3533910810947418,0.5790585875511169
1775714879862322200,11.769322265625,-0.07355198264122009,-0.4699597656726837,0.839601457118988
1775714879872336100,11.779336181640625,-0.11244291812181473,-0.43355488777160645,0.9133987426757812
1775714879882349000,11.78934912109375,-0.09622107446193695,-0.3010639548301697,0.819199800491333
1775714879892363000,11.799363037109375,-0.0332234688103199,-0.1567683070898056,0.5708834528923035
1775714879902377200,11.809377197265626,0.04518638551235199,-0.031621042639017105,0.2140558362007141
1775714879912391000,11.819390869140625,0.1311495006084442,0.08291485905647278,-0.16241207718849182
1775714879922405000,11.829405029296876,0.21983355283737183,0.20222660899162292,-0.44699588418006897
1775714879932418000,11.83941796875,0.27254870533943176,0.2892475128173828,-0.565304696559906
1775714879942432300,11.849432373046875,0.25977858901023865,0.2685915231704712,-0.555675745010376
1775714879952446000,11.859446044921874,0.2095913141965866,0.16346216201782227,-0.45243990421295166
1775714879962460200,11.869460205078125,0.15629160404205322,0.04388223588466644,-0.31538164615631104
1775714879972474000,11.87947412109375,0.10099772363901138,-0.025736255571246147,-0.2158508002758026
1775714879982487000,11.889487060546875,0.05348266661167145,-0.04938779026269913,-0.22236889600753784
1775714879992501000,11.8995009765625,0.029224198311567307,-0.02449202723801136,-0.3426007628440857
1775714880002515200,11.90951513671875,0.025536784902215004,0.05161792039871216,-0.5191776752471924
1775714880012529200,11.919529052734376,0.04490941762924194,0.14643710851669312,-0.6191329956054688
1775714880022542800,11.92954296875,0.06594652682542801,0.17771592736244202,-0.5910350680351257
1775714880032557000,11.93955712890625,0.06688076257705688,0.12853054702281952,-0.4680923819541931
1775714880042570200,11.9495703125,0.042876627296209335,0.04742157831788063,-0.3026285767555237
1775714880052584200,11.959584228515626,0.010087255388498306,-0.05596686154603958,-0.13907693326473236
1775714880062598000,11.969597900390625,-0.019520437344908714,-0.1413659155368805,0.009416138753294945
1775714880072612000,11.979612060546875,-0.016512131318449974,-0.18681222200393677,0.07103369385004044
1775714880082626000,11.9896259765625,-0.00977513287216425,-0.17845629155635834,0.023897608742117882
1775714880092639000,11.999638916015625,-0.01942909136414528,-0.11920388787984848,-0.05988170951604843
1775714880102653000,12.00965283203125,-0.02510162442922592,-0.04947806894779205,-0.11701743304729462
1775714880112667100,12.019667236328125,-0.008291485719382763,-0.010566091164946556,-0.1361543834209442
1775714880122681000,12.02968115234375,0.03201838582754135,-0.006902380846440792,-0.1240479126572609
1775714880132695000,12.039695068359375,0.08522301912307739,-0.020232034847140312,-0.10027626901865005
1775714880142708000,12.0497080078125,0.1221940889954567,-0.01059352234005928,-0.07592672109603882
1775714880152722200,12.05972216796875,0.16443128883838654,-0.018016550689935684,-0.06355500966310501
1775714880162735900,12.06973583984375,0.22064688801765442,-0.04397358372807503,-0.04686124995350838
1775714880172750000,12.07975,0.27132073044776917,-0.07375837862491608,-0.024208666756749153
1775714880182764000,12.089763916015626,0.2911839187145233,-0.0861322209239006,-0.015854064375162125
1775714880192777200,12.099777099609375,0.2984125316143036,-0.06751272827386856,-0.03299150615930557
1775714880202791000,12.109791015625,0.2942867577075958,-0.033123064786195755,-0.07509981095790863
1775714880212805000,12.11980517578125,0.2749181091785431,-0.0028842033352702856,-0.13116919994354248
1775714880222819000,12.129819091796875,0.26535284519195557,0.02160010114312172,-0.19268742203712463
1775714880232833000,12.1398330078125,0.26906663179397583,0.06236271187663078,-0.22763502597808838
1775714880242846500,12.149846435546875,0.2554043233394623,0.09723147749900818,-0.23263484239578247
1775714880252860700,12.159860595703124,0.23047634959220886,0.10779757052659988,-0.22421126067638397
1775714880262874600,12.16987451171875,0.19055689871311188,0.0942668467760086,-0.19517189264297485
1775714880272888300,12.179888427734374,0.14414173364639282,0.06703948974609375,-0.1477854698896408
1775714880282902500,12.189902587890625,0.09700591117143631,0.04899923503398895,-0.09515341371297836
1775714880292915500,12.19991552734375,0.06917880475521088,0.048231977969408035,-0.06467939168214798
1775714880302929400,12.209929443359375,0.0649249404668808,0.08087114989757538,-0.058343734592199326
1775714880312943400,12.219943359375,0.07245129346847534,0.1124943196773529,-0.06334088742733002
1775714880322957600,12.22995751953125,0.09934922307729721,0.12784984707832336,-0.06464264541864395
1775714880332971500,12.239971435546876,0.12912416458129883,0.14913488924503326,-0.04351365566253662
1775714880342984400,12.249984375,0.12866529822349548,0.13418230414390564,-0.02732669562101364
1775714880352998400,12.259998291015625,0.10260120779275894,0.09588045626878738,-0.030526749789714813
1775714880363012600,12.2700126953125,0.08184400200843811,0.07028880715370178,-0.039932236075401306
1775714880373026600,12.280026611328125,0.07270403206348419,0.07006803154945374,-0.0507393442094326
1775714880383040500,12.29004052734375,0.06123912334442139,0.11072118580341339,-0.07136872410774231
