time,seconds_elapsed,z,y,x
1774656391652860200,0.078860107421875,0,0,0
1774656391662860300,0.0888603515625,-0.14854049682617188,0.04823017120361328,0.039303362369537354
1774656391672860200,0.098860107421875,-0.5870571136474609,0.24636077880859375,0.2999708652496338
1774656391682860300,0.1088603515625,-0.2839193344116211,0.09243011474609375,0.10277051478624344
1774656391692860200,0.118860107421875,0.2311878204345703,-0.061188697814941406,-0.24492231011390686
1774656391702860300,0.1288603515625,-0.042958736419677734,-0.01794719696044922,-0.0841265618801117
1774656391712860200,0.138860107421875,-0.15671968460083008,0.06918525695800781,0.13572797179222107
1774656391722860300,0.1488603515625,0.08263015747070312,-0.046782493591308594,0.0840836763381958
1774656391732860200,0.158860107421875,0.011250495910644531,-0.01884746551513672,-0.10279136896133423
1774656391742860300,0.1688603515625,-0.07083320617675781,0.01206207275390625,-0.052815020084381104
1774656391752860200,0.178860107421875,0.10106611251831055,-0.029432296752929688,0.12284376472234726
1774656391762860300,0.1888603515625,-0.030560970306396484,0.049094200134277344,0.06680040061473846
1774656391772860200,0.198860107421875,-0.27692317962646484,0.15018653869628906,-0.10271018743515015
1774656391782860300,0.2088603515625,-0.16160917282104492,0.12326526641845703,-0.08713801205158234
1774656391792860200,0.218860107421875,-0.17775917053222656,0.15034008026123047,0.07709811627864838
1774656391802860300,0.2288603515625,-0.1665029525756836,0.101409912109375,0.10316609591245651
1774656391812860200,0.238860107421875,0.13880062103271484,-0.08899688720703125,0.0732039362192154
1774656391822860300,0.2488603515625,0.15725278854370117,-0.08094596862792969,0.1062379777431488
1774656391832860200,0.258860107421875,-0.12739324569702148,0.08820343017578125,0.04767617583274841
1774656391842860300,0.2688603515625,-0.05849599838256836,0.04309558868408203,-0.07532325387001038
1774656391852860200,0.278860107421875,-0.016866683959960938,-0.049996376037597656,0.02743092179298401
1774656391862860300,0.2888603515625,-0.06957721710205078,0.025112152099609375,0.20667432248592377
1774656391872860200,0.298860107421875,0.04729270935058594,-0.023298263549804688,0.07601698487997055
1774656391882860300,0.3088603515625,0.14814138412475586,-0.08978271484375,-0.14494004845619202
1774656391892860200,0.318860107421875,-0.10491561889648438,0.06336784362792969,0.022202149033546448
1774656391902860300,0.3288603515625,-0.1796121597290039,0.04032325744628906,0.20393401384353638
1774656391912860200,0.338860107421875,0.1512608528137207,-0.0070476531982421875,-0.07567532360553741
1774656391922860300,0.3488603515625,0.1298508644104004,-0.043290138244628906,-0.2885521650314331
1774656391932860200,0.358860107421875,-0.05673694610595703,0.035330772399902344,-0.06416536867618561
1774656391942860300,0.3688603515625,-0.2339458465576172,0.06426429748535156,0.24526461958885193
1774656391952860200,0.378860107421875,-0.1653904914855957,0.09739303588867188,0.06666287779808044
1774656391962860300,0.3888603515625,-0.040566444396972656,0.015653610229492188,-0.20201465487480164
1774656391972860200,0.398860107421875,0.12452125549316406,-0.028641700744628906,-0.1425258368253708
1774656391982860300,0.4088603515625,0.06225299835205078,-0.07180404663085938,0.15561696887016296
1774656391992860200,0.418860107421875,-0.08489131927490234,0.06540966033935547,0.09613517671823502
1774656392002860300,0.4288603515625,-0.15087080001831055,0.06939029693603516,-0.15238718688488007
1774656392012860200,0.438860107421875,0.03858470916748047,0.0010089874267578125,-0.11333678662776947
1774656392022860300,0.4488603515625,0.08300161361694336,-0.1033477783203125,0.20030200481414795
1774656392032860200,0.458860107421875,0.03749275207519531,-0.03089141845703125,0.1894034743309021
1774656392042860300,0.4688603515625,-0.0642552375793457,0.03688240051269531,-0.08234967291355133
1774656392052860200,0.478860107421875,-0.04683685302734375,0.02849102020263672,-0.0875868946313858
1774656392062860300,0.4888603515625,0.11353683471679688,-0.11625099182128906,0.12379343807697296
1774656392072860200,0.498860107421875,0.14092350006103516,-0.04607868194580078,0.085965096950531
1774656392082860300,0.5088603515625,-0.058925628662109375,0.009557723999023438,-0.008335769176483154
1774656392092860200,0.518860107421875,-0.01908588409423828,0.0011310577392578125,-0.02136632800102234
1774656392102860300,0.5288603515625,0.11513090133666992,-0.05824851989746094,0.10809187591075897
1774656392112860200,0.538860107421875,-0.01400613784790039,0.02554035186767578,0.08923272788524628
1774656392122860300,0.5488603515625,-0.10348320007324219,0.1056222915649414,-0.08685183525085449
1774656392132860200,0.558860107421875,-0.10382747650146484,0.08572578430175781,-0.0778970867395401
1774656392142860300,0.5688603515625,-0.14692926406860352,0.11845970153808594,0.034473538398742676
1774656392152860200,0.578860107421875,-0.08725643157958984,0.046584129333496094,0.021829351782798767
1774656392162860300,0.5888603515625,0.06351518630981445,0.002960205078125,-0.0915159285068512
1774656392172860200,0.598860107421875,0.04175901412963867,-0.08274364471435547,-0.03160092234611511
1774656392182860300,0.6088603515625,0.022739887237548828,-0.05342674255371094,-0.0346699059009552
1774656392192860200,0.618860107421875,0.05373811721801758,-0.12160968780517578,-0.0221480131149292
1774656392202860300,0.6288603515625,0.16440725326538086,-0.049681663513183594,-0.12634944915771484
1774656392212860200,0.638860107421875,-0.06144905090332031,-0.0027408599853515625,-0.032397955656051636
1774656392222860300,0.6488603515625,-0.01684713363647461,-0.03358268737792969,0.030064016580581665
1774656392232860200,0.658860107421875,0.05823326110839844,-0.06836128234863281,0.08394289016723633
1774656392242860300,0.6688603515625,-0.036174774169921875,0.016592979431152344,0.033642396330833435
1774656392252860200,0.678860107421875,-0.019509315490722656,0.042731285095214844,0.01568545401096344
1774656392262860300,0.6888603515625,0.14779424667358398,-0.058648109436035156,0.0641479641199112
1774656392272860200,0.698860107421875,0.12917518615722656,-0.00060272216796875,0.03708110749721527
1774656392282860300,0.7088603515625,-0.08147001266479492,0.09202003479003906,-0.017084777355194092
1774656392292860200,0.718860107421875,-0.07376718521118164,0.105010986328125,-0.03223702311515808
1774656392302860300,0.7288603515625,-0.17221641540527344,0.07960700988769531,0.12309952080249786
1774656392312860200,0.738860107421875,-0.23473310470581055,0.09155464172363281,0.1352095603942871
1774656392322860300,0.7488603515625,0.017347335815429688,0.034081459045410156,0.01412944495677948
1774656392332860200,0.758860107421875,0.17278003692626953,-0.09296226501464844,-0.12374909222126007
1774656392342860300,0.7688603515625,0.10407352447509766,0.03530693054199219,0.003954470157623291
1774656392352860200,0.778860107421875,-0.054633140563964844,-0.002307891845703125,0.06392137706279755
1774656392362860300,0.7888603515625,-0.030123233795166016,-0.05092334747314453,-0.06559962034225464
1774656392372860200,0.798860107421875,-0.04863929748535156,0.016559600830078125,-0.12292976677417755
1774656392382860300,0.8088603515625,-0.03772163391113281,-0.019156455993652344,-0.0251457542181015
1774656392392860200,0.818860107421875,0.12074613571166992,-0.06280517578125,0.04338471591472626
1774656392402860300,0.8288603515625,0.07201147079467773,-0.027772903442382812,-0.03150948882102966
1774656392412860200,0.838860107421875,0.048821449279785156,-0.00144195556640625,-0.08565545082092285
1774656392422860300,0.8488603515625,0.057886600494384766,-0.044295310974121094,-0.002596139907836914
1774656392432860200,0.858860107421875,0.021495819091796875,-0.05358695983886719,0.11643664538860321
1774656392442860300,0.8688603515625,-0.023261547088623047,0.010264396667480469,0.10288634896278381
1774656392452860200,0.878860107421875,-0.12485218048095703,0.05228710174560547,-0.006866559386253357
1774656392462860300,0.8888603515625,-0.017278671264648438,0.06290435791015625,-0.05569900572299957
1774656392472860200,0.898860107421875,-0.05861663818359375,0.10149002075195312,0.05115431547164917
1774656392482860300,0.9088603515625,-0.11529254913330078,0.08376789093017578,0.09107226878404617
1774656392492860200,0.918860107421875,0.05509042739868164,0.050589561462402344,0.03235936164855957
1774656392502860300,0.9288603515625,-0.11897897720336914,0.0700826644897461,0.05656936764717102
1774656392512860200,0.938860107421875,-0.2253727912902832,0.10516166687011719,0.04367378354072571
1774656392522860300,0.9488603515625,0.10861730575561523,-0.05206012725830078,0.028200194239616394
1774656392532860200,0.958860107421875,0.2753281593322754,-0.13179683685302734,0.018568068742752075
1774656392542860300,0.9688603515625,-0.06082439422607422,0.03520393371582031,0.009032115340232849
1774656392552860200,0.978860107421875,-0.19273710250854492,0.08805561065673828,-0.08177082240581512
1774656392562860300,0.9888603515625,0.10726356506347656,-0.12546157836914062,-0.07629823684692383
1774656392572860200,0.998860107421875,0.19485139846801758,-0.1333475112915039,0.06018108129501343
1774656392582860300,1.0088603515625,-0.20933771133422852,0.0185089111328125,0.07810848206281662
1774656392592860200,1.018860107421875,-0.1466078758239746,0.08365249633789062,-0.17408059537410736
1774656392602860300,1.0288603515625,0.1320185661315918,-0.03354072570800781,-0.1901504546403885
1774656392612860200,1.038860107421875,0.12399482727050781,-0.042571067810058594,0.03467923402786255
1774656392622860300,1.0488603515625,0.0325617790222168,-0.008706092834472656,0.1305234432220459
1774656392632860200,1.058860107421875,-0.1309657096862793,0.0954599380493164,-0.05052042007446289
1774656392642860300,1.0688603515625,-0.2764310836791992,0.10786914825439453,-0.05486857891082764
1774656392652860200,1.078860107421875,-0.002815723419189453,-0.020501136779785156,0.13399001955986023
1774656392662860300,1.0888603515625,0.16939115524291992,-0.10127925872802734,0.18576683104038239
1774656392672860200,1.098860107421875,0.061522483825683594,-0.012305259704589844,-0.003387466073036194
1774656392682860300,1.1088603515625,-0.21330881118774414,0.13422679901123047,-0.047644853591918945
1774656392692860200,1.118860107421875,-0.6163287162780762,0.22606182098388672,0.08580979704856873
1774656392702860300,1.1288603515625,0.3878350257873535,-0.13483238220214844,0.09850330650806427
1774656392712860200,1.138860107421875,1.0601420402526855,-0.44507455825805664,0.00995907187461853
1774656392722860300,1.1488603515625,-0.5109987258911133,0.23136329650878906,0.05034373700618744
1774656392732860200,1.158860107421875,-1.148040771484375,0.4662456512451172,0.010274335741996765
1774656392742860300,1.1688603515625,0.3198699951171875,-0.13767719268798828,-0.05010311305522919
1774656392752860200,1.178860107421875,0.7282929420471191,-0.2704601287841797,-0.054435282945632935
1774656392762860300,1.1888603515625,0.30258846282958984,-0.17662525177001953,-0.03331334888935089
1774656392772860200,1.198860107421875,0.16323614120483398,-0.04681205749511719,-0.04850602149963379
1774656392782860300,1.2088603515625,-0.6570978164672852,0.3017101287841797,-0.022234931588172913
1774656392792860200,1.218860107421875,-0.45847225189208984,0.18043804168701172,-0.06467072665691376
1774656392802860300,1.2288603515625,0.7594685554504395,-0.332761287689209,0.00826677680015564
1774656392812860200,1.238860107421875,0.2379307746887207,-0.11287117004394531,0.10810317099094391
1774656392822860300,1.2488603515625,-0.7448163032531738,0.3845701217651367,-0.03700298070907593
1774656392832860200,1.258860107421875,-0.17518281936645508,0.16068363189697266,-0.23337724804878235
1774656392842860300,1.2688603515625,0.5561661720275879,-0.19598388671875,-0.04631330072879791
1774656392852860200,1.278860107421875,0.018215656280517578,0.0033483505249023438,0.2168884575366974
1774656392862860300,1.2888603515625,-0.27935171127319336,0.12897872924804688,0.014959067106246948
1774656392872860200,1.298860107421875,0.28504180908203125,0.012760162353515625,-0.22482624650001526
1774656392882860300,1.3088603515625,0.29067468643188477,-0.25299644470214844,0.16742898523807526
1774656392892860200,1.318860107421875,-0.13115644454956055,-0.006556510925292969,0.3350662589073181
1774656392902860300,1.3288603515625,-0.09142637252807617,-0.1165924072265625,0.125364750623703
1774656392912860200,1.338860107421875,0.22748756408691406,0.050688743591308594,-0.3786327838897705
1774656392922860300,1.3488603515625,-0.16172122955322266,0.020427703857421875,-0.1630733609199524
1774656392932860200,1.358860107421875,-0.20894336700439453,0.11212730407714844,0.22271370887756348
1774656392942860300,1.3688603515625,-0.058087825775146484,0.009004592895507812,0.12511280179023743
1774656392952860200,1.378860107421875,0.06842851638793945,0.04574108123779297,-0.2380247861146927
1774656392962860300,1.3888603515625,-0.14015960693359375,-0.0009660720825195312,-0.03724324703216553
1774656392972860200,1.398860107421875,0.056210994720458984,-0.032889366149902344,0.2567528784275055
1774656392982860300,1.4088603515625,0.22503137588500977,-0.1016702651977539,0.10007672011852264
1774656392992860200,1.418860107421875,-0.037217140197753906,0.022268295288085938,-0.2674356698989868
1774656393002860300,1.4288603515625,-0.197723388671875,0.05743408203125,-0.21999630331993103
1774656393012860200,1.438860107421875,0.07726812362670898,-0.015577316284179688,0.04979269206523895
1774656393022860300,1.4488603515625,-0.1768646240234375,0.07721138000488281,0.08288895338773727
1774656393032860200,1.458860107421875,-0.23273468017578125,0.030112266540527344,-0.15515047311782837
1774656393042860300,1.4688603515625,0.46830177307128906,-0.3019065856933594,-0.04247526824474335
1774656393052860200,1.478860107421875,0.25923919677734375,-0.15580177307128906,0.19503089785575867
1774656393062860300,1.4888603515625,-0.3771538734436035,0.18209362030029297,-0.03635944426059723
1774656393072860200,1.498860107421875,-0.0644679069519043,0.04544830322265625,-0.28073471784591675
1774656393082860300,1.5088603515625,0.10609102249145508,-0.05242633819580078,0.04503293335437775
1774656393092860200,1.518860107421875,-0.23574447631835938,0.05786895751953125,0.31955933570861816
1774656393102860300,1.5288603515625,0.12868499755859375,-0.053427696228027344,0.09308886528015137
1774656393112860200,1.538860107421875,0.19945621490478516,-0.10028266906738281,-0.024883240461349487
1774656393122860300,1.5488603515625,-0.30313539505004883,0.11095905303955078,0.17638449370861053
1774656393132860200,1.558860107421875,-0.037303924560546875,0.040642738342285156,0.13083061575889587
1774656393142860300,1.5688603515625,0.2569103240966797,-0.07947254180908203,-0.16061565279960632
1774656393152860200,1.578860107421875,-0.06762266159057617,0.035803794860839844,-0.06927989423274994
1774656393162860300,1.5888603515625,0.21482372283935547,-0.07183647155761719,0.14759376645088196
1774656393172860200,1.598860107421875,0.3073759078979492,-0.023736000061035156,0.07533231377601624
1774656393182860300,1.6088603515625,-0.567014217376709,0.2872610092163086,-0.17699909210205078
1774656393192860200,1.618860107421875,-0.22617149353027344,0.12988948822021484,-0.20690713822841644
1774656393202860300,1.6288603515625,0.5650086402893066,-0.29486942291259766,0.0720810741186142
1774656393212860200,1.638860107421875,0.351076602935791,-0.19875240325927734,0.09405003488063812
1774656393222860300,1.6488603515625,-0.202056884765625,-0.018777847290039062,-0.1440405398607254
1774656393232860200,1.658860107421875,-0.04630136489868164,-0.04535484313964844,-0.11850854754447937
1774656393242860300,1.6688603515625,0.006735324859619141,-0.052702903747558594,0.22845891118049622
1774656393252860200,1.678860107421875,-0.16649627685546875,0.058502197265625,0.12965819239616394
1774656393262860300,1.6888603515625,0.1231379508972168,0.0014963150024414062,-0.23909136652946472
1774656393272860200,1.698860107421875,0.4499630928039551,-0.1374225616455078,-0.2638953924179077
1774656393282860300,1.7088603515625,0.38101959228515625,-0.1470327377319336,0.08340322971343994
1774656393292860200,1.718860107421875,-0.08511209487915039,0.023301124572753906,0.20446638762950897
1774656393302860300,1.7288603515625,-0.17525005340576172,0.09295845031738281,0.05513423681259155
1774656393312860200,1.738860107421875,0.010767936706542969,0.0032510757446289062,0.04054643213748932
1774656393322860300,1.7488603515625,-0.0425724983215332,0.05039024353027344,0.22467732429504395
1774656393332860200,1.758860107421875,-0.2592906951904297,0.16909313201904297,0.16918130218982697
1774656393342860300,1.7688603515625,-0.12703704833984375,0.10697650909423828,-0.10937708616256714
1774656393352860200,1.778860107421875,0.14309263229370117,-0.03464221954345703,-0.17872701585292816
1774656393362860300,1.7888603515625,-0.09225845336914062,0.01820087432861328,0.11158736050128937
1774656393372860200,1.798860107421875,0.015186309814453125,-0.05366230010986328,0.2473645955324173
1774656393382860300,1.8088603515625,0.6295490264892578,-0.28252220153808594,0.00602412223815918
1774656393392860200,1.818860107421875,0.39289236068725586,-0.1459197998046875,-0.11909051239490509
1774656393402860300,1.8288603515625,-0.3429412841796875,0.16208648681640625,-0.06448307633399963
1774656393412860200,1.838860107421875,-0.25588035583496094,0.1541595458984375,-0.09477268159389496
1774656393422860300,1.8488603515625,-0.11431217193603516,0.09280109405517578,-0.17801521718502045
1774656393432860200,1.858860107421875,-0.2352747917175293,0.1223459243774414,-0.15310344099998474
1774656393442860300,1.8688603515625,-0.05620384216308594,-0.010455131530761719,-0.029223009943962097
1774656393452860200,1.878860107421875,0.1580824851989746,-0.1210184097290039,0.05768181383609772
1774656393462860300,1.8888603515625,-0.08241796493530273,0.008030891418457031,0.026283472776412964
1774656393472860200,1.898860107421875,0.008760929107666016,0.022597312927246094,-0.10673686861991882
1774656393482860300,1.9088603515625,0.2447514533996582,-0.06751155853271484,-0.14552588760852814
1774656393492860200,1.918860107421875,-0.06129789352416992,0.08511829376220703,0.004685744643211365
1774656393502860300,1.9288603515625,-0.36841249465942383,0.18863582611083984,0.09373180568218231
1774656393512860200,1.938860107421875,-0.22695302963256836,0.13245487213134766,0.018295541405677795
1774656393522860300,1.9488603515625,-0.08962202072143555,0.051941871643066406,0.051348522305488586
1774656393532860200,1.958860107421875,-0.10024213790893555,0.02151203155517578,0.15856866538524628
1774656393542860300,1.9688603515625,0.032552242279052734,0.024839401245117188,0.106930211186409
1774656393552860200,1.978860107421875,-0.008932113647460938,0.0759744644165039,-0.01857343316078186
1774656393562860300,1.9888603515625,0.0335087776184082,-0.06534957885742188,-0.005585655570030212
1774656393572860200,1.998860107421875,0.15485429763793945,-0.12218379974365234,0.11783579736948013
1774656393582860300,2.0088603515625,-0.11240100860595703,-0.013607978820800781,0.14103123545646667
1774656393592860200,2.018860107421875,-0.17039060592651367,0.02507495880126953,-0.03931961953639984
1774656393602860300,2.0288603515625,-0.06230974197387695,-0.04638481140136719,0.10764448344707489
1774656393612860200,2.038860107421875,-0.07355022430419922,0.1577596664428711,-0.06251700222492218
1774656393622860300,2.0488603515625,0.04699516296386719,-0.0035734176635742188,-0.015498518943786621
1774656393632860200,2.058860107421875,0.2607235908508301,-0.11787796020507812,-0.07049092650413513
1774656393642860300,2.0688603515625,0.13800621032714844,0.17531871795654297,-0.20647767186164856
1774656393652860200,2.078860107421875,-0.10071706771850586,0.055126190185546875,-0.02443954348564148
1774656393662860300,2.0888603515625,-0.16770458221435547,0.1231698989868164,-0.028323277831077576
1774656393672860200,2.098860107421875,-0.2024369239807129,0.10095691680908203,0.009647682309150696
1774656393682860300,2.1088603515625,0.11212921142578125,-0.019804000854492188,-0.11124975979328156
1774656393692860200,2.118860107421875,0.34875011444091797,-0.18813610076904297,-0.09562036395072937
1774656393702860300,2.1288603515625,-0.15708494186401367,0.039824485778808594,0.06227436661720276
1774656393712860200,2.138860107421875,-0.4515252113342285,0.11537742614746094,0.17851534485816956
1774656393722860300,2.1488603515625,-0.0029821395874023438,-0.013134002685546875,0.1519090235233307
1774656393732860200,2.158860107421875,0.22466230392456055,-0.09047889709472656,0.05470407009124756
1774656393742860300,2.1688603515625,0.18914413452148438,-0.08159732818603516,0.04183310270309448
1774656393752860200,2.178860107421875,0.13704919815063477,-0.10526371002197266,0.12902207672595978
1774656393762860300,2.1888603515625,0.111297607421875,-0.044902801513671875,0.18427075445652008
1774656393772860200,2.198860107421875,-0.024435043334960938,0.07187843322753906,0.0069290995597839355
1774656393782860300,2.2088603515625,0.2383284568786621,-0.056038856506347656,-0.14441533386707306
1774656393792860200,2.218860107421875,0.20092296600341797,-0.0733957290649414,0.006610661745071411
1774656393802860300,2.2288603515625,-0.06587648391723633,0.030431747436523438,0.15151120722293854
1774656393812860200,2.238860107421875,0.027048110961914062,0.013662338256835938,-0.02340853214263916
1774656393822860300,2.2488603515625,0.13950395584106445,-0.09873199462890625,-0.16938523948192596
1774656393832860200,2.258860107421875,0.09934616088867188,-0.11324214935302734,0.004799351096153259
1774656393842860300,2.2688603515625,-0.08165359497070312,0.0029249191284179688,0.06414806842803955
1774656393852860200,2.278860107421875,-0.13791513442993164,0.09256553649902344,-0.14875271916389465
1774656393862860300,2.2888603515625,0.05547142028808594,-0.010443687438964844,-0.2511720657348633
1774656393872860200,2.298860107421875,0.3479771614074707,-0.1235036849975586,-0.08086059987545013
1774656393882860300,2.3088603515625,0.04251670837402344,-0.030632972717285156,0.015506848692893982
1774656393892860200,2.318860107421875,-0.08301353454589844,0.028145790100097656,-0.06347638368606567
1774656393902860300,2.3288603515625,0.1596059799194336,-0.10457038879394531,-0.05138641595840454
1774656393912860200,2.338860107421875,0.061550140380859375,-0.06777286529541016,0.08710344135761261
1774656393922860300,2.3488603515625,-0.09192800521850586,0.019865989685058594,0.04123757779598236
1774656393932860200,2.358860107421875,0.11025762557983398,-0.059159278869628906,-0.11089041829109192
1774656393942860300,2.3688603515625,0.26446056365966797,-0.11995792388916016,0.035037219524383545
1774656393952860200,2.378860107421875,-0.04604482650756836,-0.03880119323730469,0.2912983298301697
1774656393962860300,2.3888603515625,-0.1088409423828125,0.013367652893066406,0.20817692577838898
1774656393972860200,2.398860107421875,0.20090818405151367,-0.08941364288330078,0.0009297281503677368
1774656393982860300,2.4088603515625,0.3335103988647461,-0.10503101348876953,0.05281391739845276
1774656393992860200,2.418860107421875,0.10398483276367188,-0.0031299591064453125,0.11639294028282166
1774656394002860300,2.4288603515625,0.011754989624023438,0.025920867919921875,-0.06117098033428192
1774656394012860200,2.438860107421875,-0.12644147872924805,0.08878326416015625,-0.09851785004138947
1774656394022860300,2.4488603515625,-0.300748348236084,0.13045692443847656,0.0765022337436676
1774656394032860200,2.458860107421875,-0.09082889556884766,0.019530296325683594,0.1338387131690979
1774656394042860300,2.4688603515625,0.2950906753540039,-0.1532421112060547,-0.04050649702548981
1774656394052860200,2.478860107421875,0.33699655532836914,-0.16807842254638672,-0.19432806968688965
1774656394062860300,2.4888603515625,-0.041414737701416016,0.00536346435546875,-0.14814242720603943
1774656394072860200,2.498860107421875,-0.09078741073608398,0.0067234039306640625,-0.08459040522575378
1774656394082860300,2.5088603515625,0.1145319938659668,-0.10738849639892578,-0.05586673319339752
1774656394092860200,2.518860107421875,0.011187553405761719,-0.06197166442871094,-0.027206212282180786
1774656394102860300,2.5288603515625,-0.18011856079101562,0.06362342834472656,-0.03221294283866882
1774656394112860200,2.538860107421875,-0.08281564712524414,0.022800445556640625,-0.0957263857126236
1774656394122860300,2.5488603515625,0.08145952224731445,-0.03912639617919922,-0.05821004509925842
1774656394132860200,2.558860107421875,-0.14423274993896484,0.038474082946777344,0.059290431439876556
1774656394142860300,2.5688603515625,-0.4300651550292969,0.1368265151977539,0.08565134555101395
1774656394152860200,2.578860107421875,-0.22793292999267578,0.08613395690917969,0.05235055088996887
1774656394162860300,2.5888603515625,0.030904293060302734,-0.03482246398925781,0.1294429451227188
1774656394172860200,2.598860107421875,-0.07391881942749023,0.027845382690429688,0.1906774640083313
1774656394182860300,2.6088603515625,-0.062222957611083984,0.04587554931640625,0.13786830008029938
1774656394192860200,2.618860107421875,0.024776935577392578,0.045050621032714844,0.01867680251598358
1774656394202860300,2.6288603515625,0.003364086151123047,0.053223609924316406,0.007302626967430115
1774656394212860200,2.638860107421875,0.04280233383178711,-0.0019388198852539062,0.19291551411151886
1774656394222860300,2.6488603515625,-0.1976022720336914,0.07988834381103516,0.1655333936214447
1774656394232860200,2.658860107421875,-0.35169267654418945,0.12937641143798828,0.012747853994369507
1774656394242860300,2.6688603515625,-0.17984914779663086,0.049269676208496094,-0.06780043244361877
1774656394252860200,2.678860107421875,-0.10951042175292969,0.034178733825683594,-0.07438549399375916
1774656394262860300,2.6888603515625,-0.4031257629394531,0.19349098205566406,0.00046128034591674805
1774656394272860200,2.698860107421875,-0.7734313011169434,0.30565738677978516,-0.10021531581878662
1774656394282860300,2.7088603515625,-1.1790695190429688,0.49992942810058594,-0.07040010392665863
1774656394292860200,2.718860107421875,-2.382901906967163,0.9817819595336914,0.053328923881053925
1774656394302860300,2.7288603515625,-1.9376449584960938,0.7673826217651367,0.04900038242340088
1774656394312860200,2.738860107421875,-0.3571586608886719,0.21080303192138672,-0.13108603656291962
1774656394322860300,2.7488603515625,-0.8499317169189453,0.30226898193359375,-0.1420181393623352
1774656394332860200,2.758860107421875,-1.3676221370697021,0.5942287445068359,-0.02388089895248413
1774656394342860300,2.7688603515625,-1.1319165229797363,0.42674827575683594,0.17081384360790253
1774656394352860200,2.778860107421875,-0.9063332080841064,0.45143604278564453,0.1923092156648636
1774656394362860300,2.7888603515625,-0.4688754081726074,-0.03176689147949219,-0.014479756355285645
1774656394372860200,2.798860107421875,0.8997287750244141,-0.2257080078125,-0.26428037881851196
1774656394382860300,2.8088603515625,1.1091771125793457,-0.6936759948730469,0.06412547826766968
1774656394392860200,2.818860107421875,2.3205223083496094,-1.005528450012207,-0.006248161196708679
1774656394402860300,2.8288603515625,2.0727996826171875,-0.9535369873046875,0.02637435495853424
1774656394412860200,2.838860107421875,1.9445791244506836,-1.0118904113769531,0.04187797009944916
1774656394422860300,2.8488603515625,1.572390079498291,-1.0882964134216309,0.08028905093669891
1774656394432860200,2.858860107421875,0.8277654647827148,-0.39144229888916016,-0.08504980802536011
1774656394442860300,2.8688603515625,-0.17818355560302734,-0.09578609466552734,-0.14275692403316498
1774656394452860200,2.878860107421875,-0.3091273307800293,-0.048598289489746094,-0.15793350338935852
1774656394462860300,2.8888603515625,0.06451845169067383,-0.04604148864746094,-0.06452514231204987
1774656394472860200,2.898860107421875,-0.1724381446838379,0.12546443939208984,-0.030773743987083435
1774656394482860300,2.9088603515625,-0.5665664672851562,0.22312164306640625,-0.09128119051456451
1774656394492860200,2.918860107421875,-0.2349710464477539,0.0951070785522461,-0.11278833448886871
1774656394502860300,2.9288603515625,0.5240578651428223,-0.14059734344482422,-0.1373569220304489
1774656394512860200,2.938860107421875,1.0130696296691895,-0.3866157531738281,-0.17786379158496857
1774656394522860300,2.9488603515625,0.5696983337402344,-0.16602611541748047,-0.16750864684581757
1774656394532860200,2.958860107421875,-0.2699289321899414,0.1816997528076172,-0.0862133800983429
1774656394542860300,2.9688603515625,-0.40947532653808594,0.21840286254882812,0.036766886711120605
1774656394552860200,2.978860107421875,0.27449703216552734,-0.1570119857788086,0.057016149163246155
1774656394562860300,2.9888603515625,0.6473531723022461,-0.30438232421875,0.03362978994846344
1774656394572860200,2.998860107421875,0.1371159553527832,-0.1168813705444336,0.025709494948387146
1774656394582860300,3.0088603515625,0.4490823745727539,-0.18941020965576172,0.006251081824302673
1774656394592860200,3.018860107421875,0.40825366973876953,-0.18169689178466797,0.05638909339904785
1774656394602860300,3.0288603515625,0.25545549392700195,-0.1117391586303711,0.07044419646263123
1774656394612860200,3.038860107421875,-0.27672719955444336,0.16420269012451172,0.05731740593910217
1774656394622860300,3.0488603515625,-0.14759588241577148,-0.0258941650390625,0.13800954818725586
1774656394632860200,3.058860107421875,0.12656927108764648,-0.011356353759765625,0.06661166250705719
1774656394642860300,3.0688603515625,-0.045214176177978516,-0.022896766662597656,0.14674317836761475
1774656394652860200,3.078860107421875,0.24620819091796875,-0.14839458465576172,-0.041573017835617065
1774656394662860300,3.0888603515625,-0.1782064437866211,0.22023868560791016,-0.12179620563983917
1774656394672860200,3.098860107421875,-0.2693214416503906,0.14700794219970703,0.0032681673765182495
1774656394682860300,3.1088603515625,0.9758310317993164,-0.3577108383178711,-0.04796712100505829
1774656394692860200,3.118860107421875,0.9147710800170898,-0.3823566436767578,-0.060216039419174194
1774656394702860300,3.1288603515625,-0.0533599853515625,-0.0027294158935546875,-0.00600104033946991
1774656394712860200,3.138860107421875,-0.045029640197753906,0.029043197631835938,-0.005888238549232483
1774656394722860300,3.1488603515625,0.12196779251098633,0.0031747817993164062,-0.11856316030025482
1774656394732860200,3.158860107421875,0.08776330947875977,-0.011113166809082031,-0.18861740827560425
1774656394742860300,3.1688603515625,0.5126347541809082,-0.17644786834716797,-0.19283945858478546
1774656394752860200,3.178860107421875,0.9682760238647461,-0.3727712631225586,-0.13105149567127228
1774656394762860300,3.1888603515625,0.9391694068908691,-0.4305706024169922,-0.10643017292022705
1774656394772860200,3.198860107421875,0.8189387321472168,-0.42269420623779297,-0.07211962342262268
1774656394782860300,3.2088603515625,1.1886820793151855,-0.6929812431335449,0.09261824190616608
1774656394792860200,3.218860107421875,1.8331513404846191,-0.9867439270019531,0.20898747444152832
1774656394802860300,3.2288603515625,1.9703764915466309,-0.9578709602355957,0.10212975740432739
1774656394812860200,3.238860107421875,1.0696148872375488,-0.5498065948486328,-0.05939887464046478
1774656394822860300,3.2488603515625,0.5003786087036133,-0.26441001892089844,-0.05956605076789856
1774656394832860200,3.258860107421875,-0.2952842712402344,0.14507770538330078,0.0824304074048996
1774656394842860300,3.2688603515625,-1.3766589164733887,0.6641759872436523,0.12890133261680603
1774656394852860200,3.278860107421875,-2.4173314571380615,1.041213035583496,0.1093897745013237
1774656394862860300,3.2888603515625,-3.2927722930908203,1.3783864974975586,0.17895282804965973
1774656394872860200,3.298860107421875,-1.4859645366668701,0.6033267974853516,0.12580479681491852
1774656394882860300,3.3088603515625,-0.09252309799194336,0.06734561920166016,0.014703556895256042
1774656394892860200,3.318860107421875,-0.16872930526733398,0.1767740249633789,-0.13512122631072998
1774656394902860300,3.3288603515625,0.5985250473022461,-0.1217966079711914,-0.2802430987358093
1774656394912860200,3.338860107421875,0.35503387451171875,-0.07001781463623047,-0.11897334456443787
1774656394922860300,3.3488603515625,-0.4778571128845215,0.11725616455078125,0.1421556919813156
1774656394932860200,3.358860107421875,0.40309953689575195,-0.21186065673828125,0.08887802064418793
1774656394942860300,3.3688603515625,0.41658496856689453,-0.2163829803466797,-0.07838401198387146
1774656394952860200,3.378860107421875,-0.35639047622680664,0.0996541976928711,-0.06573854386806488
1774656394962860300,3.3888603515625,-0.33660268783569336,0.11979961395263672,-0.07683524489402771
1774656394972860200,3.398860107421875,0.1974353790283203,-0.044806480407714844,-0.16182060539722443
1774656394982860300,3.4088603515625,0.2783184051513672,-0.05787849426269531,-0.09889179468154907
1774656394992860200,3.418860107421875,0.3337869644165039,-0.17537879943847656,0.012235157191753387
1774656395002860300,3.4288603515625,0.8732171058654785,-0.4657249450683594,0.2609395384788513
1774656395012860200,3.438860107421875,0.6413850784301758,-0.3441915512084961,0.325607031583786
1774656395022860300,3.4488603515625,-0.11074113845825195,0.06416797637939453,0.14568690955638885
1774656395032860200,3.458860107421875,-0.029191970825195312,0.16571807861328125,-0.21117593348026276
1774656395042860300,3.4688603515625,-0.2744450569152832,0.2528858184814453,-0.2410774827003479
1774656395052860200,3.478860107421875,-0.9439482688903809,0.42903995513916016,0.02199866622686386
1774656395062860300,3.4888603515625,-0.598325252532959,0.20930767059326172,0.20900097489356995
1774656395072860200,3.498860107421875,0.22568321228027344,-0.16781902313232422,0.26133206486701965
1774656395082860300,3.5088603515625,0.5018477439880371,-0.28449249267578125,0.2525438666343689
1774656395092860200,3.518860107421875,0.32693004608154297,-0.15827274322509766,0.13039885461330414
1774656395102860300,3.5288603515625,0.3931698799133301,0.05469322204589844,-0.1258617639541626
1774656395112860200,3.538860107421875,0.5726394653320312,0.04138946533203125,-0.40603137016296387
1774656395122860300,3.5488603515625,0.5381689071655273,0.09100341796875,-0.3236420154571533
1774656395132860200,3.558860107421875,-0.16878414154052734,0.47795867919921875,-0.06019227206707001
1774656395142860300,3.5688603515625,-0.4498610496520996,0.19807815551757812,0.1218390241265297
1774656395152860200,3.578860107421875,-0.12390995025634766,-0.1691150665283203,0.21739132702350616
1774656395162860300,3.5888603515625,0.025376319885253906,0.22559261322021484,0.08642250299453735
1774656395172860200,3.598860107421875,0.3196902275085449,0.39646339416503906,-0.3013782203197479
1774656395182860300,3.6088603515625,0.2522306442260742,0.8121623992919922,-0.6077808737754822
1774656395192860200,3.618860107421875,-0.9230556488037109,1.535146713256836,-0.5804634094238281
1774656395202860300,3.6288603515625,0.1935133934020996,1.134718894958496,-0.5697095990180969
1774656395212860200,3.638860107421875,3.308910369873047,-0.49693775177001953,-0.34507256746292114
1774656395222860300,3.6488603515625,1.5620193481445312,0.11273479461669922,0.3732373118400574
1774656395232860200,3.658860107421875,-1.1371896266937256,1.1828365325927734,0.5017929673194885
1774656395242860300,3.6688603515625,-0.40821123123168945,1.2943506240844727,-0.06315878033638
1774656395252860200,3.678860107421875,0.3258981704711914,1.1104259490966797,-0.5065232515335083
1774656395262860300,3.6888603515625,0.828885555267334,0.9022178649902344,-0.32202112674713135
1774656395272860200,3.698860107421875,0.2853403091430664,1.108637809753418,0.2036292552947998
1774656395282860300,3.7088603515625,0.1085515022277832,1.2018718719482422,0.049517273902893066
1774656395292860200,3.718860107421875,3.3809814453125,0.030791282653808594,-0.43974167108535767
1774656395302860300,3.7288603515625,3.844252109527588,-0.7745466232299805,-0.011203259229660034
1774656395312860200,3.738860107421875,0.1945037841796875,0.5397567749023438,0.7348754405975342
1774656395322860300,3.7488603515625,-1.6389508247375488,1.077127456665039,0.757481038570404
1774656395332860200,3.758860107421875,-0.6623950004577637,0.8268718719482422,-0.11456014215946198
1774656395342860300,3.7688603515625,1.2705111503601074,0.2172870635986328,-0.6777876019477844
1774656395352860200,3.778860107421875,2.021667003631592,-0.0865020751953125,-0.6929574012756348
1774656395362860300,3.7888603515625,1.2202630043029785,-0.10907173156738281,-0.4262588620185852
1774656395372860200,3.798860107421875,0.278900146484375,-0.3952798843383789,-0.19739645719528198
1774656395382860300,3.8088603515625,0.04169464111328125,-0.8763914108276367,0.19807037711143494
1774656395392860200,3.818860107421875,0.30304956436157227,-1.2438926696777344,0.5556228160858154
1774656395402860300,3.8288603515625,0.8641471862792969,-1.357254981994629,0.3371971547603607
1774656395412860200,3.838860107421875,0.22000360488891602,-0.9992990493774414,-0.22777436673641205
1774656395422860300,3.8488603515625,-0.4424567222595215,-0.8521633148193359,-0.5289445519447327
1774656395432860200,3.858860107421875,0.5358409881591797,-1.6056289672851562,-0.1831449568271637
1774656395442860300,3.8688603515625,1.478224277496338,-2.1816978454589844,0.40161940455436707
1774656395452860200,3.878860107421875,0.2729640007019043,-1.7987380027770996,0.4284442365169525
1774656395462860300,3.8888603515625,-0.42374157905578613,-1.2528066635131836,0.020278088748455048
1774656395472860200,3.898860107421875,-0.3807992935180664,-1.130753517150879,-0.18940411508083344
1774656395482860300,3.9088603515625,-0.5661478042602539,-1.1859745979309082,0.21018695831298828
1774656395492860200,3.918860107421875,-0.03769683837890625,-1.559457778930664,0.6410927176475525
1774656395502860300,3.9288603515625,-0.15106940269470215,-1.3436689376831055,0.5709283351898193
1774656395512860200,3.938860107421875,0.14689874649047852,-1.1477937698364258,0.14325234293937683
1774656395522860300,3.9488603515625,1.086893081665039,-0.8900604248046875,-0.04459208995103836
1774656395532860200,3.958860107421875,0.3724541664123535,-0.5451316833496094,-0.06630244106054306
1774656395542860300,3.9688603515625,-0.23651766777038574,-0.21068859100341797,0.19576868414878845
1774656395552860200,3.978860107421875,-0.34947824478149414,-0.256591796875,0.2618165612220764
1774656395562860300,3.9888603515625,0.1296372413635254,-0.45829105377197266,0.2709401845932007
1774656395572860200,3.998860107421875,0.609154224395752,-0.6150074005126953,0.4966076910495758
1774656395582860300,4.0088603515625,0.7205958366394043,-0.3290433883666992,0.48736199736595154
1774656395592860200,4.018860107421875,0.0746607780456543,0.637476921081543,0.03699282184243202
1774656395602860300,4.0288603515625,-1.0976510047912598,1.2754287719726562,-0.41873374581336975
1774656395612860200,4.038860107421875,0.7625713348388672,0.5390701293945312,-0.4122184216976166
1774656395622860300,4.0488603515625,1.6540050506591797,-0.5388765335083008,0.2539083957672119
1774656395632860200,4.058860107421875,-0.5826034545898438,0.19225215911865234,1.0490094423294067
1774656395642860300,4.0688603515625,-1.849090576171875,0.7766513824462891,0.7593076825141907
1774656395652860200,4.078860107421875,-0.5289604663848877,0.5630216598510742,-0.031099271029233932
1774656395662860300,4.0888603515625,0.2516908645629883,0.35022926330566406,-0.3279857933521271
1774656395672860200,4.098860107421875,0.5276350975036621,0.3061256408691406,-0.1870463639497757
1774656395682860300,4.1088603515625,0.029151439666748047,0.4445638656616211,-0.022869568318128586
1774656395692860200,4.118860107421875,-0.6875483989715576,0.3257122039794922,0.11168958246707916
1774656395702860300,4.1288603515625,-0.4134697914123535,-0.012451171875,0.5061861276626587
1774656395712860200,4.138860107421875,-0.24398279190063477,-0.07502269744873047,0.635834276676178
1774656395722860300,4.1488603515625,0.5071396827697754,-0.1057891845703125,0.17306828498840332
1774656395732860200,4.158860107421875,0.09737634658813477,0.22331809997558594,-0.2881734371185303
1774656395742860300,4.1688603515625,-1.2200522422790527,0.6210784912109375,-0.2062344253063202
1774656395752860200,4.178860107421875,-0.90525221824646,0.2159566879272461,0.17419520020484924
1774656395762860300,4.1888603515625,0.11656475067138672,-0.3675069808959961,0.3226499557495117
1774656395772860200,4.198860107421875,-0.5461471080780029,-0.054821014404296875,0.18198680877685547
1774656395782860300,4.2088603515625,-1.4872486591339111,0.5888681411743164,-0.05863601714372635
1774656395792860200,4.218860107421875,-0.8954746723175049,0.6392993927001953,-0.3013656735420227
1774656395802860300,4.2288603515625,-0.39029645919799805,0.41167736053466797,-0.29675009846687317
1774656395812860200,4.238860107421875,-0.38746094703674316,0.13414573669433594,0.10368688404560089
1774656395822860300,4.2488603515625,-0.8479883670806885,0.13661956787109375,0.5258007645606995
1774656395832860200,4.258860107421875,-0.9109797477722168,0.24645423889160156,0.43542468547821045
1774656395842860300,4.2688603515625,-0.14269351959228516,0.15768718719482422,0.029939524829387665
1774656395852860200,4.278860107421875,0.5174031257629395,0.08804702758789062,-0.1501447856426239
1774656395862860300,4.2888603515625,0.12465190887451172,0.13005924224853516,-0.02965538203716278
1774656395872860200,4.298860107421875,-1.1631996631622314,0.4191408157348633,0.19357739388942719
1774656395882860300,4.3088603515625,-0.8369429111480713,0.36908626556396484,0.22815009951591492
1774656395892860200,4.318860107421875,-0.06054353713989258,0.23234176635742188,-0.021294668316841125
1774656395902860300,4.3288603515625,-0.43558740615844727,0.36821842193603516,-0.021757274866104126
1774656395912860200,4.338860107421875,-0.8693788051605225,0.35636043548583984,0.2990986108779907
1774656395922860300,4.3488603515625,-0.48548126220703125,0.10326766967773438,0.3125881552696228
1774656395932860200,4.358860107421875,0.30927181243896484,-0.15253162384033203,0.18314453959465027
1774656395942860300,4.3688603515625,0.19412851333618164,0.08594226837158203,0.01768036186695099
1774656395952860200,4.378860107421875,-0.2197871208190918,0.13956737518310547,-0.12488284707069397
1774656395962860300,4.3888603515625,-0.07823371887207031,-0.05719757080078125,0.0974826067686081
1774656395972860200,4.398860107421875,-0.16510629653930664,-0.12383747100830078,0.33673036098480225
1774656395982860300,4.4088603515625,-0.6251041889190674,0.17975807189941406,0.20839829742908478
1774656395992860200,4.418860107421875,-0.9534289836883545,0.5164823532104492,-0.057814717292785645
1774656396002860300,4.4288603515625,0.22023725509643555,-0.06810855865478516,-0.21025781333446503
1774656396012860200,4.438860107421875,0.8991427421569824,-0.5951757431030273,0.12713323533535004
1774656396022860300,4.4488603515625,-0.08073568344116211,-0.4290008544921875,0.44151461124420166
1774656396032860200,4.458860107421875,0.06801462173461914,-0.41037654876708984,0.18879640102386475
1774656396042860300,4.4688603515625,0.508145809173584,-0.4474811553955078,-0.16448906064033508
1774656396052860200,4.478860107421875,0.4093341827392578,-0.24804973602294922,-0.31150275468826294
1774656396062860300,4.4888603515625,0.4366574287414551,-0.6040515899658203,-0.28069302439689636
1774656396072860200,4.498860107421875,-0.5626752376556396,-0.46212196350097656,-0.015353307127952576
1774656396082860300,4.5088603515625,-1.2851531505584717,-0.3755474090576172,0.0630079060792923
1774656396092860200,4.518860107421875,0.11111211776733398,-0.6375303268432617,0.01056186854839325
1774656396102860300,4.5288603515625,-0.5466020107269287,0.0015554428100585938,-0.3988047242164612
1774656396112860200,4.538860107421875,-0.6638598442077637,0.26071929931640625,-0.8643076419830322
1774656396122860300,4.5488603515625,0.20409679412841797,-0.3571205139160156,-0.7454035878181458
1774656396132860200,4.558860107421875,0.22966527938842773,-0.6971044540405273,-0.013543352484703064
1774656396142860300,4.5688603515625,-0.13440799713134766,-0.6269769668579102,0.48735523223876953
1774656396152860200,4.578860107421875,-0.5238685607910156,0.029837608337402344,0.13841776549816132
1774656396162860300,4.5888603515625,-0.2831745147705078,0.3137493133544922,-0.5984916687011719
1774656396172860200,4.598860107421875,0.7366795539855957,0.14127349853515625,-0.725963830947876
1774656396182860300,4.6088603515625,-0.16072559356689453,0.34420108795166016,-0.23223069310188293
1774656396192860200,4.618860107421875,-1.2840170860290527,0.5198307037353516,0.052148208022117615
1774656396202860300,4.6288603515625,-0.8098793029785156,0.2324352264404297,-0.02755451202392578
1774656396212860200,4.638860107421875,0.08877944946289062,0.07063770294189453,-0.25009268522262573
1774656396222860300,4.6488603515625,0.9386453628540039,-0.22870445251464844,-0.3570667505264282
1774656396232860200,4.658860107421875,0.545628547668457,0.02263641357421875,-0.19467297196388245
1774656396242860300,4.6688603515625,-0.40357351303100586,0.2319202423095703,-0.13417942821979523
1774656396252860200,4.678860107421875,0.3187689781188965,-0.08747291564941406,-0.10971976816654205
1774656396262860300,4.6888603515625,0.5671572685241699,-0.2642087936401367,0.013699233531951904
1774656396272860200,4.698860107421875,-0.3558797836303711,-0.039809226989746094,0.16663655638694763
1774656396282860300,4.7088603515625,-1.7585463523864746,0.5278491973876953,0.20881934463977814
1774656396292860200,4.718860107421875,-1.1279449462890625,0.18739986419677734,-0.10689835250377655
1774656396302860300,4.7288603515625,0.6492884159088135,-0.5784139633178711,-0.2092665135860443
1774656396312860200,4.738860107421875,-0.0284116268157959,-0.2677440643310547,-0.004532963037490845
1774656396322860300,4.7488603515625,-0.822667121887207,0.2519378662109375,-0.36626696586608887
1774656396332860200,4.758860107421875,0.6123387813568115,-0.68341064453125,-0.5647499561309814
1774656396342860300,4.7688603515625,0.9898436069488525,-0.8574619293212891,-0.03938606381416321
1774656396352860200,4.778860107421875,-0.3641927242279053,-0.3798103332519531,0.29179662466049194
1774656396362860300,4.7888603515625,-0.9199376106262207,0.0047664642333984375,-0.08101296424865723
1774656396372860200,4.798860107421875,0.02454543113708496,-0.440399169921875,-0.3333105146884918
1774656396382860300,4.8088603515625,0.5028345584869385,-0.48961925506591797,-0.09036451578140259
1774656396392860200,4.818860107421875,-0.54441237449646,0.030440330505371094,0.04801531136035919
1774656396402860300,4.8288603515625,-0.5952966213226318,0.1493368148803711,-0.10566632449626923
1774656396412860200,4.838860107421875,-0.3466925621032715,0.2944021224975586,-0.242354616522789
1774656396422860300,4.8488603515625,-0.2879824638366699,0.026680946350097656,-0.10269573330879211
1774656396432860200,4.858860107421875,-0.13259029388427734,0.18869972229003906,0.30705636739730835
1774656396442860300,4.8688603515625,-1.293591022491455,0.709324836730957,0.20791514217853546
1774656396452860200,4.878860107421875,-0.6664736270904541,0.5983343124389648,-0.2307061403989792
1774656396462860300,4.8888603515625,0.5249314308166504,0.1270313262939453,-0.05741049349308014
1774656396472860200,4.898860107421875,1.8560774326324463,-0.3242988586425781,0.23162482678890228
1774656396482860300,4.9088603515625,2.1926543712615967,-0.43795108795166016,0.013665631413459778
1774656396492860200,4.918860107421875,0.3557147979736328,0.606724739074707,-0.1913721114397049
1774656396502860300,4.9288603515625,-1.657759666442871,1.5747098922729492,-0.23357410728931427
1774656396512860200,4.938860107421875,-0.5980944633483887,0.9782800674438477,-0.050453245639801025
1774656396522860300,4.9488603515625,1.859570026397705,-0.2328653335571289,0.3049479126930237
1774656396532860200,4.958860107421875,0.42090296745300293,0.20662975311279297,0.6023610234260559
1774656396542860300,4.9688603515625,-1.1984679698944092,0.9612827301025391,0.35788267850875854
1774656396552860200,4.978860107421875,0.467989444732666,0.35228919982910156,-0.13292476534843445
1774656396562860300,4.9888603515625,1.1420154571533203,0.10690689086914062,-0.1760740727186203
1774656396572860200,4.998860107421875,0.07204985618591309,0.28929996490478516,0.1040913537144661
1774656396582860300,5.0088603515625,-0.48875856399536133,0.15460968017578125,0.2772117853164673
1774656396592860200,5.018860107421875,-0.4342656135559082,-0.1888446807861328,0.31981170177459717
1774656396602860300,5.0288603515625,0.48423027992248535,-0.6042613983154297,0.2758387327194214
1774656396612860200,5.038860107421875,0.8855974674224854,-0.6399688720703125,0.2186460793018341
1774656396622860300,5.0488603515625,0.10840940475463867,-0.27397918701171875,0.06262490153312683
1774656396632860200,5.058860107421875,-0.3729441165924072,-0.20282745361328125,-0.06965696811676025
1774656396642860300,5.0688603515625,-0.03497123718261719,-0.5232391357421875,0.09361513704061508
1774656396652860200,5.078860107421875,0.5584678649902344,-0.9314546585083008,0.36452627182006836
1774656396662860300,5.0888603515625,0.6346738338470459,-0.9570703506469727,0.3115317225456238
1774656396672860200,5.098860107421875,-0.13228869438171387,-0.5255441665649414,0.03384171426296234
1774656396682860300,5.1088603515625,-0.5387146472930908,-0.2194957733154297,-0.13671058416366577
1774656396692860200,5.118860107421875,-0.10090041160583496,-0.5425224304199219,-0.017876088619232178
1774656396702860300,5.1288603515625,0.20955705642700195,-0.7618246078491211,0.26283973455429077
1774656396712860200,5.138860107421875,-0.19926977157592773,-0.5485286712646484,0.20095321536064148
1774656396722860300,5.1488603515625,0.0026133060455322266,-0.4810791015625,-0.17242108285427094
1774656396732860200,5.158860107421875,0.4835784435272217,-0.564030647277832,-0.2495746910572052
1774656396742860300,5.1688603515625,0.03408074378967285,-0.2809257507324219,0.06445544958114624
1774656396752860200,5.178860107421875,-0.43008971214294434,-0.0035104751586914062,0.20293591916561127
1774656396762860300,5.1888603515625,0.0540766716003418,-0.13068294525146484,0.02019144594669342
1774656396772860200,5.198860107421875,0.3992469310760498,-0.36772632598876953,0.025949627161026
1774656396782860300,5.2088603515625,0.03977036476135254,-0.19654464721679688,0.349731981754303
1774656396792860200,5.218860107421875,-0.4276139736175537,0.23458003997802734,0.29617685079574585
1774656396802860300,5.2288603515625,-0.09786725044250488,0.3341999053955078,-0.24296434223651886
1774656396812860200,5.238860107421875,0.026353836059570312,0.2190380096435547,-0.37405404448509216
1774656396822860300,5.2488603515625,-0.28405022621154785,0.1625509262084961,0.12660472095012665
1774656396832860200,5.258860107421875,-0.2417888641357422,0.10871505737304688,0.4052944779396057
1774656396842860300,5.2688603515625,0.0960991382598877,0.07279014587402344,-0.07672379910945892
1774656396852860200,5.278860107421875,0.6176221370697021,-0.15451335906982422,-0.4601035416126251
1774656396862860300,5.2888603515625,-0.039491891860961914,-0.037573814392089844,-0.08444900810718536
1774656396872860200,5.298860107421875,-0.5032749176025391,-0.035462379455566406,0.24914884567260742
1774656396882860300,5.3088603515625,0.266373872756958,-0.3321676254272461,-0.06239742040634155
1774656396892860200,5.318860107421875,-0.0012362003326416016,-0.27687740325927734,-0.46295809745788574
1774656396902860300,5.3288603515625,-0.40590453147888184,-0.3704214096069336,-0.28851982951164246
1774656396912860200,5.338860107421875,-0.6681106090545654,-0.48635292053222656,0.18062467873096466
1774656396922860300,5.3488603515625,-0.5190296173095703,-0.7109975814819336,0.07123060524463654
1774656396932860200,5.358860107421875,-0.0623624324798584,-0.7937068939208984,-0.3329923748970032
1774656396942860300,5.3688603515625,-0.5517206192016602,-0.7211923599243164,-0.5931648015975952
1774656396952860200,5.378860107421875,0.07462835311889648,-1.1724920272827148,-0.4008674621582031
1774656396962860300,5.3888603515625,-0.3313274383544922,-1.0377988815307617,-0.025364786386489868
1774656396972860200,5.398860107421875,-0.7786664962768555,-1.0593757629394531,-0.06876564025878906
1774656396982860300,5.4088603515625,-0.38311243057250977,-1.1982231140136719,-0.1084965318441391
1774656396992860200,5.418860107421875,-0.7034807205200195,-1.1856679916381836,-0.019280463457107544
1774656397002860300,5.4288603515625,0.2987370491027832,-1.5083913803100586,0.05358535051345825
1774656397012860200,5.438860107421875,-0.605593204498291,-1.0569496154785156,0.04604153335094452
1774656397022860300,5.4488603515625,-1.5376992225646973,-0.6261930465698242,-0.32614845037460327
1774656397032860200,5.458860107421875,-0.11733770370483398,-1.1540436744689941,-0.4901784062385559
1774656397042860300,5.4688603515625,-0.7107234001159668,-0.6827545166015625,-0.12095718085765839
1774656397052860200,5.478860107421875,-0.6505064964294434,-0.5472841262817383,-0.17121262848377228
1774656397062860300,5.4888603515625,0.16119956970214844,-0.5300703048706055,-0.3728920817375183
1774656397072860200,5.498860107421875,-1.108855962753296,0.027879714965820312,-0.12977467477321625
1774656397082860300,5.5088603515625,-0.5529389381408691,-0.24871826171875,0.42598801851272583
1774656397092860200,5.518860107421875,0.04246854782104492,-0.6891450881958008,0.6583018898963928
1774656397102860300,5.5288603515625,0.8574490547180176,-1.049173355102539,0.37486809492111206
1774656397112860200,5.538860107421875,1.314164161682129,-0.9377651214599609,0.11728931218385696
1774656397122860300,5.5488603515625,-1.5252406597137451,0.6181392669677734,-0.09302747249603271
1774656397132860200,5.558860107421875,-1.829357624053955,0.6327419281005859,-0.6896445751190186
1774656397142860300,5.5688603515625,1.2076773643493652,-0.5818052291870117,-0.6434957385063171
1774656397152860200,5.578860107421875,-0.026580333709716797,-0.3570232391357422,0.06404328346252441
1774656397162860300,5.5888603515625,-1.136362075805664,-0.17096328735351562,0.5630046129226685
1774656397172860200,5.598860107421875,0.03783130645751953,-0.8226852416992188,0.4454732835292816
1774656397182860300,5.6088603515625,0.4932684898376465,-0.8177428245544434,-0.014613524079322815
1774656397192860200,5.618860107421875,1.2213068008422852,-0.7407560348510742,-0.3308876156806946
1774656397202860300,5.6288603515625,-0.17304420471191406,0.13527202606201172,-0.41306596994400024
1774656397212860200,5.638860107421875,-1.698239803314209,0.6890649795532227,-0.7306166291236877
1774656397222860300,5.6488603515625,-0.18442153930664062,-0.10225486755371094,-0.6339930295944214
1774656397232860200,5.658860107421875,-0.2440338134765625,-0.16875171661376953,0.23350033164024353
1774656397242860300,5.6688603515625,0.11822509765625,-0.4004669189453125,0.6560900807380676
1774656397252860200,5.678860107421875,1.20747709274292,-0.5766963958740234,0.36800068616867065
1774656397262860300,5.6888603515625,0.014538288116455078,0.03111743927001953,0.24697774648666382
1774656397272860200,5.698860107421875,0.36572980880737305,0.07933425903320312,0.39930540323257446
1774656397282860300,5.7088603515625,0.4925708770751953,0.1703042984008789,0.2988108992576599
1774656397292860200,5.718860107421875,-0.18897199630737305,0.47309207916259766,-0.25149422883987427
1774656397302860300,5.7288603515625,0.25597095489501953,0.17230224609375,-0.3106640577316284
1774656397312860200,5.738860107421875,-1.8655555248260498,1.0649747848510742,0.38700810074806213
1774656397322860300,5.7488603515625,-1.5100593566894531,0.7836132049560547,0.4405990540981293
1774656397332860200,5.758860107421875,2.268977165222168,-0.7994699478149414,0.10159312188625336
1774656397342860300,5.7688603515625,1.199815273284912,-0.3085651397705078,0.2657519280910492
1774656397352860200,5.778860107421875,-1.081162452697754,0.8505306243896484,0.3665260076522827
1774656397362860300,5.7888603515625,-0.636444091796875,0.9607563018798828,-0.20333819091320038
1774656397372860200,5.798860107421875,0.1988067626953125,0.8769931793212891,-0.7024127840995789
1774656397382860300,5.8088603515625,0.5600175857543945,0.24373435974121094,-0.29853954911231995
1774656397392860200,5.818860107421875,0.16446447372436523,-0.1752023696899414,0.8700267672538757
1774656397402860300,5.8288603515625,-0.2983579635620117,-0.14911842346191406,1.3107527494430542
1774656397412860200,5.838860107421875,0.7908897399902344,-0.14108562469482422,0.4599463939666748
1774656397422860300,5.8488603515625,0.9445209503173828,0.5498342514038086,-0.34232228994369507
1774656397432860200,5.858860107421875,-0.6389327049255371,1.5003328323364258,-0.5973600149154663
1774656397442860300,5.8688603515625,0.03932476043701172,0.8957042694091797,-0.4135649502277374
1774656397452860200,5.878860107421875,0.2417583465576172,0.1685466766357422,0.2273976057767868
1774656397462860300,5.8888603515625,0.37702274322509766,-0.6070098876953125,0.839877188205719
1774656397472860200,5.898860107421875,1.3238062858581543,-0.7930154800415039,0.8690982460975647
1774656397482860300,5.9088603515625,0.39685726165771484,0.10448932647705078,0.09046614170074463
1774656397492860200,5.918860107421875,0.6524710655212402,0.20802593231201172,-0.8313471674919128
1774656397502860300,5.9288603515625,1.2041339874267578,-0.5734033584594727,-0.763156533241272
1774656397512860200,5.938860107421875,-0.442047119140625,-0.14639949798583984,0.1132415235042572
1774656397522860300,5.9488603515625,-2.5706076622009277,0.5696029663085938,0.27705201506614685
1774656397532860200,5.958860107421875,-1.8520002365112305,-0.09261608123779297,0.10132551193237305
1774656397542860300,5.9688603515625,0.4090995788574219,-0.9397211074829102,0.1415170580148697
1774656397552860200,5.978860107421875,0.22787141799926758,-0.8552074432373047,0.16208207607269287
1774656397562860300,5.9888603515625,-0.5484189987182617,-0.11571121215820312,0.07324028015136719
1774656397572860200,5.998860107421875,0.5916614532470703,-0.4578237533569336,-0.22902587056159973
1774656397582860300,6.0088603515625,0.12604427337646484,0.05517101287841797,-0.3944099247455597
1774656397592860200,6.018860107421875,-1.7803568840026855,0.8697948455810547,-0.13288193941116333
1774656397602860300,6.0288603515625,-0.4254755973815918,0.15704822540283203,0.26712608337402344
1774656397612860200,6.038860107421875,2.057997226715088,-1.012423038482666,0.3351910710334778
1774656397622860300,6.0488603515625,1.503828525543213,-0.8218841552734375,0.35805845260620117
1774656397632860200,6.058860107421875,-0.06165170669555664,0.03544807434082031,0.39062440395355225
1774656397642860300,6.0688603515625,0.007018089294433594,0.4400768280029297,-0.18487194180488586
1774656397652860200,6.078860107421875,0.1405930519104004,0.6345157623291016,-0.9859414100646973
1774656397662860300,6.0888603515625,-1.330136775970459,1.1723527908325195,-0.8203615546226501
1774656397672860200,6.098860107421875,-1.6982271671295166,0.631495475769043,0.04723431169986725
1774656397682860300,6.1088603515625,0.3900895118713379,-0.7088756561279297,0.6938634514808655
1774656397692860200,6.118860107421875,1.168872356414795,-0.8473081588745117,0.7196255326271057
1774656397702860300,6.1288603515625,-0.06208467483520508,0.18573379516601562,0.06398095190525055
1774656397712860200,6.138860107421875,0.7758955955505371,0.13624954223632812,-0.7782135009765625
1774656397722860300,6.1488603515625,0.8029370307922363,0.22536468505859375,-0.6975384950637817
1774656397732860200,6.158860107421875,-0.8641223907470703,0.7931089401245117,-0.06098341941833496
1774656397742860300,6.1688603515625,-0.12640094757080078,0.29148292541503906,0.0481693297624588
1774656397752860200,6.178860107421875,1.3408818244934082,-0.43112659454345703,0.06809322535991669
1774656397762860300,6.1888603515625,1.0325894355773926,-0.15112781524658203,0.32514655590057373
1774656397772860200,6.198860107421875,0.5777773857116699,0.1909046173095703,0.20586200058460236
1774656397782860300,6.2088603515625,0.3349266052246094,0.4741783142089844,-0.1593790501356125
1774656397792860200,6.218860107421875,0.9768462181091309,-0.03529644012451172,-0.4538789689540863
1774656397802860300,6.2288603515625,1.9071245193481445,-0.8332309722900391,-0.19847729802131653
1774656397812860200,6.238860107421875,0.21567440032958984,-0.1793212890625,0.36546868085861206
1774656397822860300,6.2488603515625,-2.01347279548645,1.105752944946289,0.16258478164672852
1774656397832860200,6.258860107421875,-1.2992305755615234,1.3606910705566406,-0.8958585262298584
1774656397842860300,6.2688603515625,0.6458921432495117,0.3057079315185547,-0.9907063841819763
1774656397852860200,6.278860107421875,1.4191913604736328,-0.6176252365112305,0.35868191719055176
1774656397862860300,6.2888603515625,0.04661273956298828,-0.595768928527832,1.260490894317627
1774656397872860200,6.298860107421875,-0.5617032051086426,-0.11745071411132812,0.6336564421653748
1774656397882860300,6.3088603515625,0.685356616973877,-0.025725364685058594,-0.4213895797729492
1774656397892860200,6.318860107421875,1.047135829925537,0.5925865173339844,-0.8135086297988892
1774656397902860300,6.3288603515625,0.42473888397216797,0.6662464141845703,-0.7719014883041382
1774656397912860200,6.338860107421875,0.4164423942565918,0.025501251220703125,0.0056510865688323975
1774656397922860300,6.3488603515625,-0.3788304328918457,-0.4027228355407715,0.8967421054840088
1774656397932860200,6.358860107421875,0.27809810638427734,-0.7693009376525879,1.1241228580474854
1774656397942860300,6.3688603515625,0.6945075988769531,-0.2693510055541992,0.6766409873962402
1774656397952860200,6.378860107421875,-0.1261277198791504,0.9962873458862305,-0.3159821033477783
1774656397962860300,6.3888603515625,-0.4442915916442871,1.3233470916748047,-0.9397888779640198
1774656397972860200,6.398860107421875,0.42762184143066406,0.36647605895996094,-0.16888725757598877
1774656397982860300,6.4088603515625,0.41013669967651367,-0.4683237075805664,1.2223254442214966
1774656397992860200,6.418860107421875,0.08514404296875,-0.6841583251953125,1.6267707347869873
1774656398002860300,6.4288603515625,0.24767208099365234,-0.10534000396728516,0.8237361907958984
1774656398012860200,6.438860107421875,0.4058494567871094,0.541102409362793,-0.38327550888061523
1774656398022860300,6.4488603515625,0.6330056190490723,0.7076816558837891,-0.7255327701568604
1774656398032860200,6.458860107421875,-0.7055172920227051,0.848602294921875,0.01887151598930359
1774656398042860300,6.4688603515625,-1.1701197624206543,0.2075939178466797,0.8107611536979675
1774656398052860200,6.478860107421875,-0.1774764060974121,-0.5224084854125977,1.1597366333007812
1774656398062860300,6.4888603515625,0.7065229415893555,-0.6820440292358398,0.7746180295944214
1774656398072860200,6.498860107421875,1.072338581085205,-0.14911270141601562,0.014104098081588745
1774656398082860300,6.5088603515625,-0.51116943359375,0.6439018249511719,-0.3442091643810272
1774656398092860200,6.518860107421875,-1.3079521656036377,0.7796201705932617,-0.0647076666355133
1774656398102860300,6.5288603515625,-0.63739013671875,-0.013811111450195312,0.38856106996536255
1774656398112860200,6.538860107421875,0.20301103591918945,-0.5351419448852539,0.7802518010139465
1774656398122860300,6.5488603515625,0.8355302810668945,-0.7960381507873535,0.6813939213752747
1774656398132860200,6.558860107421875,1.1445040702819824,-0.8411951065063477,0.25664421916007996
1774656398142860300,6.5688603515625,-0.3773155212402344,-0.1818227767944336,0.11807522177696228
1774656398152860200,6.578860107421875,-0.9954004287719727,0.11513710021972656,-0.011885285377502441
1774656398162860300,6.5888603515625,0.3171696662902832,-1.032928466796875,-0.39740145206451416
1774656398172860200,6.598860107421875,0.7629914283752441,-0.7410078048706055,-0.8643796443939209
1774656398182860300,6.6088603515625,-1.607800006866455,-0.023209571838378906,-0.293378084897995
1774656398192860200,6.618860107421875,-1.2686829566955566,-0.13022327423095703,-0.22788897156715393
1774656398202860300,6.6288603515625,1.1147232055664062,-1.2735052108764648,-0.012868344783782959
1774656398212860200,6.638860107421875,0.8306026458740234,-1.3358488082885742,0.24663366377353668
1774656398222860300,6.6488603515625,-1.472151756286621,-0.3397560119628906,0.2841721475124359
1774656398232860200,6.658860107421875,-1.3555831909179688,-0.2117748260498047,-0.13938283920288086
1774656398242860300,6.6688603515625,0.7228050231933594,0.09225940704345703,-0.672843337059021
1774656398252860200,6.678860107421875,1.1719603538513184,0.7617111206054688,-1.3364558219909668
1774656398262860300,6.6888603515625,-2.0197339057922363,2.6244659423828125,-1.0796465873718262
1774656398272860200,6.698860107421875,-2.608598232269287,2.2800607681274414,-0.23527005314826965
1774656398282860300,6.7088603515625,2.52291202545166,0.46399974822998047,0.5613530278205872
1774656398292860200,6.718860107421875,3.6951828002929688,1.2702932357788086,0.9433125257492065
1774656398302860300,6.7288603515625,-0.612269401550293,4.773835182189941,0.23784494400024414
1774656398312860200,6.738860107421875,-0.46144628524780273,6.049222946166992,-1.140222430229187
1774656398322860300,6.7488603515625,2.6807684898376465,5.252551078796387,-1.399068832397461
1774656398332860200,6.758860107421875,4.785412311553955,4.0692596435546875,0.24255064129829407
1774656398342860300,6.7688603515625,2.7178211212158203,4.452578544616699,1.6636489629745483
1774656398352860200,6.778860107421875,0.7235641479492188,5.927284240722656,0.7151951193809509
1774656398362860300,6.7888603515625,1.626131534576416,5.868309020996094,-0.48974737524986267
1774656398372860200,6.798860107421875,3.220132827758789,5.358870506286621,-0.6270065307617188
1774656398382860300,6.8088603515625,2.409296989440918,4.910097122192383,0.14787501096725464
1774656398392860200,6.818860107421875,1.329674243927002,4.52382755279541,0.26406484842300415
1774656398402860300,6.8288603515625,1.2804536819458008,3.655834197998047,-0.31674453616142273
1774656398412860200,6.838860107421875,1.5853466987609863,2.91265869140625,-0.40890660881996155
1774656398422860300,6.8488603515625,1.2383131980895996,2.798794746398926,-0.19435563683509827
1774656398432860200,6.858860107421875,1.8131675720214844,2.5840282440185547,-0.6311569213867188
1774656398442860300,6.8688603515625,1.7090635299682617,2.5084409713745117,-1.4426133632659912
1774656398452860200,6.878860107421875,0.7538957595825195,1.6336708068847656,-0.9689050316810608
1774656398462860300,6.8888603515625,0.41374683380126953,0.40698719024658203,0.8691989183425903
1774656398472860200,6.898860107421875,1.335165023803711,-0.28235912322998047,1.5894309282302856
1774656398482860300,6.9088603515625,1.4479656219482422,0.21398258209228516,0.3553560972213745
1774656398492860200,6.918860107421875,0.19456958770751953,1.7117538452148438,-1.0328775644302368
1774656398502860300,6.9288603515625,-0.36130762100219727,1.7605886459350586,-1.3635166883468628
1774656398512860200,6.938860107421875,0.44003868103027344,0.6229524612426758,-0.2721053957939148
1774656398522860300,6.9488603515625,2.5115766525268555,-1.3274998664855957,0.7681566476821899
1774656398532860200,6.958860107421875,1.7655701637268066,-1.1200990676879883,1.0457936525344849
1774656398542860300,6.9688603515625,-0.41915130615234375,0.25891876220703125,-0.023951560258865356
1774656398552860200,6.978860107421875,-0.7362847328186035,1.1657562255859375,-1.1173744201660156
1774656398562860300,6.9888603515625,-0.06174182891845703,0.7953338623046875,-1.1927688121795654
1774656398572860200,6.998860107421875,1.723419189453125,-0.7502589225769043,-0.47403523325920105
1774656398582860300,7.0088603515625,1.7560853958129883,-1.6428380012512207,0.5272445678710938
1774656398592860200,7.018860107421875,-0.5643448829650879,-0.8956995010375977,0.8361601829528809
1774656398602860300,7.0288603515625,0.8015141487121582,-0.9944381713867188,-0.11819866299629211
1774656398612860200,7.038860107421875,2.4252371788024902,-1.0028586387634277,-1.0494712591171265
1774656398622860300,7.0488603515625,2.502326488494873,-1.025822639465332,-0.9753932952880859
1774656398632860200,7.058860107421875,1.9613456726074219,-1.323904037475586,-0.2975962460041046
1774656398642860300,7.0688603515625,-0.4712209701538086,-0.9998807907104492,0.40773460268974304
1774656398652860200,7.078860107421875,-3.129866600036621,0.15956878662109375,0.8410290479660034
1774656398662860300,7.0888603515625,-3.146028757095337,0.6170167922973633,0.3970840573310852
1774656398672860200,7.098860107421875,-0.7662835121154785,-0.019492149353027344,-0.3579149544239044
1774656398682860300,7.1088603515625,0.4539833068847656,-0.7711353302001953,-0.46454760432243347
1774656398692860200,7.118860107421875,0.36411428451538086,-1.2196054458618164,0.1579844057559967
1774656398702860300,7.1288603515625,-0.9963741302490234,-0.8691768646240234,0.571980357170105
1774656398712860200,7.138860107421875,-0.6705975532531738,-1.1351041793823242,0.15497782826423645
1774656398722860300,7.1488603515625,0.8915543556213379,-1.5224714279174805,-0.274759441614151
1774656398732860200,7.158860107421875,0.0811772346496582,-1.079859733581543,-0.27312803268432617
1774656398742860300,7.1688603515625,-0.24844932556152344,-0.8935775756835938,-0.10525354743003845
1774656398752860200,7.178860107421875,-0.44632387161254883,-1.0377416610717773,-0.004592090845108032
1774656398762860300,7.1888603515625,-0.694425106048584,-1.2085657119750977,0.08630877733230591
1774656398772860200,7.198860107421875,0.1103515625,-1.8066225051879883,0.2974083721637726
1774656398782860300,7.2088603515625,0.29290771484375,-1.7467222213745117,0.43971988558769226
1774656398792860200,7.218860107421875,-0.5527234077453613,-1.0623912811279297,-0.033514320850372314
1774656398802860300,7.2288603515625,-1.3205866813659668,-0.5740804672241211,-0.5951941013336182
1774656398812860200,7.238860107421875,-1.0226225852966309,-0.6080179214477539,-0.464152455329895
1774656398822860300,7.2488603515625,-0.32329797744750977,-1.0328445434570312,-0.02022722363471985
1774656398832860200,7.258860107421875,-0.33615589141845703,-1.2224130630493164,0.18326357007026672
1774656398842860300,7.2688603515625,-0.3587784767150879,-1.3211288452148438,0.25783997774124146
1774656398852860200,7.278860107421875,-1.016101598739624,-0.9334573745727539,0.2660103738307953
1774656398862860300,7.2888603515625,-0.8462822437286377,-0.8121891021728516,0.11628663539886475
1774656398872860200,7.298860107421875,-0.208848237991333,-0.8757333755493164,-0.09703388810157776
1774656398882860300,7.3088603515625,-0.7895736694335938,-0.5214328765869141,-0.2690052092075348
1774656398892860200,7.318860107421875,-1.2029924392700195,-0.5464248657226562,-0.37401241064071655
1774656398902860300,7.3288603515625,-0.52614426612854,-0.7078094482421875,-0.11315235495567322
1774656398912860200,7.338860107421875,-0.9187629222869873,-0.5053195953369141,0.12393975257873535
1774656398922860300,7.3488603515625,-0.8350272178649902,-0.6418056488037109,0.08525452017784119
1774656398932860200,7.358860107421875,-0.40482091903686523,-0.9296283721923828,0.1804957240819931
1774656398942860300,7.3688603515625,-0.8146748542785645,-0.6869430541992188,0.3354853093624115
1774656398952860200,7.378860107421875,-0.4953887462615967,-0.501276969909668,0.2029036581516266
1774656398962860300,7.3888603515625,-0.10864472389221191,-0.12813854217529297,-0.11870712041854858
1774656398972860200,7.398860107421875,-0.051050662994384766,0.020757675170898438,-0.552062451839447
1774656398982860300,7.4088603515625,0.012406349182128906,-0.3372917175292969,-0.2957864999771118
1774656398992860200,7.418860107421875,-0.2609553337097168,-0.6099843978881836,0.6769963502883911
1774656399002860300,7.4288603515625,0.019945621490478516,-0.8988046646118164,1.0435771942138672
1774656399012860200,7.438860107421875,0.9069576263427734,-0.6673898696899414,0.42446380853652954
1774656399022860300,7.4488603515625,-0.7202916145324707,0.6430253982543945,-0.4768717586994171
1774656399032860200,7.458860107421875,-1.2964355945587158,0.9534111022949219,-0.8222602605819702
1774656399042860300,7.4688603515625,0.2154676914215088,-0.04239940643310547,-0.28282487392425537
1774656399052860200,7.478860107421875,-0.6185240745544434,-0.34944915771484375,0.41362249851226807
1774656399062860300,7.4888603515625,-0.5380487442016602,-0.8521137237548828,0.46599531173706055
1774656399072860200,7.498860107421875,-0.08700442314147949,-1.1005897521972656,0.09707392007112503
1774656399082860300,7.5088603515625,-0.0542902946472168,-1.3771257400512695,-0.2411041557788849
1774656399092860200,7.518860107421875,0.4083669185638428,-1.5816679000854492,-0.23068897426128387
1774656399102860300,7.5288603515625,-1.46418297290802,-0.8085861206054688,-0.46681442856788635
1774656399112860200,7.538860107421875,-1.8461722135543823,-0.9747295379638672,-1.0368647575378418
1774656399122860300,7.5488603515625,0.1569974422454834,-2.2609143257141113,-0.7239091992378235
1774656399132860200,7.558860107421875,-0.49126696586608887,-2.683013916015625,0.38458144664764404
1774656399142860300,7.5688603515625,-1.4159632921218872,-2.497042655944824,0.8601719737052917
1774656399152860200,7.578860107421875,-0.9543509483337402,-2.708035469055176,0.20917177200317383
1774656399162860300,7.5888603515625,-0.17128753662109375,-3.0265893936157227,-0.13123658299446106
1774656399172860200,7.598860107421875,-1.29364013671875,-2.2643871307373047,0.31155139207839966
1774656399182860300,7.6088603515625,-2.8559303283691406,-0.9736824035644531,0.18813657760620117
1774656399192860200,7.618860107421875,-2.2184479236602783,-0.8567543029785156,-0.7338725924491882
1774656399202860300,7.6288603515625,0.1367948055267334,-1.8047924041748047,-0.6411261558532715
1774656399212860200,7.638860107421875,0.07648563385009766,-1.9574108123779297,0.7043114900588989
1774656399222860300,7.6488603515625,-1.5549062490463257,-1.2555656433105469,1.4684672355651855
1774656399232860200,7.658860107421875,-1.78914475440979,-0.4579048156738281,0.9344155192375183
1774656399242860300,7.6688603515625,-2.3540797233581543,0.6134662628173828,-0.1915169209241867
1774656399252860200,7.678860107421875,-2.1747548580169678,1.0665884017944336,-0.4835752844810486
1774656399262860300,7.6888603515625,-0.994879961013794,0.7474575042724609,0.026863262057304382
1774656399272860200,7.698860107421875,-0.480499267578125,0.5681076049804688,0.21997910737991333
1774656399282860300,7.7088603515625,0.48613929748535156,0.20914745330810547,-0.31534039974212646
1774656399292860200,7.718860107421875,0.889840841293335,0.07134628295898438,-0.17842771112918854
1774656399302860300,7.7288603515625,0.4654355049133301,0.3828907012939453,0.4897746443748474
1774656399312860200,7.738860107421875,0.31989479064941406,0.6583337783813477,0.308597207069397
1774656399322860300,7.7488603515625,0.29462313652038574,0.6024436950683594,-0.28186923265457153
1774656399332860200,7.758860107421875,0.6289186477661133,0.2667808532714844,-0.15017768740653992
1774656399342860300,7.7688603515625,1.398728370666504,-0.33313751220703125,0.2228805422782898
1774656399352860200,7.778860107421875,2.237240791320801,-0.6745615005493164,0.018573537468910217
1774656399362860300,7.7888603515625,2.0599560737609863,-0.5739297866821289,-0.5808913707733154
1774656399372860200,7.798860107421875,-0.31331777572631836,0.31249046325683594,-0.5783233046531677
1774656399382860300,7.8088603515625,-1.8964829444885254,0.8641700744628906,0.016849428415298462
1774656399392860200,7.818860107421875,-0.6803247928619385,0.06888389587402344,0.23697572946548462
1774656399402860300,7.8288603515625,0.07716536521911621,-0.6260166168212891,0.20526844263076782
1774656399412860200,7.838860107421875,-0.08117389678955078,-0.8542690277099609,0.30448973178863525
1774656399422860300,7.8488603515625,0.12013053894042969,-0.9609165191650391,0.3625522255897522
1774656399432860200,7.858860107421875,0.2711372375488281,-0.9243812561035156,0.1217956393957138
1774656399442860300,7.8688603515625,-0.14174270629882812,-0.7828092575073242,-0.2561526894569397
1774656399452860200,7.878860107421875,-0.9451467990875244,-0.6548013687133789,-0.2632535398006439
1774656399462860300,7.8888603515625,-1.1983678340911865,-0.8068275451660156,0.15700554847717285
1774656399472860200,7.898860107421875,-0.76759934425354,-1.2455711364746094,0.3560304045677185
1774656399482860300,7.9088603515625,-0.27306199073791504,-1.60508394241333,0.19386714696884155
1774656399492860200,7.918860107421875,-0.33368372917175293,-1.5268135070800781,0.1419343799352646
1774656399502860300,7.9288603515625,-0.3605210781097412,-1.4591178894042969,-0.030764475464820862
1774656399512860200,7.938860107421875,-0.08953404426574707,-1.6040048599243164,-0.21142008900642395
1774656399522860300,7.9488603515625,-0.35810256004333496,-1.3762030601501465,-0.14165954291820526
1774656399532860200,7.958860107421875,-1.3916957378387451,-0.7300987243652344,-0.06562140583992004
1774656399542860300,7.9688603515625,-2.8248772621154785,-0.06329059600830078,-0.06862109899520874
1774656399552860200,7.978860107421875,-3.308521270751953,-0.6307239532470703,0.10633392632007599
1774656399562860300,7.9888603515625,-0.4434638023376465,-2.4785537719726562,0.8125361204147339
1774656399572860200,7.998860107421875,2.1098151206970215,-3.1204471588134766,1.1463381052017212
1774656399582860300,8.0088603515625,2.155200481414795,-1.9733452796936035,-0.20876172184944153
1774656399592860200,8.018860107421874,0.3104522228240967,-0.44138240814208984,-1.671841025352478
1774656399602860300,8.0288603515625,-3.1342594623565674,0.7378931045532227,-1.026882529258728
1774656399612860200,8.038860107421876,-5.009159088134766,0.6364946365356445,0.9043160676956177
1774656399622860300,8.0488603515625,-4.140408039093018,-0.6116256713867188,1.8592880964279175
1774656399632860200,8.058860107421875,1.0874643325805664,-2.825801372528076,1.0699326992034912
1774656399642860300,8.0688603515625,6.298023223876953,-3.775376319885254,-0.2755322754383087
1774656399652860200,8.078860107421875,5.862252712249756,-2.20206356048584,-1.195261836051941
1774656399662860300,8.0888603515625,1.2528347969055176,-0.04034900665283203,-1.3048557043075562
1774656399672860200,8.098860107421874,-3.3236074447631836,1.132516860961914,-0.5650069117546082
1774656399682860300,8.1088603515625,-3.5258536338806152,0.3877391815185547,0.5575116872787476
1774656399692860200,8.118860107421876,-0.8405890464782715,-1.0734410285949707,1.3461077213287354
1774656399702860300,8.1288603515625,1.5486526489257812,-1.7732820510864258,1.112611174583435
1774656399712860200,8.138860107421875,3.736928939819336,-2.0593414306640625,-0.20048756897449493
1774656399722860300,8.1488603515625,1.2290701866149902,-0.35318756103515625,-0.9519577622413635
1774656399732860200,8.158860107421875,-1.6427640914916992,1.0454902648925781,-0.7384076118469238
1774656399742860300,8.1688603515625,-2.077035903930664,1.0797100067138672,-0.23524315655231476
1774656399752860200,8.178860107421874,-0.8730807304382324,0.041197776794433594,0.04497775435447693
1774656399762860300,8.1888603515625,0.29074764251708984,-0.9047880172729492,0.5126567482948303
1774656399772860200,8.198860107421876,0.28785276412963867,-1.0029335021972656,1.2155580520629883
1774656399782860300,8.2088603515625,-0.3251509666442871,-0.14458847045898438,0.9862784147262573
1774656399792860200,8.218860107421875,0.22605180740356445,0.2267742156982422,-0.2917763590812683
1774656399802860300,8.2288603515625,1.8529877662658691,-0.12372875213623047,-0.8883752822875977
1774656399812860200,8.238860107421875,-0.26720237731933594,0.6681709289550781,-0.28915688395500183
1774656399822860300,8.2488603515625,-1.9835193157196045,0.913914680480957,0.4072372615337372
1774656399832860200,8.258860107421874,0.3635749816894531,-0.5785584449768066,0.7241654992103577
1774656399842860300,8.2688603515625,0.7872147560119629,-0.6541309356689453,0.8435831069946289
1774656399852860200,8.278860107421876,0.19768142700195312,0.22143077850341797,0.32781124114990234
1774656399862860300,8.2888603515625,0.501610279083252,0.666905403137207,-0.6118874549865723
1774656399872860200,8.298860107421875,0.19793701171875,0.47031116485595703,-0.9195230603218079
1774656399882860300,8.3088603515625,0.34205055236816406,-0.2885274887084961,-0.11708419024944305
1774656399892860200,8.318860107421875,-0.5218396186828613,0.40996551513671875,0.7741093039512634
1774656399902860300,8.3288603515625,-0.4637775421142578,0.7716856002807617,0.06271414458751678
1774656399912860200,8.338860107421874,1.6385712623596191,0.1117868423461914,-0.8246248960494995
1774656399922860300,8.3488603515625,-0.025087356567382812,0.23221397399902344,-0.43488964438438416
1774656399932860200,8.358860107421876,0.22420978546142578,-0.38153839111328125,0.6345390677452087
1774656399942860300,8.3688603515625,1.1837573051452637,-0.4344348907470703,0.8789985179901123
1774656399952860200,8.378860107421875,-1.2254023551940918,1.035883903503418,-0.33094945549964905
1774656399962860300,8.3888603515625,0.4381589889526367,0.64410400390625,-1.537939190864563
1774656399972860200,8.398860107421875,1.4010777473449707,0.12604236602783203,-1.0087705850601196
1774656399982860300,8.4088603515625,-0.05442047119140625,0.1532144546508789,0.08509223908185959
1774656399992860200,8.418860107421875,1.1002111434936523,-0.8847732543945312,0.34774208068847656
1774656400002860300,8.4288603515625,0.027472972869873047,-0.2259387969970703,0.0646369606256485
1774656400012860200,8.438860107421876,0.060208797454833984,0.42537498474121094,-0.6664977073669434
1774656400022860300,8.4488603515625,1.2174196243286133,0.5630083084106445,-1.2618247270584106
1774656400032860200,8.458860107421875,0.26354551315307617,0.4236879348754883,-1.0472488403320312
1774656400042860300,8.4688603515625,0.5138225555419922,-0.4075899124145508,-0.07460643351078033
1774656400052860200,8.478860107421875,-0.22822141647338867,-0.5358896255493164,0.6982072591781616
1774656400062860300,8.4888603515625,0.10941314697265625,-0.3806133270263672,0.33754247426986694
1774656400072860200,8.498860107421875,1.7706713676452637,-0.6287517547607422,-0.616229772567749
1774656400082860300,8.5088603515625,0.1566472053527832,0.43067073822021484,-0.9340608716011047
1774656400092860200,8.518860107421874,-1.6874148845672607,1.0254526138305664,-0.5757678151130676
1774656400102860300,8.5288603515625,-0.8453116416931152,0.3126401901245117,0.08776958286762238
1774656400112860200,8.538860107421876,0.08261346817016602,-0.33824872970581055,0.319942444562912
1774656400122860300,8.5488603515625,1.5902976989746094,-0.9419288635253906,-0.09177112579345703
1774656400132860200,8.558860107421875,1.1730313301086426,-0.5307254791259766,-0.1856665313243866
1774656400142860300,8.5688603515625,-0.8698849678039551,0.4037160873413086,0.016136586666107178
1774656400152860200,8.578860107421875,0.10613203048706055,0.10171985626220703,-0.09272545576095581
1774656400162860300,8.5888603515625,-0.06258249282836914,0.4175586700439453,-0.3185206949710846
1774656400172860200,8.598860107421874,-0.9589071273803711,0.6399755477905273,-0.2553299069404602
1774656400182860300,8.6088603515625,0.622800350189209,-0.21750164031982422,0.028286516666412354
1774656400192860200,8.618860107421876,1.8743762969970703,-1.2603645324707031,0.3555995225906372
1774656400202860300,8.6288603515625,0.46238279342651367,-0.6596803665161133,0.8296220302581787
1774656400212860200,8.638860107421875,0.32468605041503906,0.07670974731445312,0.3940102458000183
1774656400222860300,8.6488603515625,1.1648898124694824,0.4192366600036621,-0.6730443239212036
1774656400232860200,8.658860107421875,1.6415719985961914,0.19876766204833984,-0.920437753200531
1774656400242860300,8.6688603515625,0.5146656036376953,-0.12731456756591797,0.051207542419433594
1774656400252860200,8.678860107421874,-1.191826343536377,0.0878901481628418,1.175385594367981
1774656400262860300,8.6888603515625,0.1254868507385254,-0.20275068283081055,1.119801640510559
1774656400272860200,8.698860107421876,1.3649358749389648,-0.051671504974365234,-0.11357378959655762
1774656400282860300,8.7088603515625,0.8949809074401855,0.7302250862121582,-0.9337209463119507
1774656400292860200,8.718860107421875,1.2474660873413086,0.5063076019287109,-0.8537248373031616
1774656400302860300,8.7288603515625,-0.15794897079467773,0.28806304931640625,0.1989297866821289
1774656400312860200,8.738860107421875,-0.4057455062866211,-0.28994274139404297,0.9947019815444946
1774656400322860300,8.7488603515625,0.629493236541748,-0.4716677665710449,0.7704553604125977
1774656400332860200,8.758860107421874,0.6383872032165527,0.3157033920288086,-0.09587958455085754
1774656400342860300,8.7688603515625,0.8742890357971191,0.6331205368041992,-0.7553524374961853
1774656400352860200,8.778860107421876,0.46998071670532227,0.7014403343200684,-0.5920822024345398
1774656400362860300,8.7888603515625,0.2630901336669922,0.1926102638244629,0.07965052127838135
1774656400372860200,8.798860107421875,0.8191361427307129,-0.7723488807678223,0.9212443232536316
1774656400382860300,8.8088603515625,0.6744437217712402,-0.7793064117431641,1.2108268737792969
1774656400392860200,8.818860107421875,1.1582355499267578,-0.699406623840332,0.3560008108615875
1774656400402860300,8.8288603515625,1.8476924896240234,-0.4963359832763672,-0.49013596773147583
1774656400412860200,8.838860107421874,2.545131206512451,-1.099409580230713,-0.6300894021987915
1774656400422860300,8.8488603515625,4.278356075286865,-2.1732325553894043,-0.2091483175754547
1774656400432860200,8.858860107421876,0.5098381042480469,-0.8935699462890625,0.30712878704071045
1774656400442860300,8.8688603515625,-4.558073997497559,1.161245346069336,0.5475103259086609
1774656400452860200,8.878860107421875,-6.815752029418945,2.0656166076660156,0.5447861552238464
1774656400462860300,8.8888603515625,-3.703620195388794,0.6080822944641113,0.44299861788749695
1774656400472860200,8.898860107421875,1.7812743186950684,-1.691457748413086,0.5143954157829285
1774656400482860300,8.9088603515625,1.719480037689209,-1.551225185394287,0.5662222504615784
1774656400492860200,8.918860107421875,-0.17866897583007812,-0.7834920883178711,0.15027925372123718
1774656400502860300,8.9288603515625,-0.9426217079162598,-0.4070115089416504,-0.06709149479866028
1774656400512860200,8.938860107421876,-1.8580083847045898,-0.08856487274169922,0.42648330330848694
1774656400522860300,8.9488603515625,-1.027942180633545,-0.5383138656616211,0.7676973342895508
1774656400532860200,8.958860107421875,0.42294979095458984,-1.04182767868042,0.5039836168289185
1774656400542860300,8.9688603515625,1.2143521308898926,-1.0160040855407715,0.03813490271568298
1774656400552860200,8.978860107421875,2.132711887359619,0.7380886077880859,-0.2732890844345093
1774656400562860300,8.9888603515625,1.5717673301696777,2.8148269653320312,-1.3632482290267944
1774656400572860200,8.998860107421875,-2.5556931495666504,3.9621152877807617,-1.2591030597686768
1774656400582860300,9.0088603515625,-0.405853271484375,1.5993895530700684,0.8540973663330078
1774656400592860200,9.018860107421874,4.593019485473633,0.7077493667602539,2.7332558631896973
1774656400602860300,9.0288603515625,-0.6109747886657715,4.35170316696167,1.9262232780456543
1774656400612860200,9.038860107421876,2.6924009323120117,5.636020660400391,-0.8270888328552246
1774656400622860300,9.0488603515625,4.227880477905273,5.542295455932617,-2.9485249519348145
1774656400632860200,9.058860107421875,4.364662170410156,3.890536308288574,-0.4126134514808655
1774656400642860300,9.0688603515625,3.4423961639404297,4.445432186126709,2.7837042808532715
1774656400652860200,9.078860107421875,0.26561498641967773,5.310355186462402,2.101789951324463
1774656400662860300,9.0888603515625,1.291100025177002,5.687450408935547,-0.7036961913108826
1774656400672860200,9.098860107421874,3.08646297454834,5.048005104064941,-1.609986662864685
1774656400682860300,9.1088603515625,3.8845362663269043,4.073217868804932,-0.3573499321937561
1774656400692860200,9.118860107421876,2.1093506813049316,3.750542163848877,0.43169713020324707
1774656400702860300,9.1288603515625,0.012044429779052734,3.477509021759033,-0.5585593581199646
1774656400712860200,9.138860107421875,1.60899019241333,1.891207218170166,-0.8923092484474182
1774656400722860300,9.1488603515625,2.628322124481201,0.9657158851623535,-0.10121755301952362
1774656400732860200,9.158860107421875,3.3567676544189453,0.7833461761474609,-0.14587131142616272
1774656400742860300,9.1688603515625,0.853827953338623,2.178457260131836,-1.4969037771224976
1774656400752860200,9.178860107421874,-2.685852527618408,3.3403186798095703,-2.1887176036834717
1774656400762860300,9.1888603515625,-3.1832103729248047,2.1101226806640625,-0.8742594122886658
1774656400772860200,9.198860107421876,2.635209560394287,-1.465057373046875,0.7891512513160706
1774656400782860300,9.2088603515625,4.196351528167725,-2.3925132751464844,1.3465713262557983
1774656400792860200,9.218860107421875,3.583057403564453,-1.5843000411987305,-0.05000315606594086
1774656400802860300,9.2288603515625,6.1797194480896,-1.8470001220703125,-1.7039668560028076
1774656400812860200,9.238860107421875,3.120218276977539,-0.5384554862976074,-1.650493860244751
1774656400822860300,9.2488603515625,-5.1930036544799805,2.418081283569336,-0.0624028742313385
1774656400832860200,9.258860107421874,-8.910737991333008,3.451763153076172,0.7165804505348206
1774656400842860300,9.2688603515625,-4.620487689971924,1.2493438720703125,0.4524126350879669
1774656400852860200,9.278860107421876,3.8704004287719727,-2.0463967323303223,-0.07868877053260803
1774656400862860300,9.2888603515625,4.474397659301758,-1.9434185028076172,-0.4277530908584595
1774656400872860200,9.298860107421875,-0.9347763061523438,0.41295719146728516,-0.48023271560668945
1774656400882860300,9.3088603515625,-4.356945037841797,1.6228713989257812,-0.5425975322723389
1774656400892860200,9.318860107421875,-1.9939031600952148,0.16596031188964844,-0.4261161684989929
1774656400902860300,9.3288603515625,2.146089553833008,-1.7290005683898926,0.07006165385246277
1774656400912860200,9.338860107421874,2.615227699279785,-1.7781600952148438,0.46615540981292725
1774656400922860300,9.3488603515625,-0.7798128128051758,-0.031739234924316406,0.0006633400917053223
1774656400932860200,9.358860107421876,-1.5682199001312256,0.1791391372680664,-0.7070753574371338
1774656400942860300,9.3688603515625,1.3957500457763672,-1.0293664932250977,-0.24819239974021912
1774656400952860200,9.378860107421875,1.7720990180969238,-1.514481544494629,0.5115350484848022
1774656400962860300,9.3888603515625,-0.16747093200683594,-0.7333536148071289,0.5331742763519287
1774656400972860200,9.398860107421875,-1.3522241115570068,-0.15530967712402344,0.00486910343170166
1774656400982860300,9.4088603515625,-1.1623725891113281,-0.01888561248779297,-0.2195049524307251
1774656400992860200,9.418860107421875,-0.8251333236694336,-0.20806503295898438,0.14509575068950653
1774656401002860300,9.4288603515625,-0.06773757934570312,-0.479067325592041,0.33703094720840454
1774656401012860200,9.438860107421876,0.43920183181762695,-1.0887556076049805,-0.10157227516174316
1774656401022860300,9.4488603515625,-0.06886434555053711,-1.1171116828918457,0.11301212012767792
1774656401032860200,9.458860107421875,-2.13672137260437,-0.08645439147949219,0.7864913940429688
1774656401042860300,9.4688603515625,-2.5338268280029297,0.5158777236938477,0.40188902616500854
1774656401052860200,9.478860107421875,0.2970094680786133,-0.43425846099853516,-0.624309778213501
1774656401062860300,9.4888603515625,1.3095049858093262,-1.1464881896972656,-0.4771055579185486
1774656401072860200,9.498860107421875,-1.0349488258361816,-0.6221513748168945,0.74164879322052
1774656401082860300,9.5088603515625,-1.6744358539581299,-0.49653053283691406,1.2979435920715332
1774656401092860200,9.518860107421874,-0.9188470840454102,-0.6278886795043945,0.4849948287010193
1774656401102860300,9.5288603515625,-0.1589951515197754,-0.5719099044799805,-0.3340805172920227
1774656401112860200,9.538860107421876,0.14641141891479492,-0.6254739761352539,-0.15151628851890564
1774656401122860300,9.5488603515625,-1.0246262550354004,-0.07398700714111328,0.5447973608970642
1774656401132860200,9.558860107421875,-1.1178851127624512,-0.22706985473632812,0.4430162012577057
1774656401142860300,9.5688603515625,-0.24963092803955078,-0.47612476348876953,0.05470415949821472
1774656401152860200,9.578860107421875,-0.22284173965454102,-0.5952835083007812,0.19307741522789001
1774656401162860300,9.5888603515625,0.6905479431152344,-0.8471441268920898,0.712531328201294
1774656401172860200,9.598860107421874,-0.4873771667480469,-0.4031200408935547,0.6970527768135071
1774656401182860300,9.6088603515625,-0.8541545867919922,-0.1501636505126953,0.22448518872261047
1774656401192860200,9.618860107421876,0.039766788482666016,-0.5167016983032227,0.1911272406578064
1774656401202860300,9.6288603515625,-0.8172082901000977,0.05507946014404297,0.5917157530784607
1774656401212860200,9.638860107421875,-1.6907157897949219,0.6685113906860352,0.34418821334838867
1774656401222860300,9.6488603515625,-0.24933528900146484,0.1376018524169922,-0.3322974741458893
1774656401232860200,9.658860107421875,1.0380988121032715,-0.7059555053710938,-0.006950497627258301
1774656401242860300,9.6688603515625,-0.41069555282592773,-0.4620199203491211,0.9052320718765259
1774656401252860200,9.678860107421874,-1.1167271137237549,-0.07472610473632812,0.9990836381912231
1774656401262860300,9.6888603515625,-0.6565356254577637,0.6247930526733398,0.08961653709411621
1774656401272860200,9.698860107421876,0.1760268211364746,1.054086685180664,-0.923751950263977
1774656401282860300,9.7088603515625,0.7388629913330078,0.5113563537597656,-0.8707246780395508
1774656401292860200,9.718860107421875,-0.33606672286987305,0.03787040710449219,0.4347754418849945
1774656401302860300,9.7288603515625,-0.5637474060058594,-0.6468973159790039,1.2851356267929077
1774656401312860200,9.738860107421875,0.17228937149047852,-0.4378833770751953,0.7592240571975708
1774656401322860300,9.7488603515625,-0.03018045425415039,0.6726274490356445,-0.5385982394218445
1774656401332860200,9.758860107421874,1.0891761779785156,0.8443641662597656,-1.3477784395217896
1774656401342860300,9.7688603515625,0.26654529571533203,0.8357381820678711,-0.9662415981292725
1774656401352860200,9.778860107421876,-1.503185749053955,0.4322853088378906,0.28576475381851196
1774656401362860300,9.7888603515625,-0.5356621742248535,-0.6909999847412109,1.3345052003860474
1774656401372860200,9.798860107421875,0.5887718200683594,-0.6687231063842773,0.9710068702697754
1774656401382860300,9.8088603515625,0.7264504432678223,0.05782794952392578,-0.4401837885379791
1774656401392860200,9.818860107421875,0.35248470306396484,0.9599075317382812,-1.156430959701538
1774656401402860300,9.8288603515625,-0.8115451335906982,1.0667142868041992,-0.9131475687026978
1774656401412860200,9.838860107421874,-0.8645496368408203,0.277099609375,-0.11321225762367249
1774656401422860300,9.8488603515625,-0.5215239524841309,-0.2707805633544922,0.6635571122169495
1774656401432860200,9.858860107421876,-0.2070322036743164,-0.31694793701171875,0.5354752540588379
1774656401442860300,9.8688603515625,0.8539919853210449,-0.24151897430419922,-0.12874680757522583
1774656401452860200,9.878860107421875,-0.10173320770263672,0.3466320037841797,-0.47819727659225464
1774656401462860300,9.8888603515625,-0.5272922515869141,0.26761436462402344,-0.28454089164733887
1774656401472860200,9.898860107421875,-0.30417871475219727,-0.3450183868408203,0.2119288146495819
1774656401482860300,9.9088603515625,-0.39188385009765625,-0.46961212158203125,0.4901494085788727
1774656401492860200,9.918860107421875,-0.03233957290649414,-0.31725215911865234,0.15136949717998505
1774656401502860300,9.9288603515625,-0.46350622177124023,0.18995094299316406,-0.3224549889564514
1774656401512860200,9.938860107421876,-0.36550235748291016,-0.0289764404296875,-0.22520384192466736
1774656401522860300,9.9488603515625,0.3258380889892578,-0.7217884063720703,0.33754563331604004
1774656401532860200,9.958860107421875,-0.36753129959106445,-0.736454963684082,0.723810076713562
1774656401542860300,9.9688603515625,-0.38103437423706055,-0.38410282135009766,0.5466018915176392
1774656401552860200,9.978860107421875,-0.08194828033447266,-0.02792644500732422,-0.2080966830253601
1774656401562860300,9.9888603515625,-0.2651095390319824,0.1362752914428711,-0.6047034859657288
1774656401572860200,9.998860107421875,0.16016483306884766,-0.4319467544555664,-0.2673080563545227
1774656401582860300,10.0088603515625,-0.056447505950927734,-0.7291879653930664,0.1726033091545105
1774656401592860200,10.018860107421874,-1.1114799976348877,-0.1617755889892578,0.20198321342468262
1774656401602860300,10.0288603515625,-0.568333625793457,0.04455375671386719,-0.2746717035770416
1774656401612860200,10.038860107421876,0.8967733383178711,-0.4279356002807617,-0.6445319652557373
1774656401622860300,10.0488603515625,0.5829691886901855,-0.6111841201782227,-0.41127097606658936
1774656401632860200,10.058860107421875,-0.7106430530548096,-0.6484918594360352,0.13775038719177246
1774656401642860300,10.0688603515625,-0.9685945510864258,-0.7306556701660156,0.41012707352638245
1774656401652860200,10.078860107421875,-0.4120063781738281,-0.8225860595703125,0.07022726535797119
1774656401662860300,10.0888603515625,0.4826664924621582,-0.9584131240844727,-0.3265424370765686
1774656401672860200,10.098860107421874,0.03936195373535156,-0.7275381088256836,-0.31912165880203247
1774656401682860300,10.1088603515625,-1.0680060386657715,-0.4659385681152344,-0.1651136875152588
1774656401692860200,10.118860107421876,-0.9521396160125732,-0.8445148468017578,0.049264371395111084
1774656401702860300,10.1288603515625,-0.49724340438842773,-1.248426914215088,0.3867182731628418
1774656401712860200,10.138860107421875,0.0615997314453125,-1.665128231048584,0.5381008386611938
1774656401722860300,10.1488603515625,-0.06159353256225586,-1.6915349960327148,0.5512281656265259
1774656401732860200,10.158860107421875,-0.9709668159484863,-1.2711801528930664,0.4549953043460846
1774656401742860300,10.1688603515625,-0.6682624816894531,-1.243577003479004,0.10205162316560745
1774656401752860200,10.178860107421874,-0.15525007247924805,-1.567638874053955,-0.32907623052597046
1774656401762860300,10.1888603515625,-0.12061595916748047,-1.784834861755371,-0.137090802192688
1774656401772860200,10.198860107421876,-1.1060097217559814,-1.512101173400879,0.27762019634246826
1774656401782860300,10.2088603515625,-2.0351648330688477,-1.0819292068481445,0.27027183771133423
1774656401792860200,10.218860107421875,-0.9662954807281494,-1.359872817993164,0.031623587012290955
1774656401802860300,10.2288603515625,0.8284530639648438,-1.7792439460754395,-0.08316531777381897
1774656401812860200,10.238860107421875,0.1310272216796875,-0.9922800064086914,-0.21439911425113678
1774656401822860300,10.2488603515625,-1.1258320808410645,-0.2956409454345703,-0.32716721296310425
1774656401832860200,10.258860107421874,-0.7033700942993164,-0.5953779220581055,-0.024586200714111328
1774656401842860300,10.2688603515625,0.372957706451416,-1.296617031097412,0.5758324265480042
1774656401852860200,10.278860107421876,0.7440838813781738,-1.3376169204711914,0.8519678115844727
1774656401862860300,10.2888603515625,-0.1269993782043457,-0.19925975799560547,0.25188377499580383
1774656401872860200,10.298860107421875,-0.8326141834259033,1.0239238739013672,-1.0304893255233765
1774656401882860300,10.3088603515625,-0.4055318832397461,1.2346372604370117,-1.5386271476745605
1774656401892860200,10.318860107421875,-0.4958763122558594,0.7881317138671875,-0.40977743268013
1774656401902860300,10.3288603515625,-1.8851029872894287,0.6644144058227539,1.0531214475631714
1774656401912860200,10.338860107421874,-1.7980527877807617,0.49547386169433594,1.134114146232605
1774656401922860300,10.3488603515625,2.428910255432129,-0.7425527572631836,-0.0037848204374313354
1774656401932860200,10.358860107421876,5.859070301055908,-1.7552766799926758,-0.8765444755554199
1774656401942860300,10.3688603515625,3.770541191101074,-1.1189517974853516,-0.5565241575241089
1774656401952860200,10.378860107421875,-2.203984260559082,1.095973014831543,0.2595633268356323
1774656401962860300,10.3888603515625,-3.3934073448181152,1.4741287231445312,0.14959454536437988
1774656401972860200,10.398860107421875,1.1128244400024414,-0.17821025848388672,-0.6840872764587402
1774656401982860300,10.4088603515625,3.635098457336426,-1.0756754875183105,-0.824264407157898
1774656401992860200,10.418860107421875,0.06139326095581055,0.00676727294921875,0.02294921875
1774656402002860300,10.4288603515625,-2.441988706588745,0.5011959075927734,0.7581093907356262
1774656402012860200,10.438860107421876,0.18860292434692383,-0.6799874305725098,0.5869545340538025
1774656402022860300,10.4488603515625,2.1749043464660645,-1.2944378852844238,-0.08784599602222443
1774656402032860200,10.458860107421875,0.30168724060058594,-0.4139547348022461,-0.314617395401001
1774656402042860300,10.4688603515625,-2.081989288330078,0.5218334197998047,-0.17812299728393555
1774656402052860200,10.478860107421875,-0.7945890426635742,-0.10135078430175781,-0.2945941686630249
1774656402062860300,10.4888603515625,1.2005443572998047,-1.0179672241210938,-0.3899228274822235
1774656402072860200,10.498860107421875,0.33979129791259766,-0.9962072372436523,-0.10457640886306763
1774656402082860300,10.5088603515625,-1.1929090023040771,-0.7079734802246094,0.4298557639122009
1774656402092860200,10.518860107421874,-0.7755718231201172,-0.9521932601928711,0.6917155385017395
1774656402102860300,10.5288603515625,0.5983572006225586,-1.3730249404907227,0.33577290177345276
1774656402112860200,10.538860107421876,0.19556522369384766,-1.113520622253418,-0.1228742003440857
1774656402122860300,10.5488603515625,-0.31844425201416016,-1.0519285202026367,-0.1806701123714447
1774656402132860200,10.558860107421875,-0.09023714065551758,-1.433511734008789,0.035282522439956665
1774656402142860300,10.5688603515625,-0.5675268173217773,-1.5752735137939453,0.13421642780303955
1774656402152860200,10.578860107421875,-0.5967035293579102,-1.7256364822387695,-0.021158844232559204
1774656402162860300,10.5888603515625,-0.8113613128662109,-1.4683103561401367,-0.138563334941864
1774656402172860200,10.598860107421874,-0.5554609298706055,-1.4514498710632324,-0.33060163259506226
1774656402182860300,10.6088603515625,0.5135483741760254,-1.5988717079162598,-0.4004749655723572
1774656402192860200,10.618860107421876,0.017685890197753906,-1.2756786346435547,-0.5037868618965149
1774656402202860300,10.6288603515625,-0.3188443183898926,-1.2251524925231934,-0.4111054241657257
1774656402212860200,10.638860107421875,-0.40696287155151367,-1.2692804336547852,0.0969599187374115
1774656402222860300,10.6488603515625,-1.0775656700134277,-0.8547639846801758,0.3038208782672882
1774656402232860200,10.658860107421875,-0.3416152000427246,-0.9731011390686035,-0.14668729901313782
1774656402242860300,10.6688603515625,0.707728385925293,-1.1335206031799316,-0.5472821593284607
1774656402252860200,10.678860107421874,0.5613055229187012,-1.0078706741333008,-0.5967323780059814
1774656402262860300,10.6888603515625,0.15997791290283203,-0.5370817184448242,-0.4786359369754791
1774656402272860200,10.698860107421876,-0.1575183868408203,-0.34329986572265625,-0.5351256132125854
1774656402282860300,10.7088603515625,-0.2298588752746582,-0.7685861587524414,-0.48429858684539795
1774656402292860200,10.718860107421875,0.37209510803222656,-1.573155403137207,0.1877538561820984
1774656402302860300,10.7288603515625,-0.25618791580200195,-1.3930163383483887,0.7342019081115723
1774656402312860200,10.738860107421875,-0.3968949317932129,-0.763575553894043,0.01019752025604248
1774656402322860300,10.7488603515625,0.04367399215698242,0.01459503173828125,-1.1720426082611084
1774656402332860200,10.758860107421874,-1.1440730094909668,0.8563108444213867,-1.5321309566497803
1774656402342860300,10.7688603515625,-1.2235255241394043,0.2788877487182617,-0.7614062428474426
1774656402352860200,10.778860107421876,-0.11456441879272461,-1.248189926147461,0.6680017709732056
1774656402362860300,10.7888603515625,-0.34662485122680664,-1.6995906829833984,1.572698712348938
1774656402372860200,10.798860107421875,-0.8094058036804199,-0.9039459228515625,0.945948600769043
1774656402382860300,10.8088603515625,-0.39045238494873047,0.3037986755371094,-0.6986345052719116
1774656402392860200,10.818860107421875,-1.0871119499206543,1.644303321838379,-1.8810932636260986
1774656402402860300,10.8288603515625,-0.8360867500305176,0.7867984771728516,-1.7750214338302612
1774656402412860200,10.838860107421874,0.05852031707763672,-1.1716437339782715,0.3206174075603485
1774656402422860300,10.8488603515625,-1.9079127311706543,-1.082566738128662,2.2566137313842773
1774656402432860200,10.858860107421876,-2.0712432861328125,-0.20906925201416016,1.5009424686431885
1774656402442860300,10.8688603515625,-0.011370182037353516,0.49169254302978516,-0.8626111149787903
1774656402452860200,10.878860107421875,1.9350242614746094,0.4750537872314453,-2.1642022132873535
1774656402462860300,10.8888603515625,1.8771882057189941,-0.10244083404541016,-1.2365214824676514
1774656402472860200,10.898860107421875,-1.569206953048706,0.05841541290283203,0.9830245971679688
1774656402482860300,10.9088603515625,-2.6787142753601074,-0.3196220397949219,2.126504898071289
1774656402492860200,10.918860107421875,0.8686261177062988,-1.1385631561279297,1.1820762157440186
1774656402502860300,10.9288603515625,1.429758071899414,0.10581207275390625,-0.4632760286331177
1774656402512860200,10.938860107421876,-0.15667390823364258,1.4398155212402344,-1.439320683479309
1774656402522860300,10.9488603515625,-0.015661239624023438,0.9083070755004883,-1.149597406387329
1774656402532860200,10.958860107421875,-0.9766297340393066,0.675724983215332,0.24210667610168457
1774656402542860300,10.9688603515625,-0.20190858840942383,-0.28687524795532227,1.0584031343460083
1774656402552860200,10.978860107421875,1.348271369934082,-0.9641847610473633,0.999639630317688
1774656402562860300,10.9888603515625,-0.6157140731811523,0.3075828552246094,0.3713536262512207
1774656402572860200,10.998860107421875,-0.19554471969604492,0.7423176765441895,-0.498800665140152
1774656402582860300,11.0088603515625,0.8831353187561035,0.4614601135253906,-0.7523980736732483
1774656402592860200,11.018860107421874,0.6533823013305664,0.14821147918701172,-0.40437498688697815
1774656402602860300,11.0288603515625,0.17693471908569336,-0.4279794692993164,0.10765156149864197
1774656402612860200,11.038860107421876,-0.891669750213623,-0.19727849960327148,0.8156460523605347
1774656402622860300,11.0488603515625,-0.42705345153808594,-0.1367168426513672,0.533501386642456
1774656402632860200,11.058860107421875,1.26741361618042,-0.08293437957763672,-0.6316654682159424
1774656402642860300,11.0688603515625,0.7066235542297363,0.37836170196533203,-0.9568440318107605
1774656402652860200,11.078860107421875,0.1635298728942871,0.30541419982910156,-0.02493646740913391
1774656402662860300,11.0888603515625,0.029610633850097656,-0.19518613815307617,0.7218185663223267
1774656402672860200,11.098860107421874,0.23598003387451172,-0.5017848014831543,0.7335740923881531
1774656402682860300,11.1088603515625,0.6225037574768066,-0.2391338348388672,0.36873331665992737
1774656402692860200,11.118860107421876,0.826695442199707,0.08460426330566406,-0.15388143062591553
1774656402702860300,11.1288603515625,1.516263484954834,-0.055298805236816406,-0.5380276441574097
1774656402712860200,11.138860107421875,0.8356118202209473,-0.3312196731567383,0.027245551347732544
1774656402722860300,11.1488603515625,-0.3837771415710449,-0.31998252868652344,0.8173189759254456
1774656402732860200,11.158860107421875,1.4156088829040527,-1.1779308319091797,0.610308051109314
1774656402742860300,11.1688603515625,2.9110589027404785,-1.4135627746582031,0.01572754979133606
1774656402752860200,11.178860107421874,4.7027106285095215,-1.8537373542785645,-0.5601723194122314
1774656402762860300,11.1888603515625,2.6417078971862793,-0.7300844192504883,-0.7897732257843018
1774656402772860200,11.198860107421876,-4.031076431274414,1.9843449592590332,-0.3091457784175873
1774656402782860300,11.2088603515625,-7.630531311035156,3.0232629776000977,0.41259655356407166
1774656402792860200,11.218860107421875,-4.348749160766602,1.4196157455444336,0.6367923617362976
1774656402802860300,11.2288603515625,2.882845878601074,-1.3478875160217285,0.11450658738613129
1774656402812860200,11.238860107421875,3.9827022552490234,-1.2890372276306152,-0.4047262966632843
1774656402822860300,11.2488603515625,1.2626190185546875,-0.025224685668945312,-0.698117733001709
1774656402832860200,11.258860107421874,-1.0307393074035645,0.9997596740722656,-0.5472970008850098
1774656402842860300,11.2688603515625,-0.9759702682495117,0.6008734703063965,0.07774975895881653
1774656402852860200,11.278860107421876,0.47948551177978516,-0.12593364715576172,0.7314596176147461
1774656402862860300,11.2888603515625,1.0305500030517578,-0.32578182220458984,0.43524041771888733
1774656402872860200,11.298860107421875,1.0512008666992188,0.04211235046386719,-0.008350610733032227
1774656402882860300,11.3088603515625,0.22873830795288086,0.7506556510925293,0.10387508571147919
1774656402892860200,11.318860107421875,-0.024591445922851562,0.7830815315246582,0.2486855834722519
1774656402902860300,11.3288603515625,0.28213071823120117,0.29405975341796875,0.3558151423931122
1774656402912860200,11.338860107421874,1.2025785446166992,-0.5467071533203125,0.6850935220718384
1774656402922860300,11.3488603515625,1.2511510848999023,-0.593055248260498,1.088765263557434
1774656402932860200,11.358860107421876,0.5659384727478027,0.08713293075561523,0.9782231450080872
1774656402942860300,11.3688603515625,-0.7634191513061523,1.3901472091674805,0.18359225988388062
1774656402952860200,11.378860107421875,-2.3280324935913086,2.0524353981018066,-0.5511150360107422
1774656402962860300,11.3888603515625,-1.047621250152588,0.9413566589355469,-0.05029016733169556
1774656402972860200,11.398860107421875,1.7203803062438965,-1.114455223083496,1.1054725646972656
1774656402982860300,11.4088603515625,2.842679500579834,-1.731067180633545,1.6554486751556396
1774656402992860200,11.418860107421875,1.0197715759277344,-0.3776721954345703,0.7832356691360474
1774656403002860300,11.4288603515625,0.36886119842529297,0.8111171722412109,-0.8144881725311279
1774656403012860200,11.438860107421876,-0.499819278717041,1.2422528266906738,-1.2394742965698242
1774656403022860300,11.4488603515625,-1.9153757095336914,1.123669147491455,-0.012081682682037354
1774656403032860200,11.458860107421875,-1.2467560768127441,-0.12679719924926758,1.1468645334243774
1774656403042860300,11.4688603515625,1.2451138496398926,-1.2920217514038086,1.0813112258911133
1774656403052860200,11.478860107421875,1.708019733428955,-0.8118486404418945,0.2277042269706726
1774656403062860300,11.4888603515625,1.3703546524047852,0.06159687042236328,-0.7662314176559448
1774656403072860200,11.498860107421875,0.4398040771484375,0.781186580657959,-1.135366678237915
1774656403082860300,11.5088603515625,-2.600783586502075,1.6126337051391602,-0.4735572338104248
1774656403092860200,11.518860107421874,-2.3217594623565674,0.6718754768371582,0.48940056562423706
1774656403102860300,11.5288603515625,1.3544769287109375,-1.160214900970459,0.9746067523956299
1774656403112860200,11.538860107421876,1.6448678970336914,-0.9796352386474609,0.6658245325088501
1774656403122860300,11.5488603515625,0.9682760238647461,-0.2800302505493164,-0.23842933773994446
1774656403132860200,11.558860107421875,1.7789249420166016,-0.2755856513977051,-0.8167928457260132
1774656403142860300,11.5688603515625,-0.08286571502685547,0.37575292587280273,-0.6779247522354126
1774656403152860200,11.578860107421875,-1.5802040100097656,0.45244598388671875,-0.06383129954338074
1774656403162860300,11.5888603515625,-2.365161418914795,0.30833005905151367,0.45840227603912354
1774656403172860200,11.598860107421874,-0.9432477951049805,-0.4931654930114746,0.36783459782600403
1774656403182860300,11.6088603515625,1.2405095100402832,-1.161095142364502,0.10650677978992462
1774656403192860200,11.618860107421876,-0.37029600143432617,-0.09276103973388672,-0.021820873022079468
1774656403202860300,11.6288603515625,-1.601677417755127,0.5156745910644531,-0.3944842219352722
1774656403212860200,11.638860107421875,-0.3192481994628906,-0.08495044708251953,-0.44316887855529785
1774656403222860300,11.6488603515625,1.0611143112182617,-0.7342634201049805,0.06718537211418152
1774656403232860200,11.658860107421875,2.6403961181640625,0.12080907821655273,0.043531522154808044
1774656403242860300,11.6688603515625,0.7482061386108398,2.005958080291748,-1.1165103912353516
1774656403252860200,11.678860107421874,-3.2034969329833984,3.502058982849121,-1.0587986707687378
1774656403262860300,11.6888603515625,1.661201000213623,1.731752872467041,0.25255852937698364
1774656403272860200,11.698860107421876,2.868234157562256,1.7738547325134277,1.468641757965088
1774656403282860300,11.7088603515625,-0.13271760940551758,4.268312931060791,1.2093517780303955
1774656403292860200,11.718860107421875,1.1441898345947266,4.493524551391602,0.09484497457742691
1774656403302860300,11.7288603515625,2.68088960647583,4.812115669250488,-0.39013418555259705
1774656403312860200,11.738860107421875,3.837019920349121,4.37379789352417,0.04132832586765289
1774656403322860300,11.7488603515625,4.346266746520996,4.751169204711914,0.8710219860076904
1774656403332860200,11.758860107421874,2.1878323554992676,4.864590167999268,0.49728643894195557
1774656403342860300,11.7688603515625,0.41810035705566406,5.792654514312744,0.37278512120246887
1774656403352860200,11.778860107421876,2.3586020469665527,4.580387115478516,0.6568297147750854
1774656403362860300,11.7888603515625,4.4028520584106445,3.705514430999756,0.5098565816879272
1774656403372860200,11.798860107421875,2.751999855041504,3.8667726516723633,-0.12898235023021698
1774656403382860300,11.8088603515625,2.5757055282592773,3.348975658416748,-0.5492552518844604
1774656403392860200,11.818860107421875,2.5070762634277344,2.60385799407959,-0.14668092131614685
1774656403402860300,11.8288603515625,1.6415653228759766,2.3776369094848633,0.07980415225028992
1774656403412860200,11.838860107421874,1.1891016960144043,2.6884241104125977,-0.5040504336357117
1774656403422860300,11.8488603515625,1.528416633605957,2.5937509536743164,-1.385786771774292
1774656403432860200,11.858860107421876,1.7040009498596191,2.0724105834960938,-1.2060545682907104
1774656403442860300,11.8688603515625,-1.302950382232666,2.2404584884643555,0.19978050887584686
1774656403452860200,11.878860107421875,-0.7859287261962891,1.1584281921386719,1.111093521118164
1774656403462860300,11.8888603515625,2.6452512741088867,0.09902381896972656,0.11596369743347168
1774656403472860200,11.898860107421875,2.906859874725342,0.5579957962036133,-0.7260249257087708
1774656403482860300,11.9088603515625,1.0077643394470215,1.6599550247192383,-1.0477474927902222
1774656403492860200,11.918860107421875,1.2979512214660645,1.1339197158813477,-0.9333013296127319
1774656403502860300,11.9288603515625,1.0277471542358398,0.6368923187255859,-0.013660997152328491
1774656403512860200,11.938860107421876,0.3952169418334961,0.3731851577758789,0.5055228471755981
1774656403522860300,11.9488603515625,-0.16544342041015625,0.5599260330200195,0.2057710587978363
1774656403532860200,11.958860107421875,0.2882828712463379,0.9700889587402344,-0.3434874713420868
1774656403542860300,11.9688603515625,0.22100019454956055,1.3738622665405273,-0.8537648916244507
1774656403552860200,11.978860107421875,1.0951385498046875,0.7925500869750977,-1.0436750650405884
1774656403562860300,11.9888603515625,2.0948314666748047,-0.4795875549316406,-0.43741896748542786
1774656403572860200,11.998860107421875,0.9998931884765625,-0.7257604598999023,0.501204252243042
1774656403582860300,12.0088603515625,0.6964740753173828,-0.6824617385864258,0.6520280838012695
1774656403592860200,12.018860107421874,-0.37229108810424805,0.2678670883178711,-0.05387765169143677
1774656403602860300,12.0288603515625,-1.2514820098876953,0.997039794921875,-0.8952295780181885
1774656403612860200,12.038860107421876,-2.094975709915161,1.1796979904174805,-0.8554046750068665
1774656403622860300,12.0488603515625,-1.395674467086792,0.34040260314941406,-0.20258015394210815
1774656403632860200,12.058860107421875,1.0594978332519531,-1.3310604095458984,0.11474917829036713
1774656403642860300,12.0688603515625,1.3141570091247559,-1.6071186065673828,0.15255969762802124
1774656403652860200,12.078860107421875,-0.927772045135498,-0.45192432403564453,-0.10719418525695801
1774656403662860300,12.0888603515625,-1.3000173568725586,-0.0017919540405273438,-0.541892945766449
1774656403672860200,12.098860107421874,-0.27234649658203125,-0.3581228256225586,-0.6286153197288513
1774656403682860300,12.1088603515625,-0.6623978614807129,-0.539576530456543,-0.2983565628528595
1774656403692860200,12.118860107421876,-0.8443803787231445,-0.8391866683959961,0.011862993240356445
1774656403702860300,12.1288603515625,-0.8034491539001465,-1.1976842880249023,0.14918649196624756
1774656403712860200,12.138860107421875,-1.3901300430297852,-0.796391487121582,0.2023458629846573
1774656403722860300,12.1488603515625,-0.8481030464172363,-0.7581377029418945,-0.1971208155155182
1774656403732860200,12.158860107421875,0.181976318359375,-0.9139986038208008,-0.6469869613647461
1774656403742860300,12.1688603515625,-0.04438972473144531,-1.0612335205078125,-0.6146460771560669
1774656403752860200,12.178860107421874,-1.114661693572998,-1.0749092102050781,-0.05091792345046997
1774656403762860300,12.1888603515625,-1.5176405906677246,-1.1461725234985352,0.42766523361206055
1774656403772860200,12.198860107421876,-0.5997018814086914,-1.2939114570617676,0.1909795105457306
1774656403782860300,12.2088603515625,0.10026884078979492,-1.2972521781921387,-0.44437792897224426
1774656403792860200,12.218860107421875,-0.30931901931762695,-0.9710640907287598,-0.5584090948104858
1774656403802860300,12.2288603515625,-1.4342420101165771,-0.7126469612121582,-0.06718844175338745
1774656403812860200,12.238860107421875,-1.3650779724121094,-0.8841209411621094,0.28351426124572754
1774656403822860300,12.2488603515625,-0.47058773040771484,-1.2595324516296387,0.1767938733100891
1774656403832860200,12.258860107421874,-0.2573871612548828,-1.221139907836914,-0.052575111389160156
1774656403842860300,12.2688603515625,-0.7758011817932129,-1.0135383605957031,-0.08432507514953613
1774656403852860200,12.278860107421876,-1.2602577209472656,-0.9030628204345703,0.1583293080329895
1774656403862860300,12.2888603515625,-0.8561806678771973,-1.0321388244628906,0.23060747981071472
1774656403872860200,12.298860107421875,0.13425970077514648,-1.3938360214233398,0.061822354793548584
1774656403882860300,12.3088603515625,-0.17949151992797852,-1.2317314147949219,0.050889551639556885
1774656403892860200,12.318860107421875,-1.1225676536560059,-0.9764518737792969,0.043212294578552246
1774656403902860300,12.3288603515625,-0.8424124717712402,-1.3514156341552734,0.20679756999015808
1774656403912860200,12.338860107421874,-0.4346199035644531,-1.7352004051208496,0.6144981384277344
1774656403922860300,12.3488603515625,-0.05843067169189453,-2.1228370666503906,0.7972302436828613
1774656403932860200,12.358860107421876,-0.5443310737609863,-1.5612154006958008,0.6230815052986145
1774656403942860300,12.3688603515625,-1.655261754989624,-0.6621341705322266,-0.06632828712463379
1774656403952860200,12.378860107421875,-0.3849496841430664,-1.0867724418640137,-0.4773431122303009
1774656403962860300,12.3888603515625,0.11085367202758789,-1.9062118530273438,0.2055405080318451
1774656403972860200,12.398860107421875,-0.9585323333740234,-2.1538281440734863,1.239260196685791
1774656403982860300,12.4088603515625,-1.5175542831420898,-2.0590524673461914,1.47123122215271
1774656403992860200,12.418860107421875,-0.6607494354248047,-1.927443504333496,0.7820352911949158
1774656404002860300,12.4288603515625,0.5125927925109863,-1.850203514099121,-0.18628402054309845
1774656404012860200,12.438860107421876,-0.5840156078338623,-1.341273307800293,-0.5361881256103516
1774656404022860300,12.4488603515625,-1.4246826171875,-1.5162749290466309,0.024653971195220947
