time,seconds_elapsed,z,y,x
1774656391660570000,0.086570068359375,0.002290742937475443,-0.00045814859913662076,0.01740964688360691
1774656391677360000,0.103360107421875,-0.0032070400193333626,0.0013744457392022014,0.007635809946805239
1774656391694150100,0.120150146484375,-0.007483093533664942,0.0038179049734026194,-0.004581485874950886
1774656391710940200,0.136940185546875,0.007177661173045635,-0.002901607658714056,0.006414080038666725
1774656391727730200,0.153730224609375,-0.005039634648710489,0.0013744457392022014,0.005803215317428112
1774656391744520200,0.170520263671875,0.005345067009329796,0.0001527161948615685,0.013744457624852657
1774656391761310200,0.187310302734375,-0.0025961752980947495,0.0025961752980947495,0.02718348242342472
1774656391778100200,0.204100341796875,-0.0007635809597559273,0.0007635809597559273,0.011300998739898205
1774656391794890500,0.220890380859375,0.004123337101191282,-0.002901607658714056,0.0009162971982732415
1774656391811680500,0.237680419921875,-0.0001527161948615685,-0.0010690133785828948,-0.013133592903614044
1774656391828470500,0.254470458984375,-0.0032070400193333626,0.0001527161948615685,0.012522728182375431
1774656391845260500,0.271260498046875,0.00045814859913662076,0.0019853105768561363,0.000305432389723137
1774656391862050600,0.288050537109375,0.004123337101191282,0.0001527161948615685,0.0009162971982732415
1774656391878840800,0.3048408203125,-0.005650499369949102,0.0019853105768561363,-0.003970621153712273
1774656391895630800,0.321630859375,0.005345067009329796,-0.002901607658714056,0.005803215317428112
1774656391912420900,0.3384208984375,-0.008704823441803455,0.004428769461810589,-0.006414080038666725
1774656391929211000,0.3552109375,0.006566796451807022,-0.002901607658714056,0.010690134018659592
1774656391946001000,0.3720009765625,0.001679878099821508,-0.0010690133785828948,0.0021380267571657896
1774656391962791000,0.388791015625,-0.0062613640911877155,0.0025961752980947495,-0.015577051788568497
1774656391979581000,0.405580810546875,0.007788525894284248,-0.002901607658714056,-0.007024944759905338
1774656391996371200,0.42237109375,-0.005650499369949102,0.0032070400193333626,-0.0021380267571657896
1774656392013161200,0.4391611328125,0.007788525894284248,-0.00045814859913662076,-0.01435532234609127
1774656392029951200,0.455951171875,-0.0019853105768561363,-0.00045814859913662076,-0.005192350596189499
1774656392046741200,0.4727412109375,-0.0062613640911877155,0.0007635809597559273,-0.006414080038666725
1774656392063531300,0.48953125,0.004123337101191282,-0.001679878099821508,-0.010079269297420979
1774656392080321300,0.5063212890625,-0.0025961752980947495,0.0013744457392022014,0.0021380267571657896
1774656392097111300,0.523111328125,0.005345067009329796,0.0001527161948615685,-0.003359756199643016
1774656392113901600,0.539901611328125,-0.0025961752980947495,0.0025961752980947495,0.007024944759905338
1774656392130691600,0.556691650390625,-0.0007635809597559273,-0.00045814859913662076,0.0015271619195118546
1774656392147481600,0.573481689453125,-0.0001527161948615685,-0.0010690133785828948,-0.008246674202382565
1774656392164271600,0.590271728515625,-0.0019853105768561363,0.0001527161948615685,-0.01435532234609127
1774656392181061600,0.6070615234375,0.00045814859913662076,-0.00045814859913662076,-0.003970621153712273
1774656392197851600,0.6238515625,-0.0038179049734026194,0.0019853105768561363,-0.000305432389723137
1774656392214641700,0.6406416015625,0.002290742937475443,-0.001679878099821508,0.007024944759905338
1774656392231432000,0.657431884765625,0.0010690133785828948,-0.0010690133785828948,0.0027488914784044027
1774656392248222000,0.674221923828125,-0.0007635809597559273,0.0013744457392022014,0.004581485874950886
1774656392265012000,0.691011962890625,-0.0013744457392022014,0.0019853105768561363,0.008246674202382565
1774656392281802000,0.707802001953125,-0.0019853105768561363,-0.00045814859913662076,0.022907428443431854
1774656392298592000,0.724592041015625,0.005345067009329796,-0.003512472379952669,0.013744457624852657
1774656392315382000,0.741382080078125,-0.0007635809597559273,0.0013744457392022014,-0.0021380267571657896
1774656392332172000,0.758172119140625,-0.0013744457392022014,0.0019853105768561363,-0.0027488914784044027
1774656392348962000,0.774962158203125,0.002901607658714056,0.0001527161948615685,0.012522728182375431
1774656392365752300,0.79175244140625,-0.0032070400193333626,0.0007635809597559273,0.010079269297420979
1774656392382542300,0.808542236328125,0.002290742937475443,-0.002290742937475443,0.005192350596189499
1774656392399332400,0.825332275390625,-0.0019853105768561363,-0.00045814859913662076,0.00946840364485979
1774656392416122400,0.842122314453125,0.003512472379952669,-0.0010690133785828948,0.013133592903614044
1774656392432912400,0.858912353515625,0.007177661173045635,-0.001679878099821508,0.0204639695584774
1774656392449702400,0.875702392578125,-0.0019853105768561363,0.0013744457392022014,0.018631376326084137
1774656392466492400,0.892492431640625,0.001679878099821508,0.0007635809597559273,0.010690134018659592
1774656392483282400,0.909282470703125,0.0010690133785828948,-0.00045814859913662076,0.007024944759905338
1774656392500072700,0.92607275390625,-0.0001527161948615685,-0.001679878099821508,0.008246674202382565
1774656392516862500,0.942862548828125,-0.0019853105768561363,0.0001527161948615685,-0.008857538923621178
1774656392533652700,0.95965283203125,-0.0019853105768561363,0.0007635809597559273,0.005192350596189499
1774656392550442800,0.97644287109375,-0.0019853105768561363,0.0025961752980947495,0.003359756199643016
1774656392567232800,0.993232666015625,0.005345067009329796,-0.00045814859913662076,-0.004581485874950886
1774656392584022800,1.010022705078125,-0.004428769461810589,0.0019853105768561363,0.007635809946805239
1774656392600812800,1.026812744140625,0.0010690133785828948,0.0013744457392022014,-0.00946840364485979
1774656392617602800,1.043602783203125,0.005345067009329796,-0.001679878099821508,0.007635809946805239
1774656392634392800,1.060392822265625,-0.0019853105768561363,0.0013744457392022014,0.008246674202382565
1774656392651183000,1.07718310546875,0.005955931730568409,-0.0010690133785828948,-0.01740964688360691
1774656392667973000,1.09397314453125,-0.008093958720564842,0.0019853105768561363,-0.005192350596189499
1774656392684763100,1.11076318359375,-0.0013744457392022014,0.0032070400193333626,0.000305432389723137
1774656392701553200,1.12755322265625,-0.0019853105768561363,0.007483093533664942,-0.05100720748305321
1774656392718343200,1.14434326171875,-0.0062613640911877155,-0.00045814859913662076,0.04001164436340332
1774656392735133200,1.16113330078125,-0.008093958720564842,0.005650499369949102,-0.03756818547844887
1774656392751923200,1.177923095703125,-0.0038179049734026194,0.005039634648710489,-0.024740023538470268
1774656392768713200,1.194713134765625,-0.0025961752980947495,-0.00045814859913662076,0.01740964688360691
1774656392785503500,1.21150341796875,-0.0013744457392022014,0.0007635809597559273,0.011911863461136818
1774656392802293200,1.228293212890625,0.003512472379952669,0.0025961752980947495,-0.03023780696094036
1774656392819083500,1.24508349609375,-0.009926552884280682,0.0032070400193333626,0.02718348242342472
1774656392835873500,1.26187353515625,-0.0007635809597559273,0.0013744457392022014,-0.038789913058280945
1774656392852663600,1.27866357421875,0.003512472379952669,-0.004734201822429895,0.010079269297420979
1774656392869453600,1.29545361328125,-0.004428769461810589,0.0007635809597559273,-0.016798781231045723
1774656392886243600,1.31224365234375,0.013286309316754341,-0.005345067009329796,0.01435532234609127
1774656392903033600,1.32903369140625,-0.010537417605519295,0.004428769461810589,0.003970621153712273
1774656392919823600,1.34582373046875,0.007788525894284248,-0.002901607658714056,0.014966187067329884
1774656392936613600,1.362613525390625,0.008399390615522861,-0.004123337101191282,-0.003970621153712273
1774656392953404000,1.37940380859375,0.0010690133785828948,-0.003512472379952669,-0.0027488914784044027
1774656392970194000,1.39619384765625,0.0102319847792387,-0.004123337101191282,-0.008857538923621178
1774656392986984000,1.41298388671875,-0.011759147047996521,0.0025961752980947495,0.008857538923621178
1774656393003774000,1.42977392578125,0.006566796451807022,-0.004734201822429895,0.0027488914784044027
1774656393020564000,1.44656396484375,0.002901607658714056,-0.0010690133785828948,0.0021380267571657896
1774656393037354000,1.46335400390625,0.004734201822429895,0.0013744457392022014,-0.02779434807598591
1774656393054144000,1.48014404296875,-0.0001527161948615685,-0.00045814859913662076,0.02107483521103859
1774656393070934000,1.49693408203125,-0.0038179049734026194,0.0007635809597559273,-0.007635809946805239
1774656393087724000,1.51372412109375,0.011453714221715927,-0.004734201822429895,0.0015271619195118546
1774656393104514000,1.53051416015625,-0.005650499369949102,0.0013744457392022014,-0.014966187067329884
1774656393121304000,1.547303955078125,0.002290742937475443,-0.0010690133785828948,0.008857538923621178
1774656393138094000,1.564093994140625,-0.009926552884280682,0.0062613640911877155,-0.013133592903614044
1774656393154884400,1.58088427734375,0.002290742937475443,-0.002290742937475443,0.0015271619195118546
1774656393171674400,1.59767431640625,-0.007483093533664942,-0.0010690133785828948,0.016798781231045723
1774656393188464400,1.61446435546875,0.00045814859913662076,0.0007635809597559273,-0.0009162971982732415
1774656393205254400,1.63125439453125,0.009621120058000088,0.0001527161948615685,0.0021380267571657896
1774656393222044400,1.64804443359375,-0.008093958720564842,0.0025961752980947495,0.03940077871084213
1774656393238834400,1.66483447265625,0.002901607658714056,-0.001679878099821508,0.022907428443431854
1774656393255624400,1.68162451171875,-0.01359174121171236,0.007483093533664942,0.016798781231045723
1774656393272414500,1.69841455078125,0.003512472379952669,-0.00045814859913662076,0.024740023538470268
1774656393289204500,1.71520458984375,0.005955931730568409,-0.002901607658714056,0.06872228533029556
1774656393305994500,1.731994384765625,-0.0038179049734026194,0.004428769461810589,0.05955931544303894
1774656393322784500,1.748784423828125,-0.0019853105768561363,0.0032070400193333626,0.06383536756038666
1774656393339574800,1.76557470703125,-0.0154243353754282,0.0038179049734026194,0.0412333719432354
1774656393356364800,1.78236474609375,0.002901607658714056,-0.004734201822429895,0.03940077871084213
1774656393373154800,1.79915478515625,-0.0013744457392022014,0.0013744457392022014,0.0308486707508564
1774656393389944800,1.81594482421875,-0.0062613640911877155,0.0032070400193333626,0.07849612087011337
1774656393406734800,1.83273486328125,-0.0019853105768561363,0.0013744457392022014,0.08582650125026703
1774656393423524900,1.84952490234375,0.001679878099821508,0.0007635809597559273,0.06261363625526428
1774656393440315000,1.86631494140625,0.008399390615522861,-0.005345067009329796,0.04306596517562866
1774656393457105000,1.88310498046875,0.001679878099821508,-0.002901607658714056,0.05345066636800766
1774656393473895000,1.89989501953125,-0.0019853105768561363,0.0013744457392022014,0.047952886670827866
1774656393490685000,1.916684814453125,0.009621120058000088,-0.001679878099821508,0.06933315098285675
1774656393507475000,1.933474853515625,0.008399390615522861,-0.0010690133785828948,0.04367683082818985
1774656393524265000,1.950264892578125,0.010842849500477314,-0.004734201822429895,0.02107483521103859
1774656393541055000,1.967054931640625,0.002901607658714056,-0.002290742937475443,0.016798781231045723
1774656393557845200,1.98384521484375,0.004123337101191282,-0.0010690133785828948,0.0204639695584774
1774656393574635300,2.00063525390625,0.009010255336761475,-0.004123337101191282,0.032681263983249664
1774656393591425300,2.01742529296875,-0.0025961752980947495,-0.00045814859913662076,0.022296564653515816
1774656393608215300,2.03421533203125,0.00045814859913662076,0.0007635809597559273,0.013744457624852657
1774656393625005300,2.05100537109375,-0.0032070400193333626,0.0019853105768561363,-0.006414080038666725
1774656393641795300,2.06779541015625,0.003512472379952669,-0.003512472379952669,0.019242240116000175
1774656393658585300,2.08458544921875,0.007177661173045635,-0.003512472379952669,0.016187917441129684
1774656393675375400,2.101375244140625,0.004734201822429895,0.0019853105768561363,0.0009162971982732415
1774656393692165400,2.118165283203125,0.007788525894284248,-0.004734201822429895,0.00946840364485979
1774656393708955400,2.134955322265625,0.006566796451807022,-0.007177661173045635,0.013744457624852657
1774656393725745400,2.151745361328125,-0.0007635809597559273,0.0001527161948615685,-0.021685699000954628
1774656393742535400,2.168535400390625,0.002901607658714056,-0.001679878099821508,-0.003970621153712273
1774656393759325400,2.185325439453125,0.003512472379952669,-0.0010690133785828948,0.013744457624852657
1774656393776115500,2.202115478515625,-0.0032070400193333626,0.0019853105768561363,0.02107483521103859
1774656393792905500,2.218905517578125,0.009010255336761475,-0.004734201822429895,0.044898562133312225
1774656393809695500,2.235695556640625,0.002290742937475443,-0.001679878099821508,0.047952886670827866
1774656393826485500,2.252485595703125,0.009010255336761475,-0.004123337101191282,0.05528326332569122
1774656393843275800,2.26927587890625,0.002901607658714056,-0.0010690133785828948,0.06444623321294785
1774656393860065500,2.2860654296875,0.004123337101191282,0.0007635809597559273,0.05100720748305321
1774656393876855800,2.302855712890625,0.013286309316754341,-0.004734201822429895,0.07483093440532684
1774656393893645800,2.319645751953125,0.005955931730568409,-0.001679878099821508,0.08093958348035812
1774656393910435800,2.336435791015625,0.008399390615522861,-0.002901607658714056,0.09376774728298187
1774656393927225900,2.353225830078125,0.0010690133785828948,-0.00045814859913662076,0.0925460159778595
1774656393944016000,2.370015869140625,0.013286309316754341,-0.007788525894284248,0.1029307171702385
1774656393960806000,2.386805908203125,0.004123337101191282,-0.002901607658714056,0.10537417232990265
1774656393977596000,2.403595947265625,0.005955931730568409,-0.00045814859913662076,0.11026109009981155
1774656393994386000,2.420385986328125,0.004734201822429895,-0.002290742937475443,0.1438586562871933
1774656394011176000,2.437176025390625,0.007177661173045635,-0.004734201822429895,0.1536324918270111
1774656394027966000,2.453966064453125,0.007177661173045635,-0.004123337101191282,0.13652828335762024
1774656394044756000,2.470755859375,-0.0025961752980947495,-0.00045814859913662076,0.14080433547496796
1774656394061546000,2.4875458984375,0.006566796451807022,-0.004734201822429895,0.17745621502399445
1774656394078336000,2.5043359375,0.009010255336761475,-0.0010690133785828948,0.16646064817905426
1774656394095126000,2.5211259765625,0.009010255336761475,-0.0010690133785828948,0.17867794632911682
1774656394111916000,2.537916015625,0.004734201822429895,-0.001679878099821508,0.16157373785972595
1774656394128706000,2.5547060546875,0.009621120058000088,-0.006566796451807022,0.168904110789299
1774656394145496000,2.57149609375,0.004123337101191282,-0.002901607658714056,0.1487455666065216
1774656394162286000,2.5882861328125,0.002901607658714056,-0.002290742937475443,0.12736530601978302
1774656394179076000,2.605076171875,-0.0025961752980947495,-0.00045814859913662076,0.12553271651268005
1774656394195866000,2.6218662109375,-0.0001527161948615685,-0.001679878099821508,0.12431098520755768
1774656394212656000,2.63865625,0.005955931730568409,-0.001679878099821508,0.12675444781780243
1774656394229446400,2.6554462890625,-0.0038179049734026194,0.004428769461810589,0.12186752259731293
1774656394246236200,2.672236083984375,-0.005650499369949102,0.0038179049734026194,0.09193515032529831
1774656394263026400,2.6890263671875,-0.008093958720564842,0.0025961752980947495,0.07788526266813278
1774656394279816400,2.70581640625,-0.008093958720564842,0.0013744457392022014,0.006414080038666725
1774656394296606500,2.7226064453125,-0.012370011769235134,0.005650499369949102,-0.1695149689912796
1774656394313396500,2.739396484375,-0.017867794260382652,0.011148282326757908,-0.35582873225212097
1774656394330186500,2.7561865234375,-0.012980876490473747,0.004428769461810589,-0.425467312335968
1774656394346976500,2.7729765625,-0.01908952370285988,0.010537417605519295,-0.5610793232917786
1774656394363766500,2.7897666015625,-0.030085090547800064,0.017256930470466614,-0.6582068204879761
1774656394380556500,2.806556640625,-0.020311253145337105,0.008093958720564842,-0.609948456287384
1774656394397346600,2.8233466796875,-0.016035201027989388,0.0032070400193333626,-0.43401941657066345
1774656394414136600,2.840136474609375,-0.011759147047996521,0.0032070400193333626,-0.23976442217826843
1774656394430926600,2.856926513671875,-0.008704823441803455,0.006872228812426329,-0.05222893878817558
1774656394447716600,2.873716552734375,-0.008093958720564842,0.008704823441803455,-0.03145953640341759
1774656394464506600,2.890506591796875,-0.005039634648710489,0.0019853105768561363,-0.05833758786320686
1774656394481296600,2.907296630859375,-0.011148282326757908,-0.0010690133785828948,-0.0821613147854805
1774656394498086700,2.924086669921875,-0.008093958720564842,0.0038179049734026194,-0.12736530601978302
1774656394514876700,2.940876708984375,-0.0032070400193333626,0.0013744457392022014,-0.06627883017063141
1774656394531666700,2.957666748046875,0.007177661173045635,-0.001679878099821508,-0.004581485874950886
1774656394548456700,2.974456787109375,0.009621120058000088,0.004428769461810589,-0.05100720748305321
1774656394565246700,2.991246826171875,0.0010690133785828948,-0.00045814859913662076,-0.014966187067329884
1774656394582036700,3.00803662109375,-0.0025961752980947495,-0.002901607658714056,0.0021380267571657896
1774656394598826800,3.02482666015625,-0.0019853105768561363,-0.001679878099821508,0.04367683082818985
1774656394615616800,3.04161669921875,0.001679878099821508,0.0019853105768561363,0.04428769648075104
1774656394632406800,3.05840673828125,0.004734201822429895,0.0019853105768561363,0.021685699000954628
1774656394649196800,3.07519677734375,-0.0062613640911877155,-0.002290742937475443,0.003359756199643016
1774656394665986800,3.09198681640625,0.003512472379952669,-0.007177661173045635,0.011911863461136818
1774656394682776800,3.10877685546875,0.006566796451807022,-0.00045814859913662076,-0.005803215317428112
1774656394699566800,3.12556689453125,0.006566796451807022,-0.002290742937475443,0.10109812021255493
1774656394716356900,3.14235693359375,-0.0007635809597559273,0.0007635809597559273,0.09071341902017593
1774656394733147000,3.15914697265625,0.002290742937475443,-0.002290742937475443,0.09621120244264603
1774656394749937000,3.17593701171875,0.013286309316754341,-0.007788525894284248,0.12431098520755768
1774656394766727000,3.192726806640625,0.024892739951610565,-0.008399390615522861,0.21960589289665222
1774656394783517000,3.209516845703125,0.03283398225903511,-0.007788525894284248,0.30085089802742004
1774656394800307000,3.226306884765625,0.01695149764418602,-0.006566796451807022,0.467006117105484
1774656394817097000,3.243096923828125,0.014508038759231567,-0.009010255336761475,0.6209440231323242
1774656394833887000,3.259886962890625,0.024281874299049377,-0.013286309316754341,0.6582068204879761
1774656394850677000,3.276677001953125,0.021838415414094925,-0.009621120058000088,0.5403099060058594
1774656394867467000,3.293467041015625,0.01511890348047018,-0.003512472379952669,0.23548837006092072
1774656394884257000,3.310257080078125,0.001679878099821508,-0.005955931730568409,0.1078176349401474
1774656394901047000,3.327047119140625,0.007788525894284248,-0.010842849500477314,0.09193515032529831
1774656394917837000,3.343837158203125,0.025503603741526604,-0.013286309316754341,0.1536324918270111
1774656394934627000,3.360626953125,0.014508038759231567,0.0019853105768561363,0.13225223124027252
1774656394951417300,3.377417236328125,0.009621120058000088,-0.001679878099821508,0.17073670029640198
1774656394968207000,3.39420703125,0.007177661173045635,-0.006566796451807022,0.11759147047996521
1774656394984997000,3.4109970703125,0.02000582218170166,-0.013286309316754341,0.13041962683200836
1774656395001787400,3.427787353515625,0.027336198836565018,-0.006566796451807022,0.16035200655460358
1774656395018577200,3.4445771484375,0.005345067009329796,0.0007635809597559273,0.23854269087314606
1774656395035367200,3.4613671875,0.005345067009329796,-0.0010690133785828948,0.2159406989812851
1774656395052157400,3.478157470703125,0.025503603741526604,-0.015729768201708794,0.1792888194322586
1774656395068947500,3.494947509765625,0.0206166859716177,-0.012675444595515728,0.10170898586511612
1774656395085737200,3.5117373046875,0.002290742937475443,-0.004734201822429895,0.13713914155960083
1774656395102527200,3.52852734375,-0.012980876490473747,0.0032070400193333626,0.1695149689912796
1774656395119317500,3.5453173828125,0.010842849500477314,-0.004123337101191282,0.20433427393436432
1774656395136107300,3.562107177734375,0.03649916872382164,-0.014508038759231567,0.21288637816905975
1774656395152897300,3.578897216796875,0.01695149764418602,-0.002290742937475443,0.16096286475658417
1774656395169687600,3.5956875,-0.019700389355421066,0.01359174121171236,0.14508038759231567
1774656395186477300,3.612477294921875,-0.017867794260382652,0.005650499369949102,0.1279761642217636
1774656395203267300,3.629267333984375,0.002290742937475443,-0.0010690133785828948,-0.03817904740571976
1774656395220057300,3.646057373046875,0.017562363296747208,-0.004123337101191282,0.1805105358362198
1774656395236847400,3.662847412109375,-0.036804601550102234,0.026419902220368385,0.15057817101478577
1774656395253637400,3.679637451171875,-0.04230238497257233,0.020311253145337105,0.007024944759905338
1774656395270427400,3.696427490234375,-0.011148282326757908,0.0013744457392022014,-0.02107483521103859
1774656395287217700,3.7132177734375,-0.011148282326757908,0.020922118797898293,-0.1078176349401474
1774656395304007400,3.73000732421875,0.03283398225903511,0.0032070400193333626,0.17195843160152435
1774656395320797400,3.74679736328125,-0.017256930470466614,0.02153298258781433,0.18295399844646454
1774656395337587500,3.76358740234375,-0.05451968312263489,0.039248060435056686,-0.051618073135614395
1774656395354377500,3.78037744140625,-0.006872228812426329,0.01847865991294384,0.007024944759905338
1774656395371167500,3.79716748046875,0.028557928279042244,0.005650499369949102,0.0717766135931015
1774656395387957500,3.81395751953125,0.028557928279042244,0.012370011769235134,0.03390299528837204
1774656395404747500,3.83074755859375,-0.016646064817905426,0.02825249545276165,0.04001164436340332
1774656395421537500,3.84753759765625,0.002901607658714056,0.022754713892936707,0.01802051067352295
1774656395438327600,3.86432763671875,0.056657709181308746,0.01359174121171236,-0.005803215317428112
1774656395455117600,3.88111767578125,0.0487164668738842,0.01908952370285988,0.12003492563962936
1774656395471907600,3.897907470703125,0.06765327602624893,0.009926552884280682,0.06322450190782547
1774656395488697600,3.914697509765625,0.08353576064109802,0.0007635809597559273,-0.007024944759905338
1774656395505487600,3.931487548828125,0.047494735568761826,0.0154243353754282,-0.006414080038666725
1774656395522277600,3.948277587890625,0.05971203371882439,0.016646064817905426,0.008857538923621178
1774656395539067600,3.965067626953125,0.0951421856880188,0.0025961752980947495,0.04978547990322113
1774656395555857700,3.981857666015625,0.09330959618091583,0.005650499369949102,-0.011911863461136818
1774656395572647700,3.998647705078125,0.07131846249103546,0.017256930470466614,-0.011911863461136818
1774656395589437700,4.015437744140625,0.024892739951610565,0.03497200831770897,0.06505709886550903
1774656395606227700,4.032227783203125,0.04199695214629173,0.026419902220368385,-0.03329212963581085
1774656395623017700,4.049017822265625,0.08231402933597565,0.005650499369949102,0.016187917441129684
1774656395639807700,4.065807861328125,0.0206166859716177,0.03375028073787689,0.05894844979047775
1774656395656597800,4.08259765625,-0.0154243353754282,0.04657844081521034,-0.07910698652267456
1774656395673387800,4.0993876953125,0.00045814859913662076,0.01847865991294384,-0.060781046748161316
1774656395690177800,4.116177734375,0.0102319847792387,0.020922118797898293,-0.02779434807598591
1774656395706967800,4.1329677734375,0.0010690133785828948,0.039248060435056686,-0.04367683082818985
1774656395723758000,4.149758056640625,-0.042913250625133514,0.05146535858511925,-0.028405211865901947
1774656395740547800,4.1665478515625,-0.030085090547800064,0.03497200831770897,0.019853105768561363
1774656395757338000,4.183338134765625,-0.026419902220368385,0.04046979174017906,-0.04917461425065994
1774656395774128000,4.200128173828125,-0.05635227635502815,0.04474584385752678,0.01740964688360691
1774656395790918100,4.216918212890625,-0.05818486958742142,0.0386371985077858,-0.07299833744764328
1774656395807708200,4.233708251953125,-0.030085090547800064,0.025809036567807198,-0.08888082206249237
1774656395824498200,4.250498291015625,-0.04413498193025589,0.028863361105322838,-0.07483093440532684
1774656395841288200,4.2672880859375,-0.07834340631961823,0.0386371985077858,-0.11514800786972046
1774656395858078200,4.284078125,-0.0642935186624527,0.02825249545276165,-0.03145953640341759
1774656395874868200,4.3008681640625,-0.058795735239982605,0.02519817277789116,-0.007635809946805239
1774656395891658200,4.317658203125,-0.06551524996757507,0.027030766010284424,-0.05955931544303894
1774656395908448300,4.3344482421875,-0.045967575162649155,0.01908952370285988,-0.05100720748305321
1774656395925238300,4.35123828125,-0.05757400393486023,0.020922118797898293,-0.10231985151767731
1774656395942028300,4.3680283203125,-0.06368265300989151,0.020311253145337105,-0.03940077871084213
1774656395958818300,4.384818359375,-0.0435241162776947,0.0154243353754282,-0.01740964688360691
1774656395975608300,4.4016083984375,-0.045967575162649155,0.014202605932950974,0.000305432389723137
1774656395992398300,4.4183984375,-0.04657844081521034,0.012980876490473747,-0.05406153202056885
1774656396009188400,4.435188232421875,-0.016035201027989388,-0.00045814859913662076,-0.0766635313630104
1774656396025978400,4.451978271484375,-0.02764163166284561,0.006872228812426329,0.0027488914784044027
1774656396042768400,4.468768310546875,-0.03741546720266342,0.020922118797898293,0.03451386094093323
1774656396059558400,4.485558349609375,-0.017867794260382652,0.012370011769235134,0.08643736690282822
1774656396076348400,4.502348388671875,-0.0154243353754282,0.0038179049734026194,0.1182023361325264
1774656396093138400,4.519138427734375,-0.030695954337716103,0.016035201027989388,0.05283980444073677
1774656396109928400,4.535928466796875,-0.016646064817905426,0.006872228812426329,0.04367683082818985
1774656396126718500,4.552718505859375,0.0383317656815052,-0.018784092739224434,0.019242240116000175
1774656396143508500,4.569508544921875,0.016340631991624832,-0.003512472379952669,0.09010255336761475
1774656396160298500,4.586298583984375,-0.02458730712532997,0.019700389355421066,0.08643736690282822
1774656396177088500,4.603088623046875,0.01206457894295454,-0.007788525894284248,0.10903936624526978
1774656396193878500,4.61987841796875,0.006566796451807022,-0.013897174037992954,0.08277218043804169
1774656396210668500,4.63666845703125,-0.012370011769235134,-0.002901607658714056,0.014966187067329884
1774656396227458600,4.65345849609375,0.002901607658714056,-0.005345067009329796,0.09621120244264603
1774656396244248600,4.67024853515625,0.013897174037992954,-0.011453714221715927,0.13530655205249786
1774656396261038600,4.68703857421875,0.024281874299049377,-0.01511890348047018,0.1701258420944214
1774656396277828600,4.70382861328125,0.017562363296747208,-0.016340631991624832,0.20799945294857025
1774656396294618600,4.72061865234375,-0.0013744457392022014,-0.0102319847792387,0.03817904740571976
1774656396311408600,4.73740869140625,0.002901607658714056,-0.0206166859716177,0.09315688163042068
1774656396328198700,4.75419873046875,0.009010255336761475,-0.018784092739224434,0.03145953640341759
1774656396344988700,4.77098876953125,0.041386090219020844,-0.02916879393160343,0.13775001466274261
1774656396361778700,4.78777880859375,0.013286309316754341,-0.012675444595515728,0.13652828335762024
1774656396378568700,4.804568603515625,0.021227551624178886,-0.0206166859716177,0.09865466505289078
1774656396395358700,4.821358642578125,0.012675444595515728,-0.024281874299049377,0.12370011955499649
1774656396412148700,4.838148681640625,0.016340631991624832,-0.024892739951610565,0.06933315098285675
1774656396428938800,4.854938720703125,0.02916879393160343,-0.0334448479115963,0.03695731982588768
1774656396445728800,4.871728759765625,-0.004428769461810589,-0.027947064489126205,-0.0412333719432354
1774656396462518800,4.888518798828125,0.009621120058000088,-0.024892739951610565,-0.11331541836261749
1774656396479308800,4.905308837890625,-0.0001527161948615685,-0.015729768201708794,0.024740023538470268
1774656396496098800,4.922098876953125,-0.0013744457392022014,-0.027336198836565018,0.16646064817905426
1774656396512888800,4.938888916015625,0.014508038759231567,-0.030390523374080658,-0.04367683082818985
1774656396529678800,4.955678955078125,-0.0001527161948615685,-0.02611446939408779,0.06811141967773438
1774656396546468900,4.97246875,-0.04046979174017906,-0.004734201822429895,0.003359756199643016
1774656396563259000,4.9892587890625,-0.02214384824037552,-0.0206166859716177,0.010690134018659592
1774656396580049000,5.006048828125,-0.004428769461810589,-0.021227551624178886,0.029016077518463135
1774656396596839000,5.0228388671875,-0.009926552884280682,-0.014508038759231567,-0.044898562133312225
1774656396613629000,5.03962890625,-0.016646064817905426,-0.014508038759231567,-0.006414080038666725
1774656396630419000,5.0564189453125,-0.005650499369949102,-0.015729768201708794,0.010690134018659592
1774656396647209000,5.073208984375,0.01511890348047018,-0.01695149764418602,-0.029626941308379173
1774656396663999000,5.0899990234375,-0.0032070400193333626,-0.01206457894295454,0.02718348242342472
1774656396680789000,5.1067890625,-0.0025961752980947495,-0.014508038759231567,0.0204639695584774
1774656396697579000,5.1235791015625,0.016340631991624832,-0.016340631991624832,-0.02779434807598591
1774656396714369000,5.140369140625,-0.0007635809597559273,-0.0102319847792387,-0.018631376326084137
1774656396731159000,5.157158935546875,0.009621120058000088,-0.012675444595515728,-0.032070402055978775
1774656396747949000,5.173948974609375,0.0206166859716177,-0.01206457894295454,-0.006414080038666725
1774656396764739000,5.190739013671875,0.012675444595515728,-0.004123337101191282,-0.04367683082818985
1774656396781529000,5.207529052734375,0.01511890348047018,-0.005955931730568409,-0.005192350596189499
1774656396798319000,5.224319091796875,-0.017867794260382652,0.008093958720564842,-0.03390299528837204
1774656396815109000,5.241109130859375,0.004734201822429895,-0.002901607658714056,-0.04734202101826668
1774656396831899100,5.257899169921875,-0.0038179049734026194,0.0013744457392022014,-0.07910698652267456
1774656396848689200,5.274689208984375,-0.023365577682852745,0.010537417605519295,-0.08643736690282822
1774656396865479200,5.291479248046875,0.00045814859913662076,0.007483093533664942,-0.032681263983249664
1774656396882269200,5.308269287109375,-0.030695954337716103,0.02458730712532997,-0.07238747924566269
1774656396899059200,5.32505908203125,-0.02214384824037552,0.017256930470466614,-0.05894844979047775
1774656396915849200,5.34184912109375,-0.02519817277789116,0.019700389355421066,-0.09315688163042068
1774656396932639200,5.35863916015625,-0.04413498193025589,0.02764163166284561,-0.11026109009981155
1774656396949429200,5.37542919921875,-0.020922118797898293,0.01908952370285988,-0.1279761642217636
1774656396966219300,5.39221923828125,-0.020922118797898293,0.016646064817905426,-0.0925460159778595
1774656396983009300,5.40900927734375,-0.02458730712532997,0.026419902220368385,-0.10659590363502502
1774656396999799300,5.42579931640625,-0.022754713892936707,0.019700389355421066,-0.12370011955499649
1774656397016589300,5.44258935546875,-0.03558287397027016,0.011759147047996521,-0.06872228533029556
1774656397033379300,5.45937939453125,-0.012370011769235134,0.0154243353754282,-0.13530655205249786
1774656397050169300,5.47616943359375,-0.01359174121171236,0.007483093533664942,-0.14019346237182617
1774656397066959400,5.49295947265625,-0.005650499369949102,-0.009621120058000088,-0.14508038759231567
1774656397083749400,5.509749267578125,0.009010255336761475,-0.010842849500477314,-0.2257145345211029
1774656397100539400,5.526539306640625,-0.025809036567807198,0.005650499369949102,-0.19089524447917938
1774656397117329400,5.543329345703125,-0.039248060435056686,0.0025961752980947495,-0.026572618633508682
1774656397134119400,5.560119384765625,-0.030085090547800064,-0.001679878099821508,-0.21655155718326569
1774656397150909200,5.5769091796875,0.015729768201708794,-0.02977965772151947,-0.1646280586719513
1774656397167699200,5.59369921875,-0.010537417605519295,-0.008399390615522861,-0.22754712402820587
1774656397184489200,5.6104892578125,-0.04169152304530144,-0.002901607658714056,-0.20372340083122253
1774656397201279500,5.627279541015625,-0.02764163166284561,-0.012675444595515728,-0.0870482325553894
1774656397218069200,5.6440693359375,0.005345067009329796,-0.017562363296747208,-0.2257145345211029
1774656397234859300,5.660859375,0.02000582218170166,-0.03283398225903511,-0.2678641974925995
1774656397251649300,5.677649169921875,-0.029474224895238876,-0.013897174037992954,-0.2562577724456787
1774656397268439300,5.694439208984375,-0.02214384824037552,-0.007177661173045635,-0.18906265497207642
1774656397285229300,5.711229248046875,-0.027030766010284424,-0.009621120058000088,-0.1536324918270111
1774656397302019300,5.728019287109375,0.001679878099821508,-0.021227551624178886,-0.16829325258731842
1774656397318809300,5.744809326171875,-0.0062613640911877155,-0.02367101050913334,-0.2868010103702545
1774656397335599400,5.761599365234375,-0.02764163166284561,-0.01695149764418602,-0.3081812858581543
1774656397352389400,5.778389404296875,-0.039248060435056686,-0.014508038759231567,-0.16646064817905426
1774656397369179400,5.795179443359375,-0.03436114266514778,-0.010842849500477314,-0.27947062253952026
1774656397385969400,5.811969482421875,0.02977965772151947,-0.03894263133406639,-0.2715294063091278
1774656397402759400,5.828759521484375,-0.023976443335413933,-0.01695149764418602,-0.2519817352294922
1774656397419549400,5.845549560546875,-0.06734783947467804,0.0013744457392022014,-0.20799945294857025
1774656397436339500,5.86233935546875,-0.012370011769235134,-0.025503603741526604,-0.2409861534833908
1774656397453129500,5.87912939453125,0.02916879393160343,-0.040775224566459656,-0.2977965772151947
1774656397469919500,5.89591943359375,-0.01847865991294384,-0.00045814859913662076,-0.24037529528141022
1774656397486709500,5.91270947265625,-0.07101303339004517,0.02153298258781433,-0.1389717310667038
1774656397503499500,5.92949951171875,-0.0062613640911877155,-0.004123337101191282,-0.07483093440532684
1774656397520289500,5.94628955078125,-0.0001527161948615685,-0.017562363296747208,-0.05345066636800766
1774656397537079300,5.963079345703125,-0.0025961752980947495,-0.013286309316754341,-0.2611446976661682
1774656397553869600,5.97986962890625,-0.008704823441803455,-0.024892739951610565,-0.1744018942117691
1774656397570659600,5.99665966796875,-0.008093958720564842,-0.018784092739224434,-0.1750127524137497
1774656397587449300,6.013449462890625,0.021838415414094925,-0.034666575491428375,-0.10231985151767731
1774656397604239400,6.0302392578125,0.031612250953912735,-0.027336198836565018,-0.2715294063091278
1774656397621029400,6.047029296875,0.00045814859913662076,-0.017562363296747208,-0.09498947113752365
1774656397637819400,6.0638193359375,-0.033139415085315704,0.009926552884280682,-0.007635809946805239
1774656397654609400,6.080609375,-0.01359174121171236,0.0038179049734026194,-0.016798781231045723
1774656397671399400,6.0973994140625,0.046883873641490936,-0.027336198836565018,-0.17562362551689148
1774656397688189400,6.114189453125,0.009621120058000088,-0.007177661173045635,-0.2202167510986328
1774656397704979500,6.1309794921875,-0.03558287397027016,0.0154243353754282,-0.11759147047996521
1774656397721769500,6.14776953125,0.017562363296747208,-0.002290742937475443,-0.06933315098285675
1774656397738559500,6.1645595703125,0.0334448479115963,-0.010842849500477314,-0.14019346237182617
1774656397755349500,6.181349609375,0.021227551624178886,-0.005955931730568409,-0.13775001466274261
1774656397772139500,6.198139404296875,-0.005039634648710489,0.01359174121171236,-0.0412333719432354
1774656397788929500,6.214929443359375,-0.0038179049734026194,0.02214384824037552,-0.03756818547844887
1774656397805719600,6.231719482421875,0.021838415414094925,0.014202605932950974,0.08032871782779694
1774656397822509600,6.248509521484375,-0.01847865991294384,0.02214384824037552,0.08338304609060287
1774656397839299600,6.265299560546875,0.018173227086663246,0.0038179049734026194,-0.14996729791164398
1774656397856089300,6.28208935546875,0.060933761298656464,-0.013897174037992954,-0.061391908675432205
1774656397872879400,6.29887939453125,-0.04230238497257233,0.04230238497257233,-0.03329212963581085
1774656397889669400,6.31566943359375,-0.04108065739274025,0.04169152304530144,-0.029016077518463135
1774656397906459400,6.33245947265625,0.02611446939408779,0.0062613640911877155,-0.022907428443431854
1774656397923249400,6.34924951171875,0.03405570983886719,0.017256930470466614,0.003359756199643016
1774656397940039400,6.366039306640625,-0.036193739622831345,0.06246092543005943,0.051618073135614395
1774656397956829400,6.382829345703125,-0.045967575162649155,0.04108065739274025,0.04245510324835777
1774656397973619500,6.399619384765625,0.057268574833869934,-0.005345067009329796,-0.04978547990322113
1774656397990409500,6.416409423828125,0.021227551624178886,0.023976443335413933,0.032070402055978775
1774656398007199500,6.433199462890625,-0.06123919412493706,0.06490438431501389,0.0766635313630104
1774656398023989500,6.449989501953125,-0.0038179049734026194,0.029474224895238876,0.08155044913291931
1774656398040779500,6.466779541015625,0.03894263133406639,0.011759147047996521,0.019242240116000175
1774656398057569500,6.483569580078125,-0.008704823441803455,0.042913250625133514,-0.011300998739898205
1774656398074359300,6.500359375,-0.033139415085315704,0.0435241162776947,0.1029307171702385
1774656398091149300,6.5171494140625,0.01695149764418602,0.0154243353754282,0.06505709886550903
1774656398107939300,6.533939208984375,0.031001387163996696,0.01359174121171236,-0.029626941308379173
1774656398124729300,6.550729248046875,-0.007483093533664942,0.028863361105322838,0.028405211865901947
1774656398141519400,6.567519287109375,-0.012980876490473747,0.02764163166284561,0.15546508133411407
1774656398158309400,6.584309326171875,-0.0062613640911877155,0.03802633285522461,0.07116574794054031
1774656398175099400,6.601099365234375,0.02000582218170166,0.02214384824037552,0.1646280586719513
1774656398191889400,6.617889404296875,0.028557928279042244,0.016035201027989388,0.03634645417332649
1774656398208679400,6.634679443359375,0.031001387163996696,0.016646064817905426,0.09865466505289078
1774656398225469400,6.651469482421875,0.004123337101191282,0.030695954337716103,0.17195843160152435
1774656398242259500,6.668259521484375,0.0010690133785828948,0.029474224895238876,0.05528326332569122
1774656398259049200,6.68504931640625,0.09575305134057999,0.011148282326757908,0.2202167510986328
1774656398275839500,6.701839599609375,0.15439607203006744,-0.02672533318400383,-0.10903936624526978
1774656398292629200,6.718629150390625,0.07803797721862793,-0.03711003437638283,0.07910698652267456
1774656398309419300,6.735419189453125,0.018173227086663246,0.0154243353754282,0.0766635313630104
1774656398326209300,6.752209228515625,0.10797034949064255,-0.01695149764418602,-0.0925460159778595
1774656398342999300,6.768999267578125,0.04566214233636856,-0.005955931730568409,0.14630211889743805
1774656398359789300,6.785789306640625,-0.08323032408952713,0.07040216773748398,0.06505709886550903
1774656398376579300,6.802579345703125,-0.05024362727999687,0.07651081681251526,0.08949168771505356
1774656398393369300,6.819369384765625,-0.09728021919727325,0.06734783947467804,0.08093958348035812
1774656398410159400,6.836159423828125,-0.11255183815956116,0.05696314200758934,0.03023780696094036
1774656398426949400,6.852949462890625,-0.1003345400094986,0.05757400393486023,0.05345066636800766
1774656398443739100,6.8697392578125,-0.039858926087617874,0.05513054504990578,0.11514800786972046
1774656398460529200,6.886529052734375,0.051159925758838654,0.030695954337716103,0.11392628401517868
1774656398477319200,6.903319091796875,-0.08323032408952713,0.058795735239982605,0.1078176349401474
1774656398494109200,6.920109130859375,-0.09789107739925385,0.08689551800489426,0.18112140893936157
1774656398510899200,6.936899169921875,0.014508038759231567,0.05635227635502815,0.05894844979047775
1774656398527689200,6.953689208984375,-0.020922118797898293,0.05329795181751251,0.15729768574237823
1774656398544479200,6.970479248046875,-0.10888664424419403,0.08261945843696594,0.2770271897315979
1774656398561269200,6.987269287109375,-0.04169152304530144,0.06673697382211685,0.14080433547496796
1774656398578059300,7.004059326171875,0.006566796451807022,0.033139415085315704,0.1750127524137497
1774656398594849300,7.020849365234375,-0.06673697382211685,0.06246092543005943,0.29901832342147827
1774656398611639000,7.03763916015625,-0.08139773458242416,0.07406735420227051,0.36254823207855225
1774656398628429000,7.054428955078125,0.002901607658714056,0.03497200831770897,0.6001746654510498
1774656398645219000,7.071218994140625,0.010842849500477314,0.023365577682852745,0.7437278628349304
1774656398662009000,7.088009033203125,-0.04718930274248123,0.05146535858511925,0.457843154668808
1774656398678799000,7.104799072265625,-0.030085090547800064,0.042913250625133514,0.27091851830482483
1774656398695589000,7.121589111328125,0.004123337101191282,0.020922118797898293,0.33505934476852417
1774656398712379100,7.138379150390625,-0.029474224895238876,0.03802633285522461,0.27397283911705017
1774656398729169200,7.155169189453125,-0.004428769461810589,0.02519817277789116,0.35643959045410156
1774656398745959200,7.171959228515625,0.027947064489126205,0.0154243353754282,0.37110036611557007
1774656398762749200,7.188749267578125,0.03894263133406639,0.009926552884280682,0.35155269503593445
1774656398779539200,7.205539306640625,0.03222311660647392,0.016035201027989388,0.3906480371952057
1774656398796329200,7.2223291015625,0.013897174037992954,0.02153298258781433,0.4462367296218872
1774656398813119000,7.239118896484375,0.07009673118591309,-0.002290742937475443,0.3454440236091614
1774656398829909000,7.255908935546875,0.09086613357067108,-0.013286309316754341,0.33567020297050476
1774656398846699000,7.272698974609375,0.08170316368341446,-0.003512472379952669,0.3741546869277954
1774656398863489000,7.289489013671875,0.06643154472112656,0.004428769461810589,0.33505934476852417
1774656398880279000,7.306279052734375,0.0694858655333519,-0.006566796451807022,0.3430005609989166
1774656398897069000,7.323069091796875,0.09636391699314117,-0.01695149764418602,0.281914085149765
1774656398913859000,7.339859130859375,0.10430516302585602,-0.022449281066656113,0.2672533392906189
1774656398930649000,7.356649169921875,0.10247256606817245,-0.015729768201708794,0.22999058663845062
1774656398947439000,7.373439208984375,0.0847574844956398,-0.009621120058000088,0.2159406989812851
1774656398964229000,7.39022900390625,0.08048143237829208,-0.01206457894295454,0.20189081132411957
1774656398981019100,7.40701904296875,0.1311832070350647,-0.02977965772151947,0.2055560052394867
1774656398997809200,7.42380908203125,0.12263110280036926,-0.024281874299049377,0.22510367631912231
1774656399014599200,7.44059912109375,0.04932733252644539,0.0019853105768561363,0.3020726442337036
1774656399031389000,7.457388916015625,0.07559451460838318,-0.013286309316754341,0.2464839369058609
1774656399048179000,7.474178955078125,0.11346813291311264,-0.031001387163996696,0.19700388610363007
1774656399064969000,7.490968994140625,0.054214250296354294,-0.00045814859913662076,0.17073670029640198
1774656399081759000,7.507759033203125,0.013897174037992954,0.014813470654189587,0.2000582218170166
1774656399098549000,7.524549072265625,0.002290742937475443,0.011148282326757908,0.2782489061355591
1774656399115339000,7.541339111328125,0.03283398225903511,0.005039634648710489,0.13713914155960083
1774656399132129000,7.55812890625,0.0798705667257309,-0.013897174037992954,0.2110537886619568
1774656399148919000,7.5749189453125,0.013286309316754341,0.0154243353754282,0.20433427393436432
1774656399165709000,7.591708984375,0.01511890348047018,0.0062613640911877155,0.25381430983543396
1774656399182499000,7.6084990234375,0.007177661173045635,-0.006566796451807022,0.2006690800189972
1774656399199289000,7.6252890625,0.06643154472112656,-0.02367101050913334,-0.003970621153712273
1774656399216079000,7.6420791015625,0.1104138121008873,-0.04260781779885292,0.11392628401517868
1774656399232869000,7.658869140625,0.004734201822429895,-0.0010690133785828948,0.019853105768561363
1774656399249659100,7.6756591796875,-0.0019853105768561363,-0.004123337101191282,-0.19761475920677185
1774656399266449200,7.69244921875,0.03283398225903511,-0.01206457894295454,-0.3857611119747162
1774656399283239200,7.7092392578125,0.014508038759231567,-0.003512472379952669,-0.43340855836868286
1774656399300029000,7.72602880859375,0.025503603741526604,-0.012675444595515728,-0.3552178740501404
1774656399316819000,7.74281884765625,-0.03252854943275452,0.005039634648710489,-0.33689191937446594
1774656399333609000,7.75960888671875,-0.020922118797898293,0.0013744457392022014,-0.3173442482948303
1774656399350399000,7.77639892578125,-0.0435241162776947,0.012370011769235134,-0.18906265497207642
1774656399367189000,7.79318896484375,-0.04046979174017906,0.0019853105768561363,0.05222893878817558
1774656399383979000,7.80997900390625,-0.005650499369949102,-0.013897174037992954,-0.022907428443431854
1774656399400769000,7.82676904296875,-0.017867794260382652,-0.002901607658714056,-0.11636973917484283
1774656399417559000,7.84355908203125,-0.030085090547800064,0.0019853105768561363,-0.0821613147854805
1774656399434349000,7.86034912109375,-0.05513054504990578,0.0019853105768561363,-0.04367683082818985
1774656399451139000,7.87713916015625,-0.030695954337716103,-0.013897174037992954,-0.035735588520765305
1774656399467929000,7.89392919921875,-0.009926552884280682,-0.015729768201708794,-0.13041962683200836
1774656399484719000,7.910718994140625,-0.019700389355421066,-0.005955931730568409,-0.15790854394435883
1774656399501509000,7.927509033203125,-0.025809036567807198,-0.005345067009329796,-0.16340632736682892
1774656399518299000,7.944298828125,-0.019700389355421066,-0.010842849500477314,-0.1591302752494812
1774656399535089000,7.9610888671875,-0.012370011769235134,-0.010842849500477314,-0.2049451321363449
1774656399551879000,7.97787890625,0.003512472379952669,-0.009010255336761475,-0.4718930423259735
1774656399568669000,7.9946689453125,-0.016035201027989388,0.005039634648710489,-0.5855138897895813
1774656399585459000,8.011458984375,-0.08750637620687485,0.008093958720564842,-0.3197877109050751
1774656399602249000,8.0282490234375,0.053603384643793106,-0.051159925758838654,-0.3124573230743408
1774656399619039000,8.0450390625,0.05849030241370201,-0.02672533318400383,-0.7608320713043213
1774656399635829000,8.0618291015625,-0.07834340631961823,0.04230238497257233,-0.9789108037948608
1774656399652619000,8.078618896484375,-0.06673697382211685,0.0025961752980947495,-0.3430005609989166
1774656399669408800,8.09540869140625,0.04993819445371628,-0.04810560122132301,-0.07055488228797913
1774656399686198800,8.11219873046875,0.07742711156606674,-0.03283398225903511,-0.4615083336830139
1774656399702988800,8.12898876953125,-0.03741546720266342,0.01908952370285988,-0.508544921875
1774656399719778800,8.14577880859375,-0.06856957077980042,0.012980876490473747,-0.168904110789299
1774656399736568800,8.16256884765625,0.012675444595515728,-0.018784092739224434,-0.1951712965965271
1774656399753358800,8.17935888671875,0.04566214233636856,-0.02672533318400383,-0.42852163314819336
1774656399770148900,8.19614892578125,0.031001387163996696,-0.016340631991624832,-0.39736753702163696
1774656399786939000,8.21293896484375,-0.05757400393486023,0.016035201027989388,-0.38759371638298035
1774656399803729000,8.22972900390625,-0.009926552884280682,-0.00045814859913662076,-0.3436114490032196
1774656399820519000,8.246518798828125,0.03894263133406639,-0.02977965772151947,-0.3533852696418762
1774656399837309000,8.263308837890625,0.010842849500477314,-0.008399390615522861,-0.45417797565460205
1774656399854099000,8.280098876953126,-0.0386371985077858,0.0154243353754282,-0.3753764033317566
1774656399870889000,8.296888916015625,-0.006872228812426329,-0.002901607658714056,-0.3851502537727356
1774656399887678700,8.3136787109375,0.02916879393160343,-0.012675444595515728,-0.3698786199092865
1774656399904468700,8.33046875,-0.033139415085315704,0.016035201027989388,-0.4657844007015228
1774656399921258800,8.3472587890625,0.01511890348047018,-0.013897174037992954,-0.3943132162094116
1774656399938048800,8.364048828125,-0.0007635809597559273,0.0062613640911877155,-0.4101957082748413
1774656399954838800,8.3808388671875,-0.07528908550739288,0.02825249545276165,-0.39370235800743103
1774656399971628800,8.39762890625,0.011453714221715927,-0.013286309316754341,-0.45478883385658264
1774656399988418800,8.414418701171876,0.007788525894284248,-0.002901607658714056,-0.45051276683807373
1774656400005208800,8.431208740234375,-0.05757400393486023,0.03252854943275452,-0.3607156574726105
1774656400021998800,8.447998779296874,-0.05085449293255806,0.030085090547800064,-0.40714138746261597
1774656400038788600,8.46478857421875,0.013897174037992954,-0.005345067009329796,-0.40836310386657715
1774656400055578600,8.48157861328125,-0.02764163166284561,0.0154243353754282,-0.3637699782848358
1774656400072368600,8.49836865234375,-0.07589995115995407,0.04535670951008797,-0.32528549432754517
1774656400089158700,8.51515869140625,-0.02764163166284561,0.014202605932950974,-0.26542073488235474
1774656400105948700,8.53194873046875,-0.009315688163042068,0.009315688163042068,-0.43829548358917236
1774656400122738700,8.54873876953125,-0.04474584385752678,0.027030766010284424,-0.3992001414299011
1774656400139528700,8.56552880859375,-0.04230238497257233,0.027030766010284424,-0.23243404924869537
1774656400156318700,8.582318603515626,-0.04413498193025589,0.03558287397027016,-0.2977965772151947
1774656400173108700,8.599108642578125,-0.01908952370285988,0.017867794260382652,-0.34666576981544495
1774656400189898800,8.615898681640624,-0.006872228812426329,0.0154243353754282,-0.34788748621940613
1774656400206688800,8.632688720703126,-0.04413498193025589,0.03741546720266342,-0.17318016290664673
1774656400223478800,8.649478759765625,-0.052687086164951324,0.039858926087617874,-0.17256930470466614
1774656400240268800,8.666268798828124,0.03527744114398956,0.0007635809597559273,-0.09315688163042068
1774656400257058600,8.68305859375,-0.0019853105768561363,0.030085090547800064,-0.15241076052188873
1774656400273848600,8.6998486328125,-0.06551524996757507,0.06246092543005943,-0.1444695144891739
1774656400290638600,8.716638671875,-0.0007635809597559273,0.02764163166284561,-0.13713914155960083
1774656400307428600,8.7334287109375,0.0383317656815052,0.019700389355421066,-0.13469567894935608
1774656400324218600,8.750218505859374,-0.03558287397027016,0.06307178735733032,-0.14752385020256042
1774656400341008600,8.767008544921875,-0.03741546720266342,0.0539088174700737,-0.13530655205249786
1774656400357798700,8.783798583984375,0.02977965772151947,0.009926552884280682,-0.14630211889743805
1774656400374588700,8.800588623046876,0.02916879393160343,0.02214384824037552,-0.11331541836261749
1774656400391378700,8.817378662109375,-0.04657844081521034,0.06673697382211685,-0.010690134018659592
1774656400408168700,8.834168701171874,-0.02214384824037552,0.04841103404760361,0.1328630894422531
1774656400424958700,8.850958740234375,0.031001387163996696,0.017256930470466614,0.4828886091709137
1774656400441748700,8.867748779296875,0.02000582218170166,0.012980876490473747,0.6209440231323242
1774656400458538800,8.884538818359376,0.004123337101191282,0.028863361105322838,-0.007024944759905338
1774656400475328500,8.90132861328125,0.007788525894284248,0.033139415085315704,-0.1585194170475006
1774656400492118500,8.918118408203124,-0.0007635809597559273,0.020311253145337105,0.08032871782779694
1774656400508908500,8.934908447265625,0.03955349326133728,-0.006566796451807022,0.03329212963581085
1774656400525698600,8.951698486328125,0.037720900028944016,0.008093958720564842,-0.08826996386051178
1774656400542488600,8.968488525390624,0.024892739951610565,0.010537417605519295,-0.012522728182375431
1774656400559278600,8.985278564453125,0.07131846249103546,-0.006566796451807022,0.16157373785972595
1774656400576068600,9.002068603515625,0.23564109206199646,-0.07254019379615784,0.03145953640341759
1774656400592858600,9.018858642578126,0.16905683279037476,-0.09086613357067108,-0.08582650125026703
1774656400609648600,9.035648681640625,-0.004428769461810589,0.03130681812763214,-0.05955931544303894
1774656400626438700,9.052438720703124,0.14462223649024963,-0.04505127668380737,-0.007635809946805239
1774656400643228700,9.069228759765625,0.14278964698314667,-0.0639880821108818,0.15546508133411407
1774656400660018700,9.086018798828125,-0.07895427197217941,0.055741410702466965,0.04428769648075104
1774656400676808700,9.10280859375,0.014508038759231567,0.030085090547800064,0.003970621153712273
1774656400693598500,9.119598388671875,-0.0038179049734026194,0.01847865991294384,0.1487455666065216
1774656400710388500,9.136388427734374,-0.029474224895238876,0.023365577682852745,0.03145953640341759
1774656400727178500,9.153178466796875,-0.023976443335413933,0.01847865991294384,0.1695149689912796
1774656400743968500,9.169968505859375,-0.04108065739274025,0.006872228812426329,0.37843072414398193
1774656400760758500,9.186758544921876,0.11591159552335739,-0.02611446939408779,0.07849612087011337
1774656400777548500,9.203548583984375,0.08231402933597565,-0.015729768201708794,-0.003359756199643016
1774656400794338600,9.220338623046874,-0.05329795181751251,0.04108065739274025,0.4260781705379486
1774656400811128600,9.237128662109376,0.027947064489126205,-0.002901607658714056,0.9960150122642517
1774656400827918600,9.253918701171875,0.06154462695121765,-0.027947064489126205,0.8139773011207581
1774656400844708400,9.270708251953126,-0.008704823441803455,0.025809036567807198,-0.07299833744764328
1774656400861498600,9.28749853515625,-0.03375028073787689,0.027030766010284424,0.23304490745067596
1774656400878288600,9.30428857421875,-0.022754713892936707,0.0154243353754282,0.37232208251953125
1774656400895078400,9.321078369140626,-0.005650499369949102,0.009315688163042068,-0.06994401663541794
1774656400911868400,9.337868408203125,-0.03252854943275452,0.020922118797898293,0.15729768574237823
1774656400928658400,9.354658447265624,-0.06673697382211685,0.039248060435056686,0.24526220560073853
1774656400945448400,9.371448486328125,-0.019700389355421066,0.01908952370285988,0.168904110789299
1774656400962238500,9.388238525390625,-0.06307178735733032,0.028863361105322838,0.3802633285522461
1774656400979028500,9.405028564453126,-0.07223475724458694,0.04474584385752678,0.32100942730903625
1774656400995818500,9.421818603515625,-0.052076224237680435,0.030085090547800064,0.23182319104671478
1774656401012608500,9.4386083984375,-0.07101303339004517,0.023976443335413933,0.24465134739875793
1774656401029398500,9.4553984375,-0.05696314200758934,0.020311253145337105,0.33750277757644653
1774656401046188500,9.4721884765625,-0.09850194305181503,0.04657844081521034,0.12492185086011887
1774656401062978300,9.488978271484376,-0.03130681812763214,0.006872228812426329,0.1805105358362198
1774656401079768300,9.505768310546875,-0.03375028073787689,0.008093958720564842,0.21655155718326569
1774656401096558300,9.522558349609374,-0.09178243577480316,0.03558287397027016,0.1438586562871933
1774656401113348400,9.539348388671876,-0.03436114266514778,0.007483093533664942,0.18661919236183167
1774656401130138400,9.556138427734375,-0.030085090547800064,-0.005345067009329796,0.15302163362503052
1774656401146928400,9.572928466796874,-0.01908952370285988,-0.0102319847792387,0.13041962683200836
1774656401163718400,9.589718505859375,-0.005039634648710489,-0.007788525894284248,0.19333870708942413
1774656401180508400,9.60650830078125,-0.03375028073787689,0.0013744457392022014,0.2208276242017746
1774656401197298400,9.62329833984375,-0.005039634648710489,-0.014508038759231567,0.21838416159152985
1774656401214088200,9.640088134765625,-0.011759147047996521,-0.01511890348047018,0.13469567894935608
1774656401230878200,9.656878173828124,0.03711003437638283,-0.03955349326133728,0.08338304609060287
1774656401247668200,9.673668212890625,0.018784092739224434,-0.03283398225903511,0.16768237948417664
1774656401264458200,9.690458251953125,-0.039248060435056686,-0.005345067009329796,0.08093958348035812
1774656401281248300,9.707248291015626,0.03283398225903511,-0.040775224566459656,0.03756818547844887
1774656401298038300,9.724038330078125,0.05543597787618637,-0.043829549103975296,0.05406153202056885
1774656401314828300,9.740828369140624,-0.04841103404760361,0.005039634648710489,0.07055488228797913
1774656401331618300,9.757618408203125,-0.020311253145337105,-0.014508038759231567,0.05222893878817558
1774656401348408300,9.774408203125,0.0792597085237503,-0.06887500733137131,0.09010255336761475
1774656401365198300,9.7911982421875,0.03283398225903511,-0.0383317656815052,-0.005803215317428112
1774656401381988000,9.807988037109375,-0.05451968312263489,-0.005955931730568409,0.08521563559770584
1774656401398778000,9.824778076171874,0.018173227086663246,-0.04566214233636856,0.1127045527100563
1774656401415568100,9.841568115234375,0.06826414167881012,-0.06582067906856537,0.007024944759905338
1774656401432358100,9.858358154296875,0.010842849500477314,-0.043829549103975296,-0.019242240116000175
1774656401449148200,9.875148193359376,-0.0013744457392022014,-0.044440411031246185,0.05833758786320686
1774656401465938200,9.891938232421875,0.041386090219020844,-0.060322895646095276,0.03023780696094036
1774656401482728000,9.90872802734375,0.025503603741526604,-0.056657709181308746,0.022907428443431854
1774656401499518000,9.92551806640625,0.013897174037992954,-0.05482511222362518,0.03329212963581085
1774656401516308000,9.942307861328125,0.06276635825634003,-0.0743727833032608,-0.010079269297420979
1774656401533098000,9.959097900390624,0.04932733252644539,-0.06887500733137131,0.04245510324835777
1774656401549888000,9.975887939453125,0.009621120058000088,-0.04993819445371628,0.035735588520765305
1774656401566678000,9.992677978515625,0.046883873641490936,-0.0639880821108818,0.019853105768561363
1774656401583468000,10.009468017578126,0.0487164668738842,-0.06704241037368774,0.048563748598098755
1774656401600258000,10.026258056640625,0.013897174037992954,-0.04566214233636856,-0.010079269297420979
1774656401617048000,10.043048095703124,0.0383317656815052,-0.0487164668738842,0.011911863461136818
1774656401633838000,10.059838134765625,0.04566214233636856,-0.051159925758838654,0.06872228533029556
1774656401650627800,10.0766279296875,-0.005039634648710489,-0.028557928279042244,0.007024944759905338
1774656401667417900,10.09341796875,0.003512472379952669,-0.02611446939408779,0.060781046748161316
1774656401684207900,10.110207763671875,0.02977965772151947,-0.03955349326133728,0.0717766135931015
1774656401700998000,10.126997802734374,0.03405570983886719,-0.044440411031246185,0.003359756199643016
1774656401717788000,10.143787841796875,0.0102319847792387,-0.027947064489126205,0.04978547990322113
1774656401734578000,10.160577880859375,-0.012370011769235134,-0.01206457894295454,0.10109812021255493
1774656401751367700,10.17736767578125,-0.008704823441803455,-0.01695149764418602,0.06505709886550903
1774656401768157700,10.19415771484375,0.022449281066656113,-0.02977965772151947,0.12553271651268005
1774656401784947700,10.21094775390625,0.008399390615522861,-0.018173227086663246,0.05345066636800766
1774656401801737700,10.22773779296875,0.012675444595515728,-0.01695149764418602,-0.0027488914784044027
1774656401818527700,10.24452783203125,0.0206166859716177,-0.02672533318400383,0.08399390429258347
1774656401835317800,10.26131787109375,0.04321868345141411,-0.024281874299049377,-0.011911863461136818
1774656401852107800,10.278107666015625,0.001679878099821508,0.0062613640911877155,0.06566796451807022
1774656401868897500,10.2948974609375,-0.06123919412493706,0.019700389355421066,0.08521563559770584
1774656401885687600,10.3116875,0.021838415414094925,-0.02672533318400383,-0.08643736690282822
1774656401902477600,10.3284775390625,0.047494735568761826,-0.01511890348047018,-0.19150610268115997
1774656401919267600,10.345267578125,-0.06368265300989151,0.05696314200758934,-0.4266890585422516
1774656401936057600,10.3620576171875,-0.05513054504990578,0.045967575162649155,-0.08582650125026703
1774656401952847600,10.37884765625,-0.03130681812763214,0.02214384824037552,0.21838416159152985
1774656401969637400,10.395637451171876,-0.05757400393486023,0.049632761627435684,-0.19211697578430176
1774656401986427400,10.412427490234375,-0.0001527161948615685,0.019700389355421066,0.029016077518463135
1774656402003217400,10.429217529296874,-0.012980876490473747,0.03375028073787689,-0.012522728182375431
1774656402020007400,10.44600732421875,-0.08017600327730179,0.06551524996757507,-0.09621120244264603
1774656402036797400,10.46279736328125,-0.07162389904260635,0.05635227635502815,0.06383536756038666
1774656402053587500,10.47958740234375,-0.049632761627435684,0.058795735239982605,-0.15057817101478577
1774656402070377500,10.49637744140625,-0.0154243353754282,0.03741546720266342,-0.08399390429258347
1774656402087167200,10.513167236328124,-0.016035201027989388,0.04108065739274025,-0.11575887352228165
1774656402103957200,10.529957275390625,-0.058795735239982605,0.06734783947467804,-0.1438586562871933
1774656402120747300,10.546747314453125,-0.05024362727999687,0.06246092543005943,-0.09865466505289078
1774656402137537300,10.563537353515626,-0.04230238497257233,0.05146535858511925,-0.11453714966773987
1774656402154327300,10.580327392578125,-0.04780016839504242,0.05818486958742142,-0.1340848207473755
1774656402171117300,10.597117431640624,-0.03252854943275452,0.05757400393486023,-0.18234314024448395
1774656402187907000,10.613906982421875,-0.0062613640911877155,0.04230238497257233,-0.16218459606170654
1774656402204697000,10.630697021484375,0.016340631991624832,0.033139415085315704,-0.1737910360097885
1774656402221487000,10.647487060546876,-0.012370011769235134,0.049021899700164795,-0.20616686344146729
1774656402238277000,10.664277099609375,-0.049021899700164795,0.07162389904260635,-0.28557929396629333
1774656402255067100,10.681067138671875,-0.03252854943275452,0.05757400393486023,-0.22693626582622528
1774656402271857200,10.697857177734376,-0.012370011769235134,0.04474584385752678,-0.2202167510986328
1774656402288647000,10.71464697265625,0.017562363296747208,0.04230238497257233,-0.22693626582622528
1774656402305437000,10.73143701171875,-0.039248060435056686,0.06368265300989151,-0.14630211889743805
1774656402322227000,10.74822705078125,-0.07284562289714813,0.06490438431501389,-0.1487455666065216
1774656402339017000,10.765016845703125,0.027336198836565018,0.008704823441803455,-0.2367101013660431
1774656402355807000,10.781806884765626,0.04932733252644539,0.007483093533664942,-0.2666424810886383
1774656402372596700,10.7985966796875,-0.08323032408952713,0.06307178735733032,-0.189673513174057
1774656402389386800,10.81538671875,-0.08628465235233307,0.04718930274248123,-0.21227550506591797
1774656402406176800,10.8321767578125,0.06643154472112656,-0.024892739951610565,-0.3546070158481598
1774656402422966800,10.848966796875,0.02672533318400383,-0.005345067009329796,-0.2764163017272949
1774656402439756800,10.8657568359375,-0.13393209874629974,0.06307178735733032,-0.42363473773002625
1774656402456546800,10.882546875,-0.009926552884280682,-0.001679878099821508,-0.36132651567459106
1774656402473336800,10.8993369140625,0.08414662629365921,-0.051159925758838654,-0.210442915558815
1774656402490126600,10.916126708984375,-0.052076224237680435,0.02458730712532997,-0.39675667881965637
1774656402506916600,10.93291650390625,-0.0850629210472107,0.022754713892936707,-0.231212317943573
1774656402523706600,10.94970654296875,0.03283398225903511,-0.03283398225903511,-0.29901832342147827
1774656402540496600,10.96649658203125,0.041386090219020844,-0.03711003437638283,-0.39858928322792053
1774656402557286700,10.98328662109375,-0.04046979174017906,0.005039634648710489,-0.2922987937927246
1774656402574076400,11.000076416015625,-0.04841103404760361,0.012370011769235134,-0.3698786199092865
1774656402590866400,11.016866455078125,0.014508038759231567,-0.02977965772151947,-0.36254823207855225
1774656402607656400,11.033656494140626,0.040775224566459656,-0.034666575491428375,-0.31184646487236023
1774656402624446500,11.050446533203125,-0.02153298258781433,-0.0010690133785828948,-0.38698282837867737
1774656402641236500,11.067236572265625,0.003512472379952669,-0.034666575491428375,-0.3442223072052002
1774656402658026200,11.084026123046876,0.056657709181308746,-0.054214250296354294,-0.34788748621940613
1774656402674816300,11.100816162109375,0.015729768201708794,-0.022449281066656113,-0.3344484567642212
1774656402691606300,11.117606201171874,-0.006872228812426329,-0.024281874299049377,-0.31062474846839905
1774656402708396300,11.134396240234375,0.04016435891389847,-0.05299251899123192,-0.23976442217826843
1774656402725186300,11.151186279296875,0.0383317656815052,-0.03894263133406639,-0.19822561740875244
1774656402741976000,11.16797607421875,-0.0001527161948615685,-0.014508038759231567,-0.0565049909055233
1774656402758766000,11.18476611328125,0.021227551624178886,-0.04199695214629173,0.3546070158481598
1774656402775556000,11.20155615234375,0.06765327602624893,-0.0798705667257309,0.37843072414398193
1774656402792346000,11.21834619140625,0.04627300798892975,-0.031001387163996696,-0.39370235800743103
1774656402809136000,11.23513623046875,0.005955931730568409,-0.014508038759231567,-0.33750277757644653
1774656402825926100,11.251926025390626,0.02306014485657215,-0.037720900028944016,-0.04245510324835777
1774656402842716000,11.2687158203125,0.06337722390890121,-0.043829549103975296,-0.1737910360097885
1774656402859506000,11.285505859375,0.025503603741526604,-0.010842849500477314,-0.15546508133411407
1774656402876296000,11.3022958984375,0.01695149764418602,-0.013286309316754341,-0.05039634555578232
1774656402893085700,11.319085693359375,0.03527744114398956,-0.034666575491428375,-0.07422006875276566
1774656402909875700,11.335875732421876,0.04627300798892975,-0.02672533318400383,-0.06017018109560013
1774656402926665700,11.352665771484375,0.016340631991624832,-0.006566796451807022,0.10048725455999374
1774656402943455700,11.369455810546874,-0.023365577682852745,-0.007177661173045635,0.10659590363502502
1774656402960245800,11.386245849609375,0.04993819445371628,-0.034666575491428375,-0.16707152128219604
1774656402977035800,11.403035888671875,0.056657709181308746,-0.010842849500477314,-0.13225223124027252
1774656402993825500,11.419825439453126,-0.049632761627435684,0.03252854943275452,0.1536324918270111
1774656403010615600,11.436615478515625,0.002290742937475443,0.0001527161948615685,0.14141519367694855
1774656403027405600,11.453405517578124,0.07681624591350555,-0.03222311660647392,-0.032681263983249664
1774656403044195600,11.470195556640626,0.0010690133785828948,0.02519817277789116,-0.051618073135614395
1774656403060985300,11.4869853515625,-0.02825249545276165,0.039858926087617874,0.15118902921676636
1774656403077775400,11.503775390625,0.04016435891389847,-0.013286309316754341,0.20372340083122253
1774656403094565400,11.5205654296875,0.064598947763443,-0.004734201822429895,-0.09193515032529831
1774656403111355400,11.53735546875,-0.012370011769235134,0.04230238497257233,0.04428769648075104
1774656403128145400,11.5541455078125,-0.027030766010284424,0.05513054504990578,0.18112140893936157
1774656403144935200,11.57093505859375,0.02916879393160343,0.009926552884280682,0.3026835024356842
1774656403161725200,11.58772509765625,0.04016435891389847,0.016035201027989388,0.1792888194322586
1774656403178515200,11.60451513671875,0.003512472379952669,0.04657844081521034,0.07360920310020447
1774656403195305200,11.62130517578125,-0.011759147047996521,0.03375028073787689,0.189673513174057
1774656403212095000,11.638094970703126,0.02306014485657215,0.017256930470466614,0.038789913058280945
1774656403228885000,11.654885009765625,0.0487164668738842,0.020311253145337105,0.13591741025447845
1774656403245675000,11.671675048828124,0.09453132748603821,0.02153298258781433,0.3607156574726105
1774656403262465000,11.688465087890625,0.17883066833019257,-0.03711003437638283,-0.04550942778587341
1774656403279255000,11.705255126953125,0.08353576064109802,-0.0206166859716177,0.1285870373249054
1774656403296044800,11.722044921875,0.04016435891389847,0.0435241162776947,-0.008246674202382565
1774656403312834800,11.738834716796875,0.07070759683847427,0.0007635809597559273,-0.03451386094093323
1774656403329624800,11.755624755859374,0.024281874299049377,0.01847865991294384,0.1334739476442337
1774656403346414800,11.772414794921875,0.001679878099821508,0.05451968312263489,0.032681263983249664
1774656403363204600,11.78920458984375,-0.04657844081521034,0.08078686892986298,0.041844237595796585
1774656403379994600,11.80599462890625,-0.05757400393486023,0.07406735420227051,0.14813470840454102
1774656403396784600,11.82278466796875,-0.03741546720266342,0.05085449293255806,0.22449280321598053
1774656403413574700,11.83957470703125,-0.05696314200758934,0.049632761627435684,0.23976442217826843
1774656403430364400,11.856364501953125,0.03527744114398956,0.03191768378019333,0.25503605604171753
1774656403447154400,11.873154541015625,0.0743727833032608,0.020922118797898293,0.17195843160152435
1774656403463944400,11.8899443359375,-0.02825249545276165,0.045967575162649155,0.04001164436340332
1774656403480734500,11.906734375,-0.006872228812426329,0.049021899700164795,0.2935205399990082
1774656403497524200,11.923524169921874,0.050549060106277466,0.02519817277789116,0.29474225640296936
1774656403514314200,11.940314208984375,0.0102319847792387,0.03191768378019333,0.3191768527030945
1774656403531104300,11.957104248046875,-0.036804601550102234,0.05757400393486023,0.2880227565765381
1774656403547894300,11.973894287109376,-0.007483093533664942,0.04108065739274025,0.24709481000900269
1774656403564684000,11.99068408203125,0.04810560122132301,0.011759147047996521,0.33628106117248535
1774656403581474000,12.00747412109375,-0.0062613640911877155,0.036804601550102234,0.4816668927669525
1774656403598264000,12.02426416015625,-0.055741410702466965,0.05513054504990578,0.5061014890670776
1774656403615054000,12.04105419921875,0.002290742937475443,0.025809036567807198,0.323452889919281
1774656403631843800,12.05784375,0.007788525894284248,0.022754713892936707,0.1798996776342392
1774656403648633900,12.0746337890625,-0.02764163166284561,0.03375028073787689,0.406530499458313
1774656403665424000,12.091423828125,-0.02519817277789116,0.036804601550102234,0.33750277757644653
1774656403682214000,12.1082138671875,0.009010255336761475,0.009926552884280682,0.32528549432754517
1774656403699003600,12.125003662109375,0.002290742937475443,0.008704823441803455,0.30512696504592896
1774656403715793700,12.141793701171874,-0.02764163166284561,0.020922118797898293,0.28985533118247986
1774656403732583700,12.158583740234375,-0.023976443335413933,0.0154243353754282,0.2715294063091278
1774656403749373700,12.175373779296875,0.0206166859716177,-0.011453714221715927,0.34666576981544495
1774656403766163500,12.19216357421875,0.004734201822429895,0.0001527161948615685,0.29962918162345886
1774656403782953500,12.208953369140625,-0.014813470654189587,0.004428769461810589,0.3191768527030945
1774656403799743500,12.225743408203124,0.028557928279042244,-0.022449281066656113,0.36743515729904175
1774656403816533500,12.242533447265625,0.024892739951610565,-0.018784092739224434,0.2831358313560486
1774656403833323300,12.2593232421875,0.013286309316754341,-0.018784092739224434,0.3087921440601349
1774656403850113300,12.27611328125,0.02367101050913334,-0.027336198836565018,0.30573782324790955
1774656403866903300,12.2929033203125,0.018173227086663246,-0.02611446939408779,0.24281874299049377
1774656403883693300,12.309693359375,0.03527744114398956,-0.03527744114398956,0.3136790692806244
1774656403900483000,12.326483154296875,0.05177079141139984,-0.04016435891389847,0.2660316228866577
1774656403917273000,12.343273193359375,0.04932733252644539,-0.03649916872382164,0.26358816027641296
1774656403934063000,12.36006298828125,0.022449281066656113,-0.025503603741526604,0.3399462401866913
1774656403950853000,12.37685302734375,0.057268574833869934,-0.04260781779885292,0.22754712402820587
1774656403967643000,12.393642822265624,0.11835505068302155,-0.07192932814359665,0.27519458532333374
1774656403984433000,12.410432861328125,0.05787943676114082,-0.03527744114398956,0.2611446976661682
1774656404001223000,12.427222900390625,0.02672533318400383,-0.021838415414094925,0.25442516803741455
1774656404018012700,12.4440126953125,0.09880737960338593,-0.0591011680662632,0.2910770773887634
1774656404034802700,12.460802734375,0.1104138121008873,-0.053603384643793106,0.22693626582622528
1774656404051592700,12.4775927734375,0.07192932814359665,-0.0334448479115963,0.2415970265865326
1774656404068382700,12.4943828125,0.0951421856880188,-0.041386090219020844,0.28069236874580383
1774656404085172500,12.51117236328125,0.12018764764070511,-0.044440411031246185,0.2788597643375397
1774656404101962500,12.52796240234375,0.09392046183347702,-0.02672533318400383,0.28985533118247986
1774656404118752500,12.54475244140625,0.08353576064109802,-0.021838415414094925,0.33139413595199585
1774656404135542500,12.56154248046875,0.04932733252644539,-0.010842849500477314,0.2721402645111084
1774656404152332300,12.578332275390625,0.050549060106277466,-0.01206457894295454,0.17134757339954376
1774656404169122300,12.595122314453125,0.10308343172073364,-0.03222311660647392,0.189673513174057
1774656404185912300,12.611912353515624,0.0902552679181099,-0.02672533318400383,0.16096286475658417
1774656404202702000,12.6287021484375,0.0591011680662632,-0.002901607658714056,-0.018631376326084137
1774656404219492000,12.6454921875,0.0383317656815052,0.0025961752980947495,-0.032070402055978775
1774656404236282000,12.6622822265625,0.022449281066656113,-0.007177661173045635,0.008857538923621178
1774656404253072100,12.679072021484375,0.05543597787618637,-0.013286309316754341,-0.2770271897315979
1774656404269862000,12.69586181640625,0.0102319847792387,0.020311253145337105,-0.49144071340560913
1774656404286652000,12.71265185546875,-0.06734783947467804,0.045967575162649155,-0.41263917088508606
1774656404303442000,12.72944189453125,-0.02458730712532997,0.012370011769235134,-0.010079269297420979
1774656404320232000,12.74623193359375,-0.014813470654189587,0.006872228812426329,0.2000582218170166
1774656404337021700,12.763021728515625,-0.06001746281981468,0.03802633285522461,0.021685699000954628
1774656404353811700,12.779811767578124,-0.039248060435056686,0.016646064817905426,0.11881320178508759
1774656404370601700,12.796601806640625,-0.06246092543005943,0.022754713892936707,0.0717766135931015
1774656404387391500,12.8133916015625,-0.07651081681251526,0.030085090547800064,0.029016077518463135
1774656404404181500,12.830181396484376,-0.06368265300989151,0.02153298258781433,0.010079269297420979
1774656404420971500,12.846971435546875,-0.05940660089254379,0.012980876490473747,0.04245510324835777
1774656404437761300,12.86376123046875,-0.06551524996757507,0.023365577682852745,0.04550942778587341
1774656404454551300,12.88055126953125,-0.09117157012224197,0.03558287397027016,0.007635809946805239
1774656404471341300,12.89734130859375,-0.07773254066705704,0.008093958720564842,-0.005192350596189499
1774656404488131300,12.91413134765625,-0.02519817277789116,-0.012675444595515728,-0.07055488228797913
1774656404504921000,12.930921142578125,-0.025809036567807198,-0.002901607658714056,-0.15668681263923645
1774656404521711000,12.947711181640624,-0.09239330142736435,0.02519817277789116,-0.5048797130584717
1774656404538501000,12.964501220703125,-0.10888664424419403,0.02214384824037552,-0.4883863925933838
1774656404555291100,12.981291015625,-0.04657844081521034,-0.017562363296747208,-0.4663952589035034
1774656404572081000,12.998080810546876,-0.023365577682852745,-0.015729768201708794,-0.7040216326713562
1774656404588871000,13.014870849609375,-0.05451968312263489,0.011148282326757908,-0.8750637769699097
1774656404605661000,13.031660888671874,-0.10094540566205978,0.02764163166284561,-0.3814850449562073
1774656404622450700,13.04845068359375,-0.09605848789215088,-0.018173227086663246,0.3228420317173004
1774656404639240700,13.06524072265625,-0.009315688163042068,-0.02611446939408779,-0.27519458532333374
1774656404656030700,13.08203076171875,0.03588830679655075,-0.04260781779885292,-0.15790854394435883
1774656404672820700,13.09882080078125,-0.1259908676147461,0.014202605932950974,-0.013744457624852657
1774656404689610500,13.115610595703124,-0.0948367565870285,-0.010842849500477314,-0.2507599890232086
1774656404706400500,13.132400390625,0.044440411031246185,-0.06582067906856537,-0.1487455666065216
1774656404723190500,13.1491904296875,-0.03497200831770897,-0.018173227086663246,-0.22204934060573578
1774656404739980300,13.165980224609376,-0.1253799945116043,0.0001527161948615685,-0.22510367631912231
1774656404756770300,13.182770263671875,-0.05329795181751251,-0.040775224566459656,-0.2415970265865326
1774656404773560300,13.199560302734374,0.07742711156606674,-0.0798705667257309,-0.27397283911705017
1774656404790350000,13.21635009765625,-0.07406735420227051,-0.007788525894284248,-0.2513708472251892
1774656404807140000,13.23314013671875,-0.18035782873630524,0.027030766010284424,-0.06261363625526428
1774656404823930000,13.24993017578125,-0.0019853105768561363,-0.05543597787618637,-0.2776380479335785
1774656404840720100,13.26672021484375,0.056657709181308746,-0.07559451460838318,-0.23976442217826843
1774656404857510000,13.283510009765624,-0.15836669504642487,0.02214384824037552,-0.19944734871387482
1774656404874300000,13.3002998046875,-0.13209950923919678,0.011759147047996521,-0.231212317943573
1774656404891090000,13.31708984375,0.022449281066656113,-0.06826414167881012,-0.18295399844646454
1774656404907879700,13.333879638671876,-0.023976443335413933,-0.04016435891389847,-0.314289927482605
1774656404924669700,13.350669677734375,-0.12721258401870728,0.0032070400193333626,-0.20677772164344788
1774656404941459700,13.367459716796875,-0.07834340631961823,-0.014508038759231567,-0.27091851830482483
1774656404958249700,13.384249755859376,0.011453714221715927,-0.05299251899123192,-0.17623448371887207
1774656404975039500,13.40103955078125,-0.11438442766666412,0.008704823441803455,-0.21410810947418213
1774656404991829500,13.41782958984375,-0.10277800261974335,0.0019853105768561363,-0.28924447298049927
1774656405008619500,13.43461962890625,0.021838415414094925,-0.0591011680662632,-0.20861032605171204
1774656405025409300,13.4514091796875,-0.061850059777498245,-0.007788525894284248,-0.2214384824037552
1774656405042199300,13.46819921875,-0.13209950923919678,0.03191768378019333,-0.24831652641296387
1774656405058989300,13.4849892578125,-0.023976443335413933,-0.028557928279042244,-0.210442915558815
1774656405075779300,13.501779296875,-0.0019853105768561363,-0.037720900028944016,-0.3289506733417511
1774656405092569000,13.518569091796875,-0.06307178735733032,-0.002901607658714056,-0.2611446976661682
1774656405109359000,13.535359130859375,-0.07651081681251526,0.008093958720564842,-0.16829325258731842
1774656405126149000,13.552149169921876,-0.02458730712532997,-0.015729768201708794,-0.27030766010284424
1774656405142939000,13.56893896484375,-0.007483093533664942,-0.017562363296747208,-0.19089524447917938
1774656405159729000,13.58572900390625,-0.07589995115995407,0.03558287397027016,-0.12980876863002777
1774656405176519000,13.602518798828125,-0.01359174121171236,-0.001679878099821508,-0.16584978997707367
1774656405193308700,13.61930859375,0.041386090219020844,-0.03711003437638283,-0.14508038759231567
1774656405210098700,13.6360986328125,-0.019700389355421066,0.007483093533664942,-0.1493564397096634
1774656405226888700,13.652888671875,-0.039858926087617874,0.028863361105322838,-0.22937972843647003
1774656405243678500,13.669678466796874,0.008399390615522861,-0.003512472379952669,-0.08460476994514465
1774656405260468500,13.686468505859375,0.021227551624178886,-0.00045814859913662076,-0.13225223124027252
1774656405277258500,13.703258544921875,-0.006872228812426329,0.023365577682852745,-0.1701258420944214
1774656405294048500,13.720048583984376,-0.0032070400193333626,0.020922118797898293,-0.0772743970155716
1774656405310838300,13.73683837890625,-0.008093958720564842,0.02458730712532997,-0.0870482325553894
1774656405327628300,13.753628173828124,-0.0007635809597559273,0.02519817277789116,-0.10842850059270859
1774656405344418300,13.770418212890625,0.02367101050913334,0.006872228812426329,-0.07483093440532684
1774656405361208000,13.7872080078125,0.004734201822429895,0.019700389355421066,-0.06261363625526428
1774656405377998000,13.803998046875,-0.0013744457392022014,0.036193739622831345,-0.03756818547844887
1774656405394788000,13.8207880859375,0.027336198836565018,0.02214384824037552,0.00946840364485979
1774656405411577900,13.837577880859374,0.04810560122132301,0.012980876490473747,0.10598503798246384
1774656405428368000,13.854367919921875,0.027947064489126205,0.03497200831770897,0.3484983444213867
1774656405445158000,13.871157958984375,0.004734201822429895,0.042913250625133514,0.7596103549003601
1774656405461948000,13.887947998046876,0.005955931730568409,0.01359174121171236,0.6618719696998596
1774656405478737700,13.904737548828125,0.07131846249103546,0.011148282326757908,-0.1951712965965271
1774656405495527700,13.921527587890624,0.1415679156780243,0.011759147047996521,0.007635809946805239
1774656405512317400,13.9383173828125,0.17944152653217316,-0.043829549103975296,0.11514800786972046
1774656405529107500,13.955107421875,0.064598947763443,-0.01206457894295454,-0.1383608728647232
1774656405545897500,13.9718974609375,0.05177079141139984,0.016646064817905426,0.029016077518463135
1774656405562687500,13.9886875,0.14278964698314667,-0.019394956529140472,-0.047952886670827866
1774656405579477200,14.005477294921874,0.00045814859913662076,0.03191768378019333,0.041844237595796585
1774656405596267300,14.022267333984376,-0.04108065739274025,0.08139773458242416,0.0766635313630104
1774656405613057300,14.039057373046875,0.0102319847792387,0.061850059777498245,0.02412915788590908
1774656405629847000,14.055846923828126,-0.07406735420227051,0.055741410702466965,0.061391908675432205
1774656405646637000,14.072636962890625,-0.06062832847237587,0.04413498193025589,0.05711585655808449
1774656405663427000,14.089427001953124,-0.04718930274248123,0.05024362727999687,-0.01802051067352295
1774656405680216800,14.106216796875,0.040775224566459656,0.025809036567807198,0.05100720748305321
1774656405697006800,14.1230068359375,0.07681624591350555,0.014202605932950974,0.007024944759905338
1774656405713796900,14.139796875,-0.06307178735733032,0.05818486958742142,0.0766635313630104
1774656405730586600,14.156586669921875,-0.05329795181751251,0.04535670951008797,0.10598503798246384
1774656405747376600,14.173376708984375,0.04932733252644539,0.02458730712532997,-0.02718348242342472
1774656405764166700,14.190166748046876,-0.008704823441803455,0.033139415085315704,0.10537417232990265
1774656405780956400,14.206956298828125,-0.08139773458242416,0.06307178735733032,0.1591302752494812
1774656405797746400,14.223746337890624,-0.020311253145337105,0.04046979174017906,0.11636973917484283
1774656405814536400,14.240536376953125,0.03955349326133728,0.006872228812426329,0.19150610268115997
1774656405831326200,14.257326171875,-0.045967575162649155,0.042913250625133514,0.35155269503593445
1774656405848116200,14.2741162109375,-0.08261945843696594,0.058795735239982605,0.7101303339004517
1774656405864906200,14.29090625,0.010842849500477314,0.004428769461810589,1.237917423248291
1774656405881696000,14.307696044921874,-0.03191768378019333,0.0013744457392022014,0.8561269640922546
1774656405898486000,14.324486083984375,-0.08384118974208832,0.07345648854970932,-0.33628106117248535
1774656405915276000,14.341276123046875,0.003512472379952669,0.0007635809597559273,0.27397283911705017
1774656405932065800,14.358065673828126,-0.036193739622831345,0.012370011769235134,0.33017241954803467
1774656405948855800,14.374855712890625,-0.08872810751199722,0.04474584385752678,0.15607595443725586
1774656405965645800,14.391645751953124,-0.025809036567807198,0.007483093533664942,0.39309149980545044
1774656405982435600,14.408435546875,-0.02153298258781433,-0.005345067009329796,0.1334739476442337
1774656405999225600,14.4252255859375,-0.020922118797898293,-0.007177661173045635,0.14691297709941864
1774656406016015600,14.442015625,-0.05085449293255806,0.008093958720564842,0.2367101013660431
1774656406032805400,14.458805419921875,-0.014202605932950974,-0.008399390615522861,0.1536324918270111
1774656406049595400,14.475595458984374,-0.0062613640911877155,-0.024892739951610565,0.23854269087314606
1774656406066385400,14.492385498046875,-0.03741546720266342,-0.007177661173045635,0.13958260416984558
1774656406083175200,14.509175048828125,0.04016435891389847,-0.037720900028944016,0.1591302752494812
1774656406099965200,14.525965087890626,0.041386090219020844,-0.04199695214629173,0.11881320178508759
1774656406116755200,14.542755126953125,0.01695149764418602,-0.03588830679655075,0.16707152128219604
1774656406133545000,14.559544921875,0.040775224566459656,-0.04321868345141411,0.23487751185894012
1774656406150335000,14.5763349609375,0.04627300798892975,-0.04627300798892975,0.08826996386051178
1774656406167125000,14.593125,0.1104138121008873,-0.08292489498853683,0.1585194170475006
1774656406183914800,14.609914794921876,0.05971203371882439,-0.0487164668738842,0.12247838824987411
1774656406200704800,14.626704833984375,0.0206166859716177,-0.03283398225903511,0.1957821547985077
1774656406217494800,14.643494873046874,0.07559451460838318,-0.06215549260377884,0.17745621502399445
1774656406234284500,14.660284423828125,0.0639880821108818,-0.06765327602624893,0.06566796451807022
1774656406251074600,14.677074462890625,0.11774418503046036,-0.08048143237829208,0.08582650125026703
1774656406267864300,14.6938642578125,0.09758564829826355,-0.06887500733137131,0.12125665694475174
1774656406284654300,14.710654296875,0.05238165333867073,-0.046883873641490936,0.13652828335762024
1774656406301444400,14.7274443359375,0.08659008145332336,-0.064598947763443,0.27397283911705017
1774656406318234000,14.744234130859375,0.07681624591350555,-0.064598947763443,0.09804379940032959
1774656406335024000,14.761024169921875,0.11346813291311264,-0.08414662629365921,0.15546508133411407
1774656406351814100,14.777814208984376,0.1153007298707962,-0.07681624591350555,0.09621120244264603
1774656406368604000,14.79460400390625,0.07559451460838318,-0.060933761298656464,0.1487455666065216
1774656406385394000,14.811393798828124,0.08659008145332336,-0.06276635825634003,0.10354158282279968
1774656406402184000,14.828183837890625,0.0639880821108818,-0.060322895646095276,0.08643736690282822
1774656406418973700,14.8449736328125,0.0951421856880188,-0.06582067906856537,0.09315688163042068
1774656406435763700,14.861763671875,0.10430516302585602,-0.06154462695121765,-0.03329212963581085
1774656406452553700,14.8785537109375,0.03222311660647392,-0.031001387163996696,-0.12186752259731293
1774656406469343500,14.895343505859374,0.02367101050913334,-0.02611446939408779,-0.03817904740571976
1774656406486133500,14.912133544921875,0.027336198836565018,-0.034666575491428375,0.0204639695584774
1774656406502923300,14.92892333984375,0.0010690133785828948,-0.02916879393160343,-0.21838416159152985
1774656406519713300,14.94571337890625,0.013286309316754341,-0.02000582218170166,-0.4773908257484436
1774656406536503300,14.96250341796875,0.002901607658714056,-0.007177661173045635,-0.3949240744113922
1774656406553293000,14.97929296875,-0.01908952370285988,-0.010842849500477314,0.01740964688360691
1774656406570083000,14.9960830078125,-0.023365577682852745,-0.013286309316754341,0.08826996386051178
1774656406586872800,15.012872802734375,0.0102319847792387,-0.009010255336761475,-0.11331541836261749
1774656406603662800,15.029662841796876,0.022449281066656113,-0.019394956529140472,0.03695731982588768
1774656406620452900,15.046452880859375,-0.02153298258781433,-0.00045814859913662076,-0.09071341902017593
1774656406637242600,15.06324267578125,-0.02214384824037552,-0.002290742937475443,-0.057726722210645676
1774656406654032600,15.08003271484375,-0.016035201027989388,0.0007635809597559273,-0.11942406743764877
1774656406670822700,15.09682275390625,-0.006872228812426329,-0.009621120058000088,-0.15057817101478577
1774656406687612400,15.1136123046875,-0.004428769461810589,-0.009010255336761475,-0.11575887352228165
1774656406704402400,15.13040234375,-0.0001527161948615685,0.0007635809597559273,-0.12431098520755768
1774656406721192400,15.1471923828125,-0.016035201027989388,0.0062613640911877155,-0.1487455666065216
1774656406737982200,15.163982177734376,-0.027030766010284424,-0.00045814859913662076,-0.168904110789299
1774656406754772200,15.180772216796875,-0.007483093533664942,-0.0010690133785828948,-0.16707152128219604
1774656406771562200,15.197562255859374,-0.012980876490473747,0.0062613640911877155,-0.2562577724456787
1774656406788352000,15.21435205078125,-0.0062613640911877155,-0.001679878099821508,-0.24526220560073853
1774656406805142000,15.23114208984375,-0.02153298258781433,0.005650499369949102,-0.21838416159152985
1774656406821931800,15.247931884765626,-0.03191768378019333,0.012980876490473747,-0.33628106117248535
1774656406838721800,15.2647216796875,-0.0032070400193333626,0.0025961752980947495,-0.48655378818511963
1774656406855511800,15.28151171875,-0.006872228812426329,0.008704823441803455,-0.5061014890670776
1774656406872301600,15.298301513671875,-0.049632761627435684,0.019700389355421066,-0.2611446976661682
1774656406889091600,15.315091552734375,-0.025809036567807198,0.011148282326757908,-0.25381430983543396
1774656406905881600,15.331881591796876,0.003512472379952669,-0.002901607658714056,-0.2525925934314728
1774656406922671400,15.34867138671875,-0.036804601550102234,0.016035201027989388,-0.2513708472251892
1774656406939461400,15.36546142578125,-0.042913250625133514,0.016035201027989388,-0.34055712819099426
1774656406956251100,15.382251220703125,-0.017867794260382652,-0.004123337101191282,-0.33078327775001526
1774656406973041200,15.399041259765625,0.004734201822429895,-0.006566796451807022,-0.40897396206855774
1774656406989831200,15.4158310546875,-0.0386371985077858,0.017256930470466614,-0.2764163017272949
1774656407006621000,15.432620849609375,-0.09728021919727325,0.0539088174700737,-0.25809037685394287
1774656407023411000,15.449410888671874,-0.039858926087617874,0.026419902220368385,-0.2910770773887634
1774656407040200700,15.46620068359375,-0.025809036567807198,0.0062613640911877155,-0.3607156574726105
1774656407056990700,15.48299072265625,-0.033139415085315704,0.011759147047996521,-0.34238970279693604
1774656407073780700,15.49978076171875,-0.049021899700164795,0.030695954337716103,-0.2874118685722351
1774656407090570500,15.516570556640625,-0.05818486958742142,0.023365577682852745,-0.323452889919281
1774656407107360500,15.533360595703124,-0.0007635809597559273,-0.02000582218170166,-0.38331764936447144
1774656407124150500,15.550150634765625,-0.020922118797898293,0.0025961752980947495,-0.37171122431755066
1774656407140940300,15.566940185546875,-0.07406735420227051,0.03497200831770897,-0.36804601550102234
1774656407157730300,15.583730224609376,-0.04780016839504242,0.0062613640911877155,-0.37354379892349243
1774656407174520000,15.60052001953125,0.024281874299049377,-0.02977965772151947,-0.36743515729904175
1774656407191310000,15.61731005859375,-0.012980876490473747,-0.002901607658714056,-0.40347617864608765
1774656407208100000,15.63410009765625,-0.08323032408952713,0.025809036567807198,-0.4370737373828888
1774656407224889900,15.650889892578125,-0.019700389355421066,-0.018784092739224434,-0.3912588953971863
1774656407241680000,15.667679931640626,0.03222311660647392,-0.024281874299049377,-0.4059196412563324
1774656407258469600,15.6844697265625,-0.049021899700164795,0.030695954337716103,-0.35643959045410156
1774656407275259600,15.701259765625,-0.08139773458242416,0.03802633285522461,-0.3191768527030945
1774656407292049700,15.718049560546875,0.017562363296747208,-0.017562363296747208,-0.2507599890232086
1774656407308839400,15.73483935546875,0.018784092739224434,-0.005345067009329796,-0.20738859474658966
1774656407325629400,15.75162939453125,-0.08323032408952713,0.04535670951008797,-0.2666424810886383
1774656407342419200,15.768419189453125,-0.014813470654189587,0.0001527161948615685,-0.14813470840454102
1774656407359209200,15.785209228515624,0.016340631991624832,-0.013286309316754341,-0.17195843160152435
1774656407375999200,15.801999267578125,-0.04046979174017906,0.017867794260382652,-0.33689191937446594
1774656407392789000,15.8187890625,-0.016646064817905426,0.0013744457392022014,-0.2525925934314728
1774656407409579000,15.8355791015625,-0.011148282326757908,-0.00045814859913662076,-0.1750127524137497
1774656407426368800,15.85236865234375,-0.019700389355421066,0.005650499369949102,-0.13652828335762024
1774656407443158800,15.86915869140625,-0.006872228812426329,0.0007635809597559273,0.06017018109560013
1774656407459948800,15.88594873046875,-0.02214384824037552,-0.002901607658714056,0.0021380267571657896
1774656407476738600,15.902738525390625,0.017562363296747208,-0.01206457894295454,-0.29535311460494995
1774656407493528600,15.919528564453126,0.002901607658714056,0.004428769461810589,-0.2263254076242447
1774656407510318600,15.936318603515625,-0.03558287397027016,0.02519817277789116,-0.14630211889743805
1774656407527108400,15.9531083984375,-0.0025961752980947495,0.005039634648710489,-0.14263692498207092
1774656407543898400,15.9698984375,-0.006872228812426329,0.012980876490473747,-0.19150610268115997
1774656407560688000,15.986688232421875,-0.010537417605519295,0.02458730712532997,-0.13652828335762024
1774656407577478100,16.00347802734375,-0.03191768378019333,0.036193739622831345,0.004581485874950886
1774656407594268000,16.020267822265627,-0.022754713892936707,0.014202605932950974,-0.025961752980947495
1774656407611058000,16.037057861328126,0.03649916872382164,0.0019853105768561363,-0.16707152128219604
1774656407627847700,16.05384765625,-0.049021899700164795,0.04657844081521034,-0.06261363625526428
1774656407644637700,16.0706376953125,-0.03497200831770897,0.04169152304530144,-0.0009162971982732415
1774656407661427700,16.087427734375,0.013897174037992954,0.012980876490473747,0.09682206809520721
1774656407678217500,16.104217529296875,-0.020922118797898293,0.036193739622831345,0.10659590363502502
1774656407695007500,16.121007568359374,-0.014813470654189587,0.04413498193025589,-0.06505709886550903
1774656407711797200,16.13779736328125,0.015729768201708794,0.0154243353754282,-0.11392628401517868
1774656407728587300,16.154587158203125,0.04505127668380737,-0.005345067009329796,0.04673115536570549
1774656407745377300,16.171377197265624,0.011453714221715927,0.03252854943275452,0.1078176349401474
1774656407762167000,16.1881669921875,-0.02153298258781433,0.04841103404760361,0.061391908675432205
1774656407778957000,16.20495703125,0.16157373785972595,-0.04108065739274025,0.04978547990322113
1774656407795746800,16.221746826171874,0.21838416159152985,-0.09544762223958969,-0.03940077871084213
1774656407812536800,16.238536865234376,-0.015577051788568497,0.01511890348047018,0.12431098520755768
1774656407829326600,16.25532666015625,0.048563748598098755,0.012675444595515728,0.02779434807598591
1774656407846116600,16.27211669921875,0.1432477980852127,-0.049021899700164795,0.035735588520765305
1774656407862906600,16.28890673828125,-0.03756818547844887,0.041386090219020844,0.03023780696094036
1774656407879696400,16.3056962890625,0.007635809946805239,0.04932733252644539,0.2684750556945801
1774656407896486400,16.322486328125,-0.029626941308379173,0.06154462695121765,0.15729768574237823
1774656407913276200,16.339276123046876,-0.06505709886550903,0.046883873641490936,0.0925460159778595
1774656407930066200,16.356066162109375,-0.029626941308379173,0.022449281066656113,0.10048725455999374
1774656407946856200,16.372856201171874,-0.014966187067329884,0.030390523374080658,0.2208276242017746
1774656407963646000,16.38964599609375,0.06811141967773438,0.004123337101191282,0.6905826330184937
1774656407980436000,16.40643603515625,0.05894844979047775,-0.009315688163042068,0.6386591196060181
1774656407997225700,16.423225830078124,-0.03756818547844887,0.04260781779885292,0.057726722210645676
1774656408014015700,16.440015625,0.022296564653515816,0.03649916872382164,0.1847866028547287
1774656408030805500,16.456805419921874,0.061391908675432205,0.01206457894295454,0.5910117030143738
1774656408047595500,16.473595458984374,-0.012522728182375431,0.015729768201708794,1.1236857175827026
1774656408064385300,16.49038525390625,-0.02107483521103859,0.03405570983886719,0.9850194454193115
1774656408081175300,16.50717529296875,0.03451386094093323,0.013286309316754341,0.49510589241981506
1774656408097965300,16.52396533203125,0.006414080038666725,0.025503603741526604,0.3271180987358093
1774656408114755000,16.540755126953126,-0.04550942778587341,0.04260781779885292,0.40408703684806824
1774656408131545000,16.557545166015625,-0.035735588520765305,0.03711003437638283,0.3222311735153198
1774656408148334800,16.5743349609375,-0.007024944759905338,0.021838415414094925,0.23854269087314606
1774656408165124900,16.591124755859376,-0.0308486707508564,0.02611446939408779,0.37781986594200134
1774656408181914600,16.60791455078125,-0.0565049909055233,0.04199695214629173,0.42974337935447693
1774656408198704600,16.62470458984375,-0.019853105768561363,0.01695149764418602,0.4712821841239929
1774656408215494400,16.641494384765625,-0.01435532234609127,0.018173227086663246,0.3992001414299011
1774656408232284400,16.658284423828125,-0.03817904740571976,0.02672533318400383,0.36132651567459106
1774656408249074400,16.675074462890624,-0.003970621153712273,0.004734201822429895,0.5097666382789612
1774656408265864200,16.6918642578125,-0.016187917441129684,0.009621120058000088,0.4120282828807831
1774656408282654200,16.708654296875,-0.008857538923621178,0.002901607658714056,0.3845393657684326
1774656408299444000,16.72544384765625,0.007024944759905338,-0.007483093533664942,0.4969384968280792
1774656408316234000,16.74223388671875,-0.011300998739898205,-0.0013744457392022014,0.4376846253871918
1774656408333024000,16.75902392578125,0.019853105768561363,-0.019700389355421066,0.3704894781112671
1774656408349813800,16.775813720703123,0.041844237595796585,-0.023976443335413933,0.4016436040401459
1774656408366603800,16.792603759765626,0.016798781231045723,-0.011759147047996521,0.5036579966545105
1774656408383393500,16.8093935546875,0.013744457624852657,-0.016646064817905426,0.5616901516914368
1774656408400183600,16.82618359375,0.05406153202056885,-0.042913250625133514,0.5048797130584717
1774656408416973300,16.842973388671876,0.0821613147854805,-0.05024362727999687,0.3704894781112671
1774656408433763300,16.859763427734375,0.06994401663541794,-0.04046979174017906,0.5164861679077148
1774656408450553000,16.876552978515626,0.04367683082818985,-0.03130681812763214,0.5061014890670776
1774656408467343000,16.893343017578125,0.10476330667734146,-0.0642935186624527,0.526870846748352
1774656408484133000,16.910133056640625,0.11759147047996521,-0.06368265300989151,0.4712821841239929
1774656408500923000,16.9269228515625,0.05833758786320686,-0.03191768378019333,0.45417797565460205
1774656408517713000,16.943712890625,0.08399390429258347,-0.04657844081521034,0.5195404887199402
1774656408534502700,16.960502685546874,0.13775001466274261,-0.06734783947467804,0.5610793232917786
1774656408551292700,16.977292724609374,0.07544180005788803,-0.03497200831770897,0.5879573225975037
1774656408568082700,16.994082763671877,0.06811141967773438,-0.030695954337716103,0.5482511520385742
1774656408584872400,17.01087255859375,0.11942406743764877,-0.04841103404760361,0.5702422857284546
1774656408601662500,17.027662353515623,0.08399390429258347,-0.03252854943275452,0.5409207344055176
1774656408618452200,17.0444521484375,0.09071341902017593,-0.029474224895238876,0.5464185476303101
1774656408635242200,17.0612421875,0.09315688163042068,-0.030085090547800064,0.6166679859161377
1774656408652032000,17.078031982421876,0.08949168771505356,-0.027030766010284424,0.5299251675605774
1774656408668822000,17.094822021484376,0.09560033679008484,-0.03375028073787689,0.547029435634613
1774656408685612000,17.111612060546875,0.07238747924566269,-0.02519817277789116,0.526870846748352
1774656408702401800,17.12840185546875,0.07299833744764328,-0.026419902220368385,0.45539969205856323
1774656408719191800,17.14519189453125,0.10354158282279968,-0.04169152304530144,0.47494736313819885
1774656408735981800,17.16198193359375,0.07116574794054031,-0.016646064817905426,0.23487751185894012
1774656408752771600,17.178771484375,0.035735588520765305,0.009010255336761475,-0.18356487154960632
1774656408769561600,17.1955615234375,0.03329212963581085,0.009010255336761475,-0.10598503798246384
1774656408786351400,17.212351318359374,0.061391908675432205,-0.02825249545276165,0.6783653497695923
1774656408803141400,17.229141357421874,0.04673115536570549,-0.009315688163042068,0.5952877402305603
1774656408819931100,17.24593115234375,0.01740964688360691,0.014508038759231567,0.28924447298049927
1774656408836721200,17.26272119140625,0.044898562133312225,-0.0154243353754282,0.5720748901367188
1774656408853511200,17.27951123046875,0.048563748598098755,-0.010537417605519295,0.36254823207855225
1774656408870301000,17.296301025390626,-0.008857538923621178,0.0102319847792387,0.41263917088508606
1774656408887091000,17.313091064453126,-0.035124726593494415,0.022449281066656113,0.4376846253871918
1774656408903880700,17.329880615234377,0.021685699000954628,-0.0038179049734026194,0.35705047845840454
1774656408920670700,17.346670654296876,-0.000305432389723137,0.00045814859913662076,0.23854269087314606
1774656408937460700,17.363460693359375,-0.04001164436340332,0.028557928279042244,-0.250149130821228
1774656408954250500,17.38025048828125,-0.029626941308379173,0.02672533318400383,-0.4615083336830139
1774656408971040500,17.39704052734375,-0.048563748598098755,0.0206166859716177,-0.15485422313213348
1774656408987830300,17.413830322265625,-0.025961752980947495,0.003512472379952669,0.1389717310667038
1774656409004620300,17.430620361328124,0.005803215317428112,-0.004428769461810589,0.09560033679008484
1774656409021410300,17.447410400390623,-0.02779434807598591,0.01695149764418602,-0.20372340083122253
1774656409038200000,17.464199951171874,-0.03451386094093323,0.015729768201708794,-0.2458730787038803
1774656409054990000,17.480989990234374,-0.019242240116000175,-0.0001527161948615685,0.129197895526886
1774656409071779800,17.49777978515625,-0.007635809946805239,-0.008093958720564842,0.2971857190132141
1774656409088569900,17.51456982421875,0.005192350596189499,-0.0062613640911877155,0.08582650125026703
1774656409105359600,17.531359619140623,-0.0009162971982732415,-0.006872228812426329,0.018631376326084137
1774656409122149600,17.548149658203126,-0.006414080038666725,-0.009926552884280682,-0.05283980444073677
1774656409138939600,17.564939697265626,0.0021380267571657896,-0.019700389355421066,0.016187917441129684
1774656409155729400,17.5817294921875,-0.0027488914784044027,-0.017256930470466614,0.021685699000954628
1774656409172519400,17.59851953125,0.022907428443431854,-0.025809036567807198,-0.08643736690282822
1774656409189309200,17.61530908203125,0.0009162971982732415,-0.02153298258781433,-0.04062250629067421
1774656409206099200,17.63209912109375,-0.014966187067329884,-0.014813470654189587,0.04367683082818985
1774656409222889200,17.64888916015625,0.019853105768561363,-0.03130681812763214,0.07238747924566269
1774656409239679000,17.665678955078125,0.010690134018659592,-0.030695954337716103,0.02779434807598591
1774656409256469000,17.682468994140624,0.005803215317428112,-0.027030766010284424,0.010690134018659592
1774656409273258800,17.6992587890625,-0.012522728182375431,-0.02153298258781433,0.007024944759905338
1774656409290048800,17.716048828125,-0.003970621153712273,-0.02825249545276165,-0.010690134018659592
1774656409306838800,17.7328388671875,-0.010079269297420979,-0.033139415085315704,-0.05589412897825241
1774656409323628500,17.749628662109377,-0.005192350596189499,-0.02519817277789116,-0.05955931544303894
1774656409340418600,17.76641845703125,0.0021380267571657896,-0.02764163166284561,-0.04978547990322113
1774656409357208300,17.783208251953123,-0.029626941308379173,-0.029474224895238876,-0.1646280586719513
1774656409373998300,17.799998291015626,-0.04734202101826668,-0.025809036567807198,-0.3900371491909027
1774656409390788000,17.8167880859375,-0.02718348242342472,-0.017256930470466614,-0.5965094566345215
1774656409407578000,17.833578125,-0.04001164436340332,-0.017256930470466614,-0.46944957971572876
1774656409424368000,17.8503681640625,-0.05345066636800766,-0.030085090547800064,-0.1750127524137497
1774656409441158000,17.867157958984375,-0.060781046748161316,-0.019700389355421066,-0.13530655205249786
1774656409457948000,17.883947998046875,-0.05100720748305321,-0.016646064817905426,-0.15302163362503052
1774656409474737700,17.900737548828126,-0.06444623321294785,-0.01359174121171236,-0.0870482325553894
1774656409491527700,17.917527587890625,-0.0717766135931015,-0.012370011769235134,-0.0461202897131443
1774656409508317700,17.934317626953124,-0.07849612087011337,-0.0062613640911877155,-0.09498947113752365
1774656409525107500,17.951107421875,-0.07238747924566269,-0.005039634648710489,-0.1945604383945465
1774656409541897500,17.9678974609375,-0.07116574794054031,-0.014202605932950974,-0.08826996386051178
1774656409558687200,17.984687255859374,-0.08338304609060287,-0.0019853105768561363,-0.1182023361325264
1774656409575477200,18.001477294921877,-0.09498947113752365,-0.008704823441803455,-0.06505709886550903
1774656409592267000,18.01826708984375,-0.07544180005788803,-0.016035201027989388,-0.2611446976661682
1774656409609057000,18.03505712890625,-0.035124726593494415,-0.03130681812763214,-0.09865466505289078
1774656409625847000,18.051846923828126,-0.09926552325487137,0.0010690133785828948,-0.11514800786972046
1774656409642636800,18.06863671875,-0.11881320178508759,-0.0001527161948615685,-0.08765909820795059
1774656409659426800,18.0854267578125,-0.057726722210645676,-0.03252854943275452,-0.1493564397096634
1774656409676216600,18.102216552734376,-0.022907428443431854,-0.03802633285522461,-0.31062474846839905
1774656409693006600,18.119006591796875,-0.07910698652267456,-0.014813470654189587,-0.1853974610567093
1774656409709796400,18.13579638671875,-0.11392628401517868,0.007177661173045635,-0.19761475920677185
1774656409726586400,18.15258642578125,-0.03756818547844887,-0.020922118797898293,-0.19089524447917938
1774656409743376400,18.16937646484375,-0.05406153202056885,-0.017256930470466614,-0.16584978997707367
1774656409760166100,18.186166259765624,-0.07116574794054031,-0.0062613640911877155,-0.2910770773887634
1774656409776956200,18.2029560546875,-0.05222893878817558,-0.016646064817905426,-0.1444695144891739
1774656409793746000,18.219745849609374,-0.05711585655808449,-0.0032070400193333626,-0.24892739951610565
1774656409810536000,18.236535888671874,-0.035735588520765305,-0.012980876490473747,-0.1853974610567093
1774656409827325700,18.25332568359375,-0.0870482325553894,0.007177661173045635,-0.20616686344146729
1774656409844115700,18.27011572265625,-0.04428769648075104,-0.006872228812426329,-0.32589635252952576
1774656409860905700,18.28690576171875,0.0021380267571657896,-0.02825249545276165,-0.17073670029640198
1774656409877695500,18.303695556640626,-0.06444623321294785,0.015729768201708794,-0.27947062253952026
1774656409894485500,18.320485595703126,-0.0821613147854805,0.019394956529140472,-0.24953825771808624
1774656409911275300,18.337275146484377,-0.03634645417332649,-0.008093958720564842,-0.19944734871387482
1774656409928065300,18.354065185546876,-0.010079269297420979,-0.009315688163042068,-0.32528549432754517
1774656409944855000,18.37085498046875,-0.03817904740571976,0.005345067009329796,-0.2306014597415924
1774656409961645000,18.38764501953125,-0.08277218043804169,0.024892739951610565,-0.2861901521682739
1774656409978435000,18.40443505859375,-0.005192350596189499,-0.011759147047996521,-0.3277289569377899
1774656409995224800,18.421224853515625,0.004581485874950886,-0.011759147047996521,-0.27580544352531433
1774656410012014800,18.438014892578124,-0.0461202897131443,0.018173227086663246,-0.32589635252952576
1774656410028804600,18.4548046875,-0.0204639695584774,0.004734201822429895,-0.21777328848838806
1774656410045594600,18.4715947265625,-0.025961752980947495,0.021838415414094925,-0.3191768527030945
1774656410062384400,18.48838427734375,-0.022296564653515816,0.02306014485657215,-0.2776380479335785
1774656410079174400,18.50517431640625,-0.005192350596189499,0.022449281066656113,-0.2611446976661682
1774656410095964400,18.52196435546875,-0.000305432389723137,0.02672533318400383,-0.24404047429561615
1774656410112754200,18.538754150390623,-0.03145953640341759,0.04260781779885292,-0.210442915558815
1774656410129544200,18.555544189453126,-0.03695731982588768,0.034666575491428375,-0.28985533118247986
1774656410146334000,18.572333984375,0.03817904740571976,0.008399390615522861,-0.3130682110786438
1774656410163124000,18.5891240234375,0.018631376326084137,0.028557928279042244,-0.20372340083122253
1774656410179913700,18.605913818359376,-0.032070402055978775,0.056657709181308746,-0.2715294063091278
1774656410196703700,18.622703857421875,0.005803215317428112,0.031612250953912735,-0.2006690800189972
1774656410213493800,18.63949365234375,0.038789913058280945,0.02367101050913334,-0.2415970265865326
1774656410230283500,18.656283447265626,0.021685699000954628,0.037720900028944016,-0.2006690800189972
1774656410247073500,18.673073486328125,0.0021380267571657896,0.05543597787618637,-0.10109812021255493
1774656410263863300,18.68986328125,0.1701258420944214,0.007177661173045635,-0.12492185086011887
1774656410280653300,18.7066533203125,0.1792888194322586,-0.03252854943275452,-0.323452889919281
1774656410297443300,18.723443359375,-0.0009162971982732415,0.040775224566459656,-0.10965022444725037
1774656410314233000,18.740233154296874,0.04306596517562866,0.03405570983886719,-0.2574795186519623
1774656410331023000,18.757023193359377,0.14263692498207092,-0.020311253145337105,-0.2098320573568344
1774656410347812900,18.773812744140624,-0.02718348242342472,0.043829549103975296,-0.18661919236183167
1774656410364603000,18.790602783203123,-0.03023780696094036,0.06154462695121765,-0.15607595443725586
1774656410381392600,18.807392578125,-0.04001164436340332,0.054214250296354294,-0.1487455666065216
1774656410398182700,18.8241826171875,-0.06017018109560013,0.04016435891389847,-0.05345066636800766
1774656410414972700,18.84097265625,-0.05222893878817558,0.04566214233636856,-0.0009162971982732415
1774656410431762400,18.857762451171876,0.032070402055978775,0.028557928279042244,0.49082985520362854
1774656410448552400,18.874552490234375,0.10598503798246384,-0.019700389355421066,0.39309149980545044
1774656410465342200,18.89134228515625,-0.03329212963581085,0.03894263133406639,-0.2764163017272949
1774656410482132200,18.90813232421875,-0.04734202101826668,0.060933761298656464,-0.07483093440532684
1774656410498922200,18.924922119140625,0.06750056147575378,-0.007483093533664942,0.044898562133312225
1774656410515712000,18.9417119140625,0.03023780696094036,0.001679878099821508,0.09987638890743256
1774656410532502000,18.958501953125,-0.041844237595796585,0.041386090219020844,0.4871646761894226
1774656410549292000,18.9752919921875,0.0009162971982732415,0.006566796451807022,1.047938585281372
1774656410566081800,18.992081787109374,0.051618073135614395,-0.025809036567807198,1.1670571565628052
1774656410582871800,19.008871826171877,0.0021380267571657896,0.002290742937475443,0.5616901516914368
1774656410599661600,19.02566162109375,-0.05406153202056885,0.04016435891389847,0.006414080038666725
1774656410616451600,19.04245166015625,-0.014966187067329884,0.007788525894284248,0.21655155718326569
1774656410633241600,19.05924169921875,-0.008246674202382565,-0.006872228812426329,0.31062474846839905
1774656410650031400,19.07603125,-0.06200277432799339,0.02306014485657215,0.004581485874950886
1774656410666821400,19.0928212890625,-0.032070402055978775,0.014508038759231567,0.09926552325487137
1774656410683611100,19.109611083984376,-0.03451386094093323,0.011453714221715927,0.16035200655460358
1774656410700401200,19.126401123046875,-0.06200277432799339,0.01695149764418602,0.08155044913291931
1774656410717191000,19.14319091796875,-0.05589412897825241,0.02000582218170166,0.06811141967773438
1774656410733981000,19.15998095703125,-0.04062250629067421,0.009621120058000088,0.14019346237182617
1774656410750771000,19.17677099609375,-0.038789913058280945,0.007788525894284248,0.1585194170475006
1774656410767560700,19.193560791015624,-0.06261363625526428,0.019394956529140472,0.13652828335762024
1774656410784350700,19.210350830078124,-0.04917461425065994,0.012675444595515728,0.15118902921676636
1774656410801140700,19.227140625,-0.04245510324835777,0.009621120058000088,0.08582650125026703
1774656410817930500,19.243930419921874,-0.0461202897131443,0.006566796451807022,0.10170898586511612
1774656410834720500,19.260720458984373,-0.032070402055978775,0.003512472379952669,0.08277218043804169
1774656410851510300,19.27751025390625,-0.0204639695584774,0.0010690133785828948,0.09498947113752365
1774656410868300300,19.29430029296875,-0.019242240116000175,-0.0038179049734026194,0.11942406743764877
1774656410885090300,19.31109033203125,-0.005803215317428112,-0.006872228812426329,0.15790854394435883
1774656410901880000,19.327880126953126,-0.000305432389723137,-0.007483093533664942,0.07238747924566269
1774656410918670000,19.344670166015625,0.038789913058280945,-0.027030766010284424,0.15485422313213348
1774656410935459800,19.3614599609375,0.01435532234609127,-0.008704823441803455,0.09804379940032959
1774656410952249900,19.378249755859375,0.023518294095993042,-0.02214384824037552,0.10842850059270859
1774656410969039600,19.39503955078125,0.06322450190782547,-0.03558287397027016,0.11881320178508759
1774656410985829600,19.41182958984375,0.05528326332569122,-0.028863361105322838,0.09804379940032959
1774656411002619600,19.42861962890625,0.05283980444073677,-0.02825249545276165,0.10109812021255493
1774656411019409400,19.445409423828124,0.06505709886550903,-0.03252854943275452,0.07849612087011337
1774656411036199400,19.462199462890624,0.09010255336761475,-0.04108065739274025,0.0925460159778595
1774656411052989200,19.4789892578125,0.06444623321294785,-0.028863361105322838,0.09376774728298187
1774656411069779200,19.495779296875,0.07849612087011337,-0.03558287397027016,0.13652828335762024
1774656411086569200,19.5125693359375,0.10048725455999374,-0.0386371985077858,0.0766635313630104
1774656411103359000,19.52935888671875,0.0717766135931015,-0.030085090547800064,0.10476330667734146
1774656411120149000,19.54614892578125,0.06933315098285675,-0.028863361105322838,0.129197895526886
1774656411136938800,19.562938720703126,0.10354158282279968,-0.03558287397027016,0.07605266571044922
1774656411153728800,19.579728759765626,0.0974329337477684,-0.03497200831770897,0.12675444781780243
1774656411170518800,19.596518798828125,0.04734202101826668,-0.01359174121171236,0.08093958348035812
1774656411187308500,19.61330859375,0.06505709886550903,-0.02458730712532997,0.12370011955499649
1774656411204098600,19.6300986328125,0.06566796451807022,-0.026419902220368385,0.09926552325487137
1774656411220888300,19.646888427734375,0.06383536756038666,-0.017867794260382652,0.10537417232990265
1774656411237678300,19.66367822265625,0.05345066636800766,-0.012980876490473747,0.16829325258731842
1774656411254468000,19.680468017578125,0.04917461425065994,-0.011148282326757908,0.15607595443725586
1774656411271258000,19.697258056640624,0.054672397673130035,-0.017256930470466614,0.13713914155960083
1774656411288048000,19.714048095703124,0.06261363625526428,-0.020922118797898293,0.11759147047996521
1774656411304838000,19.730837890625,0.08399390429258347,-0.023365577682852745,0.12064579129219055
1774656411321628000,19.7476279296875,0.04673115536570549,-0.011148282326757908,0.0717766135931015
1774656411338417700,19.764417724609373,0.048563748598098755,-0.01359174121171236,0.12614357471466064
1774656411355207700,19.781207763671876,0.04673115536570549,-0.008704823441803455,0.06444623321294785
1774656411371997400,19.79799755859375,0.02779434807598591,-0.004428769461810589,0.06811141967773438
1774656411388787500,19.814787353515626,0.029016077518463135,-0.0025961752980947495,0.04550942778587341
1774656411405577500,19.831577392578126,0.008857538923621178,0.011453714221715927,-0.004581485874950886
1774656411422367200,19.8483671875,0.008246674202382565,0.009010255336761475,-0.08888082206249237
1774656411439157200,19.8651572265625,0.010079269297420979,0.0102319847792387,-0.07055488228797913
1774656411455947000,19.881947021484375,-0.012522728182375431,0.021838415414094925,0.024740023538470268
1774656411472737000,19.898737060546875,-0.012522728182375431,0.02000582218170166,0.07605266571044922
1774656411489527000,19.915527099609374,-0.008857538923621178,0.021227551624178886,0.015577051788568497
1774656411506316800,19.93231689453125,0.0009162971982732415,0.01511890348047018,0.03817904740571976
1774656411523106800,19.94910693359375,-0.005192350596189499,0.01695149764418602,-0.006414080038666725
1774656411539896600,19.965896484375,0.005192350596189499,0.012675444595515728,0.003970621153712273
1774656411556686600,19.9826865234375,0.003970621153712273,0.013286309316754341,0.0009162971982732415
1774656411573476400,19.999476318359374,-0.010690134018659592,0.01511890348047018,-0.01802051067352295
1774656411590266400,20.016266357421873,0.01802051067352295,0.001679878099821508,-0.019242240116000175
1774656411607056100,20.03305615234375,0.019242240116000175,0.002901607658714056,-0.06261363625526428
1774656411623846100,20.04984619140625,0.011300998739898205,0.004734201822429895,-0.07299833744764328
1774656411640636000,20.066635986328127,0.007024944759905338,0.006566796451807022,-0.0821613147854805
1774656411657426000,20.083426025390626,-0.003359756199643016,0.0102319847792387,-0.09315688163042068
1774656411674216000,20.1002158203125,-0.003359756199643016,0.007177661173045635,-0.09926552325487137
1774656411691005700,20.117005615234376,-0.012522728182375431,0.007788525894284248,-0.09010255336761475
1774656411707795700,20.133795654296875,-0.0027488914784044027,0.003512472379952669,-0.1591302752494812
