time,seconds_elapsed,z,y,x
1775751033703292400,0.07529248046875,-0.2093200651757419,-0.3791320035666227,-0.7319384563960134
1775751033713306400,0.085306396484375,-0.389017364699766,-0.2729582784801721,-0.6527145514249801
1775751033723320300,0.0953203125,-0.5185865784209222,-0.3814718446910381,-0.4699840947501361
1775751033733334300,0.105334228515625,-0.6185614488672465,-0.24695640673935412,-0.6089793084643781
1775751033743348500,0.115348388671875,-0.3380628380101174,0.0646370150834322,-0.5049338275782763
1775751033753362400,0.125362548828125,0.32865035508573054,-0.43928047505915163,0.012661036391556262
1775751033763376000,0.135376220703125,0.7125836214542388,-0.43548400538563725,0.4181808422766626
1775751033773390300,0.145390380859375,0.5984734042800962,-0.3287053001433611,0.6446656850039959
1775751033783404300,0.155404296875,0.010627338606864213,-0.3782610659509897,0.8832458930641413
1775751033793418500,0.16541845703125,-0.5287460803203284,-0.27607845632731914,0.8170141561351716
1775751033803432400,0.175432373046875,-0.16618819493576883,-0.09017711453139782,0.7218265199653804
1775751033813446400,0.1854462890625,-0.2758171750426292,-0.07575286785960197,0.8876374060213565
1775751033823459300,0.195459228515625,-0.565695608663559,-0.3510299446761608,1.186972965425998
1775751033833474300,0.205474365234375,-0.38308497897610067,-0.6603916619241237,0.9950633231259882
1775751033843488500,0.215488525390625,-0.885029269349575,-0.4763508533030748,0.384415935318917
1775751033853501400,0.22550146484375,-1.4898074728623032,-0.0005804302364587784,-0.019160189152508972
1775751033863515400,0.235515380859375,-1.3561796314001082,0.4016062857031822,-0.6157336050301789
1775751033873529300,0.245529296875,-0.8902413049094379,0.8422855216443538,-1.2568366291165352
1775751033883543300,0.255543212890625,-0.40682723522186276,1.536031756159663,-1.9229297175526618
1775751033893557200,0.26555712890625,-0.2456932549357414,2.166012497729063,-2.4956007181867954
1775751033903571500,0.275571533203125,-0.027880817355215547,2.597321263256669,-2.8918010531932112
1775751033913585400,0.28558544921875,0.1380192082889378,2.6223452298760415,-3.0733199421212074
1775751033923599400,0.295599365234375,-0.038272739771008486,1.772981148147583,-3.070096303899586
1775751033933613300,0.30561328125,-0.05420373774394393,0.4053910649389028,-3.2545980080306527
1775751033943627300,0.315627197265625,0.13592939640283583,-3.0500971797049043,1.5480460190802812
1775751033953641500,0.325641357421875,-1.4722100029818712,-7.841465195041894,9.5828482588768
1775751033963655200,0.3356552734375,-3.7835035166963933,-6.224661281555891,5.966885959160328
1775751033973669400,0.34566943359375,-2.275305816140771,-0.562273232999444,-1.2403164330787957
1775751033983683300,0.355683349609375,0.7682963024564087,0.47389644588828084,-2.583585583370924
1775751033993697300,0.365697265625,0.7998173760101198,-1.5834972716897726,-2.0887318357802926
1775751034003711500,0.37571142578125,-0.5341124296590686,-2.2396417975634337,-2.0308682603545485
1775751034013725200,0.38572509765625,-0.8172969185993075,-2.4230226809710262,-1.5100843910850583
1775751034023739400,0.395739501953125,-0.8555617673248052,-0.9581810148000717,-0.6547660771273076
1775751034033753300,0.40575341796875,-0.9323645826287567,0.10930676241517066,-0.2852466821670532
1775751034043767600,0.415767578125,-0.6119821435421705,-0.6454436836391687,-2.32762052526772
1775751034053781200,0.42578125,-1.70877434117496,0.23427052816748617,-3.5449691936045884
1775751034063795500,0.43579541015625,-1.5414200250692665,0.1523661519408226,-2.2730485387332737
1775751034073809400,0.445809326171875,-0.5151822498701513,-0.6156593707501888,-0.9463982225477695
1775751034083823400,0.4558232421875,-0.19831527155861256,-0.5248468809247017,-0.12424648432843387
1775751034093837300,0.46583740234375,0.13330270116105675,-0.03819558288156986,-0.08665836582072078
1775751034103851300,0.475851318359375,0.3885441211648285,0.36828561538159843,-0.1800638678140938
1775751034113865500,0.485865478515625,0.2508766489230096,-0.1032879405170679,-0.30116365161463615
1775751034123879400,0.49587939453125,-0.04417801829203963,-0.7557908950179815,-0.1913674982473254
1775751034133893400,0.505893310546875,-0.05032791922390461,-0.1135007069736719,0.5831446830492466
1775751034143907300,0.5159072265625,0.6846880449213087,1.7135954777210949,1.285137279319018
1775751034153921300,0.52592138671875,0.8372095335543155,2.3298913928091523,1.2108037767380475
1775751034163935500,0.535935546875,0.41866131926998496,1.2607353901207445,0.882634117841348
1775751034173949200,0.54594921875,0.31566520130634307,1.1534791304945946,0.55826618931517
1775751034183963400,0.55596337890625,0.6849767256695777,1.74236330704391,0.36548407502956687
1775751034193977300,0.565977294921875,1.1435182929724454,1.858545800447464,0.5517604606829584
1775751034203991300,0.5759912109375,1.2082856564372777,1.7225070984512567,0.9635445145945996
1775751034214005200,0.586005126953125,0.8008389010775834,1.523790114223957,1.222390900287777
1775751034224019200,0.596019287109375,0.7155840453792363,1.4716554378390312,1.0093155011665076
1775751034234033400,0.606033447265625,0.7452274154275655,0.9984124874234199,0.3332172246098518
1775751034244047400,0.61604736328125,0.9428263554103672,0.5231541055321693,0.008816270596906543
1775751034254061600,0.6260615234375,1.1337281358420848,0.792469059073925,0.4657179617382586
1775751034264075300,0.6360751953125,1.3009241926461457,0.7731511951416731,0.4198270020484924
1775751034274089200,0.646089111328125,0.9966595793414861,0.507592963784933,0.19717450402565298
1775751034284103400,0.656103515625,0.6722803257036953,0.3095546094715595,-0.1375769444141537
1775751034294117400,0.666117431640625,0.495278914200142,0.22764847967922686,-0.5558213534463197
1775751034304131300,0.67613134765625,0.18884630920663475,0.07735445783734321,-0.6503289714626967
1775751034314145300,0.686145263671875,-0.02376388355568051,0.07468669993281364,-0.5657165783863515
1775751034324159500,0.696159423828125,-0.42734446500651535,0.11933189734518528,0.08527151457220315
1775751034334173400,0.70617333984375,-0.811947082003951,0.14565876325666904,0.8565379188805818
1775751034344187100,0.716187255859375,-0.8798913219392299,0.1434159527659416,1.3301630004815757
1775751034354201300,0.726201416015625,-0.8479405517313628,0.23631518573760985,1.2711585844576359
1775751034364215300,0.73621533203125,-0.6254482127062976,0.23827099598050117,1.0851848350126296
1775751034374229500,0.7462294921875,-0.15676336398646235,0.18390929119586943,0.5532848207060247
1775751034384243200,0.7562431640625,0.13163199146986007,0.22734920447170734,-0.04971197928264737
1775751034394257400,0.76625732421875,0.22297698073685168,0.12443301987648009,-0.23566052122116088
1775751034404270600,0.7762705078125,0.35796821950674057,-0.07916589117348194,-0.07536226110681891
1775751034414284800,0.786284912109375,0.09087328010201454,-0.07611877856254577,-0.11990560557991266
1775751034424298800,0.796298828125,-0.12633096245229244,0.24029694885015487,0.17136808179169893
1775751034434312700,0.806312744140625,-0.13294490069933235,0.3016466128259897,0.8717371685128659
1775751034444326700,0.81632666015625,-0.3419114031970501,-0.03641863633692265,1.1000096983745693
1775751034454340600,0.826340576171875,-0.5306879716357216,-0.17204817301034928,0.9783357679478824
1775751034464354800,0.836354736328125,-0.6296965908657759,0.07320785955190658,0.7580746951062232
1775751034474368800,0.84636865234375,-0.4887281043171882,0.26894436666369437,0.48574981915876264
1775751034484382700,0.8563828125,-0.2417331191331148,0.19839549718797206,0.36663631380461154
1775751034494396700,0.866396728515625,-0.4386281486302614,0.1359521927565336,0.343936040892452
1775751034504410600,0.87641064453125,-0.31322073076367374,0.08064823868572711,0.46778775374963877
1775751034514424800,0.8864248046875,0.07655130649460479,0.08977028729617595,0.369010495590046
1775751034524438500,0.8964384765625,0.4080681751936674,0.24596096596121786,0.09298566914610565
1775751034534452700,0.90645263671875,1.0480319661170243,0.173977095246315,-0.0843577607281506
1775751034544466700,0.916466796875,1.206026479333639,0.021300562182068824,-0.1550875397287309
1775751034554481000,0.92648095703125,1.2412421696215867,0.04434416863918304,0.07043503383770584
1775751034564494600,0.93649462890625,1.592782401907444,0.21111235541999337,0.4590247477099299
1775751034574508500,0.946508544921875,1.366758308559656,0.4721294362157583,0.5179012995705008
1775751034584522800,0.956522705078125,0.8614917418956756,0.5065086756795645,0.2533217039875686
1775751034594536700,0.96653662109375,0.7923895640969276,0.40498832935690876,0.32910409020259973
1775751034604551000,0.976551025390625,0.37347792332768437,0.24390578699707985,0.1792915682673454
1775751034614564600,0.986564697265625,0.2949941691994667,-0.05698094737231731,-0.24018501290827987
1775751034624578800,0.996578857421875,0.17407880205512047,0.25447978798151016,-0.2932166381329298
1775751034634592800,1.0065927734375,0.14113982452750204,0.3448872041374445,-0.2642622001968324
1775751034644606700,1.016606689453125,1.144307982045412,0.6932417921245098,-0.9406672776803374
1775751034654620700,1.02662060546875,-0.07003039855957031,0.4092956711620092,-0.9177759391754865
1775751034664634600,1.036634521484375,-2.068493203741312,-0.22737433891296385,-0.035384909375011916
1775751034674648800,1.04664892578125,-0.5466203943807632,0.184991825735569,0.3418212406955659
1775751034684662800,1.056662841796875,1.4826292517960071,0.8140344096720218,0.00031228081956505776
1775751034694676700,1.0666767578125,0.4167383883833885,0.5074328047871589,-0.16475041721761224
1775751034704690700,1.076690673828125,-0.025652327650785445,0.20814532230794427,0.1431526256546378
1775751034714704600,1.08670458984375,0.06958150401460006,0.3560568329274654,0.27108152482286096
1775751034724718800,1.09671875,-0.3417114601781592,0.2904658781200647,0.2815611255221069
1775751034734732500,1.106732666015625,-0.49533203262686726,0.31077158404588695,0.2605107387088239
1775751034744746800,1.116746826171875,-0.42836102163791656,0.3067629329264164,-0.17190905680060387
1775751034754760700,1.1267607421875,-0.3318775004386902,0.25269816526174543,-0.6358703841298818
1775751034764775000,1.13677490234375,-0.2402776596277952,0.17506722857058046,-0.8592771345861255
1775751034774788600,1.14678857421875,-0.04713992770439945,0.2107891148149967,-0.7087928508691489
1775751034784802600,1.156802490234375,0.008200257590413092,0.5320452679961919,-0.3359533715754747
1775751034794816800,1.166816650390625,-0.3979974475562572,0.571107696840167,0.27059169547930356
1775751034804830700,1.176830810546875,-0.9073708650171757,0.45332536702454085,0.9030411652497947
1775751034814844700,1.1868447265625,-1.2733376820623874,0.3285603387147188,1.1768377942502497
1775751034824858600,1.196858642578125,-1.3218038990676402,0.265244927623868,0.9432010339416563
1775751034834872800,1.206872802734375,-1.135688037738204,0.26602526434659957,0.7351227855205535
1775751034844886800,1.21688671875,-0.79563015345335,0.2763075889080763,0.5839952354639768
1775751034854900700,1.226900634765625,-0.42902445398271083,0.285504456320405,0.548626984962821
1775751034864914700,1.236914794921875,-0.1956266169965267,0.34787411099374294,0.4056964776262641
1775751034874928600,1.2469287109375,0.015641239512432365,0.3659732467859983,0.22229557434394953
1775751034884942800,1.25694287109375,0.17330136967552826,0.4048404453188181,0.14076485373526812
1775751034894956800,1.266956787109375,0.3669236793786287,0.42246494933664797,0.1238936523027718
1775751034904970800,1.276970703125,0.2879576946914196,0.2951420532375574,0.24807795811519026
1775751034914984700,1.286984619140625,0.06653029975043609,0.2408089900255203,0.3879540463171899
1775751034924998700,1.29699853515625,-0.053298441200982774,0.16469021146297455,0.49043183949515223
1775751034935012900,1.307012939453125,-0.22290214366866273,-0.07690262241661548,0.32103958782106634
1775751034945026600,1.317026611328125,-0.3179676330298185,-0.07066402028799057,-0.05510404758453369
1775751034955040800,1.327040771484375,0.13991466664671898,0.18748656516075132,-0.3967766735896468
1775751034965054700,1.3370546875,0.1588040943001397,0.041754736667871474,-0.06864449715912342
1775751034975069000,1.34706884765625,-0.025076573589444158,-0.3626239363580942,0.5525055799618364
1775751034985082600,1.35708251953125,-0.21243571297824382,-0.6931991220265626,0.7884070703320205
1775751034995096600,1.3670966796875,-0.21995323073519393,-0.6214134042322635,0.7750393469758331
1775751035005110800,1.37711083984375,-0.08348026550756767,-0.34768881755471226,0.5807018930070101
1775751035015124700,1.387124755859375,-0.06385024861991405,-0.295297536060214,0.3887389130845666
1775751035025138700,1.397138671875,-0.2339718557481654,-0.3366787632405758,0.31311390938833356
1775751035035152600,1.407152587890625,-0.42658699770271774,-0.3889262523502111,0.1753644579514861
1775751035045166800,1.417166748046875,-0.4956014972180128,-0.40274844147562977,-0.03637465106472373
1775751035055180800,1.427180908203125,-0.5397282237142325,-0.3412257590204477,-0.22202070292532441
1775751035065194500,1.437194580078125,-0.6511380958884954,-0.2474579265207052,-0.38208705397993326
1775751035075208700,1.447208740234375,-0.7060492512494325,-0.1430810217231512,-0.427274687705934
1775751035085222700,1.45722265625,-0.7241536477386951,-0.10140811811983584,-0.350030850636214
1775751035095236900,1.46723681640625,-0.7674550293266773,-0.11563421187102794,-0.2064865953154862
1775751035105250800,1.477250732421875,-0.6794079125612974,-0.16104688652455806,-0.10044570282846689
1775751035115264800,1.4872646484375,-0.46877661865651604,-0.29675942530632016,-0.14475085463151335
1775751035125278700,1.49727880859375,-0.20060615897476672,-0.2666945419102907,-0.25043197389543054
1775751035135292700,1.507292724609375,0.07290040103793144,-0.11351532002091407,-0.2509783557318151
1775751035145307000,1.517306884765625,0.19445698869526384,-0.07284604050219058,-0.14126023603677748
1775751035155320600,1.527320556640625,0.03746668180184206,-0.16346739166975022,0.04801014380082488
1775751035165334800,1.537334716796875,-0.14155834220051763,-0.189805363497138,0.12959705157615245
1775751035175348700,1.5473486328125,-0.2119476372003555,-0.07951601978540421,-0.029411168727651236
1775751035185362700,1.55736279296875,-0.2043371621966362,0.010232640200853347,-0.21900427771359682
1775751035195376600,1.567376708984375,-0.26007132437825203,0.03318213863372803,-0.24991065343506633
1775751035205390600,1.577390625,-0.3580523906588554,-0.030216274565458296,-0.1746190464116633
1775751035215404800,1.58740478515625,-0.384413158839941,-0.0511602783948183,-0.19692980854958295
1775751035225418800,1.597418701171875,-0.25319152000295,0.012666589349508284,-0.20973288376033306
1775751035235432700,1.6074326171875,-0.10247021265970542,0.021607436174154282,-0.18431041934266684
1775751035245446700,1.61744677734375,-0.058094479838479304,0.012611059769988059,-0.2106194573365152
1775751035255460900,1.6274609375,0.0367102944935672,0.005204582905769348,-0.24750388455428182
1775751035265474800,1.637474853515625,0.0227086388817057,0.08549450967311858,-0.21355375722274184
1775751035275488500,1.647488525390625,0.005403320348262786,0.09175240102410316,-0.05556377405077219
1775751035285502700,1.657502685546875,0.013069945986010134,-0.007122399225831032,0.10078757506869733
1775751035295516700,1.6675166015625,-0.018998130458593367,-0.03056114248037338,0.17591953455097972
1775751035305531000,1.67753076171875,-0.013929156631231307,0.03348199836313724,0.15140907041169702
1775751035315544600,1.687544677734375,-0.022085611612536013,0.0585848754376173,0.02266037929318845
1775751035325558800,1.697558837890625,-0.033645116502977905,0.021950550523400305,-0.17639672360867262
1775751035335572700,1.70757275390625,-0.02491462449338287,0.004873743516206741,-0.3295774068027735
1775751035345586700,1.717586669921875,-0.0345510523667559,0.007207154899835586,-0.3629343174815178
1775751035355601000,1.727600830078125,-0.04573299264907837,0.007486556363105774,-0.3129826842240989
1775751035365614600,1.737614501953125,-0.09115034347772598,0.009002806144952774,-0.16301891724988818
1775751035375628800,1.74762890625,-0.09598784663677215,0.006005377894639968,-0.04013049646690488
1775751035385642800,1.757642822265625,-0.13886723995301872,0.0429606053262949,0.03782879539579153
1775751035395656700,1.76765673828125,-0.18775427618622778,0.06701660369634628,0.031219533323869106
1775751035405670400,1.77767041015625,-0.14438969316892325,0.1377431678265333,-0.018200038883462548
1775751035415684400,1.787684326171875,-0.05569901780299842,0.20306699613034723,-0.03064005293548107
1775751035425698600,1.797698486328125,0.051527942663431164,0.19820026687681674,-0.012618147097900509
1775751035435712500,1.80771240234375,0.18038352822251616,0.18316402578651905,-0.002077463861182332
1775751035445726500,1.8177265625,0.2401028145175427,0.1435164905309677,0.03366100819185376
1775751035455740400,1.827740478515625,0.26805589339137076,0.08195639867484569,0.07272482527531683
1775751035465754600,1.837754638671875,0.3001858926236629,0.07322130355536938,0.08747954601049422
1775751035475768600,1.8477685546875,0.23322306494116782,0.08426175300776959,0.12475494530722499
1775751035485782300,1.8577822265625,0.09842647196054458,0.04781155248880386,0.21034020200371742
1775751035495796500,1.86779638671875,0.044528877556324,0.0024018004447221753,0.28534217843078075
1775751035505810400,1.877810546875,0.015817162334918974,0.016021160474419593,0.32241518702320754
1775751035515824600,1.88782470703125,-0.01660981054995209,-0.020502689802646634,0.26300642798207696
1775751035525838300,1.89783837890625,-0.04206687135696411,-0.06859948897361755,0.1104392005112022
1775751035535852500,1.9078525390625,0.005301613539457321,-0.048752632731199265,-0.08846059293709695
1775751035545866500,1.917866455078125,-0.005755129460617899,-0.024406711503863334,-0.16805976096130906
1775751035555880400,1.92788037109375,-0.10799385318569839,-0.07667232079207897,-0.1344581548064947
1775751035565894400,1.937894287109375,-0.16642982167191803,-0.0864963801920414,-0.09696619014963508
1775751035575908400,1.947908447265625,-0.23642394334170966,-0.0815337893486023,-0.107251364255324
1775751035585922600,1.957922607421875,-0.23090499725714325,-0.057490065938234323,-0.15648476624079047
1775751035595936500,1.9679365234375,-0.136619132232666,-0.0597872369647026,-0.11587846895568073
1775751035605950500,1.977950439453125,-0.1059936923444271,-0.11974690788686275,0.011084726985543965
1775751035615964400,1.98796435546875,-0.11686338833980262,-0.17877251282930373,0.03585997954085469
1775751035625978400,1.997978271484375,-0.09488536528758704,-0.1745651242673397,-0.037316023568063975
1775751035635992600,2.00799267578125,-0.06170213067531585,-0.12459025626480578,-0.13691928422302008
1775751035646006500,2.018006591796875,-0.0441102868180722,-0.1174047286748886,-0.20220986784435807
1775751035656020500,2.0280205078125,-0.056055576155707235,-0.13721183742880821,-0.21685104520246384
1775751035666034400,2.038034423828125,-0.07909289900250732,-0.13342296653985977,-0.20039098185412585
1775751035676048600,2.048048583984375,-0.11743863094449043,-0.11319675559103488,-0.13685411003232
1775751035686062600,2.0580625,-0.13518347340635956,-0.13160334989726544,-0.1201199789829552
1775751035696076300,2.068076171875,-0.11484444973282515,-0.13133271626234053,-0.1381581783682108
1775751035706090500,2.078090576171875,-0.034070684971287846,-0.08742109382152558,-0.18288667014986276
1775751035716104400,2.0881044921875,0.020945684329792855,-0.013875380617380141,-0.24992219774238764
1775751035726118700,2.09811865234375,0.00959193114452064,0.034493221232295035,-0.255866712295264
1775751035736132400,2.10813232421875,-0.026498642281815407,0.03823474584817886,-0.1616406146340072
1775751035746146600,2.118146484375,-0.013761910305544732,-0.00042670097947120663,-0.10398805161044002
1775751035756160500,2.128160400390625,0.10544899100847542,0.02925707414448261,-0.09960063030645251
1775751035766175500,2.138175537109375,0.23819274311251937,0.06551438243985176,-0.09576865092813969
1775751035776188400,2.1481884765625,0.3245498609643429,0.06780921537876129,-0.04587649277299642
1775751035786202400,2.158202392578125,0.2725882030587643,0.018887655821442605,-0.015388926985487342
1775751035796217300,2.16821728515625,0.20511216515712438,0.016245032358169556,-0.01858545800447464
1775751035806230500,2.17823046875,0.137847724179551,0.044485622936487196,-0.039763562850654126
1775751035816245500,2.18824560546875,0.09075871381163597,0.07579436891376971,-0.1098875579778105
1775751035826259500,2.198259521484375,0.15360533834695816,0.12151976277828216,-0.15119177439920603
1775751035836273400,2.2082734375,0.09278108648471534,0.12592530426084994,-0.18157719498649239
1775751035846287600,2.21828759765625,-0.028681466213613747,0.09583119477033615,-0.2090634600661695
1775751035856301600,2.228301513671875,-0.059285790248587725,0.11947393616437911,-0.2556057232715189
1775751035866315300,2.238315185546875,-0.017875848430395126,0.2017664349257946,-0.2608691967576742
1775751035876329500,2.24832958984375,-0.00833762023448944,0.2375596328407526,-0.200551506178081
1775751035886343400,2.258343505859375,-0.03084163992218673,0.22630407933294772,-0.026054624841362235
1775751035896357600,2.268357666015625,-0.04508892259187996,0.19890110862255095,0.16088701978772876
1775751035906371300,2.278371337890625,-0.0837677589457482,0.16147884820103645,0.25950653010234237
1775751035916385500,2.288385498046875,-0.1385492235124111,0.14884031590223312,0.24932737365439533
1775751035926399500,2.2983994140625,-0.01976151604652405,0.14489245505928994,0.08930734595954418
1775751035936413400,2.308413330078125,0.08207629872746765,0.1984673933804035,-0.05604512782692909
1775751035947052500,2.319052490234375,0.1678723486304283,0.1660077238023281,-0.0840067553333938
1775751035957066500,2.32906640625,0.16783150516338646,0.12904548210799693,-0.056686348339915274
1775751035967080400,2.33908056640625,0.0838473269879818,0.148788293454051,0.03138210347443819
1775751035977094400,2.349094482421875,0.0005822568673640489,0.09928805722594261,0.15268515476211905
1775751035987108400,2.3591083984375,-0.010740005201101303,-0.0006096563309431075,0.2563634097710252
1775751035997122600,2.36912255859375,0.04531447497606277,-0.060471712097525596,0.2665083716884255
1775751036007136500,2.379136474609375,0.08507482295632361,-0.047369069418311115,0.14131152783259748
1775751036017150500,2.389150390625,0.1203366174083203,-0.0068862523823976516,0.03684811379536986
1775751036027164400,2.399164306640625,0.0959760831337422,0.0482978747010231,0.012243249370902777
1775751036037178600,2.4091787109375,0.023378537499904633,0.004970774149894714,0.025909078890830276
1775751036047192600,2.419192626953125,-0.04814005379080772,-0.03920972836017608,-0.028090952974557874
1775751036057206300,2.429206298828125,-0.07729132947325706,-0.029006898775696753,-0.16737053658813236
1775751036067220500,2.439220458984375,-0.13972060537934303,-0.004205050474405289,-0.2889062275879085
1775751036077234400,2.449234375,-0.1807867021959275,-0.022749591946601866,-0.37964930543899533
1775751036087248600,2.45924853515625,-0.14618074130415915,0.0007505261063575744,-0.396489088819921
1775751036097262300,2.469262451171875,-0.09410685519576072,0.05083996039927006,-0.3520096033632755
1775751036107276500,2.479276611328125,-0.036298736284300685,0.047262686434388156,-0.2231689961776137
1775751036117290500,2.48929052734375,0.017816227197647094,0.0373702379733324,-0.1009109822526574
1775751036127304400,2.499304443359375,0.06822196089811623,0.045133857712149617,-0.019278554835170505
1775751036137318400,2.509318359375,0.039278775008395314,0.06260521699488163,-0.044194677165895695
1775751036147332400,2.519332275390625,0.06169752756543457,0.069708326998353,-0.17891630521416663
1775751036157346600,2.5293466796875,0.12691964906044303,0.09415244790315627,-0.2596662507086992
1775751036167360500,2.539360595703125,0.12985979416556656,0.0687058719575405,-0.23262787552699446
1775751036177374500,2.54937451171875,0.06128010587096214,0.01990472390949726,-0.13064809499904512
1775751036187388400,2.559388427734375,-0.06703413935303687,-0.026632570859789848,0.000026741876453161238
1775751036197402400,2.56940234375,-0.16862755091190337,-0.03664484630823135,0.10591215154081582
1775751036207416600,2.57941650390625,-0.23676760568022726,-0.026593407893180845,0.11554726423993707
1775751036217430300,2.58943017578125,-0.24179675895385444,-0.05246785386204719,0.05289367805868387
1775751036227444500,2.599444580078125,-0.16406016993112862,-0.06665712273418903,-0.08243556049391627
1775751036237458400,2.60945849609375,-0.09808861830830573,-0.029076456880569455,-0.13360650641322136
1775751036247472600,2.61947265625,-0.031392332607507706,-0.04509352570176124,-0.13774945143684744
1775751036257486600,2.629486572265625,0.03157126937098801,-0.08931845187544822,-0.06213569978699088
1775751036267500300,2.639500244140625,0.08227386712618172,-0.06355798767507076,0.008734072206169367
1775751036277514500,2.649514404296875,0.07701419303230941,-0.06389291871786117,0.0695800244435668
1775751036287528400,2.659528564453125,0.06622749914526939,-0.07333528532385826,0.07445289117693901
1775751036297542700,2.669542724609375,0.12058335871100424,-0.03421674237847328,0.06169730836972594
1775751036307556400,2.679556396484375,0.18233816942162812,-0.020789105528593064,0.10196092969700693
1775751036317570600,2.689570556640625,0.10410919377207756,0.0033849662631750105,0.14156842520311474
1775751036327584500,2.69958447265625,-0.05817271444015205,0.010412088420987129,0.1381637313261628
1775751036337598500,2.709598388671875,-0.20545009187459945,0.026578210324048994,0.06213131587281823
1775751036347612400,2.7196123046875,-0.2506827337861061,0.07088789217174053,-0.04188493891879916
1775751036357626400,2.72962646484375,-0.285299289137125,0.1052361519753933,-0.10640972579941153
1775751036367640600,2.739640625,-0.29916064122915265,0.05930149927437305,-0.10488397753685712
1775751036377654500,2.749654541015625,-0.2726747853636741,0.05094342077374458,-0.08468655429109931
1775751036387668500,2.75966845703125,-0.21189634540453553,0.07361527130901813,-0.0794742264702916
1775751036397682700,2.7696826171875,-0.17683197322078048,0.04925122990310192,-0.08458382456898689
1775751036407696600,2.779696533203125,-0.12006905251331626,0.024139000478386876,-0.1371504626303911
1775751036417710600,2.789710693359375,-0.06323708515763282,0.07037000577747822,-0.15257672595158217
1775751036427724500,2.799724609375,0.014551160987094044,0.098438746920228,-0.08419161038100718
1775751036437738800,2.80973876953125,-0.012384922863915562,0.07934007869660854,0.07306435942798853
1775751036447752700,2.819752685546875,-0.06559738454818725,0.02982230681180954,0.20205767295733093
1775751036457766700,2.8297666015625,-0.07029927862882614,0.026979192340373992,0.2218064756527543
1775751036467780600,2.839780517578125,-0.03450666523575783,0.05655716900229454,0.17450886403545737
1775751036477794600,2.849794677734375,0.03804178055934608,0.08077157280445098,0.12079320206940174
1775751036487808800,2.859808837890625,0.013695347875356673,0.09896423209905623,0.05612155406400561
1775751036497822500,2.869822509765625,-0.023079408422857522,0.07776771481335162,0.052546033664792775
1775751036507836700,2.879836669921875,-0.05961421848535537,-0.012476035213470458,0.05670826791077852
1775751036517850600,2.8898505859375,-0.09412672894001006,-0.018139467802643774,0.024123510648310184
1775751036527864600,2.899864501953125,-0.07448686651177704,0.028178046736121176,-0.007434387784451246
1775751036537878800,2.909878662109375,-0.027448051961138843,0.04163549420237541,0.03275879865512252
1775751036547892500,2.919892578125,-0.041840149929001924,0.037063948503136636,0.11113719271272421
1775751036557906700,2.92990673828125,-0.10304660604186355,0.033494857844710346,0.18645517628639935
1775751036567920600,2.939920654296875,-0.08125796808190644,-0.01765782176554203,0.2020256703838706
1775751036577934800,2.949934814453125,-0.11169051574654877,0.021905542337894438,0.15658698450624942
1775751036587948500,2.959948486328125,-0.11887889288067817,0.03693184655606747,0.0835024590730667
1775751036597962500,2.96996240234375,-0.03775901809521019,0.045720717689394945,0.06213087748140096
1775751036607976700,2.979976806640625,-0.027646789403632282,0.05151274509429931,0.15879954598918555
1775751036617990700,2.98999072265625,0.006564034690707921,-0.017636194455623627,0.1826560762643814
1775751036628005600,3.000005615234375,0.00976151555776596,0.013833879563212394,0.159465462552011
1775751036638019600,3.01001953125,0.005520151660963893,0.036596915513277053,0.1370889417015016
1775751036648032800,3.02003271484375,0.010459434694051742,0.014275193589925765,0.09545432428196073
1775751036658047700,3.0300478515625,0.023295389261096713,-0.016814941200613973,0.06631240094974637
1775751036668061700,3.040061767578125,-0.01638422163315117,-0.03464110527038574,0.029673838251829145
1775751036678075600,3.05007568359375,-0.14770985056757927,0.032902152648568155,-0.08128186041414737
1775751036688089600,3.060089599609375,-0.29787235498428344,0.07422375859618187,-0.29970483110845086
1775751036698103600,3.070103515625,-0.4654735585231334,0.09506956274807453,-0.4262197718255222
1775751036708117800,3.08011767578125,-0.5095921017128974,0.030483401069045065,-0.36879941012263295
1775751036718131500,3.09013134765625,-0.5187235026735812,0.02946750202476978,-0.3699456575483083
1775751036728145700,3.100145751953125,-0.5167770447809249,0.011992051088809966,-0.23245427252575754
1775751036738159600,3.11015966796875,-0.4415864869792014,-0.029462241327762602,-0.13532383172512052
1775751036748173800,3.120173828125,-0.29175007271170617,-0.05235737922489643,-0.10370704271197319
1775751036758187500,3.1301875,-0.12529935438223183,-0.06141513042747974,-0.13978358761295676
1775751036768201500,3.140201416015625,-0.008671966755390167,-0.17441840927302837,-0.21021219170987604
1775751036778215700,3.150215576171875,-0.019016689028590918,-0.17591361626684665,-0.213040547003597
1775751036788229600,3.160229736328125,-0.03451725969500839,-0.21217852334678172,-0.23217779367193578
1775751036798243600,3.17024365234375,-0.07097849306464195,-0.18340192619562148,-0.28944281868264077
1775751036808257500,3.180257568359375,-0.05551555099487304,-0.1716284862935543,-0.3770822314299643
1775751036818271700,3.190271728515625,-0.05207622419595718,-0.21318623908460138,-0.4732340364567935
1775751036828285700,3.20028564453125,-0.10410809779353439,-0.24962591820955274,-0.6565590980239212
1775751036838299600,3.210299560546875,-0.1835937224406749,-0.26705402287244795,-0.8359253389626741
1775751036848313600,3.220313720703125,-0.23356464492045342,-0.24136545486450195,-0.9762965172052382
1775751036858327600,3.23032763671875,-0.28397717368789016,-0.17176643345952033,-1.0844368661895394
1775751036868341800,3.240341796875,-0.3256418939847499,-0.06760872437059878,-1.1425792585566639
1775751036878355700,3.250355712890625,-0.4975580381132662,0.060547115421295164,-1.1979134616352618
1775751036888369700,3.26036962890625,-0.5991946312267333,0.1145686284661293,-1.3182929683372377
1775751036898383600,3.270383544921875,-0.6461492746252566,0.30123394037187096,-1.3737405686624347
1775751036908397600,3.2803974609375,-0.7235177609879523,0.46571372395455835,-1.4699297830902038
1775751036918411800,3.290411865234375,-0.7061199783980846,0.486138087823987,-1.510518836979568
1775751036928425500,3.300425537109375,-0.5956198414798826,0.4618646473109722,-1.6312024411946535
1775751036938439700,3.310439697265625,-0.4395382492125034,0.5545405929207802,-1.7666516528651117
1775751036948453600,3.32045361328125,-0.22444829539842903,0.550993714094162,-1.8746410490714012
1775751036958467800,3.3304677734375,0.05749693407043814,0.46904374516010283,-1.950605952246487
1775751036968481500,3.3404814453125,0.14296250991001724,0.4418634772896766,-1.8674093442521988
1775751036978495500,3.35049560546875,0.14641688814759254,0.3440986841082573,-1.7492488287739454
1775751036988509700,3.360509765625,-0.053777255960181354,0.2237602400690317,-1.6103177663370967
1775751036998523600,3.370523681640625,-0.18647541535682974,0.14911445666849613,-1.415273771534115
1775751037008537600,3.38053759765625,-0.4115079403840005,0.16509060895740985,-1.1115040290743112
1775751037018551600,3.390551513671875,-0.5992975801445544,0.08912731321752071,-0.9663394790753722
1775751037028565800,3.400565673828125,-0.7469912102296948,0.06145663148164749,-1.0381281194791196
1775751037038579700,3.410579833984375,-0.8171114790298044,0.26788579752147196,-0.9678731183834374
1775751037048593400,3.420593505859375,-0.7112523728504776,0.3154115188062191,-0.7078326275348663
1775751037058607600,3.430607666015625,-0.7414476046279073,0.2343400862723589,-0.48030514388680456
1775751037068621600,3.44062158203125,-0.6449591149926185,0.21503215921223162,-0.3472413660481572
1775751037078635800,3.4506357421875,-0.576396012506634,0.2730202378004789,-0.32752252009958027
1775751037088649700,3.460649658203125,-0.43497649425491686,0.3230155640691519,-0.30782208659052845
1775751037098663700,3.47066357421875,-0.11770064288154243,0.32513270235359665,-0.1380820443920791
1775751037108677600,3.480677734375,0.2196948903262615,0.3086947777718305,0.16013824724704026
1775751037118691600,3.490691650390625,0.42979426931142806,0.33538404725492,0.3531194643013179
1775751037128705800,3.500705810546875,0.5191792105518281,0.38685996747016904,0.5251622304841875
1775751037138719500,3.510719482421875,0.4380079709053039,0.47032034096717834,0.674929744233936
1775751037148733700,3.520733642578125,0.413725470302999,0.522048774638772,0.6733361914321779
1775751037158747600,3.53074755859375,0.27730039933770895,0.5256494294792413,0.5503858113288879
1775751037168761900,3.540761962890625,0.20054244608879088,0.4840682958126068,0.43233284787833687
1775751037178775600,3.550775634765625,0.2503390349149704,0.4319505705624819,0.32111528340578077
1775751037188789500,3.56078955078125,0.30687764534726736,0.3278670957535505,0.2534653502419591
1775751037198803700,3.5708037109375,0.24760814864635466,0.05200257443785667,0.3362921020105481
1775751037208817700,3.580817626953125,0.009198182586580514,-0.03350713280439377,0.29824966386407614
1775751037218831600,3.59083154296875,-0.10729001576527952,0.02848842785954475,0.40227644004970786
1775751037228845600,3.600845458984375,-0.3827729904174804,0.05512625941634178,0.600349281154573
1775751037238859800,3.61085986328125,-0.6859399446785449,0.029551088654994964,0.6551221970885992
1775751037248873700,3.620873779296875,-0.9598106618285178,-0.00395487510561943,0.7497317411094904
1775751037258887400,3.630887451171875,-1.2352033278487622,0.1231131694495678,0.7661392705529928
1775751037268901600,3.640901611328125,-1.3274250999502837,0.3196113085836172,0.8361708381563424
1775751037278915600,3.65091552734375,-1.3373415138088165,0.4107733424991369,1.0174889438152313
1775751037288929800,3.6609296875,-1.2402103423558175,0.47226153816282745,1.1148001480102538
1775751037298943500,3.670943603515625,-0.9798853354774415,0.46594051844775675,1.1150509079009294
1775751037308957700,3.680957763671875,-0.7335071670174598,0.4575730875968933,1.0429141847118735
1775751037318971600,3.6909716796875,-0.4911094464957714,0.3499959254533052,1.0469345262691379
1775751037328985600,3.700985595703125,-0.18316694839596748,0.2012877114981413,1.0211363604068755
1775751037338999800,3.710999755859375,0.36432679475322366,0.16079086593687533,1.023293246179819
1775751037349013500,3.721013427734375,0.766922237624228,0.00768061763048172,1.0381520848765968
1775751037359027700,3.73102783203125,0.8759528134465218,-0.04867956749498844,0.8404621056094765
1775751037369041700,3.741041748046875,0.9092645698092877,-0.003830371943116188,0.7709981087610125
1775751037379055600,3.7510556640625,0.7716986582458019,-0.07348024675250053,0.8949515284270048
1775751037389069600,3.761069580078125,0.5881669681906699,-0.1991033531963825,1.0262982732146977
1775751037399083500,3.77108349609375,0.28519641328454015,-0.14886545034348964,1.0737371929988264
1775751037409097500,3.781097412109375,-0.008336158929765225,-0.13604220912754536,1.17481388720721
1775751037419111400,3.791111328125,-0.1767828003168106,-0.20993454381227492,1.3307836165979503
1775751037429125600,3.801125732421875,-0.2856502945318818,-0.1855804392784834,1.357260120113194
1775751037439139300,3.811139404296875,-0.18803952286839484,-0.16621990524828434,1.2999065400362013
1775751037449153500,3.821153564453125,-0.06605564970970153,-0.24482348636388776,1.2649968469575046
1775751037459167500,3.83116748046875,-0.10544190368056297,-0.19924130036234855,1.062434585478902
1775751037469181400,3.841181396484375,0.021812895618379114,-0.12008125440776347,0.9174734490975737
1775751037479195400,3.8511953125,0.20535306124091146,-0.13151099543869493,0.8315238891333341
1775751037489209300,3.861209228515625,0.35276582855805755,-0.09629998132586479,0.8117883843109012
1775751037499223600,3.8712236328125,0.3305493205748498,-0.14203472754061222,0.7249339844614267
1775751037509237500,3.881237548828125,0.22505495605468748,-0.23467267922759055,0.5798185343012213
1775751037519251700,3.891251708984375,0.1209144903615117,-0.33268881682157514,0.49686231093406674
1775751037529265400,3.901265380859375,0.023748247595131396,-0.358636912548542,0.41755554998517036
1775751037539279400,3.911279296875,0.03391746717095375,-0.35989363461136814,0.3685077336996794
1775751037549293600,3.92129345703125,0.0752116005897522,-0.40407705973088737,0.3721668407291174
1775751037559307500,3.9313076171875,0.048733781900256866,-0.34917584124207496,0.34350860926061866
1775751037569321500,3.941321533203125,0.1385971543073654,-0.3131897511035204,0.2766460270822048
1775751037579335400,3.95133544921875,0.06075754330158233,-0.26148528282940386,0.05940992808490991
1775751037589349600,3.961349609375,-0.014657763166725634,-0.3260071471005678,-0.16141893470734356
1775751037599363600,3.971363525390625,-0.013239713062345981,-0.4123293397694826,-0.2976648497134447
1775751037609377300,3.981377197265625,0.0323847046457231,-0.3091547964990139,-0.4440343915879726
1775751037619391500,3.9913916015625,0.11367767097577453,-0.19088789803683756,-0.605914221805334
1775751037629405400,4.001405517578125,0.1380428814254701,-0.10809037236273288,-0.6639496466666459
1775751037639419600,4.011419677734375,0.03090571813434362,-0.06552607287764549,-0.5101104995638132
1775751037649433300,4.021433349609375,-0.0742246353790164,-0.048103228911757466,-0.35168519371449947
1775751037659447600,4.031447509765625,-0.1238274551987648,-0.013567922103404998,-0.22434856135100126
1775751037669461500,4.04146142578125,-0.20961393355578184,-0.040754619714617725,-0.08918839575499296
1775751037679475500,4.051475341796875,-0.23660759281292557,-0.03300502850115299,-0.0947264483988285
1775751037689489400,4.061489501953125,-0.2013493785575032,0.03194353674948215,-0.1540416839376092
1775751037699503400,4.07150341796875,-0.11327537378519772,0.13547756098210811,-0.13574205713719129
1775751037709517600,4.081517578125,-0.08876432512402534,0.17730770097374915,-0.19941811823397873
1775751037719531500,4.091531494140625,-0.0385901351571083,0.20303484742641448,-0.3125777566850185
1775751037729545500,4.10154541015625,-0.024374855060875413,0.18517127395570276,-0.30634412299245595
1775751037739559400,4.111559326171875,-0.05510404758453369,0.1490682794392109,-0.1608925727456808
1775751037749573400,4.121573486328125,-0.10850275255590677,0.10941139183342456,-0.014587036018073558
1775751037759587600,4.131587646484375,-0.4445569541573524,0.17621464504003523,0.05270166261792183
1775751037769601500,4.1416015625,-0.21029709351435302,0.14685235695540905,-0.012223521757125854
1775751037779615500,4.151615478515625,0.05065115982890129,0.2124152547121048,-0.289422798807919
1775751037789629400,4.16162939453125,-0.29505627465024586,0.39675767662823197,-0.20296791967004538
1775751037799643400,4.171643310546875,-0.35131869848966596,0.2533580904752016,-0.15696750825643538
1775751037809657600,4.18165771484375,-0.29387305621504783,0.08069967661201953,-0.21280863794386384
1775751037819671300,4.19167138671875,-0.19625074024423955,0.07339549107849598,-0.023928280337154863
1775751037829685500,4.201685546875,-0.2192437855578959,0.13800211102366447,0.0758928608521819
1775751037839699500,4.211699462890625,-0.24451266684904693,0.09679273327887057,0.18527327302545307
1775751037849713700,4.221713623046875,-0.15277794761210678,0.04196048837304115,0.33195962576419114
1775751037859727400,4.231727294921875,-0.18168007083907722,0.08473930739164352,0.18213614404350517
1775751037869741300,4.2417412109375,0.044777591620385644,0.15224106425642966,-0.10595277581214904
1775751037879755500,4.251755615234375,0.3382312533795833,0.17440028909444807,-0.3408089949131012
1775751037889769500,4.26176953125,0.4415571878194809,0.13481412863731385,-0.3309016411438584
1775751037899783400,4.271783447265625,0.47441316323876376,-0.00039396775364875793,-0.21834142989069222
1775751037909797400,4.28179736328125,0.3306558496892452,-0.07257306877970696,-0.12944704864621162
1775751037919811600,4.2918115234375,0.17883783315047622,-0.12863631678521634,0.06633855830430985
1775751037929825500,4.301825439453125,-0.009302227482944726,-0.12081015320420264,0.17078765155524014
1775751037939839500,4.311839599609375,-0.19490999315977095,-0.1464975521683693,0.24977380224764345
1775751037949853400,4.321853515625,-0.2670645442664623,-0.17676234205067157,0.2577709384813905
1775751037959867400,4.331867431640625,-0.284612037525326,-0.11907295414805412,0.08990881898403168
1775751037969881600,4.341881591796875,-0.18317279361486433,-0.04638648812174797,-0.024592297203838823
1775751037979895300,4.351895263671875,-0.06423997858986258,-0.05648994898498058,-0.041323651774227615
1775751037989909500,4.361909423828125,0.1013490814089775,-0.170338446483016,0.043991994200646874
1775751037999923500,4.37192333984375,0.17190554966926574,-0.1629056661337614,0.1608303211644292
1775751038009937400,4.3819375,0.07314239310026169,-0.10077683447897434,0.21554010873436927
1775751038019951600,4.39195166015625,0.050377749715000385,-0.1611158601075411,0.2383940378382802
1775751038029965300,4.40196533203125,-0.04539513899683952,-0.13323942666649818,0.16531798797249794
1775751038039979500,4.4119794921875,-0.1656324607491493,-0.08649754923582076,0.12829378695785998
1775751038049993500,4.421993408203125,-0.35910803719162937,-0.005431377398967743,0.04744242691546678
1775751038060007700,4.432007568359375,-0.37481297132372854,0.08045534646213054,0.06588467705696821
1775751038070021400,4.442021484375,-0.4566634254060685,0.10280103378295898,0.1509431334003806
1775751038080035300,4.452035400390625,-0.5011724292181432,0.09997779305577277,0.1741363774612546
1775751038090049500,4.462049560546875,-0.5191980613827705,0.09800853880941868,0.010269757340848446
1775751038100063500,4.4720634765625,-0.3234476718761027,0.12555530190467834,-0.19338585233241318
1775751038110077400,4.482077392578125,-0.052514761743694544,0.13843991791903973,-0.33283611633777616
1775751038120091400,4.49209130859375,0.010807517479360103,0.13622224186956883,-0.35044980670064685
1775751038130105600,4.502105712890625,0.06066504271253943,0.13513327758908272,-0.2337704696908593
1775751038140119600,4.51211962890625,0.15034239102825522,0.08640168764591216,0.03871726866811514
1775751038150134500,4.522134521484375,1.6071664626993238,0.27858547071218487,0.397902755010128
1775751038160147500,4.5321474609375,1.9450166078068314,-0.04772445872724056,0.15946517029106616
1775751038170162400,4.542162353515625,-0.14115721405372023,-1.3202502398848532,-0.9409025477409362
1775751038180175600,4.552175537109375,-0.9421687682844698,-1.5043711280047893,-0.6142717157840728
1775751038190190600,4.562190673828125,0.13433584360107778,-1.565319809964299,0.4629536115914583
1775751038200204300,4.572204345703125,0.3825821440204978,-1.1333294919133186,1.0467641381382942
1775751038210217500,4.582217529296875,-0.6200890237607062,-1.2956693408578634,1.2244009249359369
1775751038220232400,4.592232421875,-1.068756481976807,-1.6414724907964466,1.140848196980357
1775751038230246700,4.60224658203125,-0.821904412394762,-1.6279828946262598,1.0176987871736287
1775751038240260400,4.61226025390625,-0.6639923167645931,-1.613317824935913,1.14441407276839
1775751038250274300,4.6222744140625,-0.821301039674133,-1.7622183465927839,1.4844938766241074
1775751038260288500,4.63228857421875,-0.8708722953118383,-2.007695912951231,1.800156155321002
1775751038270302500,4.642302490234375,-0.6673441114105284,-2.2026228572458026,1.899970866769552
1775751038280316400,4.65231640625,-0.3019312749862671,-2.3996727850437165,1.8316069401174782
1775751038290330400,4.662330322265625,-0.15434315110221505,-2.588828160199523,1.7454460754901169
1775751038300344600,4.672344482421875,-0.11760229707360267,-2.8450960006415844,1.6283450059369204
1775751038310358500,4.682358642578125,-0.018116671448946,-2.952353429311514,1.4652058233082295
1775751038320372500,4.69237255859375,-0.10589330070987343,-2.829057889032364,1.3052502391517162
1775751038330386400,4.702386474609375,-0.3741514386750757,-2.699107567039132,1.2781307615578175
1775751038340400400,4.712400390625,-0.5597089354693889,-2.535370710778236,1.3085755841821431
1775751038350414600,4.72241455078125,-0.48438729863390323,-2.3355367052197455,1.3029098135054111
1775751038360428500,4.732428466796875,-0.47059740434288977,-2.0944243483334777,1.3313552790060639
1775751038370442500,4.7424423828125,-0.49998935691341756,-1.878517744374275,1.434351543100178
1775751038380456400,4.75245654296875,-0.29892902443036434,-1.5764666424006222,1.3767311287805437
1775751038390470400,4.762470458984375,-0.009911299291998148,-1.426815594637394,1.174953587938845
1775751038400485400,4.7724853515625,0.16661898756846785,-1.335055010306835,1.1199097461089491
1775751038410499300,4.782499267578125,0.3012941461265087,-1.212770692896843,1.0293614601776002
1775751038420513300,4.79251318359375,0.5425974955402314,-1.1336340278178452,0.9132894414111972
1775751038430527200,4.80252734375,0.5824237483635545,-1.0317425100952387,0.856147750519216
1775751038440541200,4.812541259765625,0.4471649446986615,-0.9478869998008013,1.0419596604660153
1775751038450555400,4.822555419921875,0.1782604716539383,-0.8298048102557659,1.163429738883674
1775751038460569300,4.8325693359375,-0.12474047839045524,-0.538747980505228,1.2112567812025545
1775751038470583300,4.842583251953125,-0.13172215397134424,-0.32320319559574123,1.0185784926176071
1775751038480597200,4.85259716796875,0.2934016393110156,-0.13554945717453956,0.400679818508029
1775751038490611200,4.862611083984375,0.687957714241743,-0.00888882437646389,-0.36736820827573535
1775751038500625400,4.87262548828125,0.8521297470495104,0.03356032429635525,-0.9089835609108209
1775751038510639000,4.88263916015625,0.8787155561581254,0.045589200264215465,-1.0383762490212918
1775751038520653300,4.8926533203125,0.7333075527921319,0.2478460490554571,-0.8948959988474845
1775751038530667300,4.902667236328125,0.5656335032127797,0.440896678084135,-0.6078358375176787
1775751038540681500,4.912681396484375,0.24808614142164587,0.685969755294919,-0.09538900396078824
1775751038550695200,4.922695068359375,-0.03158259448260069,0.8096464038461446,0.572898087388277
1775751038560709000,4.932709228515625,-0.34624387944340707,0.9001765695989131,1.1102484760552644
1775751038570723300,4.942723388671875,-0.547791410921514,0.9602566520303487,1.1697872912168503
1775751038580737300,4.9527373046875,-0.39491964754611253,1.175875086697936,0.6621092794969677
1775751038590751200,4.962751220703125,-0.353207873237133,1.2776760035276413,0.03217559193968773
1775751038600765200,4.97276513671875,-0.2801438060700893,1.2664596129864454,-0.4701318326577544
1775751038610779400,4.982779296875,0.06023527299314737,1.2919769160807133,-0.7126826979145408
1775751038620793300,4.99279345703125,0.1472011703930795,1.1940987256526947,-0.776815855129063
1775751038630807000,5.00280712890625,-0.023833441660553217,0.9233230519086122,-0.7474699336573482
1775751038640821200,5.0128212890625,-0.06928776349872351,0.8206406760692596,-0.6944681190490722
1775751038650835200,5.022835205078125,-0.24647885235548017,0.9649696520268917,-0.47266836539804935
1775751038660849400,5.032849365234375,-0.5962919685877859,0.9759715230345726,-0.09881927067041396
1775751038670863000,5.042863037109375,-0.8848536205217242,0.9661603231161833,0.21758418178260325
1775751038680877300,5.052877197265625,-0.7445788883909583,1.013020858490467,0.3899278306081891
1775751038690891300,5.062891357421875,-0.48396352026388045,1.1263128911495208,0.3999117567449808
1775751038700905200,5.0729052734375,-0.34397023542299865,1.0260936905533076,0.29368016399145125
1775751038710919400,5.08291943359375,-0.3868798412144184,0.9232306974500417,-0.09406476961970328
1775751038720933000,5.09293310546875,-0.22184826896786689,0.9496230298131704,-0.8500061790242791
1775751038730947300,5.102947265625,-0.007124152791500091,0.9129244074910878,-1.277085344158113
1775751038740961300,5.112961181640625,-0.008284721003472804,0.7814882308542728,-1.2284510771095751
1775751038750975500,5.1229755859375,-0.06378185955882072,0.6373930636525154,-1.0545759809330104
1775751038760989200,5.1329892578125,-0.2985609217703342,0.4941062902241945,-0.7647057306185364
1775751038771003100,5.143003173828125,-0.5248866284132003,0.46500294533669945,-0.5887494442537426
1775751038781017300,5.153017333984375,-0.50805561286062,0.3641314183115959,-0.31533786904811856
1775751038791031300,5.16303125,-0.5533364778280258,0.2865998503416777,0.20454057581424712
1775751038801045200,5.173045166015625,-0.6419543802186847,0.14656535670757292,0.6963657693639397
1775751038811059200,5.18305908203125,-0.8474488957569003,0.18866320772469042,0.8199179147526622
1775751038821073400,5.193073486328125,-0.8793836646780371,0.10920739369392395,0.724375766056776
1775751038831087400,5.20308740234375,-0.7057412082135677,0.10213234074115753,0.08386223229616879
1775751038841101000,5.21310107421875,-0.35534605430960653,-0.07047405067384242,-0.3277063522338867
1775751038851115300,5.223115234375,-0.01155658228099346,-0.2979711391836405,-0.17255816835910082
1775751038861129200,5.233129150390625,0.4016413570165634,-0.07479132935106754,-0.007546469856798649
1775751038871143400,5.243143310546875,0.8179264486744999,0.005077741655707359,0.3075421006053686
1775751038881157000,5.2531572265625,0.8680690744593739,0.36388416555225844,0.3181882900431752
1775751038891171300,5.26317138671875,0.9747647775933146,0.875560599258542,0.17512743432521818
1775751038901185300,5.273185302734375,0.7253694532692432,1.3579174149781466,-0.05241612367480993
1775751038911199200,5.28319921875,0.047587096083164214,1.829341333273053,-0.7837953387528658
1775751038921213200,5.293213134765625,-0.6929296574354171,2.2711124561041593,-1.8016662676230073
1775751038931227100,5.30322705078125,-1.5983292223796248,2.8669962822824715,-2.9194898551076647
1775751038941241300,5.313241455078125,-2.2726678688526154,3.037649201542139,-3.9432507187992334
1775751038951255300,5.32325537109375,-2.6531191383242607,3.058756871500611,-4.728900160986185
1775751038961269500,5.33326953125,-2.921030070286989,3.078333678629994,-5.387226122552156
1775751038971283200,5.343283203125,-3.0309061570227143,2.9815526357889173,-5.916214925587177
1775751038981297200,5.353297119140625,-2.993069762842357,2.883884873241186,-6.01999678710103
1775751038991311400,5.363311279296875,-3.0561212623000142,2.594011115795374,-5.525021312826872
1775751039001325300,5.3733251953125,-3.11786080237627,2.572829796078801,-4.889336222136021
1775751039011339300,5.38333935546875,-2.8780057520747184,2.933276388397813,-4.467005420573056
1775751039021353200,5.393353271484375,-2.4380574607565997,3.2000504252851005,-4.158995994716882
1775751039031367400,5.403367431640625,-1.770998449897766,3.2427403969764708,-3.7268738669797776
1775751039041381400,5.41338134765625,-1.1413155222311615,3.1546681457698345,-3.393599943746626
1775751039051395000,5.42339501953125,-0.6826786047950386,3.1272616679280993,-3.130619746184349
1775751039061409300,5.4334091796875,-0.2722504224717617,3.0800609408140183,-2.929747629749775
1775751039071423200,5.44342333984375,-0.06073153207749128,2.9378420888781545,-2.7451594163790345
1775751039081437400,5.4534375,-0.08513093705773353,2.8909458976685998,-2.7438275832533834
1775751039091451100,5.463451171875,-0.1331201842010021,2.815922513127327,-2.5873779613912102
1775751039101465300,5.47346533203125,-0.23409838647097347,2.645842425319552,-2.9534619750753044
1775751039111479300,5.483479248046875,0.24678309599906204,2.343825225615501,-3.0262755746126175
1775751039121493200,5.4934931640625,0.7597121601149439,2.051036457505822,-2.671587107428908
1775751039131507200,5.503507080078125,1.0524223100304604,1.611195425954461,-1.9072081245467065
1775751039141521200,5.513521240234375,1.0442109465241431,1.2841221109271048,-0.6941703051462769
1775751039151535400,5.523535400390625,1.3255802027359604,1.2174562203645705,-0.0682400080114603
1775751039161549300,5.53354931640625,1.4988599633678794,1.2379974886119365,0.3297562705010176
1775751039171563300,5.543563232421875,0.8551140235573053,0.9708405898869037,0.7154711595892905
1775751039181577200,5.5535771484375,0.3244502730473876,1.0650146650999783,0.7889639735624193
1775751039191591200,5.563591064453125,-0.2565647775620222,1.0234487290024756,0.7710670823439956
1775751039201605400,5.57360546875,-0.7093038691312075,1.2844114492624998,0.17478490449786185
1775751039211619300,5.583619384765625,-0.6831137813419104,1.4135153835594654,0.0357189636349678
1775751039221633300,5.59363330078125,-0.8410445816725493,1.2561252659767865,0.2437476738259196
1775751039231646200,5.603646240234375,-0.7485135974913835,1.216685235992074,0.47976972183585165
1775751039241661200,5.6136611328125,-0.5444219344884157,0.977992215207219,1.024738768813014
1775751039251675400,5.62367529296875,-0.41572541194856166,1.0777817922145128,1.313159989362955
1775751039261689000,5.633689208984375,-0.0343073432713747,0.5604845960170031,1.2858978884279728
1775751039271702300,5.643702392578125,0.4345920249819755,0.23759295058846472,0.6914540319249034
1775751039281717200,5.65371728515625,1.0173714549154043,-0.03185761203169823,0.4863184128269553
1775751039291730200,5.663730224609375,1.1711445510447025,-0.6533505112409591,0.5334057426944375
1775751039301744000,5.673744140625,1.5293480406120419,-0.383973013857007,0.0475789127767086
1775751039311758300,5.68375830078125,2.0563617441818116,-0.4889385321974754,-0.2914385225445032
1775751039321773300,5.693773193359375,1.786849222241342,-0.6413602137178183,0.002679448342323303
1775751039331786200,5.7037861328125,1.5645175536707043,-0.423992305034399,0.3549120468065142
1775751039341800200,5.71380029296875,1.5152172239288686,-0.4172679652154445,0.6682648795172572
1775751039351814100,5.723814208984375,1.3650138029798864,-0.5700356836944818,0.9871630713954568
1775751039361828400,5.733828369140625,0.974935750246048,-1.3554974943548441,1.5456363275900482
1775751039371842000,5.743842041015625,0.5527876117736101,-1.4723966115951537,1.4287877714931965
1775751039381856300,5.753856201171875,0.35510990746617316,-1.4373165303856135,1.4050202346757052
1775751039391870200,5.7638701171875,0.09846475814431906,-1.344542385098338,1.5034174805417655
1775751039401884400,5.773884521484375,0.22185265288203954,-0.9196838186234235,1.251150400173664
1775751039411898400,5.7838984375,0.35219080514907836,-0.7600882999509573,1.1737690543293953
1775751039421912300,5.793912353515625,0.19960370393395424,-0.5850111345082522,1.3500260772064328
1775751039431926300,5.80392626953125,0.0659001668870449,-0.7539882295101881,1.6939043965622782
1775751039441940200,5.813940185546875,-0.28921733936369415,-1.0070692566096782,2.026820884659886
1775751039451954400,5.823954345703125,-0.3658779697179794,-0.7853355539321899,2.23821264154315
1775751039461968100,5.833968017578125,-0.2218523606210947,-0.819138454812765,2.740865518577397
1775751039471982300,5.843982421875,0.08454699968993663,-0.6349257967561484,3.012999621193111
1775751039481996300,5.853996337890625,0.33591859252303835,-0.4615191948741674,2.768978391122818
1775751039492010200,5.86401025390625,0.3282476195037365,-0.7505676074117422,2.4355846409022806
1775751039502024200,5.874024169921875,0.31909634479880333,-0.8344733865886926,1.9956053699240088
1775751039512038100,5.8840380859375,0.3843798410922289,-0.7674772411584854,1.3121496432766317
1775751039522052400,5.89405224609375,0.549212675896287,-0.8390957856923341,0.5226970094144344
1775751039532066300,5.90406640625,0.7460635739907622,-1.1293997512489558,-0.1304345983788371
1775751039542080300,5.914080322265625,0.891081116734445,-1.2240677474588155,-0.6020978783875703
1775751039552094200,5.92409423828125,1.0025678535372018,-0.928332989025116,-0.8333999121382832
1775751039562108200,5.934108154296875,0.8963771773159503,-0.6897925284534693,-0.8160325977519154
1775751039572122400,5.944122314453125,0.6582634177237748,-0.43365795900225634,-0.8316840481311082
1775751039582136000,5.954135986328125,0.3115852385163307,-0.42476913462579247,-0.8140376245424151
1775751039592150300,5.964150390625,-0.04355506408810615,-0.4762766190230846,-1.1451111151218414
1775751039602164200,5.974164306640625,-0.20468787533044813,-0.5917097553640603,-1.3984408562853932
1775751039612178400,5.984178466796875,-0.3402250575453043,-0.6831365776956081,-1.3668097464859486
1775751039622192400,5.9941923828125,-0.38033261152803893,-0.6268716696381569,-1.142342234930396
1775751039632206000,6.0042060546875,-0.16089607987701893,-0.669440060776472,-0.7257549454554915
1775751039642220300,6.01422021484375,0.10732874034047127,-0.40719314592480654,-0.674171765473485
1775751039652234200,6.024234130859375,0.24496932457536458,-0.09235445857048034,-0.578698298099637
1775751039662248400,6.03424853515625,0.3447822824582457,0.25674481030404567,-0.41700200775563717
1775751039672262100,6.04426220703125,0.34602000755965706,0.7607792048245668,-0.2577946116179228
1775751039682276400,6.0542763671875,0.3614087153494358,1.036699255719781,-0.08240706505179404
1775751039692290300,6.064290283203125,0.2636234639018774,1.253610652807355,-0.11284487341344356
1775751039702304300,6.07430419921875,-0.17995149348080158,1.2278817527890205,0.10664280390292405
1775751039712318200,6.084318115234375,-0.7120879468917847,0.8730220206916331,0.35125235525518655
1775751039722332200,6.094332275390625,-1.1484659785076976,0.7053910796016454,0.049749534814059734
1775751039732346400,6.104346435546875,-1.140432309655845,0.5145528659254313,-0.33019700000584123
1775751039742360300,6.1143603515625,-0.8838996807977557,0.4890951840639114,-0.7130652674913406
1775751039752374300,6.124374267578125,-0.36602088532000776,0.200262460103631,-0.9439262794762849
1775751039762388200,6.13438818359375,0.21429975328445433,-0.004933949270844459,-0.983009166586399
1775751039772402200,6.144402099609375,1.0759960778415203,-0.040758711367845535,-0.8718371948212384
1775751039782416400,6.15441650390625,1.641785210007429,-0.34166415043771264,-0.4802905308395624
1775751039792430000,6.16443017578125,1.819328181041777,-0.1120417403370142,0.01216273148059845
1775751039802444300,6.1744443359375,1.7655547975391148,0.04795183774232864,0.6828443167507648
1775751039812458200,6.184458251953125,1.185002396005392,-0.0961293009340763,1.5006749038353562
1775751039822472400,6.194472412109375,0.3699225689336657,-0.44787528492510315,2.2367536749064922
1775751039832486100,6.204486083984375,-0.34758331135362386,-0.8300117310047149,2.4279236047551036
1775751039842500000,6.2145,-0.7897580465495586,-1.018082233533263,2.3012293619483706
1775751039852514300,6.224514404296875,-0.8171686160445213,-1.261190148150921,2.161885188665986
1775751039862528300,6.2345283203125,-0.48881461355686184,-1.2367606402933597,1.8859607538565992
1775751039872542500,6.24454248046875,-0.041110593545436856,-1.2354407898664475,1.6442802416935562
1775751039882556200,6.25455615234375,0.2892696540728211,-1.4579174198657274,1.6479007702782749
1775751039892570400,6.2645703125,0.39699090086221694,-1.4498884271889925,1.760768732306361
1775751039902584300,6.274584228515625,0.13273673784136772,-1.5996020187944173,2.035711170341074
1775751039912598300,6.284598388671875,-0.14797902289777992,-1.5766063431322574,2.088646641714871
1775751039922612200,6.2946123046875,-0.43603024109154936,-1.3392711666971444,2.0292527879819273
1775751039932626200,6.304626220703125,-0.6370274452105165,-1.0613386069357396,1.7141992888331412
1775751039942640400,6.314640380859375,-0.7150593639180064,-0.8973878156632185,1.1889856204226612
1775751039952654300,6.324654296875,-0.6305854294642805,-0.8559224173307418,0.667810121487081
1775751039962668300,6.334668212890625,-0.45619244689345356,-0.8342822479307651,0.35656069079637526
1775751039972682200,6.34468212890625,-0.1767240558668971,-0.7310200263768434,0.1445142693966627
1775751039982696200,6.3546962890625,0.1100657640889287,-0.702775344145298,0.07441226690560579
1775751039992710400,6.36471044921875,0.43061610708832737,-0.5252279891967773,-0.122415250313282
1775751040002724000,6.37472412109375,0.6605147037819028,-0.18814181419908999,-0.1617100266084075
1775751040012738300,6.38473828125,0.7882546562492847,-0.04889584059417248,0.0016702712997794151
1775751040022752300,6.394752197265625,0.8135282137155533,0.15478899517357347,0.029850656123459336
1775751040032766500,6.404766357421875,0.5655450942769646,0.4759007714480161,0.023486089527606963
1775751040042780200,6.4147802734375,0.23480916508883237,0.5423129795104265,0.04771656768172979
1775751040052794000,6.424794189453125,-0.030279987451434134,0.48426586421132084,-0.049014206276834005
1775751040062808300,6.434808349609375,-0.12578706483393906,0.5047492647916079,-0.24916297687292097
1775751040072822300,6.444822265625,-0.055305415375530714,0.4057441161602735,-0.2664075416624546
1775751040082836200,6.454836181640625,0.02156242798864841,0.33048926095068454,-0.10374299080818891
1775751040092850200,6.46485009765625,0.14923048426359892,0.32824937306940555,0.006003039807081222
1775751040102864400,6.474864501953125,0.25065759934484955,0.14079671017825604,0.10697159746587276
1775751040112878300,6.48487841796875,-0.012761866417527199,-0.2122363910138607,0.20831278782933949
1775751040122892300,6.494892333984375,-0.24288170464634895,-0.5233651179343461,0.3439113448426127
1775751040132906200,6.50490625,-0.3954807885602116,-1.152692948552966,0.6700631611108779
1775751040142920200,6.514920166015625,-0.5673454216971993,-1.971511085370183,1.163853224992752
1775751040152934400,6.524934326171875,-0.5581809952497482,-2.86423850800693,1.667664039890468
1775751040162948400,6.5349482421875,-0.36510435499697924,-3.7498622361183163,2.1743623929232356
1775751040172962300,6.54496240234375,-0.27739100023061036,-4.401438723424077,2.6293331890672444
1775751040182976300,6.554976318359375,-0.38488136087357994,-4.86904571377933,3.011097294703126
1775751040192990200,6.564990234375,-0.385239380531013,-4.841042439088225,3.2317017010897398
1775751040203004400,6.57500439453125,-0.23311200578212737,-4.745883444491029,3.481173890042305
1775751040213018000,6.58501806640625,0.1394599086165428,-4.584143315005302,3.7753453446820378
1775751040223032300,6.5950322265625,0.6488043922439217,-4.276436379227042,3.8725995579928156
1775751040233046300,6.60504638671875,0.872835850469768,-4.041137677055597,3.905348273645341
1775751040243060200,6.615060302734375,0.8837874525949359,-3.5439135470718144,3.6913702996611595
1775751040253074200,6.62507421875,0.6959367302969097,-3.0437405041545627,3.3264334101855755
1775751040263088000,6.635088134765625,0.3572282147943973,-2.62111714938581,2.9689699253305792
1775751040273102300,6.645102294921875,0.097841950070858,-2.2476637759774922,2.3062650180280206
1775751040283116300,6.6551162109375,0.07030746193528174,-1.92386553709805,1.522917423042655
1775751040293130200,6.665130126953125,0.11577625069022178,-1.654751074564457,1.2690662883535027
1775751040303144200,6.675144287109375,0.3508969659462571,-1.4296505258023737,1.1098431101247668
1775751040313158400,6.685158447265625,0.604647855131328,-1.3038584925323724,0.9355348832279443
1775751040323172400,6.69517236328125,0.7616682626187801,-1.1084142463654278,0.8281775013148784
1775751040333186000,6.70518603515625,0.7720999325230717,-0.9185837484270334,0.6811439425736665
1775751040343200300,6.7152001953125,0.9407304060444235,-0.6847095261007548,0.11612959417253732
1775751040353214200,6.725214111328125,1.2872516411244868,-0.38075054467916486,-0.5449386518388987
1775751040363228400,6.735228515625,1.5188003431126473,-0.0559662173718214,-0.9927142757818103
1775751040373242400,6.745242431640625,1.29823071577847,0.09243336902558803,-1.2238535201862453
1775751040383256300,6.75525634765625,1.1335410888373851,0.2450876902580261,-1.4999986120089888
1775751040393270300,6.765270263671875,0.9311968540236353,0.4235685266643762,-1.6146242313593626
1775751040403284000,6.775283935546875,0.5750654945552349,0.5542863258987665,-1.4915204142600298
1775751040413298200,6.785298095703125,0.05894084926843643,0.6260463247299194,-1.1345824145838617
1775751040423312100,6.79531201171875,-0.3667877780392766,0.7284668347626924,-0.7051619470208883
1775751040433326000,6.805326171875,-0.20109452701359987,0.7970183929413557,-0.5324044566974043
1775751040443340000,6.815340087890625,0.28017449346929785,0.7933037563323975,-0.5129340325519443
1775751040453353200,6.825353271484375,0.7938605134323239,0.6981663890451193,-0.4880903909355402
1775751040463368200,6.8353681640625,0.9916764571666717,0.7032037986904383,-0.5641095085158944
1775751040473381000,6.845381103515625,0.8417568215951323,0.7701181110560894,-0.6341638724729418
1775751040483395000,6.85539501953125,0.47758740936070676,0.896183700570464,-0.5286299065947533
1775751040493409300,6.8654091796875,-0.019316402627527714,0.9549187981337308,-0.28831396078318355
1775751040503423200,6.87542333984375,-0.2733124987453222,0.8799474360406399,-0.09043050477057694
1775751040513437000,6.88543701171875,-0.26212913369089363,0.9366419676870107,-0.0860036282390356
1775751040523451100,6.895451171875,-0.3625146307647228,1.0458832636505364,-0.11351941167414188
1775751040533465000,6.905465087890625,-0.688312226767838,1.0780366437584161,-0.16303016929626463
1775751040543479300,6.915479248046875,-0.7052116313815117,1.2108943776309489,-0.5098045023545622
1775751040553493000,6.925492919921875,-0.49054246026277537,1.2651076138556003,-0.8832058533146977
1775751040563507200,6.935507080078125,-0.45744244695454833,1.31440034481287,-1.0104594835698604
1775751040573521200,6.945521240234375,-0.3536430497840047,1.4151806864231824,-0.9974550405681133
1775751040583535000,6.95553515625,-0.1293748601928353,1.4784095882743595,-0.9379004433155059
1775751040593549000,6.965549072265625,0.041727556400001045,1.6252853261053561,-0.7904059890642762
1775751040603563000,6.97556298828125,0.15466653783768414,1.462515269050002,-0.44266514906138177
1775751040613577200,6.9855771484375,0.11039631121754645,1.4692857860982418,-0.32971418492496013
1775751040623591200,6.995591064453125,-0.03764788587093353,1.7426123133689164,-0.3523977258980274
1775751040633605000,7.005605224609375,-0.07355535781532525,1.914395113441348,-0.6647431351318955
1775751040643619000,7.015619140625,-0.02000935332775116,2.146064519199729,-1.1056909588813781
1775751040653633000,7.025633056640625,-0.15683306822180748,2.086878170737624,-1.1174120840743182
1775751040663647200,7.035647216796875,-0.47833735094517466,2.000765236905217,-1.045373268301785
1775751040673661000,7.045660888671875,-0.819509918473661,2.224184116190672,-1.0819076399728655
1775751040683675100,7.055675048828125,-1.2832818607106804,2.181799264925718,-1.02896135494411
1775751040693689000,7.065689208984375,-1.7253484593570232,1.9470611192464828,-0.8379352174803614
1775751040703703000,7.075703125,-1.7356629326224327,1.6830249828904866,-0.47314445847719905
1775751040713717000,7.085717041015625,-1.8287807767808437,1.4146914416015148,-0.5331292638406158
1775751040723731000,7.09573095703125,-1.8035306001901625,1.1288163984030484,-0.5793807274058461
1775751040733745200,7.1057451171875,-1.6277461632609367,1.069457615983486,-0.4106187364593148
1775751040743759000,7.115759033203125,-1.2909955038279295,0.8909744414895773,-0.2761389543429017
1775751040753773300,7.125773193359375,-0.8538964644610881,0.880872149670124,-0.27106881147176026
1775751040763787000,7.135787109375,-0.04501169263720512,1.0337637867897749,-0.19674100797921418
1775751040773801200,7.14580126953125,0.833776928757131,0.94527827860713,-0.2729255452543497
1775751040783815200,7.155815185546875,1.4612147078454494,1.189208031001687,-0.4723582765355706
1775751040793829000,7.1658291015625,1.5461369705885648,1.6092460454523563,-0.7119152206733822
1775751040803843000,7.175843017578125,1.4624261294618248,1.776554330459237,-0.9840437703311443
1775751040813857000,7.18585693359375,1.38140993424654,2.1099369747638703,-1.3724699642047284
1775751040823871200,7.195871337890625,1.055127185074985,2.55494576434195,-2.1373647876545787
1775751040833885200,7.20588525390625,0.41576457491517066,2.8618957442730664,-3.338865898518264
1775751040843899100,7.215899169921875,-0.4358639446139335,3.17412804852128,-4.971947869849204
1775751040853913000,7.2259130859375,-1.0814353462859987,3.3243735550463196,-6.419737278932333
1775751040863927000,7.235927001953125,-1.2419535327613354,3.1695185088992117,-7.3052657299757
1775751040873941200,7.245941162109375,-1.3205328562185168,2.959583965086937,-7.569789942109584
1775751040883955000,7.255954833984375,-1.469351398680359,2.8046283811748025,-7.517678646600246
1775751040893969200,7.26596923828125,-1.160156708562374,2.6475837160289286,-7.223399347671866
1775751040903983000,7.275983154296875,-1.0972551389694214,2.65923732894361,-6.419400009801984
1775751040913997000,7.2859970703125,-1.342447020254284,2.6708482717603443,-5.789531496435403
1775751040924011000,7.296010986328125,-1.8071075818940996,2.7539707916051146,-5.410889906734228
1775751040934025000,7.30602490234375,-2.247987016582489,2.6662965998053547,-4.592041667039692
1775751040944039200,7.3160390625,-2.4461501663193106,2.581464353433251,-3.6003593646541234
1775751040954053000,7.32605322265625,-2.1842203545928,2.596071555456519,-2.9561846780374643
1775751040964067000,7.336067138671875,-1.645254055161774,2.5072201365709303,-2.606758661426604
1775751040974081000,7.3460810546875,-1.2384510775983333,2.3770687390476466,-2.1554455110073087
1775751040984095000,7.356094970703125,-0.9960662165582179,2.022390208736062,-1.4390186581283806
1775751040994109200,7.366109130859375,-0.8605226046025752,1.6625322299599647,-1.1347726764589547
1775751041004123100,7.376123046875,-0.6818062058746814,1.2566396452397108,-1.040423244678974
1775751041014137000,7.38613720703125,-0.9551517301067709,0.25585399894416333,-0.15447744500637053
1775751041024151000,7.396151123046875,-1.5885200682878493,-0.090730656760931,0.7410472071334719
1775751041034164200,7.406164306640625,-1.6228421707369387,-0.03319850524663925,1.3132163957253098
1775751041044179200,7.41617919921875,-1.3545935312524437,0.21167057382464408,1.3021014197319745
1775751041054192000,7.426192138671875,-0.7533657136976718,0.9095394412279129,0.4542942120566964
1775751041064206000,7.4362060546875,0.2098838365383446,1.3869985480338334,-0.44502515619099137
1775751041074220300,7.44622021484375,0.9875310279250145,1.113988831627369,-0.7887962157800793
1775751041084234000,7.45623388671875,1.3606871719524263,-0.06636895344257354,-0.23684710065722464
1775751041094248000,7.466248046875,0.7563324545487761,-0.3447136011362076,0.6403241486683487
1775751041104262100,7.47626220703125,-0.07253127546459436,-0.26304128009974953,1.302292558389902
1775751041114276000,7.486276123046875,0.07386836928725242,-0.019778467181324956,1.6254025227442384
1775751041124290000,7.4962900390625,0.4703109886169433,0.3534118713766336,1.4828908253416417
1775751041134304000,7.506303955078125,0.7680360440850258,0.6310901641160249,1.0092767035260797
1775751041144318200,7.516318115234375,0.7606023869529366,0.8510591952085494,0.7932856361538171
1775751041154332200,7.526332275390625,0.8322913663744926,0.9060486765027046,0.5363835894614458
1775751041164345900,7.536345947265625,0.654753363776207,0.5303595068663358,0.5381330634772777
1775751041174360000,7.546360107421875,0.14968056611865757,0.2343079375684261,0.4531029564455151
1775751041184374000,7.5563740234375,-0.3569862227320671,-0.16796528761088847,0.764818543343246
1775751041194388200,7.56638818359375,-0.763649207302928,-0.5412637627184391,1.3322548581942915
1775751041204402200,7.576402099609375,-0.9982453141629696,-0.4144768731921911,1.6573326154902577
1775751041214416100,7.586416015625,-1.137683303208649,-0.3758165954083204,2.2528020156487822
1775751041224430000,7.59643017578125,-1.293113226634264,-0.14512567929327488,2.754604413333535
1775751041234444000,7.606444091796875,-1.12916769605875,0.14597908125221729,2.6628730550974606
1775751041244458200,7.616458251953125,-0.6139084354296326,0.3158879041463136,2.4802184401378033
1775751041254472000,7.626471923828125,0.10057283633947371,-0.14427695350944994,2.39162801027596
1775751041264486100,7.636486083984375,0.9097533762395381,-0.7086024428635835,2.242084222279489
1775751041274500000,7.6465,1.5148162419125437,-0.5867828203558921,1.7196233597084878
1775751041284514300,7.656514404296875,1.6557938616156578,-0.588870148023963,1.0417632611110805
1775751041294528000,7.666528076171875,1.4371768296539782,-0.5812175874441862,0.4698141450107097
1775751041304542000,7.6765419921875,1.093262854462862,-0.5298796143949032,-0.15594839434176683
1775751041314556200,7.68655615234375,0.6456739852637052,-0.4855366147994995,-0.5684346782386303
1775751041324570000,7.696570068359375,-0.07312865683585405,-0.5347656328707933,-0.023939093992114066
1775751041334584000,7.706583984375,-0.9133134068086742,-0.9027332683444023,0.7451324306204915
1775751041344598000,7.716597900390625,-1.1589581464275718,-1.1383172171980143,1.4576821498051284
1775751041354612200,7.7266123046875,-1.1117287777408957,-1.0421125129401683,1.6219056205391882
1775751041364626200,7.736626220703125,-0.60610828307271,-0.8388409341484308,1.06692342133075
1775751041374639900,7.746639892578125,-0.2270952297106385,-1.1936012975245713,0.9844131881654262
1775751041384654000,7.756654052734375,0.0974760393679142,-1.2450023989379406,0.9191288150891661
1775751041394668000,7.76666796875,0.6984814463436603,-1.1052379544168711,0.5481593674510717
1775751041404682500,7.7766826171875,1.1197764751181005,-1.1697405294656753,0.3530348547577858
1775751041414696400,7.786696533203125,0.9650330726519226,-1.1913707619935274,0.33753274972140784
1775751041424710400,7.79671044921875,0.5097320216402411,-1.4989344899088144,0.15163608410060406
1775751041434724600,7.806724609375,0.14892536383718252,-1.776584141075611,-0.24025223292559383
1775751041444738600,7.816738525390625,-0.06446311982125043,-1.5654238548606634,-0.33514673136770723
1775751041454752500,7.82675244140625,-0.34679829845577476,-1.4665917247086762,-0.45580666244626045
1775751041464766500,7.836766357421875,-0.3410357894062996,-0.8831237279891967,-0.6887909501954913
1775751041474780700,7.84678076171875,-0.264629426074028,-0.22447511034011838,-0.6076639880821109
1775751041484794600,7.856794677734375,-0.16021598865836859,0.18225217163860796,-0.8904109623879194
1775751041494808300,7.866808349609375,0.036223406025767325,0.7409943079024552,-1.6046908663660286
1775751041504821500,7.876821533203125,0.06874328135848044,1.0840186407774686,-2.1142653593569993
1775751041514835700,7.886835693359375,-0.21547873393595218,1.1945634205549955,-2.2608315928474068
1775751041524849400,7.896849365234375,-0.44562867504209275,1.0535217957049607,-2.2616373562723395
1775751041534863400,7.90686328125,-0.6653393474593758,0.9440507826387882,-1.979485425250232
1775751041544877600,7.916877685546875,-0.61596478343755,0.6972785002946853,-1.2392492422387003
1775751041554891500,7.9268916015625,-0.2030808785252273,0.31269056940972806,-0.2482417703747749
1775751041564905500,7.936905517578125,0.04764861701205372,0.3455401150882244,0.8755418945580721
1775751041574919400,7.94691943359375,0.44481794318109746,0.37893560421168804,1.6170935440823435
1775751041584933600,7.95693359375,0.9824418880924581,-0.12930617887079715,2.6022847308829427
1775751041594947600,7.966947509765625,1.1533321232393383,-0.4158844019025564,2.852275098490715
1775751041604961300,7.976961181640625,0.9069171299003064,-0.6826695447057485,3.0237179990842935
1775751041614975500,7.9869755859375,0.870953982245922,-1.2365151410996913,3.3500217910438774
1775751041624989400,7.996989501953125,0.7373147426068782,-1.5179887344688177,3.271261850322783
1775751041635003600,8.007003662109375,0.5813327382564545,-1.9268933604866265,3.365743968571722
1775751041645017600,8.017017578125,0.6108382342040538,-2.278893611499667,3.4314269855767487
1775751041655031600,8.027031494140624,0.49479777961969373,-2.3322043459266424,3.285053644309938
1775751041665045500,8.03704541015625,0.22148908026665448,-2.328056578597426,2.7924630193457007
1775751041675059500,8.0470595703125,-0.10360533590316771,-2.365371871513128,2.3482062171787024
1775751041685073700,8.05707373046875,-0.22595365846008061,-2.208770858481526,2.103517463110387
1775751041695087400,8.06708740234375,-0.27101488932743667,-2.1655226683855053,2.2514327731221915
1775751041705101600,8.0771015625,-0.49054158347994087,-1.8406845650643109,2.424322949914634
1775751041715115500,8.087115478515624,-0.5254642821706831,-1.2976210594475268,1.9891960874035954
1775751041725129700,8.097129638671875,-0.45569560328722,-0.9347563000708818,1.2758493726223707
1775751041735143400,8.107143310546874,-0.5192097518205643,-0.636295331543684,0.7302274146944284
1775751041745157400,8.117157470703125,-0.4256766048595309,-0.48949265894889826,0.04460486540198326
1775751041755171600,8.127171630859374,-0.44135976555123924,-0.3885352072060108,-0.40679128712564705
1775751041765185500,8.137185546875,-0.6067585636749864,-0.4287655107855797,-0.31754531596451996
1775751041775199500,8.147199462890624,-0.5990823299586773,-0.38146132329702376,-0.17289660653322933
1775751041785213400,8.15721337890625,-0.42535307199358935,-0.2550882752686739,-0.05656389100402593
1775751041795227600,8.1672275390625,-0.34471097078770396,-0.18332886095941064,-0.2926023056268692
1775751041805241600,8.17724169921875,-0.33913039417639373,-0.10448328778147697,-0.7303650695994496
1775751041815255300,8.18725537109375,-0.2837916610531509,-0.005473462975025177,-1.0676341999486088
1775751041825269500,8.19726953125,-0.0889686155244708,0.023590718945860862,-1.2122086750999093
1775751041835283500,8.207283447265626,-0.04410685275197029,0.05364215833842754,-1.058467143152654
1775751041845297700,8.217297607421875,0.1163711478434503,0.0891144537359476,-0.9066928196251391
1775751041855311600,8.2273115234375,0.31314591196179387,-0.0011374795973300934,-0.7635685432821512
1775751041865325600,8.23732568359375,0.27745734346508977,-0.11169570337831973,-0.4627767937198281
1775751041875339500,8.247339599609376,0.28676322420984507,-0.0830278272986412,-0.31877164288908244
1775751041885352700,8.257352783203125,0.35738252857327457,-0.08680909940302371,-0.15626403616219758
1775751041895366400,8.267366455078125,0.4559840648397803,-0.07734510548710823,-0.004554886825382709
1775751041905380600,8.277380615234375,0.5905431958027184,-0.006145663148164749,0.09170330118536948
1775751041915394600,8.28739453125,0.6196925717890263,0.11616671131253242,-0.011992635610699652
1775751041925408500,8.297408447265624,0.39935456125363705,0.2977116114646196,-0.2884671055182814
1775751041935422500,8.30742236328125,0.19010858422741292,0.522281998872757,-0.593452215117216
1775751041945436400,8.3174365234375,-0.0902992796063423,0.6045020169198513,-0.603635170957446
1775751041955450600,8.32745068359375,-0.31760932111144063,0.6187789640754461,-0.4893523736953735
1775751041965464600,8.337464599609374,-0.38270752396583557,0.5895131221026182,-0.201793615193665
1775751041975478500,8.347478515625,-0.3191631264247,0.3778168293148279,0.18771978939473627
1775751041985492500,8.357492431640624,-0.18092296886146067,0.17191373297572135,0.38232875378131864
1775751041995506400,8.36750634765625,0.07029255662709474,0.13720599220991134,0.41820699963122604
1775751042005520600,8.377520751953124,0.22652912026047706,0.1394090552121401,0.33178894537240267
1775751042015534300,8.387534423828125,0.24366964015364645,0.0639221448123455,0.22060849803984164
1775751042025548500,8.397548583984374,0.210831492651999,-0.01810147387981415,-0.0200075997620821
1775751042035562500,8.4075625,0.12915624900609254,-0.2396861234754324,-0.044726153694093225
1775751042045576400,8.417576416015624,0.0949032662704587,-0.6649263827443123,0.313302271567285
1775751042055590700,8.427590576171875,0.09190817610770463,-0.9992729036450385,0.3695031744778156
1775751042065604400,8.437604248046876,0.14326894551068545,-1.2837170372575522,0.3670832538545131
1775751042075618600,8.44761865234375,0.3019289368987083,-1.660371837055683,0.5844906177654862
1775751042085632500,8.457632568359376,0.49260056183636186,-2.1606009940743447,0.961490870000422
1775751042095646700,8.467646728515625,0.4754293545439839,-2.7789550107359884,1.469897195994854
1775751042105660400,8.477660400390626,0.4345417560994625,-3.3559482584834095,2.004664582431316
1775751042115674400,8.48767431640625,0.5859530915334821,-3.800408766528964,2.3696482336580753
1775751042125688600,8.4976884765625,0.7922294050991535,-4.032990026435256,2.6187530506029724
1775751042135702500,8.50770263671875,1.0443410026445985,-4.052648666629195,2.7459610881507395
1775751042145716500,8.517716552734376,1.3689210395514964,-3.8593355872720476,2.6755218165293333
1775751042155730400,8.52773046875,1.6315972857311367,-3.437006247013807,2.585805012986064
1775751042165744600,8.53774462890625,1.7983049744963644,-3.1090719312429425,2.5858093969002365
1775751042175758600,8.547758544921875,1.8223630186930297,-2.9674440309375525,2.509660515460372
1775751042185772500,8.5577724609375,1.6458382847905157,-2.824161933684349,2.4069980133652686
1775751042195786500,8.567786376953125,1.5127432350307701,-2.636786427682638,2.3070023923918606
1775751042205800400,8.577800537109376,1.3227400108739733,-2.3858897588849066,2.316934003819525
1775751042215814700,8.587814697265625,0.932141149136424,-2.180940017747879,2.3101780998185277
1775751042225827300,8.597827392578125,0.5883987311199307,-2.0236077678322792,2.108561887018382
1775751042235841500,8.607841552734374,0.43612201102823017,-1.89551739449203,1.8134958216264843
1775751042245855500,8.61785546875,0.21731588623523712,-1.799011076939106,1.5995713313952087
1775751042255869700,8.62786962890625,-0.024780220991373062,-1.72324651864171,1.6104443153262138
1775751042265883400,8.63788330078125,-0.22610709545612334,-1.5827730490684508,1.7809850063830612
1775751042275897600,8.647897705078124,-0.33300942707806824,-1.4888871431469917,1.8337012820482252
1775751042285911600,8.65791162109375,-0.5191209044933319,-1.276331603181362,1.4624959798276425
1775751042295925500,8.667925537109374,-0.6355711089223622,-1.0108622191518544,0.7779974661290645
1775751042305939500,8.677939453125,-0.718709995380044,-0.8823205949127674,0.03347556862235069
1775751042315953400,8.687953369140626,-0.8562772221177816,-0.8590805891007185,-0.3062573214918375
1775751042325967600,8.697967529296875,-0.7307330261290073,-0.8381821779787539,-0.4358434863477945
1775751042335981600,8.707981689453124,-0.4564592811360955,-0.696202980017662,-0.45093058084249493
1775751042345995500,8.71799560546875,-0.1380678697362542,-0.5309510430186987,-0.3510638469457626
1775751042356009500,8.728009521484376,0.11890022792965173,-0.40965924377739427,-0.015318565163016318
1775751042366023400,8.7380234375,0.07137246081829071,-0.2361480124771595,0.5229454312175512
1775751042376037600,8.74803759765625,-0.09703209499269723,-0.09080021486580371,1.0718179153740406
1775751042386051300,8.75805126953125,-0.1435319803610444,0.05305062218606472,1.3003899396389722
1775751042396065500,8.7680654296875,-0.13165361877977846,0.4236906917393207,0.9041267685294151
1775751042406079500,8.77807958984375,-0.14231997422277926,0.8193681719154119,-0.12671323976814747
1775751042416093700,8.78809375,-0.18243337342441082,1.1026116975665092,-1.3928373371899128
1775751042426107600,8.798107666015625,-0.2618134918704629,1.187141746121645,-2.12379423520267
1775751042436121600,8.80812158203125,-0.5314738978490233,1.1858481991797685,-2.236602868258953
1775751042446135600,8.818135498046875,-0.7496937471866607,1.1141776321977377,-1.9209645549595356
1775751042456149500,8.8281494140625,-0.9094017863228917,1.023524716848135,-1.3512912748366595
1775751042466163700,8.838163818359375,-0.8827955189481377,1.0092764112651347,-0.7612789710402488
1775751042476177700,8.848177734375,-0.7637979681238531,0.9115513655722141,-0.16650632097423076
1775751042486191900,8.85819189453125,-0.48981911442428827,0.7994874134033918,0.3096288437515497
1775751042496205600,8.86820556640625,-0.03725625620484352,0.9348708663612604,0.40078444792628287
1775751042506219500,8.878219482421875,0.48514907678663727,1.192210719949007,0.125897247210145
1775751042516233700,8.888233642578125,0.7103603924468159,1.4462211368530988,-1.1470301004856824
1775751042526247700,8.89824755859375,0.6951987714111805,1.6040128209739923,-2.7868399187669155
1775751042536261600,8.90826171875,0.3735483582153916,1.4318407293230295,-3.3336195222973823
1775751042546274600,8.918274658203124,0.21363018345981835,1.4409008186131715,-3.0703575851842757
1775751042556288800,8.928288818359375,0.19242022217065094,1.3632383177399634,-2.4275360667422414
1775751042566302500,8.938302490234374,0.07132832941561937,1.1951608019262552,-1.6170336305886506
1775751042576316700,8.948316650390625,0.10019786554723978,1.0232231035530566,-0.9117366590112447
1775751042586330600,8.95833056640625,0.024986264957487583,0.8406938685387373,-0.17591361626684665
1775751042596344800,8.9683447265625,-0.1047434000223875,0.6893816095650196,0.6753390556871891
1775751042606358500,8.978358642578126,-0.09435001630187034,0.29942776773273944,1.675250841757655
1775751042616372500,8.98837255859375,-0.00003039513826370239,0.10570318496525287,2.2805840488046405
1775751042626386700,8.99838671875,0.06254588802307844,0.3809235631585121,2.076799844315648
1775751042636400600,9.008400634765625,0.014025018221139907,0.6323410409599542,1.3804314446032047
1775751042646414800,9.018414794921876,0.06575900485068559,0.632686493396759,0.7452735926568508
1775751042656428500,9.028428466796875,-0.09855769712477921,0.9367372447550296,0.6682879681318998
1775751042666442800,9.03844287109375,-0.6524141071736812,1.184435409772396,0.8696922917470336
1775751042676456700,9.048456787109375,-1.0678601176589726,1.1978946108043194,0.6329559579879045
1775751042686470700,9.058470703125,-1.1577312349811195,0.8825397906213999,0.5464303517013788
1775751042696484600,9.068484619140625,-1.1355132656931877,0.9841653508841991,-0.03926438115686178
1775751042706498600,9.07849853515625,-0.45459699439555407,0.935388168233633,-0.3388461704075336
1775751042716512800,9.0885126953125,-0.11546674634963273,1.5121230573058126,-0.35372459058761596
1775751042726526700,9.098526611328126,-0.040621933245658874,2.2501713748842476,-0.9801064308822155
1775751042736540700,9.108540771484375,0.0933107363820076,3.1722102322012184,-2.448993280790746
1775751042746554600,9.1185546875,0.07859276746064424,4.05329339427352,-4.57334836474657
1775751042756568600,9.128568603515625,-0.7206701895371079,4.753962121528387,-6.840745599719882
1775751042766582800,9.138582763671875,-1.7351196195259688,4.934697458863258,-8.277357196706532
1775751042776596500,9.148596435546875,-2.258648695850372,4.863315061172843,-8.003983323162794
1775751042786610700,9.158610595703125,-2.263231347465515,4.982800103253126,-6.787761613029241
1775751042796624600,9.168624755859375,-2.229577791927755,4.78165092344284,-5.151320102137327
1775751042806638600,9.178638671875,-2.431065409912169,4.189445493516326,-3.390190719825029
1775751042816652500,9.188652587890624,-2.5651263820946215,4.222050709044933,-2.5726293050706386
1775751042826665700,9.198665771484375,-2.726245457072556,4.917440619114041,-3.1186832246750593
1775751042836679700,9.2086796875,-2.986404167473316,5.049904969754815,-4.305947135871649
1775751042846693600,9.218693603515625,-3.154724844393134,4.552981284022331,-4.947914667832851
1775751042856707600,9.22870751953125,-2.8031869501948354,3.744536657181382,-4.997508427563309
1775751042866721500,9.238721435546875,-2.139161607943475,2.791561978852749,-4.843208677211403
1775751042876735700,9.24873583984375,-1.823576486136019,2.270852928385138,-4.244407502281666
1775751042886749700,9.258749755859375,-1.9031214397549627,2.230017644649744,-3.1351395616963504
1775751042896763600,9.268763671875,-2.128275180009007,2.389626022803783,-2.579989020183682
1775751042906777600,9.278777587890625,-1.9053803245976566,2.6875363717108964,-2.2260455261483787
1775751042916791600,9.28879150390625,-1.5848849266558884,2.499016371849179,-2.046467542155087
1775751042926805800,9.2988056640625,-0.7845242375493049,2.297760224533081,-2.481712478087842
1775751042936819500,9.3088193359375,0.16035042869299648,1.2915116366565227,-2.065288562481105
1775751042946833700,9.318833740234375,0.23863018468171357,0.3474526707112789,-1.996084385612607
1775751042956847600,9.32884765625,0.13931640849262475,-0.06586392652988433,-1.9242861005976795
1775751042966861800,9.33886181640625,-0.4056371486544609,-0.514527146962285,-0.9742144502341746
1775751042976875500,9.34887548828125,-0.44653994466811414,-0.2526964116960764,-0.06116086340546607
1775751042986889700,9.3588896484375,-0.03191577195972204,-0.015731237617135047,0.9503168572962284
1775751042996903700,9.368903564453126,0.2110766995847225,0.07178747135996819,0.9106292822912335
1775751043006917600,9.378917724609375,0.7737892007842659,0.10846797350347041,0.12405424969196319
1775751043016931600,9.388931640625,1.1039113819882274,-0.4204389964669943,0.24785773949325082
1775751043026945500,9.398945556640625,0.9545525951698421,-0.4494184227138757,0.09664689506739377
1775751043036959700,9.408959716796875,0.8540227211892605,-0.19697627803981302,0.19192630117386578
1775751043046973700,9.4189736328125,0.5550982268035412,-0.11013678349852561,1.0199068186119198
1775751043056987600,9.428987548828125,0.045939621137082574,0.22735271160304546,1.4522846746757625
1775751043067001600,9.439001708984375,-0.36529958530813456,0.29353754065036775,1.6153481617197394
1775751043077015600,9.449015625,-0.9627984454676508,-0.15509937629699705,1.7024530291989444
1775751043087029800,9.45902978515625,-1.6446932064086197,-0.3294043883234262,1.4868769723683595
1775751043097042700,9.469042724609375,-2.1146248403191565,-0.729317898634076,1.6933868024289607
1775751043107056600,9.479056640625,-1.9440403101205825,-0.7927215725302695,1.7282684384569524
1775751043117070600,9.489070556640625,-1.2225851076856256,-0.38773616578280923,1.2987562009572982
1775751043127084800,9.499084716796874,-0.6263631355941295,-0.389157723018527,0.997328783839941
1775751043137098500,9.509098388671875,-0.15869214009195565,-0.20932488748133182,0.7164724455863237
1775751043147112700,9.51911279296875,0.23075725934952496,-0.047967035311460494,0.6536646917566656
1775751043157126700,9.529126708984375,0.7329226451277733,-0.07006780796051025,0.40137715312242506
1775751043167140600,9.539140625,1.2123778941869734,-0.3103863841205835,0.8081199249312281
1775751043177154600,9.549154541015625,1.3718527090892194,-0.623245880356431,1.5832199160531162
1775751043187168500,9.55916845703125,1.1359475654572249,-0.7349795776575804,1.9454498846575616
1775751043197182700,9.5691826171875,0.5961874853000044,-0.9254542187184095,1.865835957455635
1775751043207196700,9.57919677734375,-0.07904197253286838,-1.0712228720903396,1.506074132530391
1775751043217210600,9.589210693359375,-0.37668110328316684,-0.999529508754611,1.098219892348349
1775751043227224600,9.599224609375,-0.4345581227123737,-1.011294180828333,0.8261533020108938
1775751043237238500,9.609238525390625,-0.20916443622261285,-0.8452320964902639,0.44799803452193737
1775751043247252700,9.619252685546876,0.3040884530201554,-0.8563122934311628,0.33528204818516966
1775751043257266400,9.629266357421875,0.6727738813742995,-0.8129249871253966,0.4096040064588189
1775751043267280600,9.63928076171875,0.8738564256891608,-0.594498509299755,0.4807379823461175
1775751043277294600,9.649294677734375,0.8267576976448296,-0.5658253725230693,0.587668955540657
1775751043287308800,9.659308837890626,0.7388634333536028,-0.28580665413737294,0.7733616230219602
1775751043297322800,9.66932275390625,0.521276621222496,-0.186733700966835,0.8783584132835268
1775751043307336400,9.67933642578125,0.18364742538928985,-0.4366577253401279,0.8866980793446302
1775751043317350700,9.6893505859375,0.018866905294358728,-0.30284312913417816,0.9841182968720793
1775751043327364600,9.699364501953125,0.02855477109402418,-0.24333120197951794,1.2772262139335273
1775751043337378800,9.70937890625,-0.27008535339236256,-0.5557184045284986,1.3779413813531398
1775751043347392500,9.719392578125,-0.5634487065196037,-0.5823433766037225,1.0804258769825101
1775751043357405700,9.72940576171875,-0.48917234095335005,-0.6228454828619957,0.46881841197162866
1775751043367419600,9.739419677734375,-0.5863739472940563,-0.6915671369105577,-0.034767654259502886
1775751043377433600,9.74943359375,-0.724525111399591,-0.46602235151231286,-0.6221341197222471
1775751043387447600,9.759447509765625,-0.6009805647954345,-0.4422983615756035,-1.2219909411847591
1775751043397461800,9.769461669921874,-0.2691410582795739,-0.47607437444925305,-1.24284931255728
1775751043407475000,9.779474853515625,0.10442308202683925,-0.7241542322605848,-0.771306736318767
1775751043417489200,9.7894892578125,0.5003238495647907,-0.9839052386432886,-0.22394377994239328
1775751043427503000,9.799503173828125,0.6663152067542075,-1.0864905838489531,0.2865694552034139
1775751043437517000,9.80951708984375,1.0326990801677107,-1.3400351368069647,0.6413318644061684
1775751043447531000,9.819531005859375,1.346441204456985,-1.2600514995098113,0.8493553139001131
1775751043457545000,9.829544921875,1.6241431703329086,-0.9948217694550752,0.6791162361383438
1775751043467559200,9.83955908203125,1.5609443713590503,-0.9382365434020757,0.5139776963859797
1775751043477573000,9.849572998046876,1.4101251565992832,-0.7365209618806838,0.2025745364382863
1775751043487587300,9.85958740234375,1.323701257121563,-0.5577297443509102,0.050806934912502766
1775751043497601000,9.86960107421875,0.8689914500012993,-0.6147019238948822,-0.28638328498154875
1775751043507615000,9.879614990234375,0.4694973341464996,-0.8785065895825624,-0.2686699336364865
1775751043517629200,9.889629150390626,0.0749503193050623,-1.2279787834227085,0.2876858920127153
1775751043527643100,9.89964306640625,-0.052233752845227716,-1.322117787322402,0.4863780340597033
1775751043537657000,9.909656982421875,-0.17066344065368175,-1.5031810414373874,0.2004439541503787
1775751043547671000,9.919671142578125,-0.18407763350009917,-1.431748374864459,-0.3670952365532517
1775751043557685200,9.929685302734375,0.12257190217971801,-1.4970897388249635,-0.4071341092139482
1775751043567699200,9.93969921875,0.40944034032970666,-1.683505459883809,0.05543167210370302
1775751043577713000,9.949712890625,0.6602022768318653,-1.8205355110049246,0.8155269863173366
1775751043587727000,9.95972705078125,0.665809010797739,-2.0070546924382446,1.5717118490889668
1775751043597740300,9.969740234375,0.5090791106894612,-1.9342641815155743,1.891645521494746
1775751043607754000,9.97975390625,0.42378333845883603,-1.9724328763902186,1.5440370756998658
1775751043617768000,9.989767822265625,0.28528672191649673,-1.8253636618137359,1.1682798092633484
1775751043627782100,9.9997822265625,0.24673458068221807,-1.5969821916848421,0.8170762615859508
1775751043637796000,10.009796142578125,0.1819768618285656,-1.5063058954596518,0.8140811714231967
1775751043647810000,10.01981005859375,0.108313951985538,-1.3361568340688943,1.165910157522559
1775751043657824000,10.029823974609375,0.10163111322075127,-1.1648539264678954,1.4363482698753476
1775751043667838200,10.039838134765626,0.05086772518903017,-0.9469102637231349,1.3965119340494274
1775751043677852200,10.04985205078125,-0.1377566118299961,-0.7276227851539849,1.3133832767248153
1775751043687866000,10.0598662109375,-0.3251382553115487,-0.5021931505680084,1.2034800097212195
1775751043697880000,10.069880126953125,-0.4912783733218908,-0.2152946095407009,0.8786103422179817
1775751043707894000,10.07989404296875,-0.6211810567811131,-0.007876432463526725,0.181181619797647
1775751043717908200,10.089908203125,-0.7042062537312507,0.22534429439008236,-0.5085998027399182
1775751043727922200,10.099922119140626,-0.5272770306810737,0.36649931648671624,-0.9165180480688809
1775751043737936100,10.10993603515625,-0.36419922285079953,0.25750351971685886,-0.882061943976581
1775751043747950000,10.1199501953125,-0.2627040109694004,0.13972294346690178,-0.6200336403116583
1775751043757964000,10.129964111328125,-0.11419950289279222,0.2187619933903217,-0.4873743516206741
1775751043767978200,10.139978271484376,-0.028734219314157962,0.3086497695863247,-0.4772817044124007
1775751043777992000,10.149991943359375,0.05999532675743103,0.2612643335551023,-0.3034747050359845
1775751043788006100,10.160006103515625,0.1490340849086642,0.2194382852166891,-0.08703414033055305
1775751043798020000,10.17002001953125,0.29930297230929137,0.15807050106227397,-0.16197306145876644
1775751043808034300,10.180034423828126,0.4339592800363898,0.013657938474416731,-0.3805263805344701
1775751043818048000,10.190048095703125,0.45277182479500766,0.0010544774889945983,-0.6759367293193936
1775751043828062000,10.20006201171875,0.46786534903049465,0.05208733011186122,-1.0013605235740541
1775751043838075100,10.2100751953125,0.4280117698088288,-0.0077414079070091246,-0.9699918641030788
1775751043848089000,10.220089111328125,0.395515567612648,0.002284311544895172,-0.4489823693841696
1775751043858103000,10.23010302734375,0.4429062643408775,0.014018003958463667,0.1297068686261773
1775751043868117000,10.240116943359375,0.45626580439060926,-0.0013140052080154417,0.3536147004723549
1775751043878131200,10.250131103515624,0.34967385389208794,0.017864157992601392,0.29591011500060554
1775751043888145200,10.260145263671875,0.17813538396954534,-0.05721300256252288,0.3015966362044215
1775751043898159000,10.2701591796875,0.015476093812286852,-0.08792728977799415,0.3415501686692238
1775751043908173000,10.280173095703125,-0.1618970736131072,0.06402268257737159,0.41434155637472864
1775751043918187300,10.290187255859376,-0.3559209315881133,0.22139467998147008,0.4736065230309963
1775751043928201200,10.300201171875,-0.5004474759444594,0.44892625528275965,0.3394064346387982
1775751043938215000,10.31021484375,-0.5675505888804793,0.60586570648849,0.14333382744044065
1775751043948229000,10.32022900390625,-0.5621627583622932,0.5552344204038381,0.11376987930387258
1775751043958243000,10.3302431640625,-0.534145162884891,0.31774902184307574,0.40544864034503697
1775751043968257300,10.34025732421875,-0.42345571393966674,0.19905425335764884,0.5569476540625095
1775751043978271000,10.35027099609375,-0.25060674594044685,0.16162731676101683,0.5309516275405883
1775751043988285200,10.36028515625,-0.012729717713594435,0.020782675787806508,0.40285160958915944
1775751043998299100,10.370299072265626,0.04836217210888862,-0.05791676691770553,0.1461994460046291
1775751044008313000,10.38031298828125,0.09546265371888875,-0.25881051066219807,-0.06805617587715387
1775751044018327000,10.3903271484375,0.13868337128609418,-0.5834837788105011,-0.2890577648878097
1775751044028341000,10.400341064453125,0.13016834865808485,-1.0082599276989699,-0.3214882083714008
1775751044038355200,10.410355224609376,0.07954495361894369,-1.4019570477128027,-0.13453209682554007
1775751044048369200,10.420369140625,0.16682079375088213,-2.010035754075646,0.23224779016822575
1775751044058383000,10.430383056640625,0.3410542018458247,-2.650682851088047,0.6702101683661341
1775751044068396000,10.44039599609375,0.6146253515273332,-3.161597652772069,1.1241598047688603
1775751044078410200,10.45041015625,0.8366177051410079,-3.642518298208713,1.5401362688690423
1775751044088424200,10.460424072265624,1.1130164794638753,-4.0285026518881315,2.0513626207202673
1775751044098438100,10.470438232421875,1.3934955088377,-4.543391033378243,2.524563485559821
1775751044108452000,10.4804521484375,1.7108599152773618,-4.594328608933091,2.634408300374448
1775751044118466000,10.490466064453125,2.074394244478643,-4.395922005829215,2.7721163968876
1775751044128480300,10.500480224609374,2.2624022031649944,-4.171684211376309,3.0156860837981103
1775751044138494000,10.510493896484375,2.195838603933155,-3.70451795052588,3.045883361402154
1775751044148508200,10.520508056640624,1.987496005487442,-3.264083044734597,2.9374338003382086
1775751044158522000,10.530522216796875,1.4326865324974059,-2.6724498617380856,2.7136206610381604
1775751044168536000,10.5405361328125,0.7151131399318575,-2.2512240988075733,2.45220318274796
1775751044178550000,10.550550048828125,0.07360504217594861,-1.865494596672058,2.206484793370962
1775751044188564000,10.56056396484375,-0.2603390354037285,-1.6022463958233595,2.157220703986287
1775751044198578200,10.570578125,-0.6271396729245782,-1.3893576783806085,2.354767475390434
1775751044208592100,10.580592041015626,-0.8721984293490648,-1.1633055279821156,2.64200503911376
1775751044218606000,10.590606201171875,-0.8237892032280564,-0.905531374630332,2.7945874641537665
1775751044228620000,10.6006201171875,-0.5434738399833441,-0.7738713261097669,2.5284300978600975
1775751044238634000,10.610634033203125,-0.22350246591567993,-0.6586538783460855,1.932006173455715
1775751044248648200,10.620648193359376,0.21308014836162328,-0.4342489106327295,1.3645008850216864
1775751044258662000,10.630661865234375,0.6080263916537165,-0.3606804010748863,0.9888602307021618
1775751044268676000,10.640676025390626,0.9672913729727267,0.028097967237234112,0.5097241305947303
1775751044278690000,10.65068994140625,0.9462038690194488,0.3994219274014234,-0.14842004466354847
1775751044288703200,10.660703125,0.36781770560890437,0.5602542943924665,-0.6046867258369922
1775751044298717000,10.670717041015624,-0.3569949905604124,0.8770049528479575,-0.6858528509169817
1775751044308731100,10.680731201171875,-0.9293439196333289,1.0656336737811565,-0.54782677449584
1775751044318745000,10.6907451171875,-1.270626669538021,1.0912415777683258,-0.18597732964158056
1775751044328759300,10.70075927734375,-1.4848285154059528,1.1751631390362978,0.06516308478415012
1775751044338773000,10.71077294921875,-1.545864291127026,1.2875526698976754,0.1515682795614004
1775751044348787000,10.720786865234375,-1.771664512591064,1.2187953600138426,0.1991951231330633
1775751044358801200,10.73080126953125,-1.808321049337089,1.267372636178136,-0.19554478393197058
1775751044368815000,10.740815185546875,-1.6526012030541897,1.1984615970373154,-0.5460165102034807
1775751044378829000,10.7508291015625,-1.2415116342127321,0.9496902498304843,-0.9134247582286595
1775751044388843000,10.760843017578125,-0.7201686697557568,0.9118436265170574,-1.285166067022085
1775751044398857200,10.770857177734374,-0.07862082451134919,0.8029612269937991,-1.4590379483282565
1775751044408871200,10.78087109375,0.5180293098643421,0.8242629582196473,-1.4838444728046656
1775751044418885000,10.790885009765624,0.7632187069311738,0.7926309716373682,-1.2731214089632032
1775751044428899300,10.8008994140625,0.6831435919582843,0.8027934692114591,-1.0609282725691795
1775751044438913000,10.8109130859375,0.5023816588774324,0.8031886060088872,-0.7763368394404649
1775751044448927200,10.82092724609375,0.19349428114295006,0.7569757208883762,-0.4509375951051712
1775751044458941200,10.830941162109376,0.06677928780913353,0.8955635228455067,-0.3111754886716604
1775751044468955400,10.840955322265625,0.17716040145754813,0.9601169512987137,-0.2596481305301189
1775751044478969300,10.85096923828125,0.12549655745476485,1.1422329293370246,-0.5973889700442552
1775751044488982300,10.860982177734375,0.0921300021648407,1.2821277222394942,-1.2847393660426139
1775751044498996200,10.870996337890626,-0.06680822164267301,1.3117483689993619,-1.8204215292364359
1775751044509010400,10.881010498046875,-0.29734044006466864,1.3397218330740928,-2.0971797845214604
1775751044519024000,10.891024169921875,-0.428619380313158,1.3331822021722792,-2.074729467782378
1775751044529038000,10.9010380859375,-0.34176877985596654,1.2621645461410282,-1.55802614582479
1775751044539052300,10.91105224609375,-0.21562778701782226,1.1441373016536236,-1.006036406430602
1775751044549066200,10.921066162109375,-0.03563450022190809,1.0355021548897028,-0.5156044208049774
1775751044559080200,10.931080078125,0.23364976592063902,0.7733388266682625,0.06903612682521343
1775751044569094100,10.94109423828125,0.19845336485505102,0.630467063781619,0.6001414836227893
1775751044579108400,10.9511083984375,0.14960866992622612,0.5546989983528852,0.7789958295166493
1775751044589122300,10.961122314453124,0.14995090749263762,0.5364601618289947,0.4659259054005146
1775751044599136000,10.971135986328125,0.048587505297362804,0.6938806745499372,-0.3633206864506006
1775751044609150200,10.981150146484374,0.10838701722174882,0.7660527613133191,-0.9649065236628055
1775751044619164200,10.9911640625,-0.03717003922611475,0.754905928876996,-1.2901409328252076
1775751044629178400,11.001178466796874,-0.35641134545356035,0.7101677924841642,-1.4275824873566627
1775751044639192000,11.011192138671875,-0.5887225562468171,0.6540028376698493,-1.3520084831953048
1775751044649206300,11.021206298828124,-0.5744499930053949,0.3907534677773714,-0.8493956459105014
1775751044659220200,11.03122021484375,-0.5666533477798104,0.1831868221402168,-0.1662041231572628
1775751044669234200,11.041234130859374,-0.5077218508616089,0.22131226239502427,0.24665830057561397
1775751044679248400,11.051248291015625,-0.20674919177442788,0.12970774540901184,0.6843494606167078
1775751044689261300,11.06126123046875,-0.21580869654268026,0.2929232081443071,0.9061170655637979
1775751044699275300,11.071275146484375,-0.07950403708666562,0.37844168321490285,0.3584218084931373
1775751044709289200,11.081289306640626,0.1294037940263748,0.3561696456521749,-0.3368073580563068
1775751044719303200,11.09130322265625,0.24641835433989762,0.456048069986701,-1.102339894887805
1775751044729317000,11.101317138671876,0.4137877218842506,0.3206546801567077,-1.3383026139259337
1775751044739331300,11.111331298828125,0.39544863985627887,0.3940121773123741,-1.1696078429967165
1775751044749345300,11.12134521484375,0.4344771664306521,0.8095090412020682,-1.1290431928962468
1775751044759359200,11.131359130859375,0.22997078514695166,1.2748469175815582,-1.1026742414087056
1775751044769373200,11.141373291015626,-0.3607432371780276,1.692194377774,-1.148839780256152
1775751044779387100,11.15138720703125,-0.9714736270934343,2.184199896326661,-0.7249637950778007
1775751044789401300,11.1614013671875,-1.0724842703282833,2.489565237414837,-0.3461012561023235
1775751044799415000,11.1714150390625,-0.5816834513902663,2.796628614592552,-0.9418091411918401
1775751044809429200,11.18142919921875,-0.17895546818077562,3.217856715610623,-2.310378883087635
1775751044819443200,11.191443115234375,0.07976005767434835,3.335333924999833,-3.876068695408106
1775751044829457400,11.20145751953125,0.016689853516221046,3.1346301508694885,-4.636483743095398
1775751044839471400,11.211471435546875,-0.31053193007111546,2.888374001353979,-4.6658723346650595
1775751044849485000,11.221485107421875,-0.5498588648453354,2.7457190960884095,-4.525778219798207
1775751044859499300,11.231499267578124,-0.7553133406341076,2.8251807553380726,-4.247599576321244
1775751044869513200,11.24151318359375,-0.9302700945675373,2.77218215560019,-4.020715651273727
1775751044879527400,11.25152734375,-1.0197954671919345,2.657749720734358,-3.978059581851959
1775751044889540000,11.2615400390625,-1.2512927312538027,2.522081021094322,-4.201729805549979
1775751044899554300,11.27155419921875,-1.5095572984710335,2.2654104450702666,-4.356847886547446
1775751044909568300,11.281568359375,-1.7817945692002772,1.8840058203965424,-4.222495530202985
1775751044919582200,11.291582275390626,-1.9276900638222694,1.49944594656229,-3.7348341783344745
1775751044929596200,11.30159619140625,-1.8530007335409522,1.1100970848858356,-2.806397728934884
1775751044939610400,11.3116103515625,-1.423771696896851,0.8433049278199672,-2.0312819557219743
1775751044949624300,11.321624267578125,-0.8014686503484845,0.752986943513155,-1.685637211215496
1775751044959638000,11.331637939453126,-0.2602770760834217,0.6214093125790358,-1.5367022027671335
1775751044969652200,11.34165234375,0.29049335064888,0.5806932713091373,-1.5265087255328893
1775751044979666200,11.351666259765626,0.5682210354879498,0.4019289417862892,-1.445405728816986
1775751044989680400,11.361680419921875,0.6270110781088472,0.2561860073775053,-1.364206870511174
1775751044999694000,11.371694091796876,0.47134588462263344,0.2945481789976358,-1.2421376571565865
1775751045009708300,11.381708251953125,0.20164543889462946,0.2638882523179054,-0.9613678281426429
1775751045019722200,11.39172216796875,0.0005529577076435089,0.4137485589176416,-0.7988210584491491
1775751045029736200,11.401736083984375,-0.12390519661009311,0.3811719849616289,-0.7867465897738933
1775751045039750400,11.41175048828125,-0.09941051456183195,0.35578152311742306,-0.8238093692332505
1775751045049764000,11.42176416015625,-0.23884382743239402,0.4388081813722849,-0.6033961015045642
1775751045059778300,11.4317783203125,-0.38143063589781523,0.29164602781534193,-0.20238778169453142
1775751045069791200,11.441791259765624,-0.13893500795960426,0.29445290192961693,-0.0015823007553815841
1775751045079805200,11.45180517578125,-0.002809504462778568,0.41976270464062687,-0.02906710453033447
1775751045089819100,11.461819091796874,0.014638473944365977,0.5362251840293407,-0.5125993937700987
1775751045099833300,11.471833251953125,-0.03250497002452612,0.683192691797018,-0.6242459973096847
1775751045109847300,11.481847412109374,-0.16797873161435126,0.8239888174533844,-0.4439519740015268
1775751045119861200,11.491861328125,-0.19269027128368615,0.6838590467512607,-0.31406478037238117
1775751045129875200,11.501875244140624,-0.2406219430208206,0.6444505809485912,-0.3630149815022945
1775751045139889200,11.51188916015625,-0.21114187377542257,0.4668097024977207,-0.24376900887489317
1775751045149903400,11.5219033203125,-0.41946956691294907,0.499051345410943,0.08508943600356578
1775751045159917000,11.5319169921875,-0.5931295590341091,0.8430038990467786,0.4794716156721115
1775751045169931300,11.54193115234375,-0.6447650537252426,1.0830179393023251,0.8575158240020274
1775751045179945200,11.5519453125,-0.5792331356287003,1.3284171797275544,0.9198504073619842
1775751045189959200,11.561959228515626,-0.36153964825272555,1.3950368930608033,1.0111807835817337
1775751045199973000,11.57197314453125,-0.12160656427890061,1.3099626546263694,0.9838953017711639
1775751045209987000,11.581987060546876,-0.08257073118090628,1.0096370612710714,1.1776181309729814
1775751045220001300,11.592001220703125,-0.2311430437967181,0.5986047755748033,1.6065443852782249
1775751045230015200,11.60201513671875,-0.05914163253754377,0.3048626522630453,1.9366063607275485
1775751045240029400,11.612029541015625,0.2035845902636647,0.1594376977622509,2.1072060884952544
1775751045250043100,11.622043212890626,0.30735213099122044,0.07761690816581249,2.1083920834094285
1775751045260056300,11.632056396484375,0.30764234610944985,0.018178046247363088,2.1180454624176024
1775751045270070300,11.6420703125,0.2998699585422873,0.05769698668718338,2.047263953229785
1775751045280084200,11.652084228515625,0.2558282799810171,-0.0168313078135252,1.9994184984713792
1775751045290098200,11.66209814453125,-0.013437865982949732,-0.3546294304728508,1.8689871149629353
1775751045300112100,11.672112060546874,-0.3172863727673888,-0.6494020658761263,1.4197463869035243
1775751045310126300,11.682126220703125,-0.49175592770576476,-0.8406810090571641,0.9209463859051465
1775751045320140000,11.69214013671875,-0.5699193638384342,-0.9645137249529361,0.6085059918642044
1775751045330154200,11.702154296875,-0.6127157185137272,-1.066153313741088,0.4900187286496162
1775751045340168200,11.712168212890624,-0.6017968496143817,-1.1528542765945196,0.33757308173179623
1775751045350182400,11.722182373046875,-0.6624734366342425,-1.1258832675606012,-0.07668634931743144
1775751045360196000,11.732196044921874,-0.6462053156614304,-1.261008946365118,-0.584047257912159
1775751045370210000,11.7422099609375,-0.6523764055117964,-1.4017945506274698,-0.628605946084857
1775751045380224300,11.752224365234374,-0.5649366069898009,-1.269077102008462,-0.5597913530558347
1775751045390238200,11.76223828125,-0.3728863871753216,-1.1532839001834392,-0.5529617992967367
1775751045400252200,11.772252197265624,-0.030192016907036302,-0.9581535422712564,-0.31884558490812775
1775751045410266000,11.78226611328125,0.19280571435689925,-0.6101584352463484,-0.1528454598903656
1775751045420280300,11.7922802734375,0.2847214892491698,-0.4810872341752052,-0.12180384041666983
1775751045430294300,11.802294189453125,0.198080439889431,-0.678112612053752,0.3259171307295561
1775751045440307200,11.81230712890625,0.09989742129594087,-1.0454647459775208,0.15787176361978053
1775751045450321200,11.822321044921875,0.24648820470571517,-1.2335229735463857,-0.33164719881415367
1775751045460335400,11.83233544921875,0.3231409440144896,-1.4570914904356003,-0.43752807843387126
1775751045470349300,11.842349365234375,0.486563327498734,-1.6110031182527542,-0.6850257524430752
1775751045480363000,11.852363037109376,0.6966831647500396,-1.6558797863334416,-0.5801967199638486
1775751045490377200,11.862377197265625,0.5140019540444016,-1.8142635911285876,-0.020719255162775514
1775751045500391200,11.87239111328125,0.2092018456235528,-1.5847738674968481,0.1830085429638624
1775751045510405400,11.8824052734375,0.0006187164202332496,-1.3042933768182992,0.216887139429152
1775751045520419000,11.892419189453125,-0.14012246417850255,-1.1094394977599382,0.39084728354066606
1775751045530433300,11.902433349609375,-0.31276012751460075,-0.9756079504191875,0.6429749554380774
1775751045540447200,11.912447265625,-0.46824879539012904,-0.9908172099888324,0.6593827771425247
1775751045550461200,11.922461181640625,-0.5177408483117818,-0.8463555475622415,0.4450450299352407
1775751045560475100,11.93247509765625,-0.2457087447658181,-0.8642834184408187,0.3037798254624009
1775751045570489000,11.942489013671874,0.10069090976119041,-0.766194800132513,0.285034500721097
1775751045580503300,11.95250341796875,0.5005199566587806,-0.7030950776189565,0.20904548601806164
1775751045590517200,11.962517333984374,0.858488468426466,-0.7926859166949987,0.16333587424457072
1775751045600531500,11.972531494140625,1.1442343322873114,-0.7978238641053438,0.1120046231970191
1775751045610544000,11.982544189453124,1.276346800750494,-0.7680395512163639,0.35684359939098353
1775751045620558300,11.992558349609375,1.1400739977374672,-0.723974784040451,0.8473781686082482
1775751045630572300,12.002572265625,0.701766459363699,-0.768240626746416,1.4597709387779234
1775751045640586200,12.012586181640625,0.3239090057775378,-0.7770464490145444,1.9101719427883623
1775751045650600200,12.02260009765625,0.02382306639701128,-0.8976455898165703,2.156398573948443
1775751045660614100,12.0326142578125,-0.14723638783693313,-0.9452420382499694,2.0583578864350915
1775751045670628400,12.04262841796875,-0.0711523883268237,-0.9074462683409452,1.8990411847040056
1775751045680642000,12.05264208984375,0.13852584263682366,-0.9386024541050195,1.814343086105585
1775751045690656300,12.06265625,0.3956114292025566,-0.9441296930938958,1.620110261555016
1775751045700670200,12.072670166015625,0.6807777396097778,-0.9690975456118583,1.3854557025060057
1775751045710684400,12.082684326171876,0.8564446876391768,-1.0289508335500954,1.1014230723038314
1775751045720698000,12.092697998046875,0.900545987433195,-1.027287868773937,0.9711445412695408
1775751045730712000,12.102712158203126,0.8334931433796882,-0.9737795659482479,0.9537810262754559
1775751045740726300,12.112726318359375,0.6876476253792643,-0.8499334060490131,0.8823261478707194
1775751045750740200,12.122740234375,0.5237810052588582,-0.7487561740756035,0.8173986254081129
1775751045760754200,12.132754150390625,0.23684593161344528,-0.6579945376545191,0.7207412089467048
1775751045770768100,12.14276806640625,0.0008753215298056601,-0.565900775846839,0.6115443366467952
1775751045780781300,12.15278125,-0.1536637905359268,-0.4924889181554317,0.39510494098514315
1775751045790795300,12.162795166015625,-0.16082067655324936,-0.39953590916991233,-0.012608721682429313
1775751045800809200,12.172809326171874,-0.01607698231488466,-0.31528701564371586,-0.29942922903746366
1775751045810823200,12.1828232421875,0.20873978106975555,-0.15863047303259373,-0.49774201637804505
1775751045820837400,12.19283740234375,0.31498394104391336,-0.049665655922889705,-0.7135936752796173
1775751045830851300,12.202851318359375,0.2619040927633643,0.008380290332436561,-0.7054337496995925
1775751045840865000,12.212864990234374,0.25019553479105233,0.11170622477233409,-0.7157672199264168
1775751045850879200,12.222879150390625,0.17474194213896987,0.18752631264925002,-0.6015820378199219
1775751045860893200,12.23289306640625,0.07142126839607954,0.26078093395233154,-0.30922932303994893
1775751045870907400,12.242907470703125,0.012278759075701235,0.31757483431994915,-0.03283493263125419
1775751045880921000,12.252921142578124,-0.12668868984878062,0.3644318625628948,0.0742334032073617
1775751045890935300,12.262935302734375,-0.19003332703411577,0.4340454970151186,-0.11038491304069757
1775751045900949200,12.27294921875,-0.19210078095793723,0.4161638033658266,-0.2618912332817912
1775751045910963200,12.282963134765625,-0.10380699595510959,0.35031390536129475,-0.44484600023180243
1775751045920977200,12.29297705078125,0.03876549172401428,0.31943069131970403,-0.5872746955260634
1775751045930991000,12.3029912109375,0.09795856218785047,0.2660147429525852,-0.45182256124615666
1775751045941005300,12.31300537109375,0.08539484869092702,0.21055296797156334,-0.3197098005220294
1775751045951018200,12.323018310546875,-0.007106032612919807,0.08048457255661487,-0.26190263145864007
1775751045961032200,12.3330322265625,-0.13935498693734408,-0.007357377025485039,-0.2555851188749075
1775751045971046100,12.343046142578125,-0.18088497493863104,0.024394436544179915,-0.14050064984112978
1775751045981060400,12.353060302734375,-0.18836480930000543,-0.015599720191955565,0.10634352869540452
1775751045991074300,12.36307421875,-0.1531722076267004,-0.022929040166735647,0.326726693546772
1775751046001088300,12.373088134765625,-0.0891056859076023,-0.005083586874604225,0.4508984321385622
1775751046011102200,12.383102294921875,-0.07465630479454993,-0.0056266077101230615,0.44447249074429274
1775751046021116200,12.3931162109375,-0.08618219967633485,0.04477028509676456,0.2604755212649703
1775751046031130400,12.40313037109375,-0.06584113017618656,0.1490536663919687,0.046342064458131785
1775751046041144000,12.41314404296875,-0.08091916458159684,0.22686522034704684,-0.017236673744022844
1775751046051158300,12.423158203125,-0.19181144262254238,0.25974106951057907,0.09325637584626674
1775751046061172200,12.433172119140625,-0.355037426751852,0.30340953084528444,0.22920476921051738
1775751046071186400,12.4431865234375,-0.4499895006000995,0.33346506189107894,0.3397179848060012
1775751046081200000,12.4532001953125,-0.41135494177937504,0.4086819231778383,0.38823037904053925
1775751046091214000,12.463214111328124,-0.36380700866281984,0.4878320322602987,0.4074775158241391
1775751046101228300,12.473228271484375,-0.3495832529991865,0.535687423890829,0.3064733023300767
1775751046111241200,12.4832412109375,-0.22309563868045806,0.5739233387827873,0.06881868468225003
1775751046121255200,12.493255126953125,-0.06528203498870135,0.5045312381267547,-0.0638762598440051
1775751046131269000,12.50326904296875,0.032471944537758826,0.46928047652542587,-0.12248159354776143
