time,seconds_elapsed,z,y,x
1775751033682012400,0.054012451171875,-0.1142578125,-1.0518951416015625,0.1363067626953125
1775751033692026400,0.0640263671875,-0.1129913330078125,-1.0550079345703125,0.112091064453125
1775751033702040300,0.074040283203125,-0.128692626953125,-1.0230255126953125,0.08660888671875
1775751033712054300,0.08405419921875,-0.1510772705078125,-1.008575439453125,0.093505859375
1775751033722068200,0.094068115234375,-0.167236328125,-1.0166015625,0.1124267578125
1775751033732082400,0.10408251953125,-0.1809844970703125,-1.010986328125,0.1050872802734375
1775751033742096400,0.114096435546875,-0.1644134521484375,-0.97003173828125,0.1077423095703125
1775751033752110300,0.1241103515625,-0.102508544921875,-1.0171966552734375,0.1627197265625
1775751033762124300,0.134124267578125,-0.0640106201171875,-1.023101806640625,0.2071075439453125
1775751033772138200,0.14413818359375,-0.07763671875,-1.0098114013671875,0.233123779296875
1775751033782152400,0.15415234375,-0.13787841796875,-1.011260986328125,0.2584075927734375
1775751033792166100,0.164166259765625,-0.2171173095703125,-1.0029449462890625,0.2530517578125
1775751033802180400,0.174180419921875,-0.197967529296875,-0.9802398681640625,0.2373809814453125
1775751033812194300,0.1841943359375,-0.2170867919921875,-0.9749298095703125,0.2464141845703125
1775751033822208500,0.19420849609375,-0.265533447265625,-0.9962158203125,0.2697296142578125
1775751033832222500,0.204222412109375,-0.261505126953125,-1.0307464599609375,0.2529449462890625
1775751033842236200,0.214236083984375,-0.3110504150390625,-1.0159454345703125,0.1813812255859375
1775751033852250400,0.22425048828125,-0.3882904052734375,-0.9687957763671875,0.1314544677734375
1775751033862264300,0.234264404296875,-0.3864593505859375,-0.9261016845703125,0.068267822265625
1775751033872278500,0.244278564453125,-0.343048095703125,-0.883026123046875,-0.0037994384765625
1775751033882292200,0.254292236328125,-0.2921142578125,-0.81573486328125,-0.07489013671875
1775751033892306400,0.264306396484375,-0.2714691162109375,-0.749114990234375,-0.138275146484375
1775751033902320400,0.2743203125,-0.2535552978515625,-0.702423095703125,-0.1806640625
1775751033912334300,0.284334228515625,-0.2310333251953125,-0.69085693359375,-0.199920654296875
1775751033922348300,0.294348388671875,-0.249267578125,-0.7659149169921875,-0.1901702880859375
1775751033932362200,0.3043623046875,-0.2528839111328125,-0.899566650390625,-0.1981353759765625
1775751033942376400,0.31437646484375,-0.225830078125,-1.1983184814453125,0.190032958984375
1775751033952390400,0.324390380859375,-0.356842041015625,-1.7250518798828125,1.0945892333984375
1775751033962404400,0.334404296875,-0.6008758544921875,-1.65191650390625,0.870361328125
1775751033972418300,0.344418212890625,-0.499725341796875,-1.0789642333984375,0.09735107421875
1775751033982432300,0.354432373046875,-0.1628875732421875,-0.8964385986328125,-0.1108551025390625
1775751033992446500,0.364446533203125,-0.1115875244140625,-1.104644775390625,-0.0534210205078125
1775751034002460200,0.374460205078125,-0.2423553466796875,-1.1910247802734375,-0.04559326171875
1775751034012474400,0.384474365234375,-0.2764739990234375,-1.216888427734375,-0.00213623046875
1775751034022488300,0.39448828125,-0.26324462890625,-1.096771240234375,0.0672454833984375
1775751034032502500,0.40450244140625,-0.2698516845703125,-0.9633026123046875,0.10614013671875
1775751034042516200,0.41451611328125,-0.21795654296875,-1.04351806640625,-0.089324951171875
1775751034052530200,0.4245302734375,-0.3118133544921875,-0.9701080322265625,-0.25384521484375
1775751034062544400,0.43454443359375,-0.316314697265625,-0.9566192626953125,-0.136199951171875
1775751034072558300,0.444558349609375,-0.2053070068359375,-1.03973388671875,0.0096588134765625
1775751034082572500,0.454572509765625,-0.1634063720703125,-1.040130615234375,0.1041717529296875
1775751034092586200,0.464586181640625,-0.133880615234375,-0.99395751953125,0.11688232421875
1775751034102599400,0.474599365234375,-0.0986785888671875,-0.945709228515625,0.1077117919921875
1775751034112614400,0.484614501953125,-0.1110076904296875,-0.9833984375,0.0928192138671875
1775751034122627300,0.49462744140625,-0.134552001953125,-1.0576171875,0.0903778076171875
1775751034132642300,0.504642333984375,-0.14178466796875,-1.0147552490234375,0.1533660888671875
1775751034142655500,0.514655517578125,-0.0653228759765625,-0.834808349609375,0.2166290283203125
1775751034152670500,0.52467041015625,-0.0301055908203125,-0.745697021484375,0.20941162109375
1775751034162683100,0.53468310546875,-0.0650482177734375,-0.8491363525390625,0.167816162109375
1775751034172697300,0.544697265625,-0.0770721435546875,-0.8807220458984375,0.1311798095703125
1775751034182711300,0.554711181640625,-0.038299560546875,-0.819427490234375,0.1083831787109375
1775751034192725500,0.5647255859375,0.011322021484375,-0.802276611328125,0.1240081787109375
1775751034202739200,0.5747392578125,0.029022216796875,-0.813446044921875,0.168548583984375
1775751034212753400,0.58475341796875,-0.01092529296875,-0.8353271484375,0.203155517578125
1775751034222767400,0.594767333984375,-0.0229644775390625,-0.8396759033203125,0.1904296875
1775751034232781300,0.60478125,-0.0201568603515625,-0.88079833984375,0.12615966796875
1775751034242795300,0.614795166015625,-0.00030517578125,-0.9384002685546875,0.082275390625
1775751034252809200,0.624809326171875,0.0146026611328125,-0.912841796875,0.12432861328125
1775751034262823400,0.634823486328125,0.03466796875,-0.9120635986328125,0.1252899169921875
1775751034272837400,0.64483740234375,0.005859375,-0.9368896484375,0.0995330810546875
1775751034282851600,0.6548515625,-0.0330352783203125,-0.95941162109375,0.0665435791015625
1775751034292865300,0.664865234375,-0.0526275634765625,-0.9672698974609375,0.020751953125
1775751034302879200,0.674879150390625,-0.0867462158203125,-0.9818115234375,0.00811767578125
1775751034312893400,0.6848935546875,-0.1124267578125,-0.98406982421875,0.0147857666015625
1775751034322907400,0.694907470703125,-0.1515045166015625,-0.9785308837890625,0.0774078369140625
1775751034332921300,0.70492138671875,-0.192779541015625,-0.97552490234375,0.1605987548828125
1775751034342935300,0.714935302734375,-0.20037841796875,-0.9771728515625,0.2158203125
1775751034352949500,0.724949462890625,-0.193115234375,-0.968048095703125,0.2164764404296875
1775751034362963500,0.73496337890625,-0.1693115234375,-0.96630859375,0.1974639892578125
1775751034372977200,0.74497705078125,-0.117584228515625,-0.9737396240234375,0.14801025390625
1775751034382991400,0.754991455078125,-0.0782623291015625,-0.96929931640625,0.08331298828125
1775751034393005300,0.76500537109375,-0.062957763671875,-0.9783477783203125,0.0595550537109375
1775751034403018800,0.775018798828125,-0.0431976318359375,-0.999298095703125,0.0770263671875
1775751034413032700,0.78503271484375,-0.0590972900390625,-1.004058837890625,0.0799407958984375
1775751034423047000,0.795046875,-0.0831298828125,-0.973052978515625,0.1029510498046875
1775751034433060600,0.805060546875,-0.078033447265625,-0.9595184326171875,0.1791229248046875
1775751034443074800,0.81507470703125,-0.09375,-0.99200439453125,0.2133026123046875
1775751034453088800,0.8250888671875,-0.109771728515625,-1.011627197265625,0.20477294921875
1775751034463102700,0.835102783203125,-0.1168670654296875,-0.9901580810546875,0.186187744140625
1775751034473116700,0.84511669921875,-0.1011962890625,-0.9662017822265625,0.159149169921875
1775751034483130600,0.855130615234375,-0.067657470703125,-0.9713134765625,0.14715576171875
1775751034493144800,0.865144775390625,-0.078369140625,-0.9795989990234375,0.1440887451171875
1775751034503158800,0.87515869140625,-0.066436767578125,-0.98486328125,0.159881591796875
1775751034513172700,0.8851728515625,-0.02093505859375,-0.9853973388671875,0.1554412841796875
1775751034523186700,0.895186767578125,0.018890380859375,-0.9693145751953125,0.1307220458984375
1775751034533200600,0.90520068359375,0.08740234375,-0.972076416015625,0.1145172119140625
1775751034543214800,0.91521484375,0.1186676025390625,-0.988677978515625,0.110504150390625
1775751034553228500,0.925228515625,0.119110107421875,-0.9882049560546875,0.1330413818359375
1775751034563242800,0.93524267578125,0.159515380859375,-0.9728546142578125,0.1778411865234375
1775751034573256700,0.945256591796875,0.1485748291015625,-0.9452667236328125,0.1954803466796875
1775751034583271000,0.95527099609375,0.0946197509765625,-0.937225341796875,0.1702423095703125
1775751034593284600,0.96528466796875,0.0875396728515625,-0.947967529296875,0.1778717041015625
1775751034603298600,0.975298583984375,0.045257568359375,-0.958648681640625,0.1719512939453125
1775751034613312800,0.985312744140625,0.0345916748046875,-0.9935455322265625,0.12994384765625
1775751034623326700,0.99532666015625,0.024078369140625,-0.966796875,0.1209564208984375
1775751034633341000,1.0053408203125,0.01824951171875,-0.9534454345703125,0.1323699951171875
1775751034643354600,1.015354736328125,0.1189117431640625,-0.9212493896484375,0.0733184814453125
1775751034653368800,1.025368896484375,0.0453338623046875,-0.9348907470703125,0.061676025390625
1775751034663382800,1.0353828125,-0.17108154296875,-1.004791259765625,0.151092529296875
1775751034673396700,1.045396728515625,-0.0619659423828125,-0.97723388671875,0.202178955078125
1775751034683410700,1.05541064453125,0.175262451171875,-0.9062957763671875,0.171966552734375
1775751034693424600,1.065424560546875,0.0868988037109375,-0.9261322021484375,0.1480712890625
1775751034703438800,1.07543896484375,0.019287109375,-0.9657135009765625,0.17620849609375
1775751034713452800,1.085452880859375,0.0316925048828125,-0.9508514404296875,0.1914825439453125
1775751034723466800,1.095466796875,-0.013519287109375,-0.9557342529296875,0.1905517578125
1775751034733480700,1.105480712890625,-0.0376739501953125,-0.955810546875,0.1882476806640625
1775751034743494700,1.11549462890625,-0.037689208984375,-0.9556732177734375,0.1446533203125
1775751034753508900,1.1255087890625,-0.0316925048828125,-0.96209716796875,0.090576171875
1775751034763522600,1.1355224609375,-0.02874755859375,-0.97100830078125,0.0606536865234375
1775751034773536800,1.145536865234375,-0.01611328125,-0.9705657958984375,0.0684967041015625
1775751034783550700,1.15555078125,-0.011993408203125,-0.93853759765625,0.1035919189453125
1775751034793564700,1.165564697265625,-0.053802490234375,-0.930145263671875,0.16314697265625
1775751034803578600,1.17557861328125,-0.1097564697265625,-0.9412841796875,0.2291412353515625
1775751034813592600,1.185592529296875,-0.150634765625,-0.9546051025390625,0.264678955078125
1775751034823606800,1.195606689453125,-0.1606597900390625,-0.961700439453125,0.2436981201171875
1775751034833620700,1.205620849609375,-0.14276123046875,-0.961883544921875,0.2210693359375
1775751034843634700,1.215634765625,-0.108917236328125,-0.9617156982421875,0.203857421875
1775751034853648600,1.225648681640625,-0.0696258544921875,-0.960968017578125,0.198822021484375
1775751034863662600,1.23566259765625,-0.0421600341796875,-0.9550323486328125,0.1854705810546875
1775751034873676800,1.2456767578125,-0.01898193359375,-0.95318603515625,0.16424560546875
1775751034883690800,1.255690673828125,-0.0019378662109375,-0.9492950439453125,0.154083251953125
1775751034893704700,1.26570458984375,0.019287109375,-0.9470977783203125,0.1512451171875
1775751034903718700,1.27571875,0.0157623291015625,-0.9579315185546875,0.162261962890625
1775751034913732900,1.28573291015625,-0.0079193115234375,-0.9651031494140625,0.1760406494140625
1775751034923746800,1.295746826171875,-0.0214385986328125,-0.971405029296875,0.1884307861328125
1775751034933760800,1.3057607421875,-0.0376739501953125,-0.9958343505859375,0.17431640625
1775751034943774700,1.315774658203125,-0.0520782470703125,-1.00018310546875,0.1374664306640625
1775751034953788700,1.32578857421875,-0.010406494140625,-0.972564697265625,0.1002349853515625
1775751034963803000,1.335802978515625,0.000274658203125,-0.9809112548828125,0.1249847412109375
1775751034973816600,1.345816650390625,-0.01898193359375,-1.0217742919921875,0.1914825439453125
1775751034983830800,1.355830810546875,-0.039794921875,-1.057403564453125,0.220458984375
1775751034993844700,1.3658447265625,-0.044403076171875,-1.056488037109375,0.2214202880859375
1775751035003858700,1.375858642578125,-0.031646728515625,-1.028717041015625,0.20281982421875
1775751035013872600,1.38587255859375,-0.0274658203125,-1.0196380615234375,0.179901123046875
1775751035023886600,1.395886474609375,-0.0434417724609375,-1.0246429443359375,0.1691741943359375
1775751035033900800,1.40590087890625,-0.064727783203125,-1.028717041015625,0.155029296875
1775751035043914800,1.415914794921875,-0.0734710693359375,-1.0321807861328125,0.1316986083984375
1775751035053928700,1.4259287109375,-0.07684326171875,-1.02685546875,0.1107177734375
1775751035063942700,1.435942626953125,-0.0866241455078125,-1.0171661376953125,0.09185791015625
1775751035073956600,1.44595654296875,-0.0930328369140625,-1.0072021484375,0.083831787109375
1775751035083970800,1.455970703125,-0.0917816162109375,-1.002899169921875,0.090179443359375
1775751035093984500,1.465984619140625,-0.093597412109375,-1.0030670166015625,0.1038970947265625
1775751035103998700,1.475998779296875,-0.08477783203125,-1.0071563720703125,0.1156158447265625
1775751035114012700,1.4860126953125,-0.061065673828125,-1.0214385986328125,0.1126861572265625
1775751035124027000,1.49602685546875,-0.031036376953125,-1.0215911865234375,0.1021575927734375
1775751035134040800,1.506040771484375,0.0019683837890625,-1.0046234130859375,0.099609375
1775751035144054500,1.516054443359375,0.0192413330078125,-0.998931884765625,0.110076904296875
1775751035154068700,1.52606884765625,0.0079345703125,-1.0072479248046875,0.12799072265625
1775751035164082700,1.536082763671875,-0.0091400146484375,-1.011627197265625,0.1379547119140625
1775751035174097000,1.546096923828125,-0.015960693359375,-1.0016937255859375,0.122283935546875
1775751035184110600,1.556110595703125,-0.013885498046875,-0.9923553466796875,0.1014556884765625
1775751035194124800,1.566124755859375,-0.0167694091796875,-0.98858642578125,0.0952301025390625
1775751035204138800,1.576138671875,-0.025299072265625,-0.9939422607421875,0.102569580078125
1775751035214152700,1.586152587890625,-0.0275726318359375,-0.998779296875,0.101715087890625
1775751035224166700,1.596166748046875,-0.014129638671875,-0.9925384521484375,0.0980682373046875
1775751035234180600,1.6061806640625,0.0045623779296875,-0.989990234375,0.1013336181640625
1775751035244194800,1.61619482421875,0.01312255859375,-0.9908294677734375,0.0985260009765625
1775751035254208800,1.626208740234375,0.0235443115234375,-0.99249267578125,0.0948944091796875
1775751035264222700,1.63622265625,0.0261077880859375,-0.98468017578125,0.095458984375
1775751035274236700,1.646236572265625,0.025787353515625,-0.9824676513671875,0.1107330322265625
1775751035284250600,1.656250732421875,0.0286102294921875,-0.9920806884765625,0.1278533935546875
1775751035294264800,1.666264892578125,0.0279693603515625,-0.995513916015625,0.1363372802734375
1775751035304278500,1.676278564453125,0.030029296875,-0.989959716796875,0.1342010498046875
1775751035314292700,1.686292724609375,0.03179931640625,-0.98651123046875,0.1227264404296875
1775751035324306700,1.696306640625,0.0309906005859375,-0.990020751953125,0.1013031005859375
1775751035334321000,1.70632080078125,0.0341796875,-0.9921112060546875,0.08477783203125
1775751035344334800,1.7163349609375,0.0336761474609375,-0.9920806884765625,0.0806121826171875
1775751035354348500,1.7263486328125,0.033782958984375,-0.9905853271484375,0.0849609375
1775751035364362800,1.73636279296875,0.0310516357421875,-0.9913482666015625,0.099761962890625
1775751035374377700,1.746377685546875,0.0320281982421875,-0.9918060302734375,0.1133575439453125
1775751035384391700,1.7563916015625,0.030426025390625,-0.98760986328125,0.1222381591796875
1775751035394404600,1.766404541015625,0.027252197265625,-0.9851226806640625,0.1233978271484375
1775751035404419300,1.77641943359375,0.0313873291015625,-0.9788665771484375,0.118377685546875
1775751035414433500,1.78643359375,0.042388916015625,-0.970611572265625,0.1172027587890625
1775751035424446500,1.796446533203125,0.055419921875,-0.970306396484375,0.119598388671875
1775751035434461400,1.80646142578125,0.0705718994140625,-0.9721221923828125,0.1209564208984375
1775751035444475400,1.816475341796875,0.0793914794921875,-0.9752197265625,0.12384033203125
1775751035454489300,1.8264892578125,0.0828704833984375,-0.982330322265625,0.1288909912109375
1775751035464503600,1.836503662109375,0.088226318359375,-0.9839324951171875,0.1307220458984375
1775751035474517500,1.846517578125,0.0826263427734375,-0.9827117919921875,0.1339874267578125
1775751035484531500,1.856531494140625,0.069915771484375,-0.9857635498046875,0.14178466796875
1775751035494545400,1.86654541015625,0.0626373291015625,-0.9906768798828125,0.1489105224609375
1775751035504559600,1.8765595703125,0.060150146484375,-0.9899749755859375,0.1528472900390625
1775751035514573600,1.886573486328125,0.057708740234375,-0.992828369140625,0.146942138671875
1775751035524587500,1.89658740234375,0.0539703369140625,-0.9974517822265625,0.132171630859375
1775751035534601500,1.9066015625,0.0585784912109375,-0.9964599609375,0.110321044921875
1775751035544615400,1.916615478515625,0.0592041015625,-0.993682861328125,0.09912109375
1775751035554629600,1.926629638671875,0.04901123046875,-0.9990997314453125,0.1007080078125
1775751035564643300,1.936643310546875,0.04339599609375,-1.0010528564453125,0.104461669921875
1775751035574657500,1.946657470703125,0.035888671875,-1.0005035400390625,0.1042633056640625
1775751035584671500,1.95667138671875,0.0361480712890625,-0.997283935546875,0.099090576171875
1775751035594685400,1.966685546875,0.0452728271484375,-0.9965667724609375,0.1016082763671875
1775751035604699400,1.976699462890625,0.0503387451171875,-1.00250244140625,0.1141510009765625
1775751035614713300,1.98671337890625,0.0494842529296875,-1.009857177734375,0.117889404296875
1775751035624727600,1.9967275390625,0.051971435546875,-1.0098724365234375,0.11041259765625
1775751035634741500,2.006741455078125,0.0562286376953125,-1.0057373046875,0.1005706787109375
1775751035644755500,2.01675537109375,0.0590057373046875,-1.00347900390625,0.0921173095703125
1775751035654769400,2.026769287109375,0.0582733154296875,-1.005096435546875,0.090301513671875
1775751035664783400,2.036783447265625,0.0557098388671875,-1.00482177734375,0.09185791015625
1775751035674797600,2.046797607421875,0.05328369140625,-1.0030364990234375,0.097503662109375
1775751035684811300,2.056811279296875,0.0515899658203125,-1.00543212890625,0.1010284423828125
1775751035694825500,2.066825439453125,0.05377197265625,-1.005279541015625,0.0997314453125
1775751035704839400,2.07683935546875,0.0627288818359375,-1.0012054443359375,0.0958099365234375
1775751035714853600,2.086853515625,0.069671630859375,-0.9936370849609375,0.0898895263671875
1775751035724867600,2.09686767578125,0.0706634521484375,-0.9876251220703125,0.0887298583984375
1775751035734881300,2.10688134765625,0.068084716796875,-0.985992431640625,0.099151611328125
1775751035744895500,2.1168955078125,0.070404052734375,-0.989776611328125,0.1067352294921875
1775751035754909400,2.126909423828125,0.0828857421875,-0.9880828857421875,0.1086883544921875
1775751035764923600,2.136923583984375,0.09686279296875,-0.983795166015625,0.10986328125
1775751035774937300,2.146937255859375,0.1078033447265625,-0.98284912109375,0.1155242919921875
1775751035784951600,2.15695166015625,0.105499267578125,-0.98681640625,0.120025634765625
1775751035794965500,2.166965576171875,0.09747314453125,-0.9876251220703125,0.120880126953125
1775751035804979500,2.1769794921875,0.0909881591796875,-0.9854278564453125,0.1197052001953125
1775751035814993400,2.186993408203125,0.0850372314453125,-0.981689453125,0.11370849609375
1775751035825007400,2.19700732421875,0.0912322998046875,-0.97705078125,0.109222412109375
1775751035835021600,2.207021484375,0.0861968994140625,-0.976531982421875,0.10699462890625
1775751035845035500,2.217035400390625,0.0729827880859375,-0.97955322265625,0.104339599609375
1775751035855049500,2.227049560546875,0.06744384765625,-0.9785919189453125,0.1009521484375
1775751035865063400,2.2370634765625,0.071075439453125,-0.9690093994140625,0.10040283203125
1775751035875077400,2.247077392578125,0.0729827880859375,-0.9648590087890625,0.106414794921875
1775751035885091600,2.257091552734375,0.0708770751953125,-0.9655914306640625,0.1240386962890625
1775751035895105300,2.267105224609375,0.0687103271484375,-0.967987060546875,0.146026611328125
1775751035905119500,2.277119384765625,0.0662384033203125,-0.9716644287109375,0.1579132080078125
1775751035915133400,2.287133544921875,0.0596771240234375,-0.9725189208984375,0.1585540771484375
1775751035925147600,2.297147705078125,0.0695648193359375,-0.9743499755859375,0.1441650390625
1775751035935161600,2.30716162109375,0.0814056396484375,-0.9686126708984375,0.12835693359375
1775751035945800400,2.317800537109375,0.090850830078125,-0.9705810546875,0.125396728515625
1775751035955814400,2.327814453125,0.0924072265625,-0.975738525390625,0.1276397705078125
1775751035965828400,2.337828369140625,0.0839080810546875,-0.9732666015625,0.1370849609375
1775751035975842600,2.347842529296875,0.0750732421875,-0.9763946533203125,0.1498260498046875
1775751035985856500,2.3578564453125,0.0735015869140625,-0.98663330078125,0.1605987548828125
1775751035995870500,2.367870361328125,0.07904052734375,-0.9928741455078125,0.1636505126953125
1775751036005884400,2.377884521484375,0.0822601318359375,-0.993499755859375,0.151641845703125
1775751036015898400,2.3878984375,0.0858001708984375,-0.98907470703125,0.140106201171875
1775751036025912600,2.39791259765625,0.08453369140625,-0.9832611083984375,0.1351318359375
1775751036035926500,2.407926513671875,0.076507568359375,-0.9873504638671875,0.1371307373046875
1775751036045940500,2.4179404296875,0.0685272216796875,-0.991668701171875,0.1319122314453125
1775751036055954400,2.427954345703125,0.0653533935546875,-0.991973876953125,0.118560791015625
1775751036065968600,2.43796875,0.0592803955078125,-0.989501953125,0.1045989990234375
1775751036075982600,2.447982666015625,0.0531158447265625,-0.9896240234375,0.094970703125
1775751036085996300,2.457996337890625,0.056732177734375,-0.9891510009765625,0.09259033203125
1775751036096010500,2.468010498046875,0.0623016357421875,-0.9840240478515625,0.0966949462890625
1775751036106024400,2.4780244140625,0.0691070556640625,-0.983795166015625,0.1092987060546875
1775751036116038700,2.48803857421875,0.074951171875,-0.9843292236328125,0.12371826171875
1775751036126052400,2.49805224609375,0.08074951171875,-0.9841156005859375,0.1325836181640625
1775751036136066600,2.508066650390625,0.07861328125,-0.982025146484375,0.1325531005859375
1775751036146080500,2.51808056640625,0.0803375244140625,-0.9803619384765625,0.1201934814453125
1775751036156094500,2.528094482421875,0.0870361328125,-0.977691650390625,0.110321044921875
1775751036166108400,2.5381083984375,0.087310791015625,-0.980377197265625,0.11346435546875
1775751036176122400,2.548122314453125,0.08087158203125,-0.9850921630859375,0.1231536865234375
1775751036186136600,2.558136474609375,0.068511962890625,-0.9895477294921875,0.1373748779296875
1775751036196150500,2.568150634765625,0.056640625,-0.9906005859375,0.1496734619140625
1775751036206164500,2.57816455078125,0.0495147705078125,-0.9904937744140625,0.15191650390625
1775751036216178400,2.588178466796875,0.0461883544921875,-0.991485595703125,0.1473541259765625
1775751036226192400,2.5981923828125,0.055450439453125,-0.9943084716796875,0.134124755859375
1775751036236206600,2.60820654296875,0.0610809326171875,-0.990478515625,0.127227783203125
1775751036246220500,2.618220458984375,0.0695953369140625,-0.9915771484375,0.1271209716796875
1775751036256234500,2.628234375,0.076019287109375,-0.9956512451171875,0.1352996826171875
1775751036266248400,2.63824853515625,0.08294677734375,-0.993804931640625,0.14404296875
1775751036276262400,2.648262451171875,0.082550048828125,-0.992645263671875,0.1505584716796875
1775751036286276600,2.658276611328125,0.082611083984375,-0.9940643310546875,0.154052734375
1775751036296290300,2.668290283203125,0.08648681640625,-0.99053955078125,0.1522979736328125
1775751036306304500,2.678304443359375,0.0934295654296875,-0.9885711669921875,0.1568450927734375
1775751036316318500,2.688318359375,0.0867767333984375,-0.9864501953125,0.1611480712890625
1775751036326332700,2.698332763671875,0.07135009765625,-0.9852447509765625,0.1620330810546875
1775751036336346400,2.708346435546875,0.0552520751953125,-0.9836578369140625,0.155181884765625
1775751036346360300,2.7183603515625,0.0488128662109375,-0.9791717529296875,0.1444854736328125
1775751036356374500,2.72837451171875,0.0452880859375,-0.97564697265625,0.136993408203125
1775751036366388500,2.738388427734375,0.0437164306640625,-0.9792022705078125,0.1371612548828125
1775751036376402400,2.74840234375,0.0459442138671875,-0.981048583984375,0.1395111083984375
1775751036386416400,2.75841650390625,0.052459716796875,-0.978179931640625,0.1408538818359375
1775751036396430800,2.768430908203125,0.0575714111328125,-0.9804534912109375,0.141265869140625
1775751036406444500,2.778444580078125,0.06304931640625,-0.9832000732421875,0.13818359375
1775751036416458500,2.78845849609375,0.0693359375,-0.9784088134765625,0.1357879638671875
1775751036426472700,2.79847265625,0.0785980224609375,-0.975982666015625,0.1428070068359375
1775751036436486700,2.808486572265625,0.07794189453125,-0.9766845703125,0.1582183837890625
1775751036446500600,2.81850048828125,0.07220458984375,-0.9811248779296875,0.1733245849609375
1775751036456514600,2.8285146484375,0.0716705322265625,-0.9824371337890625,0.177154541015625
1775751036466528800,2.83852880859375,0.0751800537109375,-0.9798736572265625,0.17333984375
1775751036476542700,2.848542724609375,0.08392333984375,-0.9767303466796875,0.1683197021484375
1775751036486556400,2.858556396484375,0.08154296875,-0.9745025634765625,0.16204833984375
1775751036496570600,2.868570556640625,0.07830810546875,-0.9752349853515625,0.1611328125
1775751036506584600,2.87858447265625,0.075164794921875,-0.9845123291015625,0.1628875732421875
1775751036516598800,2.888598876953125,0.0712890625,-0.98675537109375,0.160491943359375
1775751036526612500,2.898612548828125,0.0732269287109375,-0.9816741943359375,0.1569671630859375
1775751036536626700,2.908626708984375,0.078643798828125,-0.9794921875,0.161163330078125
1775751036546640600,2.918640625,0.078643798828125,-0.97967529296875,0.1692047119140625
1775751036556654600,2.928654541015625,0.07281494140625,-0.9801788330078125,0.1766815185546875
1775751036566668800,2.938668701171875,0.0750274658203125,-0.9853363037109375,0.179595947265625
1775751036576682500,2.9486826171875,0.074188232421875,-0.982666015625,0.1763458251953125
1775751036586696700,2.95869677734375,0.072357177734375,-0.9788818359375,0.16912841796875
1775751036596710700,2.968710693359375,0.081634521484375,-0.9797821044921875,0.1662445068359375
1775751036606724900,2.978724853515625,0.082977294921875,-0.9766998291015625,0.1756591796875
1775751036616738600,2.988738525390625,0.087738037109375,-0.984100341796875,0.17962646484375
1775751036626753500,2.99875341796875,0.0890350341796875,-0.982696533203125,0.1763153076171875
1775751036636767700,3.008767822265625,0.0894317626953125,-0.979248046875,0.1748809814453125
1775751036646780700,3.01878076171875,0.0904541015625,-0.9812774658203125,0.17022705078125
1775751036656795600,3.028795654296875,0.09130859375,-0.9847412109375,0.1663665771484375
1775751036666809600,3.0388095703125,0.08978271484375,-0.9872589111328125,0.1631622314453125
1775751036676823600,3.048823486328125,0.0758056640625,-0.9813385009765625,0.1519622802734375
1775751036686837800,3.058837646484375,0.0609588623046875,-0.9756317138671875,0.1295013427734375
1775751036696851700,3.068851806640625,0.0428466796875,-0.9745941162109375,0.1150054931640625
1775751036706865700,3.07886572265625,0.037384033203125,-0.973785400390625,0.11248779296875
1775751036716879600,3.088879638671875,0.0368499755859375,-0.9790496826171875,0.118438720703125
1775751036726893600,3.0988935546875,0.038330078125,-0.9826507568359375,0.1330108642578125
1775751036736907800,3.10890771484375,0.045928955078125,-0.9849853515625,0.1441192626953125
1775751036746921500,3.11892138671875,0.062652587890625,-0.987335205078125,0.1473388671875
1775751036756935700,3.128935791015625,0.081024169921875,-0.9889373779296875,0.1458282470703125
1775751036766949600,3.13894970703125,0.0981903076171875,-0.992431640625,0.1416168212890625
1775751036776963600,3.148963623046875,0.0976715087890625,-0.999237060546875,0.1385498046875
1775751036786977500,3.1589775390625,0.0964508056640625,-1.0040740966796875,0.136138916015625
1775751036796991500,3.168991455078125,0.092987060546875,-1.001007080078125,0.13079833984375
1775751036807005700,3.179005615234375,0.0938262939453125,-0.99969482421875,0.1222991943359375
1775751036817019600,3.18901953125,0.09429931640625,-1.0033111572265625,0.1138916015625
1775751036827033600,3.19903369140625,0.09014892578125,-1.0074462890625,0.09564208984375
1775751036837047600,3.209047607421875,0.0814208984375,-1.0098114013671875,0.07720947265625
1775751036847061800,3.219061767578125,0.0748138427734375,-1.0075836181640625,0.06317138671875
1775751036857075700,3.22907568359375,0.0692291259765625,-1.001251220703125,0.0517730712890625
1775751036867089700,3.239089599609375,0.0649871826171875,-0.9901123046875,0.045257568359375
1775751036877103600,3.249103515625,0.0487060546875,-0.9761962890625,0.0423126220703125
1775751036887117600,3.25911767578125,0.0367584228515625,-0.9718475341796875,0.0307159423828125
1775751036897131800,3.2691318359375,0.0333099365234375,-0.953277587890625,0.025543212890625
1775751036907145700,3.279145751953125,0.02679443359375,-0.934844970703125,0.0184173583984375
1775751036917159700,3.28915966796875,0.028900146484375,-0.930023193359375,0.0158843994140625
1775751036927173600,3.299173583984375,0.0417633056640625,-0.93255615234375,0.00811767578125
1775751036937187600,3.3091875,0.0616912841796875,-0.9236907958984375,-0.004364013671875
1775751036947201800,3.319201904296875,0.0848236083984375,-0.9200286865234375,-0.01275634765625
1775751036957215500,3.329215576171875,0.1186370849609375,-0.928070068359375,-0.019744873046875
1775751036967229700,3.339229736328125,0.1324920654296875,-0.929443359375,-0.00848388671875
1775751036977243600,3.34924365234375,0.137664794921875,-0.9385986328125,0.0054779052734375
1775751036987257600,3.359257568359375,0.1205902099609375,-0.9496002197265625,0.022918701171875
1775751036997271600,3.369271484375,0.107147216796875,-0.9587860107421875,0.0445098876953125
1775751037007285500,3.379285400390625,0.0870819091796875,-0.9556427001953125,0.0789337158203125
1775751037017299700,3.3892998046875,0.0681610107421875,-0.96148681640625,0.099639892578125
1775751037027313700,3.399313720703125,0.0560302734375,-0.96514892578125,0.0964202880859375
1775751037037327600,3.40932763671875,0.0489044189453125,-0.94537353515625,0.104095458984375
1775751037047341600,3.419341552734375,0.062164306640625,-0.9361572265625,0.133209228515625
1775751037057355500,3.42935546875,0.0635528564453125,-0.9420318603515625,0.16094970703125
1775751037067369700,3.43936962890625,0.076568603515625,-0.9447784423828125,0.1793365478515625
1775751037077383700,3.4493837890625,0.0889892578125,-0.937835693359375,0.1856536865234375
1775751037087397600,3.459397705078125,0.105377197265625,-0.929779052734375,0.1913299560546875
1775751037097411600,3.46941162109375,0.1403961181640625,-0.9266815185546875,0.2099761962890625
1775751037107425800,3.47942578125,0.181121826171875,-0.927886962890625,0.2447509765625
1775751037117439700,3.489439697265625,0.208099365234375,-0.9235992431640625,0.26959228515625
1775751037127453400,3.499453369140625,0.2238922119140625,-0.91656494140625,0.290191650390625
1775751037137467600,3.509467529296875,0.218231201171875,-0.9085235595703125,0.310333251953125
1775751037147481600,3.519481689453125,0.2184600830078125,-0.8998565673828125,0.314788818359375
1775751037157495800,3.529495849609375,0.206939697265625,-0.89801025390625,0.30499267578125
1775751037167509500,3.539509521484375,0.1981658935546875,-0.901702880859375,0.2950592041015625
1775751037177523700,3.549523681640625,0.2025604248046875,-0.9061737060546875,0.28570556640625
1775751037187537700,3.55953759765625,0.2093963623046875,-0.9153289794921875,0.279937744140625
1775751037197551600,3.569551513671875,0.2056121826171875,-0.94110107421875,0.290008544921875
1775751037207565600,3.579565673828125,0.180145263671875,-0.9532012939453125,0.291107177734375
1775751037217579500,3.58957958984375,0.1645660400390625,-0.946014404296875,0.3013916015625
1775751037227593700,3.59959375,0.1373138427734375,-0.942413330078125,0.3287353515625
1775751037237607700,3.609607666015625,0.1039886474609375,-0.9423065185546875,0.3401947021484375
1775751037247621600,3.61962158203125,0.0756072998046875,-0.946075439453125,0.3543243408203125
1775751037257635600,3.629635498046875,0.044158935546875,-0.933837890625,0.362396240234375
1775751037267649500,3.6396494140625,0.03302001953125,-0.911468505859375,0.37322998046875
1775751037277663700,3.649663818359375,0.03228759765625,-0.8996734619140625,0.3971710205078125
1775751037287677400,3.659677490234375,0.0415191650390625,-0.8901214599609375,0.413909912109375
1775751037297691600,3.669691650390625,0.0698699951171875,-0.8890533447265625,0.4195404052734375
1775751037307705600,3.67970556640625,0.0986328125,-0.8863983154296875,0.4176483154296875
1775751037317719800,3.6897197265625,0.1263580322265625,-0.8933563232421875,0.421905517578125
1775751037327733800,3.699733642578125,0.159271240234375,-0.908416748046875,0.424407958984375
1775751037337747500,3.70974755859375,0.215118408203125,-0.9096221923828125,0.42822265625
1775751037347761700,3.71976171875,0.2638092041015625,-0.922943115234375,0.4344940185546875
1775751037357775600,3.729775634765625,0.27789306640625,-0.9288177490234375,0.4199066162109375
1775751037367789800,3.739789794921875,0.283721923828125,-0.923431396484375,0.413665771484375
1775751037377803500,3.749803466796875,0.2718963623046875,-0.9274139404296875,0.427947998046875
1775751037387817700,3.759817626953125,0.2532501220703125,-0.9398040771484375,0.4458160400390625
1775751037397831700,3.769831787109375,0.2235107421875,-0.935821533203125,0.4541473388671875
1775751037407845400,3.779845458984375,0.19134521484375,-0.931793212890625,0.4644775390625
1775751037417859600,3.789859619140625,0.1735992431640625,-0.9389801025390625,0.4823760986328125
1775751037427873300,3.799873291015625,0.1620025634765625,-0.9364776611328125,0.4892120361328125
1775751037437887500,3.809887451171875,0.1685028076171875,-0.9329376220703125,0.485748291015625
1775751037447901400,3.8199013671875,0.184844970703125,-0.9399566650390625,0.483734130859375
1775751037457915600,3.82991552734375,0.181243896484375,-0.936279296875,0.4651641845703125
1775751037467929300,3.839929443359375,0.1933746337890625,-0.9269866943359375,0.451507568359375
1775751037477943300,3.849943359375,0.2124786376953125,-0.927703857421875,0.4420928955078125
1775751037487957500,3.85995751953125,0.2294921875,-0.9236297607421875,0.43963623046875
1775751037497971500,3.869971435546875,0.2295684814453125,-0.9264373779296875,0.4332275390625
1775751037507985400,3.8799853515625,0.2202301025390625,-0.9364776611328125,0.4177703857421875
1775751037517999400,3.889999267578125,0.2092132568359375,-0.9466705322265625,0.4075164794921875
1775751037528013600,3.900013671875,0.199951171875,-0.9511871337890625,0.40008544921875
1775751037538027500,3.910027587890625,0.1978607177734375,-0.9500732421875,0.3933868408203125
1775751037548041500,3.92004150390625,0.2038116455078125,-0.9544830322265625,0.3937225341796875
1775751037558055400,3.930055419921875,0.1988525390625,-0.9500885009765625,0.3910369873046875
1775751037568069400,3.9400693359375,0.2078704833984375,-0.9471893310546875,0.3858489990234375
1775751037578083600,3.95008349609375,0.2020416259765625,-0.9413909912109375,0.364044189453125
1775751037588097500,3.96009765625,0.191375732421875,-0.945648193359375,0.34002685546875
1775751037598111500,3.970111572265625,0.1903228759765625,-0.956939697265625,0.3264007568359375
1775751037608125400,3.98012548828125,0.19415283203125,-0.9484710693359375,0.311492919921875
1775751037618139400,3.990139404296875,0.2027587890625,-0.936370849609375,0.2950286865234375
1775751037628153600,4.000153564453125,0.2063140869140625,-0.927276611328125,0.287567138671875
1775751037638167300,4.010167236328125,0.1966400146484375,-0.92218017578125,0.300567626953125
1775751037648181500,4.020181396484375,0.184967041015625,-0.9192657470703125,0.3206787109375
1775751037658195500,4.030195556640625,0.179107666015625,-0.915557861328125,0.33349609375
1775751037668209700,4.040209716796875,0.1704559326171875,-0.916717529296875,0.350555419921875
1775751037678223400,4.050223388671875,0.1666107177734375,-0.916717529296875,0.3522186279296875
1775751037688237300,4.0602373046875,0.169464111328125,-0.909881591796875,0.347015380859375
1775751037698251500,4.07025146484375,0.177520751953125,-0.8986358642578125,0.34991455078125
1775751037708265500,4.080265380859375,0.1812286376953125,-0.8931884765625,0.345703125
1775751037718279400,4.090279541015625,0.1851959228515625,-0.890960693359375,0.33416748046875
1775751037728293400,4.10029345703125,0.188568115234375,-0.891876220703125,0.3335113525390625
1775751037738307600,4.1103076171875,0.1852264404296875,-0.8946685791015625,0.347808837890625
1775751037748321500,4.120321533203125,0.180633544921875,-0.8991546630859375,0.3644561767578125
1775751037758335500,4.13033544921875,0.1472625732421875,-0.8934326171875,0.3731231689453125
1775751037768349400,4.140349365234375,0.15960693359375,-0.8945159912109375,0.3712921142578125
1775751037778363400,4.15036328125,0.193695068359375,-0.890594482421875,0.3435821533203125
1775751037788377600,4.160377685546875,0.159271240234375,-0.8697662353515625,0.348388671875
1775751037798391600,4.1703916015625,0.149505615234375,-0.879974365234375,0.356903076171875
1775751037808405500,4.180405517578125,0.1543426513671875,-0.8997802734375,0.35052490234375
1775751037818419500,4.19041943359375,0.1649322509765625,-0.902496337890625,0.3675384521484375
1775751037828433400,4.200433349609375,0.1639251708984375,-0.8958282470703125,0.3800811767578125
1775751037838447600,4.210447509765625,0.1619720458984375,-0.8984222412109375,0.3884735107421875
1775751037848461300,4.22046142578125,0.1711578369140625,-0.90484619140625,0.40460205078125
1775751037858475500,4.2304755859375,0.170684814453125,-0.90277099609375,0.390655517578125
1775751037868489500,4.240489501953125,0.1892852783203125,-0.8953704833984375,0.3612518310546875
1775751037878503700,4.250503662109375,0.221038818359375,-0.892913818359375,0.3354034423828125
1775751037888517400,4.260517333984375,0.2327880859375,-0.895294189453125,0.333587646484375
1775751037898531300,4.27053125,0.2353057861328125,-0.9091949462890625,0.34521484375
1775751037908545500,4.280545654296875,0.221099853515625,-0.9179534912109375,0.3544769287109375
1775751037918559500,4.2905595703125,0.2022705078125,-0.92340087890625,0.3747100830078125
1775751037928573400,4.300573486328125,0.1834869384765625,-0.923736572265625,0.38677978515625
1775751037938587400,4.31058740234375,0.1620330810546875,-0.92547607421875,0.396026611328125
1775751037948601600,4.3206015625,0.1519317626953125,-0.9292449951171875,0.398681640625
1775751037958615600,4.330615478515625,0.14849853515625,-0.9243011474609375,0.3833465576171875
1775751037968629200,4.340629150390625,0.1568756103515625,-0.916473388671875,0.3716888427734375
1775751037978643500,4.3506435546875,0.169097900390625,-0.9152374267578125,0.3689727783203125
1775751037988657400,4.360657470703125,0.183685302734375,-0.9261932373046875,0.3786773681640625
1775751037998671600,4.370671630859375,0.1937713623046875,-0.9270477294921875,0.3931121826171875
1775751038008685600,4.380685546875,0.183013916015625,-0.91888427734375,0.39947509765625
1775751038018699500,4.390699462890625,0.1793975830078125,-0.924072265625,0.4057159423828125
1775751038028713500,4.40071337890625,0.16845703125,-0.9229278564453125,0.3987579345703125
1775751038038727400,4.4107275390625,0.1555328369140625,-0.917938232421875,0.3958740234375
1775751038048741600,4.42074169921875,0.13299560546875,-0.91015625,0.388519287109375
1775751038058755300,4.43075537109375,0.129119873046875,-0.9008636474609375,0.3889312744140625
1775751038068769500,4.44076953125,0.120880126953125,-0.897369384765625,0.398223876953125
1775751038078783500,4.450783447265625,0.1144866943359375,-0.8978118896484375,0.4019927978515625
1775751038088797700,4.460797607421875,0.1112060546875,-0.8979949951171875,0.3882293701171875
1775751038098811400,4.470811279296875,0.1272125244140625,-0.89556884765625,0.3675537109375
1775751038108825300,4.480825439453125,0.1572113037109375,-0.894622802734375,0.35260009765625
1775751038118839600,4.490839599609375,0.163909912109375,-0.8940582275390625,0.35113525390625
1775751038128853500,4.500853515625,0.1696319580078125,-0.893707275390625,0.3616485595703125
1775751038138867500,4.510867431640625,0.1734771728515625,-0.8967742919921875,0.3912506103515625
1775751038148882400,4.52088232421875,0.294097900390625,-0.885711669921875,0.4240875244140625
1775751038158895600,4.5308955078125,0.37249755859375,-0.8961334228515625,0.4193878173828125
1775751038168910600,4.54091064453125,0.162200927734375,-1.03521728515625,0.2971038818359375
1775751038178923300,4.55092333984375,0.05389404296875,-1.0610809326171875,0.3156890869140625
1775751038188938500,4.5609384765625,0.1464996337890625,-1.071319580078125,0.424072265625
1775751038198952400,4.570952392578125,0.1942291259765625,-1.0283050537109375,0.49468994140625
1775751038208965600,4.580965576171875,0.0941925048828125,-1.0347137451171875,0.5159912109375
1775751038218980600,4.590980712890625,0.0361480712890625,-1.073486328125,0.5117034912109375
1775751038228994300,4.600994384765625,0.05670166015625,-1.0749664306640625,0.4976348876953125
1775751038239008500,4.611008544921875,0.07794189453125,-1.0710296630859375,0.507843017578125
1775751038249022500,4.6210224609375,0.0652923583984375,-1.0842742919921875,0.5413970947265625
1775751038259036400,4.631036376953125,0.0592803955078125,-1.10760498046875,0.5760955810546875
1775751038269050400,4.64105029296875,0.0797119140625,-1.1278076171875,0.591156005859375
1775751038279064300,4.651064208984375,0.119110107421875,-1.146575927734375,0.5855560302734375
1775751038289078500,4.66107861328125,0.139312744140625,-1.164276123046875,0.57879638671875
1775751038299092500,4.671092529296875,0.1447906494140625,-1.1896514892578125,0.5688934326171875
1775751038309106700,4.681106689453125,0.156463623046875,-1.2022857666015625,0.5556488037109375
1775751038319120400,4.691120361328125,0.1521148681640625,-1.191009521484375,0.5396728515625
1775751038329134600,4.701134521484375,0.128143310546875,-1.1752166748046875,0.5362091064453125
1775751038339148500,4.7111484375,0.1097412109375,-1.15875244140625,0.540557861328125
1775751038349162500,4.72116259765625,0.119384765625,-1.13787841796875,0.5419158935546875
1775751038359176400,4.731176513671875,0.1272430419921875,-1.111541748046875,0.545440673828125
1775751038369190400,4.7411904296875,0.1281585693359375,-1.0894012451171875,0.556243896484375
1775751038379204600,4.75120458984375,0.15069580078125,-1.0562286376953125,0.5548248291015625
1775751038389218600,4.761218505859375,0.18499755859375,-1.0364532470703125,0.53607177734375
1775751038399233300,4.7712333984375,0.2104644775390625,-1.0261993408203125,0.5303955078125
1775751038409247200,4.781247314453125,0.22698974609375,-1.0112457275390625,0.5239105224609375
1775751038419261200,4.79126123046875,0.2553863525390625,-1.0008697509765625,0.5138397216796875
1775751038429275400,4.801275390625,0.2673492431640625,-0.990203857421875,0.507537841796875
1775751038439289300,4.811289306640625,0.258544921875,-0.979095458984375,0.5250091552734375
1775751038449303000,4.821302978515625,0.23748779296875,-0.96881103515625,0.540802001953125
1775751038459317200,4.831317138671875,0.2102813720703125,-0.9377899169921875,0.5446319580078125
1775751038469331200,4.841331298828125,0.2078704833984375,-0.9141998291015625,0.5307159423828125
1775751038479345400,4.851345458984375,0.25189208984375,-0.8935394287109375,0.47088623046875
1775751038489359400,4.861359375,0.29681396484375,-0.8799591064453125,0.3929901123046875
1775751038499373300,4.871373291015625,0.31683349609375,-0.8722991943359375,0.3348388671875
1775751038509387300,4.88138720703125,0.3224639892578125,-0.8707733154296875,0.3194732666015625
1775751038519401200,4.891401123046875,0.30938720703125,-0.850067138671875,0.335052490234375
1775751038529415400,4.90141552734375,0.292572021484375,-0.82855224609375,0.36688232421875
1775751038539429000,4.91142919921875,0.2618560791015625,-0.8014068603515625,0.4176025390625
1775751038549443300,4.921443359375,0.232177734375,-0.787261962890625,0.4887237548828125
1775751038559457300,4.931457275390625,0.2015533447265625,-0.7764129638671875,0.546539306640625
1775751038569471200,4.94147119140625,0.1775970458984375,-0.77227783203125,0.56097412109375
1775751038579485200,4.951485107421875,0.1899871826171875,-0.7507171630859375,0.511566162109375
1775751038589499100,4.9614990234375,0.197784423828125,-0.739166259765625,0.4466552734375
1775751038599513300,4.971513427734375,0.2020111083984375,-0.7401885986328125,0.390899658203125
1775751038609527300,4.98152734375,0.2354583740234375,-0.73876953125,0.3624114990234375
1775751038619541200,4.991541259765625,0.250396728515625,-0.7460479736328125,0.3546905517578125
1775751038629555200,5.00155517578125,0.2318878173828125,-0.7728271484375,0.3572540283203125
1775751038639569400,5.0115693359375,0.2263031005859375,-0.7870330810546875,0.3624725341796875
1775751038649583400,5.021583251953125,0.211761474609375,-0.773651123046875,0.3825836181640625
1775751038659597000,5.03159716796875,0.1771392822265625,-0.769927978515625,0.4205780029296875
1775751038669611300,5.041611328125,0.147735595703125,-0.7707366943359375,0.4528045654296875
1775751038679625200,5.051625244140625,0.158538818359375,-0.7681427001953125,0.471282958984375
1775751038689639400,5.061639404296875,0.18878173828125,-0.7547454833984375,0.4722442626953125
1775751038699653000,5.071653076171875,0.207855224609375,-0.76361083984375,0.4600830078125
1775751038709667300,5.081667236328125,0.206390380859375,-0.77703857421875,0.4241180419921875
1775751038719681300,5.091681396484375,0.219390869140625,-0.7750244140625,0.3463134765625
1775751038729695200,5.1016953125,0.2446136474609375,-0.777374267578125,0.295440673828125
1775751038739709400,5.11170947265625,0.2463226318359375,-0.7902984619140625,0.2965850830078125
1775751038749723100,5.12172314453125,0.240509033203125,-0.8036346435546875,0.3140716552734375
1775751038759737300,5.1317373046875,0.220184326171875,-0.8197021484375,0.3432159423828125
1775751038769751300,5.141751220703125,0.194183349609375,-0.82177734375,0.363433837890625
1775751038779765200,5.15176513671875,0.1970977783203125,-0.8319091796875,0.38836669921875
1775751038789779200,5.161779296875,0.1961669921875,-0.83905029296875,0.43829345703125
1775751038799793200,5.171793212890625,0.1910400390625,-0.8536224365234375,0.488372802734375
1775751038809807400,5.181807373046875,0.1746978759765625,-0.8526153564453125,0.5019378662109375
1775751038819821300,5.1918212890625,0.174041748046875,-0.85797119140625,0.491455078125
1775751038829835300,5.201835205078125,0.1935272216796875,-0.8614654541015625,0.43011474609375
1775751038839849200,5.21184912109375,0.232147216796875,-0.8725128173828125,0.377899169921875
1775751038849863200,5.22186328125,0.270660400390625,-0.8993988037109375,0.39117431640625
1775751038859877400,5.23187744140625,0.314422607421875,-0.8764801025390625,0.4102020263671875
1775751038869891000,5.24189111328125,0.3620758056640625,-0.8642120361328125,0.4451446533203125
1775751038879905300,5.2519052734375,0.3724365234375,-0.8311309814453125,0.4550323486328125
1775751038889919200,5.261919189453125,0.38299560546875,-0.776702880859375,0.4410552978515625
1775751038899933400,5.271933349609375,0.3658447265625,-0.7279510498046875,0.4227294921875
1775751038909947100,5.281947021484375,0.2982177734375,-0.679962158203125,0.3534698486328125
1775751038919961000,5.291961181640625,0.222320556640625,-0.6383514404296875,0.2487335205078125
1775751038929975300,5.301975341796875,0.1290130615234375,-0.578887939453125,0.132720947265625
1775751038939989200,5.3119892578125,0.052978515625,-0.5565948486328125,0.0238189697265625
1775751038950003200,5.322003173828125,0.007232666015625,-0.5583648681640625,-0.0596923828125
1775751038960017200,5.33201708984375,-0.025421142578125,-0.55426025390625,-0.128387451171875
1775751038970031400,5.34203125,-0.0422821044921875,-0.565155029296875,-0.184478759765625
1775751038980045300,5.35204541015625,-0.0386810302734375,-0.574188232421875,-0.202117919921875
1775751038990059300,5.362059326171875,-0.0412139892578125,-0.6011810302734375,-0.1577911376953125
1775751039000073200,5.3720732421875,-0.0452117919921875,-0.608917236328125,-0.092529296875
1775751039010087200,5.382087158203125,-0.019256591796875,-0.5728759765625,-0.0467071533203125
1775751039020101400,5.392101318359375,0.0298614501953125,-0.5415191650390625,-0.017425537109375
1775751039030115300,5.402115234375,0.1016387939453125,-0.5326995849609375,0.02569580078125
1775751039040129300,5.41212939453125,0.1754608154296875,-0.539093017578125,0.0597076416015625
1775751039050143200,5.422143310546875,0.2312469482421875,-0.5408477783203125,0.086883544921875
1775751039060157200,5.4321572265625,0.2767333984375,-0.54278564453125,0.105560302734375
1775751039070171400,5.44217138671875,0.3100128173828125,-0.5564117431640625,0.1269073486328125
1775751039080185000,5.45218505859375,0.3115081787109375,-0.5605926513671875,0.122467041015625
1775751039090199300,5.46219921875,0.316680908203125,-0.5663299560546875,0.1381988525390625
1775751039100213200,5.472213134765625,0.30816650390625,-0.5792694091796875,0.1042633056640625
1775751039110227500,5.4822275390625,0.3604278564453125,-0.6087188720703125,0.08599853515625
1775751039120241200,5.4922412109375,0.4210205078125,-0.6336517333984375,0.1194305419921875
1775751039130255000,5.502255126953125,0.462615966796875,-0.674560546875,0.190155029296875
1775751039140269300,5.512269287109375,0.46893310546875,-0.7069854736328125,0.316436767578125
1775751039150283300,5.522283203125,0.4968414306640625,-0.71466064453125,0.3929595947265625
1775751039160297200,5.532297119140625,0.5252227783203125,-0.706512451171875,0.435760498046875
1775751039170311200,5.542311279296875,0.467742919921875,-0.7318115234375,0.48089599609375
1775751039180325400,5.552325439453125,0.4103851318359375,-0.7233734130859375,0.4913787841796875
1775751039190339300,5.56233935546875,0.357879638671875,-0.7260284423828125,0.49468994140625
1775751039200353000,5.57235302734375,0.306854248046875,-0.703338623046875,0.437530517578125
1775751039210367200,5.5823671875,0.3129425048828125,-0.6815185546875,0.41241455078125
1775751039220381200,5.592381103515625,0.3026580810546875,-0.698089599609375,0.4333343505859375
1775751039230394400,5.602394287109375,0.310455322265625,-0.697174072265625,0.455230712890625
1775751039240409300,5.612409423828125,0.3392486572265625,-0.719970703125,0.510162353515625
1775751039250423300,5.62242333984375,0.355194091796875,-0.707916259765625,0.5443267822265625
1775751039260437200,5.632437255859375,0.397918701171875,-0.748443603515625,0.547576904296875
1775751039270450400,5.642450439453125,0.450225830078125,-0.78765869140625,0.4903717041015625
1775751039280465400,5.65246533203125,0.5171051025390625,-0.804412841796875,0.4590911865234375
1775751039290478300,5.662478271484375,0.542144775390625,-0.8702850341796875,0.4669952392578125
1775751039300492300,5.6724921875,0.5759429931640625,-0.8473358154296875,0.4248046875
1775751039310506200,5.68250634765625,0.6375885009765625,-0.84674072265625,0.384368896484375
1775751039320521500,5.692521484375,0.6188507080078125,-0.8678436279296875,0.4127197265625
1775751039330534100,5.7025341796875,0.591094970703125,-0.8438720703125,0.451629638671875
1775751039340548400,5.71254833984375,0.585174560546875,-0.8415985107421875,0.4879302978515625
1775751039350562300,5.722562255859375,0.5689239501953125,-0.84991455078125,0.5166168212890625
1775751039360576300,5.732576171875,0.532958984375,-0.92962646484375,0.576629638671875
1775751039370590200,5.742590087890625,0.483306884765625,-0.95318603515625,0.5714111328125
1775751039380604200,5.752604248046875,0.4613494873046875,-0.9473724365234375,0.5648345947265625
1775751039390618400,5.762618408203125,0.4308319091796875,-0.944244384765625,0.5777435302734375
1775751039400632300,5.77263232421875,0.4359588623046875,-0.901641845703125,0.556640625
1775751039410646300,5.782646240234375,0.4492340087890625,-0.8834228515625,0.5448150634765625
1775751039420660200,5.79266015625,0.4328765869140625,-0.8674468994140625,0.5619964599609375
1775751039430674400,5.80267431640625,0.4178924560546875,-0.8779449462890625,0.59423828125
1775751039440688400,5.8126884765625,0.3807220458984375,-0.9114837646484375,0.63153076171875
1775751039450702000,5.8227021484375,0.36871337890625,-0.8901214599609375,0.6500701904296875
1775751039460716300,5.83271630859375,0.3814544677734375,-0.8918609619140625,0.696563720703125
1775751039470730200,5.842730224609375,0.4117889404296875,-0.87969970703125,0.7273712158203125
1775751039480744400,5.852744384765625,0.4418182373046875,-0.8585205078125,0.7032623291015625
1775751039490758100,5.862758056640625,0.4438629150390625,-0.8852691650390625,0.664794921875
1775751039500772400,5.8727724609375,0.44317626953125,-0.90216064453125,0.6178436279296875
1775751039510786300,5.882786376953125,0.449493408203125,-0.89666748046875,0.5452117919921875
1775751039520800300,5.89280029296875,0.4649810791015625,-0.9036712646484375,0.4593963623046875
1775751039530814200,5.902814208984375,0.485870361328125,-0.9339141845703125,0.384368896484375
1775751039540828200,5.912828125,0.5018157958984375,-0.951324462890625,0.3289947509765625
1775751039550842400,5.92284228515625,0.5146484375,-0.9259033203125,0.2979278564453125
1775751039560856300,5.932856201171875,0.5054168701171875,-0.9027557373046875,0.2939300537109375
1775751039570870300,5.942870361328125,0.479522705078125,-0.878509521484375,0.2903900146484375
1775751039580884200,5.95288427734375,0.4449462890625,-0.875152587890625,0.2919921875
1775751039590898200,5.962898193359375,0.4041900634765625,-0.8841552734375,0.2615509033203125
1775751039600912400,5.972912353515625,0.3825225830078125,-0.89361572265625,0.23028564453125
1775751039610926000,5.982926025390625,0.3665924072265625,-0.9080047607421875,0.2328643798828125
1775751039620940300,5.992940185546875,0.358673095703125,-0.90057373046875,0.253448486328125
1775751039630954200,6.002954345703125,0.3766937255859375,-0.9061737060546875,0.2984466552734375
1775751039640968400,6.012968505859375,0.404083251953125,-0.8831787109375,0.3103790283203125
1775751039650982400,6.022982421875,0.4178314208984375,-0.84954833984375,0.319580078125
1775751039660996000,6.03299609375,0.4253692626953125,-0.8164825439453125,0.3388671875
1775751039671010300,6.04301025390625,0.4233245849609375,-0.7654571533203125,0.356689453125
1775751039681024300,6.053024169921875,0.4212188720703125,-0.73370361328125,0.377838134765625
1775751039691038500,6.06303857421875,0.4110565185546875,-0.714447021484375,0.37725830078125
1775751039701052200,6.07305224609375,0.3641357421875,-0.7122955322265625,0.3954620361328125
1775751039711066400,6.08306640625,0.3057098388671875,-0.750213623046875,0.425018310546875
1775751039721080300,6.093080322265625,0.254241943359375,-0.771209716796875,0.3998565673828125
1775751039731094300,6.10309423828125,0.246551513671875,-0.7914886474609375,0.3592376708984375
1775751039741108200,6.113108154296875,0.2673187255859375,-0.796356201171875,0.3217926025390625
1775751039751122200,6.1231220703125,0.3179168701171875,-0.820953369140625,0.295867919921875
1775751039761136400,6.133136474609375,0.372406005859375,-0.84771728515625,0.2916412353515625
1775751039771150300,6.143150390625,0.45648193359375,-0.8478546142578125,0.301025390625
1775751039781164300,6.153164306640625,0.518280029296875,-0.88043212890625,0.341064453125
1775751039791178200,6.16317822265625,0.53448486328125,-0.8636932373046875,0.3924102783203125
1775751039801192200,6.173192138671875,0.5300445556640625,-0.8431854248046875,0.460540771484375
1775751039811206400,6.183206298828125,0.4710693359375,-0.8574981689453125,0.5424346923828125
1775751039821220000,6.19322021484375,0.3822174072265625,-0.8924407958984375,0.6228179931640625
1775751039831234300,6.203234375,0.3004150390625,-0.937042236328125,0.6485443115234375
1775751039841248300,6.213248291015625,0.2450408935546875,-0.9585418701171875,0.6365203857421875
1775751039851262200,6.22326220703125,0.233123779296875,-0.9858551025390625,0.621307373046875
1775751039861276200,6.233276123046875,0.259857177734375,-0.990631103515625,0.595184326171875
1775751039871290000,6.2432900390625,0.30303955078125,-0.986236572265625,0.5649871826171875
1775751039881304300,6.25330419921875,0.3351287841796875,-1.011505126953125,0.5632781982421875
1775751039891318300,6.263318359375,0.3490142822265625,-1.01397705078125,0.571319580078125
1775751039901332500,6.27333251953125,0.3216705322265625,-1.029449462890625,0.5989227294921875
1775751039911346200,6.28334619140625,0.2901153564453125,-1.031585693359375,0.604644775390625
1775751039921360100,6.293360107421875,0.258941650390625,-1.010955810546875,0.5973968505859375
1775751039931374300,6.303374267578125,0.234405517578125,-0.984161376953125,0.5676116943359375
1775751039941388300,6.31338818359375,0.22412109375,-0.96826171875,0.5115966796875
1775751039951402200,6.32340234375,0.2302398681640625,-0.963226318359375,0.4550018310546875
1775751039961416200,6.333416259765625,0.2469940185546875,-0.9633331298828125,0.418548583984375
1775751039971430400,6.343430419921875,0.27593994140625,-0.9534149169921875,0.39404296875
1775751039981444400,6.3534443359375,0.3050537109375,-0.949127197265625,0.385650634765625
1775751039991458300,6.363458251953125,0.339080810546875,-0.9359283447265625,0.3659820556640625
1775751040001472300,6.37347216796875,0.364959716796875,-0.8993682861328125,0.35662841796875
1775751040011486200,6.383486328125,0.378509521484375,-0.8840179443359375,0.3731231689453125
1775751040021500400,6.39350048828125,0.3829345703125,-0.8657684326171875,0.3772735595703125
1775751040031514000,6.40351416015625,0.3592681884765625,-0.8339691162109375,0.376495361328125
1775751040041528300,6.4135283203125,0.3229827880859375,-0.8231048583984375,0.3777313232421875
1775751040051542300,6.423542236328125,0.29290771484375,-0.8307952880859375,0.3682708740234375
1775751040061556200,6.43355615234375,0.278961181640625,-0.8294677734375,0.348358154296875
1775751040071570200,6.443570068359375,0.2825469970703125,-0.8392181396484375,0.34307861328125
1775751040081584000,6.453584228515625,0.2896270751953125,-0.8496246337890625,0.3575897216796875
1775751040091598300,6.463598388671875,0.2984771728515625,-0.8502044677734375,0.369537353515625
1775751040101612300,6.4736123046875,0.3085174560546875,-0.866607666015625,0.379364013671875
1775751040111626200,6.483626220703125,0.2820587158203125,-0.90460205078125,0.388885498046875
1775751040121640200,6.49364013671875,0.253082275390625,-0.935546875,0.3997039794921875
1775751040131654100,6.503654052734375,0.234527587890625,-0.9964447021484375,0.429840087890625
1775751040141668400,6.51366845703125,0.214141845703125,-1.080841064453125,0.4788360595703125
1775751040151682300,6.523682373046875,0.2104034423828125,-1.1706695556640625,0.531402587890625
1775751040161696300,6.5336962890625,0.227996826171875,-1.2631378173828125,0.583160400390625
1775751040171710200,6.543710205078125,0.239471435546875,-1.3304290771484375,0.63140869140625
1775751040181724400,6.553724365234375,0.230712890625,-1.38232421875,0.6735076904296875
1775751040191738400,6.56373828125,0.230377197265625,-1.3832550048828125,0.6994476318359375
1775751040201752000,6.573751953125,0.2472076416015625,-1.3704071044921875,0.7248382568359375
1775751040211766300,6.583766357421875,0.2880401611328125,-1.3546600341796875,0.75970458984375
1775751040221780200,6.5937802734375,0.3473663330078125,-1.3184967041015625,0.77325439453125
1775751040231794400,6.60379443359375,0.381439208984375,-1.293304443359375,0.780120849609375
1775751040241808100,6.61380810546875,0.3895111083984375,-1.242828369140625,0.7635955810546875
1775751040251822300,6.623822265625,0.3795318603515625,-1.1873016357421875,0.7275238037109375
1775751040261836300,6.633836181640625,0.3526763916015625,-1.1414947509765625,0.69415283203125
1775751040271850200,6.643850341796875,0.329071044921875,-1.0997467041015625,0.633697509765625
1775751040281864200,6.6538642578125,0.3309783935546875,-1.0622406005859375,0.552490234375
1775751040291878100,6.663878173828125,0.342529296875,-1.0308074951171875,0.5237274169921875
1775751040301892400,6.673892333984375,0.3697357177734375,-1.001617431640625,0.5107574462890625
1775751040311906300,6.68390625,0.4037017822265625,-0.984588623046875,0.4970245361328125
1775751040321920300,6.693920166015625,0.4264678955078125,-0.9615936279296875,0.4879150390625
1775751040331934200,6.703934326171875,0.4343719482421875,-0.9385528564453125,0.47796630859375
1775751040341948200,6.7139482421875,0.4525909423828125,-0.9134368896484375,0.425750732421875
1775751040351962400,6.72396240234375,0.489837646484375,-0.8817291259765625,0.3580780029296875
1775751040361976000,6.73397607421875,0.5205078125,-0.8463592529296875,0.3092498779296875
1775751040371990300,6.743990234375,0.5039520263671875,-0.8278045654296875,0.28533935546875
1775751040382004200,6.754004150390625,0.485260009765625,-0.8122406005859375,0.257598876953125
1775751040392018400,6.764018310546875,0.467041015625,-0.7935791015625,0.2440948486328125
1775751040402032000,6.7740322265625,0.4324951171875,-0.7786865234375,0.2547149658203125
1775751040412046000,6.784046142578125,0.3808135986328125,-0.7718048095703125,0.290863037109375
1775751040422060000,6.79406005859375,0.3311004638671875,-0.7602691650390625,0.3374176025390625
1775751040432074000,6.804073974609375,0.341156005859375,-0.752532958984375,0.36029052734375
1775751040442088200,6.814088134765625,0.386474609375,-0.7504730224609375,0.3638153076171875
1775751040452101000,6.82410107421875,0.4383392333984375,-0.7600250244140625,0.3699493408203125
1775751040462116000,6.8341162109375,0.4597625732421875,-0.7613372802734375,0.36572265625
1775751040472129000,6.84412890625,0.4425506591796875,-0.7561798095703125,0.3587188720703125
1775751040482143200,6.854143310546875,0.404510498046875,-0.745941162109375,0.36846923828125
1775751040492157000,6.864156982421875,0.3484954833984375,-0.73992919921875,0.391448974609375
1775751040502171100,6.874171142578125,0.3146514892578125,-0.7482147216796875,0.4128265380859375
1775751040512185000,6.88418505859375,0.3099822998046875,-0.74822998046875,0.41302490234375
1775751040522199000,6.894198974609375,0.299530029296875,-0.7379913330078125,0.408233642578125
1775751040532213200,6.904213134765625,0.26165771484375,-0.737640380859375,0.4049835205078125
1775751040542227000,6.91422705078125,0.2515106201171875,-0.7263946533203125,0.3720855712890625
1775751040552241200,6.9242412109375,0.2678680419921875,-0.7202301025390625,0.3314971923828125
1775751040562255000,6.934255126953125,0.26898193359375,-0.718231201171875,0.3175506591796875
1775751040572269300,6.944269287109375,0.272552490234375,-0.7083282470703125,0.318878173828125
1775751040582283000,6.954282958984375,0.29095458984375,-0.70391845703125,0.3259429931640625
1775751040592297000,6.964296875,0.3049468994140625,-0.6887054443359375,0.3395538330078125
1775751040602311200,6.974311279296875,0.3147735595703125,-0.704132080078125,0.3741912841796875
1775751040612325000,6.9843251953125,0.3077392578125,-0.710113525390625,0.3875732421875
1775751040622339000,6.994339111328125,0.2900390625,-0.6847686767578125,0.382965087890625
1775751040632353000,7.00435302734375,0.28021240234375,-0.6700592041015625,0.355010986328125
1775751040642367200,7.0143671875,0.281585693359375,-0.64892578125,0.3032684326171875
1775751040652381200,7.024381103515625,0.26422119140625,-0.651702880859375,0.2958831787109375
1775751040662395000,7.034394775390625,0.2281341552734375,-0.6685791015625,0.3030548095703125
1775751040672409000,7.0444091796875,0.186187744140625,-0.6492462158203125,0.2985076904296875
1775751040682423000,7.054423095703125,0.1357421875,-0.6507720947265625,0.300567626953125
1775751040692437200,7.064437255859375,0.08074951171875,-0.6766357421875,0.3153076171875
1775751040702451000,7.074450927734375,0.0738677978515625,-0.7044677734375,0.3513031005859375
1775751040712465200,7.084465087890625,0.0648651123046875,-0.7340087890625,0.3481903076171875
1775751040722479000,7.09447900390625,0.0665130615234375,-0.766082763671875,0.3363494873046875
1775751040732493000,7.1044931640625,0.08343505859375,-0.7738494873046875,0.3485870361328125
1775751040742507000,7.114507080078125,0.1225738525390625,-0.7911529541015625,0.3606109619140625
1775751040752521000,7.12452099609375,0.16815185546875,-0.795684814453125,0.358856201171875
1775751040762535200,7.13453515625,0.2531280517578125,-0.77862548828125,0.36383056640625
1775751040772549000,7.144549072265625,0.3482666015625,-0.784759521484375,0.357818603515625
1775751040782563300,7.154563232421875,0.4214935302734375,-0.7669525146484375,0.3362274169921875
1775751040792577000,7.164576904296875,0.4394989013671875,-0.720977783203125,0.3105621337890625
1775751040802591000,7.174591064453125,0.4326934814453125,-0.7031097412109375,0.2814178466796875
1775751040812605200,7.184605224609375,0.42584228515625,-0.6729736328125,0.24200439453125
1775751040822619100,7.194619140625,0.3948516845703125,-0.6292266845703125,0.1639404296875
1775751040832633000,7.204633056640625,0.3299102783203125,-0.6004180908203125,0.0431365966796875
1775751040842647000,7.21464697265625,0.239013671875,-0.5720062255859375,-0.12591552734375
1775751040852661200,7.2246611328125,0.1620635986328125,-0.55609130859375,-0.283416748046875
1775751040862675200,7.23467529296875,0.134521484375,-0.5726318359375,-0.3841094970703125
1775751040872689000,7.24468896484375,0.12188720703125,-0.595916748046875,-0.4178619384765625
1775751040882703000,7.254703125,0.09881591796875,-0.6132354736328125,-0.4134674072265625
1775751040892717000,7.264717041015625,0.1195220947265625,-0.631011962890625,-0.3868865966796875
1775751040902731300,7.274731201171875,0.1240692138671875,-0.634063720703125,-0.30743408203125
1775751040912745000,7.284744873046875,0.0955963134765625,-0.6331634521484375,-0.2347259521484375
1775751040922759200,7.29475927734375,0.045379638671875,-0.625457763671875,-0.197174072265625
1775751040932773000,7.304773193359375,-0.00445556640625,-0.6318511962890625,-0.1183624267578125
1775751040942787000,7.314787109375,-0.0291290283203125,-0.6424407958984375,-0.0144805908203125
1775751040952801000,7.324801025390625,-0.0091705322265625,-0.63946533203125,0.058990478515625
1775751040962815000,7.33481494140625,0.046539306640625,-0.646026611328125,0.1010894775390625
1775751040972829200,7.3448291015625,0.089324951171875,-0.6552276611328125,0.14678955078125
1775751040982843100,7.354843017578125,0.1176605224609375,-0.68682861328125,0.224395751953125
1775751040992857000,7.364857177734375,0.131988525390625,-0.7244873046875,0.267547607421875
1775751041002871000,7.37487109375,0.152069091796875,-0.75604248046875,0.2762603759765625
1775751041012885000,7.384885009765625,0.1357269287109375,-0.85504150390625,0.3616943359375
1775751041022899200,7.394899169921875,0.0728759765625,-0.90020751953125,0.4606170654296875
1775751041032912100,7.404912109375,0.0656890869140625,-0.891326904296875,0.5261383056640625
1775751041042927000,7.414927001953125,0.097381591796875,-0.8697967529296875,0.5393524169921875
1775751041052940000,7.42493994140625,0.157867431640625,-0.7970428466796875,0.46295166015625
1775751041062954200,7.434954345703125,0.2574615478515625,-0.7404937744140625,0.3723297119140625
1775751041072968000,7.444968017578125,0.3448944091796875,-0.750457763671875,0.3297882080078125
1775751041082982100,7.454982177734375,0.3924713134765625,-0.8679351806640625,0.38092041015625
1775751041092996000,7.46499609375,0.346954345703125,-0.907196044921875,0.4734344482421875
1775751041103010300,7.47501025390625,0.2578277587890625,-0.8968963623046875,0.547332763671875
1775751041113024000,7.48502392578125,0.2659759521484375,-0.8736572265625,0.5858612060546875
1775751041123038000,7.495037841796875,0.3095703125,-0.833709716796875,0.58038330078125
1775751041133052200,7.50505224609375,0.3447113037109375,-0.80194091796875,0.534515380859375
1775751041143066000,7.515066162109375,0.3488616943359375,-0.7780914306640625,0.5124664306640625
1775751041153080000,7.525080078125,0.3550262451171875,-0.7663726806640625,0.488006591796875
1775751041163094000,7.535093994140625,0.3420867919921875,-0.8004150390625,0.4866180419921875
1775751041173108200,7.545108154296875,0.292022705078125,-0.8334197998046875,0.4815216064453125
1775751041183122200,7.5551220703125,0.238494873046875,-0.867950439453125,0.505584716796875
1775751041193136000,7.56513623046875,0.195098876953125,-0.911895751953125,0.56890869140625
1775751041203150000,7.575150146484375,0.1707916259765625,-0.90020751953125,0.604522705078125
1775751041213164000,7.5851640625,0.157073974609375,-0.8939208984375,0.6625213623046875
1775751041223178200,7.59517822265625,0.1456146240234375,-0.8719635009765625,0.7218170166015625
1775751041233192200,7.605192138671875,0.1572113037109375,-0.839874267578125,0.7184600830078125
1775751041243206100,7.6152060546875,0.212127685546875,-0.8174896240234375,0.6992950439453125
1775751041253220000,7.62522021484375,0.28558349609375,-0.8536529541015625,0.6903533935546875
1775751041263234000,7.635234130859375,0.372802734375,-0.91741943359375,0.6779022216796875
1775751041273248300,7.645248291015625,0.43878173828125,-0.909149169921875,0.6284027099609375
1775751041283262000,7.655261962890625,0.4604644775390625,-0.906768798828125,0.5585784912109375
1775751041293276200,7.665276123046875,0.4407501220703125,-0.9075775146484375,0.4987335205078125
1775751041303290000,7.6752900390625,0.4042816162109375,-0.903411865234375,0.4347686767578125
1775751041313304000,7.685303955078125,0.3583831787109375,-0.900665283203125,0.3847198486328125
1775751041323318000,7.695318115234375,0.2884063720703125,-0.9028472900390625,0.42730712890625
1775751041333332000,7.70533203125,0.1979522705078125,-0.939910888671875,0.5068511962890625
1775751041343346200,7.71534619140625,0.1669921875,-0.966644287109375,0.5794830322265625
1775751041353360100,7.725360107421875,0.1668548583984375,-0.9621429443359375,0.6092987060546875
1775751041363374000,7.7353740234375,0.2127685546875,-0.9371185302734375,0.55517578125
1775751041373388000,7.745387939453125,0.25531005859375,-0.967742919921875,0.5410919189453125
1775751041383402000,7.755402099609375,0.284332275390625,-0.9803314208984375,0.54058837890625
1775751041393416200,7.765416259765625,0.3438720703125,-0.96392822265625,0.5050506591796875
1775751041403430400,7.775430419921875,0.3908233642578125,-0.9696502685546875,0.4803466796875
1775751041413444600,7.785444580078125,0.380462646484375,-0.9734039306640625,0.4780426025390625
1775751041423458600,7.79545849609375,0.335235595703125,-1.0003814697265625,0.4617156982421875
1775751041433472500,7.805472412109375,0.293853759765625,-1.0347442626953125,0.4210205078125
1775751041443486500,7.815486572265625,0.2702484130859375,-1.017059326171875,0.4058990478515625
1775751041453500400,7.82550048828125,0.23858642578125,-1.006988525390625,0.399444580078125
1775751041463514600,7.8355146484375,0.235015869140625,-0.955596923828125,0.3748931884765625
1775751041473528600,7.845528564453125,0.23992919921875,-0.8824920654296875,0.383514404296875
1775751041483542500,7.85554248046875,0.248626708984375,-0.84063720703125,0.363525390625
1775751041493556500,7.865556396484375,0.265045166015625,-0.78369140625,0.295257568359375
1775751041503569700,7.875569580078125,0.2707061767578125,-0.745452880859375,0.2403564453125
1775751041513583400,7.885583251953125,0.2410430908203125,-0.7308349609375,0.224700927734375
1775751041523597600,7.89559765625,0.2137298583984375,-0.7416534423828125,0.2256622314453125
1775751041533611500,7.905611572265625,0.1890106201171875,-0.752716064453125,0.253814697265625
1775751041543625500,7.91562548828125,0.1853790283203125,-0.7702178955078125,0.3294525146484375
1775751041553639400,7.925639404296875,0.2241973876953125,-0.8107147216796875,0.4341278076171875
1775751041563653400,7.9356533203125,0.250091552734375,-0.808319091796875,0.556884765625
1775751041573667600,7.94566748046875,0.2827606201171875,-0.7993316650390625,0.640594482421875
1775751041583681500,7.955681640625,0.3349761962890625,-0.843505859375,0.743804931640625
1775751041593695500,7.965695556640625,0.35540771484375,-0.878265380859375,0.7840576171875
1775751041603709400,7.97570947265625,0.32806396484375,-0.900299072265625,0.7986907958984375
1775751041613723400,7.985723388671875,0.318206787109375,-0.9576568603515625,0.836090087890625
1775751041623737600,7.995737548828125,0.303741455078125,-0.9893798828125,0.83160400390625
1775751041633751600,8.00575146484375,0.2829132080078125,-1.0290985107421875,0.83746337890625
1775751041643765500,8.015765625,0.2821197509765625,-1.0695648193359375,0.846282958984375
1775751041653779500,8.025779541015625,0.2686767578125,-1.080535888671875,0.833648681640625
1775751041663793700,8.035793701171874,0.238739013671875,-1.0796661376953125,0.7850494384765625
1775751041673807600,8.0458076171875,0.2029571533203125,-1.0880889892578125,0.7352447509765625
1775751041683821300,8.0558212890625,0.1851959228515625,-1.0731048583984375,0.705535888671875
1775751041693835500,8.06583544921875,0.181121826171875,-1.07049560546875,0.713775634765625
1775751041703849500,8.075849365234374,0.1589202880859375,-1.0435333251953125,0.7327728271484375
1775751041713863700,8.08586376953125,0.151153564453125,-0.99114990234375,0.6940460205078125
1775751041723877400,8.09587744140625,0.160797119140625,-0.9524688720703125,0.616973876953125
1775751041733891600,8.1058916015625,0.153594970703125,-0.9239959716796875,0.55718994140625
1775751041743905500,8.115905517578126,0.164093017578125,-0.9068603515625,0.486572265625
1775751041753919500,8.12591943359375,0.1652374267578125,-0.8980712890625,0.430999755859375
1775751041763933400,8.135933349609376,0.150787353515625,-0.9014434814453125,0.4326171875
1775751041773947400,8.145947509765625,0.1501007080078125,-0.900177001953125,0.4468231201171875
1775751041783961600,8.155961669921876,0.1690216064453125,-0.8870849609375,0.4568939208984375
1775751041793975600,8.1659755859375,0.17901611328125,-0.8798370361328125,0.4372100830078125
1775751041803989500,8.175989501953126,0.18255615234375,-0.873138427734375,0.3903961181640625
1775751041814003500,8.18600341796875,0.187591552734375,-0.86383056640625,0.351654052734375
1775751041824017400,8.196017333984376,0.2095184326171875,-0.8597412109375,0.33099365234375
1775751041834031600,8.206031494140625,0.2175140380859375,-0.8580169677734375,0.343658447265625
1775751041844045300,8.21604541015625,0.232940673828125,-0.8538665771484375,0.358978271484375
1775751041854059500,8.2260595703125,0.256378173828125,-0.86126708984375,0.37164306640625
1775751041864073500,8.236073486328126,0.2567291259765625,-0.873138427734375,0.401092529296875
1775751041874087700,8.246087646484375,0.2570037841796875,-0.870819091796875,0.4197235107421875
1775751041884100400,8.256100341796875,0.2642669677734375,-0.8697357177734375,0.433807373046875
1775751041894114600,8.266114501953124,0.2735443115234375,-0.8698577880859375,0.4514617919921875
1775751041904128500,8.27612841796875,0.2881011962890625,-0.862518310546875,0.4632568359375
1775751041914142700,8.286142822265624,0.2930450439453125,-0.8502197265625,0.453948974609375
1775751041924156400,8.296156494140625,0.2743072509765625,-0.8352508544921875,0.4275970458984375
1775751041934170400,8.30617041015625,0.25140380859375,-0.8115081787109375,0.3927154541015625
1775751041944184600,8.3161845703125,0.2253570556640625,-0.8014678955078125,0.388458251953125
1775751041954198500,8.326198486328124,0.200775146484375,-0.799163818359375,0.3992919921875
1775751041964212500,8.33621240234375,0.193939208984375,-0.7996673583984375,0.426025390625
1775751041974226400,8.346226318359374,0.1994476318359375,-0.8187255859375,0.466644287109375
1775751041984240600,8.35624072265625,0.214752197265625,-0.84088134765625,0.4895172119140625
1775751041994254600,8.366254638671874,0.241058349609375,-0.8471221923828125,0.4949493408203125
1775751042004268300,8.376268310546875,0.258636474609375,-0.8448486328125,0.4859161376953125
1775751042014282500,8.386282470703126,0.2633056640625,-0.853424072265625,0.475799560546875
1775751042024296400,8.39629638671875,0.2595672607421875,-0.8617095947265625,0.44970703125
1775751042034310700,8.406310546875,0.25213623046875,-0.883026123046875,0.439849853515625
1775751042044324400,8.416324462890625,0.2464447021484375,-0.9253692626953125,0.4739990234375
1775751042054338600,8.426338623046876,0.245513916015625,-0.963165283203125,0.4832763671875
1775751042064352500,8.4363525390625,0.2502288818359375,-0.99176025390625,0.47808837890625
1775751042074366500,8.446366455078126,0.2645263671875,-1.0295867919921875,0.497100830078125
1775751042084380700,8.456380615234375,0.2863922119140625,-1.0788726806640625,0.5319976806640625
1775751042094394400,8.466394287109376,0.288177490234375,-1.1423797607421875,0.582183837890625
1775751042104408600,8.47640869140625,0.2838134765625,-1.2014007568359375,0.6385345458984375
1775751042114422500,8.486422607421876,0.2980194091796875,-1.2470855712890625,0.6784515380859375
1775751042124436700,8.496436767578125,0.320770263671875,-1.2726287841796875,0.707275390625
1775751042134450400,8.506450439453126,0.3470306396484375,-1.2746429443359375,0.7247161865234375
1775751042144464400,8.51646435546875,0.3824462890625,-1.256500244140625,0.7240753173828125
1775751042154478600,8.526478515625,0.41180419921875,-1.212860107421875,0.7162933349609375
1775751042164492500,8.536492431640625,0.4318084716796875,-1.1737213134765625,0.7206573486328125
1775751042174506500,8.546506591796875,0.438385009765625,-1.15631103515625,0.71722412109375
1775751042184520400,8.5565205078125,0.42413330078125,-1.1387939453125,0.7115478515625
1775751042194534700,8.56653466796875,0.4110107421875,-1.1181793212890625,0.70526123046875
1775751042204548600,8.576548583984374,0.3957061767578125,-1.0882568359375,0.7093963623046875
1775751042214562300,8.586562255859375,0.3589324951171875,-1.0642547607421875,0.714599609375
1775751042224575500,8.596575439453124,0.323150634765625,-1.0434417724609375,0.70330810546875
1775751042234589700,8.606589599609375,0.3066558837890625,-1.0270538330078125,0.6776123046875
1775751042244603400,8.616603271484376,0.28753662109375,-1.0129852294921875,0.6593017578125
1775751042254617300,8.626617431640625,0.2641143798828125,-1.0016632080078125,0.661895751953125
1775751042264631600,8.636631591796874,0.2436676025390625,-0.9860076904296875,0.6830596923828125
1775751042274645500,8.6466455078125,0.2359161376953125,-0.9725494384765625,0.695068359375
1775751042284659700,8.65665966796875,0.22052001953125,-0.9508819580078125,0.6639404296875
1775751042294673400,8.66667333984375,0.2112884521484375,-0.921112060546875,0.5977783203125
1775751042304687600,8.6766875,0.2078857421875,-0.905548095703125,0.52069091796875
1775751042314701600,8.68670166015625,0.19647216796875,-0.8998565673828125,0.4814605712890625
1775751042324715500,8.696715576171876,0.2092437744140625,-0.8957061767578125,0.467926025390625
1775751042334729500,8.7067294921875,0.239837646484375,-0.8800811767578125,0.4689788818359375
1775751042344743400,8.716743408203126,0.273345947265625,-0.8594207763671875,0.4805145263671875
1775751042354757600,8.726757568359375,0.305908203125,-0.8434906005859375,0.5150299072265625
1775751042364771600,8.736771484375,0.3064117431640625,-0.82452392578125,0.5699310302734375
1775751042374785500,8.74678564453125,0.2914886474609375,-0.8067779541015625,0.629119873046875
1775751042384799500,8.756799560546876,0.28802490234375,-0.7938079833984375,0.658233642578125
1775751042394813400,8.7668134765625,0.290985107421875,-0.75885009765625,0.623565673828125
1775751042404827600,8.77682763671875,0.2933197021484375,-0.718536376953125,0.523162841796875
1775751042414841600,8.786841552734375,0.290557861328125,-0.689361572265625,0.38690185546875
1775751042424855800,8.796855712890626,0.2867279052734375,-0.6792144775390625,0.3013916015625
1775751042434869500,8.806869384765625,0.261810302734375,-0.6798248291015625,0.2815093994140625
1775751042444883700,8.8168837890625,0.2397613525390625,-0.6863250732421875,0.309356689453125
1775751042454897700,8.826897705078125,0.223785400390625,-0.694580078125,0.3655548095703125
1775751042464911600,8.83691162109375,0.225067138671875,-0.69482421875,0.427459716796875
1775751042474925800,8.84692578125,0.2369537353515625,-0.70220947265625,0.48876953125
1775751042484939500,8.856939453125,0.2634124755859375,-0.715850830078125,0.5406036376953125
1775751042494953700,8.86695361328125,0.308197021484375,-0.705169677734375,0.553955078125
1775751042504967700,8.8769677734375,0.36541748046875,-0.6797943115234375,0.5278778076171875
1775751042514981600,8.886981689453124,0.3914947509765625,-0.6576080322265625,0.4093170166015625
1775751042524995600,8.89699560546875,0.396484375,-0.6402130126953125,0.230926513671875
1775751042535009500,8.907009521484374,0.363433837890625,-0.6580047607421875,0.1581268310546875
1775751042545022700,8.917022705078125,0.34454345703125,-0.65972900390625,0.1772918701171875
1775751042555036700,8.92703662109375,0.340789794921875,-0.6639862060546875,0.2396087646484375
1775751042565050600,8.937050537109375,0.3289031982421875,-0.6809539794921875,0.32598876953125
1775751042575064600,8.947064697265626,0.327606201171875,-0.6948394775390625,0.4020538330078125
1775751042585078800,8.957078857421875,0.3224334716796875,-0.7136077880859375,0.480682373046875
1775751042595092500,8.967092529296876,0.30596923828125,-0.7252197265625,0.5669403076171875
1775751042605106700,8.977106689453125,0.304962158203125,-0.7633056640625,0.670867919921875
1775751042615120600,8.98712060546875,0.3122100830078125,-0.7884674072265625,0.7416229248046875
1775751042625134600,8.997134521484375,0.32073974609375,-0.7681884765625,0.72802734375
1775751042635148500,9.0071484375,0.3162078857421875,-0.73822021484375,0.656585693359375
1775751042645162500,9.01716259765625,0.3227081298828125,-0.742034912109375,0.585845947265625
1775751042655176700,9.0271767578125,0.310882568359375,-0.7138214111328125,0.5659332275390625
1775751042665190700,9.037190673828125,0.260498046875,-0.6890106201171875,0.5876312255859375
1775751042675204900,9.047204833984376,0.2122802734375,-0.6819610595703125,0.564483642578125
1775751042685218600,9.057218505859375,0.20465087890625,-0.7153472900390625,0.5540771484375
1775751042695232500,9.067232421875,0.2042083740234375,-0.706787109375,0.5000152587890625
1775751042705246700,9.077246826171875,0.2732696533203125,-0.7098236083984375,0.4601287841796875
1775751042715260700,9.0872607421875,0.3160247802734375,-0.660369873046875,0.4619903564453125
1775751042725274600,9.097274658203125,0.3275909423828125,-0.5841217041015625,0.40673828125
1775751042735288600,9.10728857421875,0.338470458984375,-0.494598388671875,0.26519775390625
1775751042745302800,9.117302734375,0.33917236328125,-0.4057769775390625,0.052703857421875
1775751042755316700,9.127316650390625,0.2618408203125,-0.3324432373046875,-0.181396484375
1775751042765330400,9.137330322265624,0.1483612060546875,-0.30816650390625,-0.3433837890625
1775751042775344600,9.1473447265625,0.07928466796875,-0.31646728515625,-0.3313446044921875
1775751042785358600,9.157358642578124,0.0670928955078125,-0.305572509765625,-0.20831298828125
1775751042795372800,9.167372802734375,0.0670013427734375,-0.3174896240234375,-0.04412841796875
1775751042805386500,9.177386474609374,0.04339599609375,-0.378753662109375,0.14312744140625
1775751042815400700,9.187400634765625,0.02545166015625,-0.388641357421875,0.2417755126953125
1775751042825413600,9.19741357421875,0.0065155029296875,-0.322235107421875,0.2019195556640625
1775751042835427600,9.207427490234375,-0.0210723876953125,-0.299224853515625,0.078033447265625
1775751042845441500,9.217441650390626,-0.0442352294921875,-0.3465576171875,0.00048828125
1775751042855455700,9.227455810546875,-0.0166778564453125,-0.426300048828125,-0.009368896484375
1775751042865469700,9.2374697265625,0.05145263671875,-0.5247344970703125,0.003173828125
1775751042875483600,9.247483642578125,0.090240478515625,-0.58636474609375,0.054840087890625
1775751042885497600,9.25749755859375,0.0907135009765625,-0.592742919921875,0.164703369140625
1775751042895511600,9.267511474609375,0.0677032470703125,-0.581756591796875,0.2279510498046875
1775751042905525800,9.27752587890625,0.0925445556640625,-0.549072265625,0.2578125
1775751042915539700,9.287539794921875,0.129119873046875,-0.5640106201171875,0.281219482421875
1775751042925553700,9.2975537109375,0.205841064453125,-0.583587646484375,0.2322235107421875
1775751042935567600,9.307567626953125,0.313323974609375,-0.6736907958984375,0.2623291015625
1775751042945581600,9.31758154296875,0.3313751220703125,-0.7827911376953125,0.27899169921875
1775751042955595800,9.327595703125,0.3259429931640625,-0.82177734375,0.2733001708984375
1775751042965609500,9.337609375,0.2752532958984375,-0.87298583984375,0.365234375
1775751042975623700,9.347623779296875,0.264678955078125,-0.8531646728515625,0.4583892822265625
1775751042985637600,9.3576376953125,0.3101959228515625,-0.8226165771484375,0.5600128173828125
1775751042995651800,9.36765185546875,0.3388824462890625,-0.8166351318359375,0.5748443603515625
1775751043005665500,9.37766552734375,0.394317626953125,-0.8057403564453125,0.488250732421875
1775751043015679500,9.387679443359374,0.4365692138671875,-0.8578338623046875,0.4912109375
1775751043025693700,9.397693603515625,0.4237823486328125,-0.8704376220703125,0.483245849609375
1775751043035707600,9.407707763671874,0.411041259765625,-0.844085693359375,0.482208251953125
1775751043045721600,9.4177216796875,0.3825225830078125,-0.8339691162109375,0.5654449462890625
1775751043055735600,9.427735595703124,0.32855224609375,-0.8040924072265625,0.6179656982421875
1775751043065749800,9.437749755859375,0.2824249267578125,-0.789154052734375,0.6355133056640625
1775751043075763700,9.447763671875,0.2216033935546875,-0.8352813720703125,0.6489105224609375
1775751043085777400,9.45777734375,0.1505279541015625,-0.8568878173828125,0.62542724609375
1775751043095790600,9.46779052734375,0.0975799560546875,-0.8939361572265625,0.6393585205078125
1775751043105804800,9.4778046875,0.1078948974609375,-0.910552978515625,0.65045166015625
1775751043115818800,9.48781884765625,0.183197021484375,-0.8676605224609375,0.606231689453125
1775751043125832400,9.49783251953125,0.2498931884765625,-0.8631134033203125,0.573394775390625
1775751043135846700,9.5078466796875,0.3013763427734375,-0.84814453125,0.543975830078125
1775751043145860600,9.517860595703125,0.344879150390625,-0.825653076171875,0.538330078125
1775751043155874800,9.527874755859376,0.393157958984375,-0.825897216796875,0.514678955078125
1775751043165888500,9.537888427734375,0.445831298828125,-0.844940185546875,0.5461273193359375
1775751043175902700,9.54790283203125,0.4670257568359375,-0.8792572021484375,0.6260833740234375
1775751043185916700,9.557916748046875,0.4468536376953125,-0.8925018310546875,0.6691741943359375
1775751043195930600,9.5679306640625,0.3941650390625,-0.9119415283203125,0.6617279052734375
1775751043205944600,9.577944580078125,0.3225250244140625,-0.9326324462890625,0.6247100830078125
1775751043215958500,9.58795849609375,0.2866668701171875,-0.92889404296875,0.577545166015625
1775751043225972700,9.59797265625,0.278900146484375,-0.931640625,0.546295166015625
1775751043235986700,9.607986572265625,0.2966766357421875,-0.9181976318359375,0.505767822265625
1775751043246000600,9.618000732421875,0.347503662109375,-0.91632080078125,0.4879608154296875
1775751043256014600,9.6280146484375,0.3868560791015625,-0.9158172607421875,0.4963531494140625
1775751043266028500,9.638028564453125,0.407806396484375,-0.8931732177734375,0.5047454833984375
1775751043276042800,9.648042724609375,0.403839111328125,-0.8894805908203125,0.514434814453125
1775751043286056700,9.658056640625,0.3927001953125,-0.86474609375,0.53448486328125
1775751043296070700,9.668070556640625,0.3710784912109375,-0.8496551513671875,0.5457916259765625
1775751043306084600,9.678084716796874,0.3346099853515625,-0.8766021728515625,0.5460357666015625
1775751043316098800,9.688098876953125,0.313079833984375,-0.8694610595703125,0.5522003173828125
1775751043326112800,9.69811279296875,0.31201171875,-0.8596038818359375,0.58099365234375
1775751043336126500,9.70812646484375,0.28497314453125,-0.8916015625,0.592620849609375
1775751043346140700,9.718140625,0.246002197265625,-0.8997344970703125,0.5675811767578125
1775751043356153600,9.728153564453125,0.2504730224609375,-0.902740478515625,0.504791259765625
1775751043366167600,9.73816748046875,0.2416229248046875,-0.913299560546875,0.4517364501953125
1775751043376181500,9.748181396484375,0.2249603271484375,-0.8925628662109375,0.3942718505859375
1775751043386195700,9.75819580078125,0.232330322265625,-0.8865966796875,0.330352783203125
1775751043396209700,9.768209716796875,0.265625,-0.8892669677734375,0.3196258544921875
1775751043406223000,9.77822314453125,0.3040771484375,-0.9107818603515625,0.36590576171875
1775751043416237000,9.788237060546875,0.3484954833984375,-0.93865966796875,0.421112060546875
1775751043426251300,9.798251220703126,0.369171142578125,-0.9478912353515625,0.4766387939453125
1775751043436265000,9.808264892578125,0.40606689453125,-0.971343994140625,0.514007568359375
1775751043446279200,9.818279052734376,0.438018798828125,-0.96905517578125,0.5416717529296875
1775751043456293000,9.828293212890625,0.4669647216796875,-0.940582275390625,0.5270843505859375
1775751043466307000,9.83830712890625,0.463775634765625,-0.933013916015625,0.5100555419921875
1775751043476321000,9.848321044921875,0.4447479248046875,-0.9186248779296875,0.4788970947265625
1775751043486335000,9.8583349609375,0.43548583984375,-0.89788818359375,0.4595489501953125
1775751043496349200,9.86834912109375,0.388824462890625,-0.904632568359375,0.427734375
1775751043506363100,9.878363037109375,0.343505859375,-0.928375244140625,0.41900634765625
1775751043516377000,9.888377197265624,0.2984619140625,-0.967529296875,0.4738006591796875
1775751043526391000,9.89839111328125,0.279144287109375,-0.9787750244140625,0.5007476806640625
1775751043536405000,9.908405029296874,0.2647857666015625,-0.998046875,0.4794769287109375
1775751043546419200,9.918419189453125,0.2573089599609375,-0.995208740234375,0.4215850830078125
1775751043556433200,9.92843310546875,0.284912109375,-0.9963836669921875,0.409637451171875
1775751043566447000,9.938447021484375,0.3139801025390625,-1.016998291015625,0.4534912109375
1775751043576461000,9.9484609375,0.3394927978515625,-1.0294342041015625,0.5285186767578125
1775751043586475000,9.95847509765625,0.3442535400390625,-1.0504608154296875,0.6082305908203125
1775751043596488000,9.968488037109376,0.328125,-1.044647216796875,0.649078369140625
1775751043606502100,9.978502197265625,0.318115234375,-1.0468902587890625,0.61907958984375
1775751043616516000,9.98851611328125,0.304901123046875,-1.0362091064453125,0.5791168212890625
1775751043626530000,9.998530029296875,0.2972564697265625,-1.0111083984375,0.544219970703125
1775751043636544000,10.0085439453125,0.29296875,-1.000701904296875,0.5386199951171875
1775751043646558000,10.018557861328125,0.2832183837890625,-0.984039306640625,0.5745697021484375
1775751043656572200,10.028572265625,0.2813873291015625,-0.9658050537109375,0.6055755615234375
1775751043666586000,10.038586181640625,0.2781524658203125,-0.9442596435546875,0.6067352294921875
1775751043676600000,10.04860009765625,0.2597808837890625,-0.9214019775390625,0.5957794189453125
1775751043686614000,10.058614013671875,0.2395782470703125,-0.9002838134765625,0.58673095703125
1775751043696628000,10.0686279296875,0.22344970703125,-0.870269775390625,0.556121826171875
1775751043706642200,10.07864208984375,0.2095489501953125,-0.8491668701171875,0.4868316650390625
1775751043716656000,10.08865625,0.199981689453125,-0.8262481689453125,0.4120330810546875
1775751043726670000,10.098670166015625,0.21783447265625,-0.8092803955078125,0.3654937744140625
1775751043736684000,10.10868408203125,0.2364349365234375,-0.81781005859375,0.3620452880859375
1775751043746698200,10.1186982421875,0.2492828369140625,-0.8314361572265625,0.3899993896484375
1775751043756712200,10.128712158203125,0.265960693359375,-0.8249359130859375,0.4061431884765625
1775751043766726100,10.13872607421875,0.276397705078125,-0.8141021728515625,0.40771484375
1775751043776740000,10.148739990234375,0.2868804931640625,-0.8160552978515625,0.42181396484375
1775751043786754000,10.158754150390624,0.297943115234375,-0.82086181640625,0.4452667236328125
1775751043796768300,10.168768310546875,0.3146209716796875,-0.8264617919921875,0.4395904541015625
1775751043806782000,10.178781982421874,0.3312225341796875,-0.8412933349609375,0.4175872802734375
1775751043816796200,10.188796142578125,0.334716796875,-0.8448638916015625,0.3881072998046875
1775751043826810000,10.19881005859375,0.337860107421875,-0.838043212890625,0.353057861328125
1775751043836823000,10.208822998046875,0.33489990234375,-0.842803955078125,0.3512725830078125
1775751043846837000,10.2188369140625,0.330413818359375,-0.8428802490234375,0.40020751953125
1775751043856851200,10.228851318359375,0.3339080810546875,-0.84002685546875,0.463287353515625
1775751043866865200,10.238865234375,0.336700439453125,-0.841156005859375,0.4927978515625
1775751043876879000,10.248879150390625,0.326446533203125,-0.83831787109375,0.4884490966796875
1775751043886893000,10.25889306640625,0.309783935546875,-0.845672607421875,0.488555908203125
1775751043896907000,10.268906982421875,0.2919921875,-0.85040283203125,0.4929046630859375
1775751043906921200,10.278921142578126,0.274169921875,-0.8365631103515625,0.4989471435546875
1775751043916935200,10.28893505859375,0.25579833984375,-0.82037353515625,0.5063323974609375
1775751043926949000,10.29894921875,0.2406005859375,-0.798187255859375,0.4951934814453125
1775751043936963000,10.308963134765625,0.23370361328125,-0.7801666259765625,0.4735107421875
1775751043946977000,10.31897705078125,0.2346343994140625,-0.781005859375,0.467926025390625
1775751043956991200,10.3289912109375,0.2380218505859375,-0.80419921875,0.4948883056640625
1775751043967005000,10.3390048828125,0.248779296875,-0.8185577392578125,0.5139007568359375
1775751043977019100,10.34901904296875,0.2661895751953125,-0.821014404296875,0.5129547119140625
1775751043987033000,10.359033203125,0.290802001953125,-0.83587646484375,0.5014190673828125
1775751043997047300,10.36904736328125,0.30029296875,-0.8445587158203125,0.4749755859375
1775751044007061000,10.37906103515625,0.3041839599609375,-0.8627471923828125,0.452423095703125
1775751044017075000,10.389074951171875,0.3093414306640625,-0.8950347900390625,0.4287872314453125
1775751044027089200,10.399089111328125,0.3098907470703125,-0.937774658203125,0.420806884765625
1775751044037103000,10.40910302734375,0.3040618896484375,-0.9764556884765625,0.437530517578125
1775751044047117000,10.419116943359375,0.3111572265625,-1.0358734130859375,0.4747161865234375
1775751044057131000,10.429131103515624,0.3291015625,-1.1016082763671875,0.5210113525390625
1775751044067144200,10.439144287109375,0.3565216064453125,-1.1525726318359375,0.5689544677734375
1775751044077158100,10.449158203125,0.3816375732421875,-1.2015838623046875,0.6141204833984375
1775751044087172000,10.459172119140625,0.4093170166015625,-1.2378692626953125,0.666656494140625
1775751044097186000,10.46918603515625,0.439239501953125,-1.2898712158203125,0.721435546875
1775751044107200300,10.4792001953125,0.4713592529296875,-1.2996063232421875,0.7388763427734375
1775751044117214200,10.489214111328126,0.5096893310546875,-1.277313232421875,0.7544097900390625
1775751044127228000,10.499227783203125,0.531402587890625,-1.2542877197265625,0.782684326171875
1775751044137242000,10.5092421875,0.527313232421875,-1.2069854736328125,0.792755126953125
1775751044147256000,10.519256103515625,0.5075225830078125,-1.1610565185546875,0.784881591796875
1775751044157270300,10.529270263671876,0.4547271728515625,-1.1002655029296875,0.767822265625
1775751044167284000,10.539283935546875,0.3829803466796875,-1.0512542724609375,0.743133544921875
1775751044177298200,10.549298095703126,0.31414794921875,-1.0109710693359375,0.7242584228515625
1775751044187312000,10.55931201171875,0.2784881591796875,-0.9775543212890625,0.7192535400390625
1775751044197326000,10.569326171875,0.2443389892578125,-0.9523468017578125,0.7429351806640625
1775751044207340000,10.579340087890625,0.218719482421875,-0.9246826171875,0.7772216796875
1775751044217354000,10.58935400390625,0.2235565185546875,-0.89453125,0.8005218505859375
1775751044227368200,10.5993681640625,0.2540435791015625,-0.8740386962890625,0.7822418212890625
1775751044237382100,10.609382080078126,0.2904052734375,-0.860992431640625,0.728973388671875
1775751044247396000,10.61939599609375,0.3382720947265625,-0.83306884765625,0.6708526611328125
1775751044257410000,10.62941015625,0.3839263916015625,-0.822723388671875,0.63336181640625
1775751044267424000,10.639424072265625,0.424652099609375,-0.7852630615234375,0.588653564453125
1775751044277438200,10.649438232421875,0.432220458984375,-0.742034912109375,0.5230560302734375
1775751044287451100,10.659451171875,0.38055419921875,-0.7233123779296875,0.474822998046875
1775751044297465000,10.669465087890625,0.30450439453125,-0.69110107421875,0.465301513671875
1775751044307479000,10.67947900390625,0.2422332763671875,-0.6651611328125,0.48150634765625
1775751044317493200,10.6894931640625,0.204742431640625,-0.6598052978515625,0.52105712890625
1775751044327507000,10.6995068359375,0.1773681640625,-0.649749755859375,0.55474853515625
1775751044337521200,10.709521240234375,0.1705169677734375,-0.634674072265625,0.5685272216796875
1775751044347535000,10.71953515625,0.1475677490234375,-0.6374664306640625,0.57977294921875
1775751044357549300,10.72954931640625,0.139404296875,-0.6348419189453125,0.544891357421875
1775751044367563000,10.73956298828125,0.1547698974609375,-0.635772705078125,0.5094146728515625
1775751044377577000,10.749576904296875,0.194061279296875,-0.661346435546875,0.4740142822265625
1775751044387591200,10.759591064453126,0.2468414306640625,-0.665191650390625,0.436309814453125
1775751044397605000,10.769605224609375,0.3128814697265625,-0.6737823486328125,0.4168701171875
1775751044407619300,10.779619384765626,0.376068115234375,-0.672119140625,0.4128265380859375
1775751044417633300,10.78963330078125,0.4057769775390625,-0.6727447509765625,0.4347991943359375
1775751044427647200,10.799647216796876,0.399871826171875,-0.6734619140625,0.4575958251953125
1775751044437661200,10.8096611328125,0.381591796875,-0.6714019775390625,0.484588623046875
1775751044447675100,10.819675048828126,0.3499908447265625,-0.6794891357421875,0.51904296875
1775751044457689300,10.829689453125,0.331817626953125,-0.6660614013671875,0.533721923828125
1775751044467703000,10.839703125,0.3428192138671875,-0.6620025634765625,0.5391845703125
1775751044477717200,10.84971728515625,0.339263916015625,-0.6470947265625,0.5089874267578125
1775751044487730200,10.859730224609375,0.3337554931640625,-0.63189697265625,0.4390716552734375
1775751044497744400,10.869744384765625,0.31903076171875,-0.6306915283203125,0.37811279296875
1775751044507758000,10.879758056640625,0.2928924560546875,-0.6273345947265625,0.348358154296875
1775751044517772300,10.889772216796874,0.2753448486328125,-0.6274871826171875,0.3458709716796875
1775751044527786200,10.8997861328125,0.279296875,-0.632415771484375,0.398406982421875
1775751044537800200,10.90980029296875,0.2911376953125,-0.6432952880859375,0.45989990234375
1775751044547814100,10.919814208984375,0.3051605224609375,-0.6507110595703125,0.5115814208984375
1775751044557828000,10.929828125,0.333038330078125,-0.67645263671875,0.571990966796875
1775751044567842300,10.93984228515625,0.3330230712890625,-0.6931304931640625,0.627593994140625
1775751044577856300,10.949856201171874,0.3262786865234375,-0.7019500732421875,0.6508941650390625
1775751044587870200,10.9598701171875,0.326568603515625,-0.7075958251953125,0.6248626708984375
1775751044597884200,10.96988427734375,0.3144683837890625,-0.694793701171875,0.54095458984375
1775751044607898000,10.979898193359375,0.3170623779296875,-0.6869964599609375,0.47369384765625
1775751044617912300,10.989912353515624,0.3049468994140625,-0.688934326171875,0.437347412109375
1775751044627926000,10.999926025390625,0.2698516845703125,-0.695465087890625,0.4193878173828125
1775751044637940200,11.009940185546874,0.2425384521484375,-0.6996917724609375,0.4232177734375
1775751044647954200,11.0199541015625,0.2415313720703125,-0.7242584228515625,0.4698333740234375
1775751044657968400,11.029968505859374,0.2429351806640625,-0.748504638671875,0.5422210693359375
1775751044667982300,11.039982421875,0.2476959228515625,-0.744232177734375,0.5867462158203125
1775751044677996000,11.04999609375,0.278839111328125,-0.7540130615234375,0.6288909912109375
1775751044688009200,11.06000927734375,0.2827606201171875,-0.7413330078125,0.6575164794921875
1775751044698023400,11.0700234375,0.29376220703125,-0.7285308837890625,0.6074066162109375
1775751044708037000,11.080037109375,0.316986083984375,-0.7346649169921875,0.536041259765625
1775751044718051000,11.090051025390625,0.32672119140625,-0.721710205078125,0.45855712890625
1775751044728065300,11.100065185546875,0.3429107666015625,-0.733428955078125,0.426910400390625
1775751044738079200,11.110079345703125,0.3422088623046875,-0.7295379638671875,0.4463043212890625
1775751044748093200,11.12009326171875,0.3437042236328125,-0.688018798828125,0.453521728515625
1775751044758107100,11.130107177734375,0.3288726806640625,-0.6409454345703125,0.4577484130859375
1775751044768121300,11.140121337890625,0.2726898193359375,-0.5961761474609375,0.4535675048828125
1775751044778135300,11.15013525390625,0.20947265625,-0.546051025390625,0.488922119140625
1775751044788149000,11.16014892578125,0.1895904541015625,-0.5106201171875,0.5380401611328125
1775751044798163200,11.1701630859375,0.23492431640625,-0.4835662841796875,0.48858642578125
1775751044808177200,11.18017724609375,0.275054931640625,-0.4402923583984375,0.3574371337890625
1775751044818191400,11.19019140625,0.3017425537109375,-0.4244537353515625,0.193878173828125
1775751044828205000,11.200205078125,0.296295166015625,-0.444549560546875,0.1029815673828125
1775751044838219300,11.21021923828125,0.26153564453125,-0.469879150390625,0.094696044921875
1775751044848233200,11.220233154296874,0.2343902587890625,-0.488861083984375,0.1071929931640625
1775751044858247200,11.2302470703125,0.211090087890625,-0.482818603515625,0.1328887939453125
1775751044868261400,11.240261474609374,0.191253662109375,-0.488372802734375,0.1569976806640625
1775751044878275000,11.250275146484375,0.18035888671875,-0.501617431640625,0.1620941162109375
1775751044888288300,11.260288330078126,0.15850830078125,-0.516937255859375,0.1396026611328125
1775751044898302200,11.27030224609375,0.131591796875,-0.541900634765625,0.117706298828125
1775751044908316200,11.280316162109376,0.1055450439453125,-0.5802001953125,0.1278076171875
1775751044918330000,11.290330078125,0.0913543701171875,-0.6198883056640625,0.170135498046875
1775751044928344300,11.30034423828125,0.10015869140625,-0.6578826904296875,0.2592315673828125
1775751044938358300,11.310358154296875,0.1435546875,-0.68780517578125,0.3436737060546875
1775751044948372200,11.320372314453126,0.212310791015625,-0.694244384765625,0.3838348388671875
1775751044958386200,11.33038623046875,0.272674560546875,-0.7068328857421875,0.4005126953125
1775751044968400100,11.340400146484376,0.334014892578125,-0.708953857421875,0.4021453857421875
1775751044978414300,11.350414306640625,0.37078857421875,-0.724945068359375,0.4089202880859375
1775751044988428000,11.360427978515625,0.3804168701171875,-0.7412261962890625,0.417938232421875
1775751044998442200,11.370442138671875,0.37158203125,-0.7357330322265625,0.427093505859375
1775751045008456200,11.380456298828125,0.3461761474609375,-0.7398834228515625,0.4557342529296875
1775751045018470400,11.390470458984375,0.326141357421875,-0.725341796875,0.4742584228515625
1775751045028484000,11.400484130859375,0.3118133544921875,-0.724273681640625,0.475830078125
1775751045038498000,11.410498046875,0.314208984375,-0.7299652099609375,0.472381591796875
1775751045048512300,11.42051220703125,0.304229736328125,-0.719146728515625,0.489501953125
1775751045058526200,11.430526123046874,0.2874908447265625,-0.733123779296875,0.53057861328125
1775751045068539100,11.4405390625,0.3102569580078125,-0.7354278564453125,0.55340576171875
1775751045078553000,11.450552978515624,0.329803466796875,-0.722259521484375,0.55615234375
1775751045088567300,11.4605673828125,0.3316802978515625,-0.7092132568359375,0.5102996826171875
1775751045098581200,11.470581298828124,0.3299102783203125,-0.6949005126953125,0.4916534423828125
1775751045108595200,11.48059521484375,0.3150634765625,-0.6775665283203125,0.5102386474609375
1775751045118609200,11.490609130859376,0.31292724609375,-0.68878173828125,0.52496337890625
1775751045128623400,11.500623291015625,0.307098388671875,-0.69415283203125,0.523193359375
1775751045138637300,11.51063720703125,0.3123016357421875,-0.7078857421875,0.5304718017578125
1775751045148651000,11.520651123046875,0.29400634765625,-0.7115478515625,0.5653228759765625
1775751045158665200,11.530665283203126,0.275787353515625,-0.67413330078125,0.6030731201171875
1775751045168679200,11.54067919921875,0.27099609375,-0.64959716796875,0.6460113525390625
1775751045178693400,11.550693359375,0.276580810546875,-0.6227874755859375,0.6557464599609375
1775751045188707000,11.56070703125,0.297760009765625,-0.6111907958984375,0.6648406982421875
1775751045198721300,11.57072119140625,0.32427978515625,-0.6177978515625,0.6648101806640625
1775751045208735200,11.5807353515625,0.33380126953125,-0.644775390625,0.6786651611328125
1775751045218749200,11.590749267578126,0.318267822265625,-0.6871337890625,0.7214202880859375
1775751045228763100,11.60076318359375,0.3325653076171875,-0.7181243896484375,0.7578887939453125
1775751045238777000,11.610777099609376,0.3599700927734375,-0.7350921630859375,0.77642822265625
1775751045248791300,11.620791259765625,0.3720703125,-0.743682861328125,0.77801513671875
1775751045258804200,11.63080419921875,0.3714599609375,-0.7509307861328125,0.7784271240234375
1775751045268818200,11.640818115234374,0.3697509765625,-0.74957275390625,0.770843505859375
1775751045278832000,11.65083203125,0.3657073974609375,-0.7554779052734375,0.7624359130859375
1775751045288846300,11.660846435546874,0.33917236328125,-0.7926483154296875,0.749908447265625
1775751045298860300,11.6708603515625,0.306640625,-0.8268890380859375,0.7025146484375
1775751045308874200,11.680874267578124,0.2865753173828125,-0.851318359375,0.6451873779296875
1775751045318888200,11.69088818359375,0.2775726318359375,-0.86822509765625,0.6057891845703125
1775751045328902100,11.700902099609374,0.272674560546875,-0.88238525390625,0.588409423828125
1775751045338916400,11.710916259765625,0.2744598388671875,-0.89471435546875,0.568695068359375
1775751045348930000,11.720929931640624,0.2682647705078125,-0.8951263427734375,0.526458740234375
1775751045358944300,11.7309443359375,0.2711944580078125,-0.9076080322265625,0.4678497314453125
1775751045368958200,11.740958251953124,0.271087646484375,-0.92742919921875,0.454833984375
1775751045378972400,11.750972412109375,0.2790679931640625,-0.9173583984375,0.461822509765625
1775751045388986000,11.760986083984376,0.298126220703125,-0.9046630859375,0.4590301513671875
1775751045399000000,11.771,0.33404541015625,-0.8883514404296875,0.4785308837890625
1775751045409014300,11.78101416015625,0.36004638671875,-0.8531341552734375,0.4964752197265625
1775751045419028200,11.7910283203125,0.3725433349609375,-0.8374786376953125,0.49444580078125
1775751045429042400,11.80104248046875,0.366973876953125,-0.8541412353515625,0.5352020263671875
1775751045439055000,11.81105517578125,0.3547821044921875,-0.894439697265625,0.5279693603515625
1775751045449069300,11.8210693359375,0.3667755126953125,-0.9166107177734375,0.472503662109375
1775751045459083300,11.831083251953125,0.37506103515625,-0.939544677734375,0.4574737548828125
1775751045469097200,11.84109716796875,0.38818359375,-0.9593658447265625,0.4330291748046875
1775751045479111200,11.851111083984375,0.4106597900390625,-0.9637298583984375,0.4336700439453125
1775751045489125400,11.86112548828125,0.395538330078125,-0.983123779296875,0.4903106689453125
1775751045499139300,11.871139404296875,0.3615875244140625,-0.964630126953125,0.516082763671875
1775751045509153000,11.881153076171875,0.3383941650390625,-0.9354248046875,0.5179901123046875
1775751045519167200,11.891167236328124,0.3229217529296875,-0.9160003662109375,0.53363037109375
1775751045529181200,11.90118115234375,0.304412841796875,-0.9014129638671875,0.5580902099609375
1775751045539195400,11.9111953125,0.2880401611328125,-0.904266357421875,0.5643463134765625
1775751045549209000,11.921208984375,0.2802734375,-0.8902130126953125,0.5421600341796875
1775751045559223300,11.931223388671874,0.3059844970703125,-0.8897705078125,0.525421142578125
1775751045569237200,11.9412373046875,0.3425750732421875,-0.8831939697265625,0.5232391357421875
1775751045579251200,11.951251220703124,0.38348388671875,-0.8733367919921875,0.51611328125
1775751045589265200,11.96126513671875,0.4205474853515625,-0.881011962890625,0.512542724609375
1775751045599279000,11.971279052734374,0.4521331787109375,-0.881683349609375,0.5062255859375
1775751045609292300,11.981292236328125,0.4662017822265625,-0.8788909912109375,0.52740478515625
1775751045619306200,11.99130615234375,0.4574737548828125,-0.873565673828125,0.5758056640625
1775751045629320200,12.0013203125,0.413360595703125,-0.877655029296875,0.6381378173828125
1775751045639334100,12.011334228515626,0.3739166259765625,-0.8790283203125,0.6854248046875
1775751045649348400,12.021348388671875,0.3423614501953125,-0.890777587890625,0.7134552001953125
1775751045659362300,12.0313623046875,0.32342529296875,-0.8980712890625,0.7061767578125
1775751045669376300,12.041376220703125,0.3309326171875,-0.8948974609375,0.68768310546875
1775751045679390200,12.05139013671875,0.351409912109375,-0.8969879150390625,0.67816162109375
1775751045689404200,12.061404052734375,0.380340576171875,-0.89794921875,0.658782958984375
1775751045699418400,12.07141845703125,0.41046142578125,-0.8986053466796875,0.6346282958984375
1775751045709432000,12.08143212890625,0.4334259033203125,-0.9053802490234375,0.6034698486328125
1775751045719446300,12.0914462890625,0.4399566650390625,-0.905548095703125,0.586944580078125
1775751045729460200,12.101460205078125,0.4374542236328125,-0.9001617431640625,0.5841522216796875
1775751045739474200,12.11147412109375,0.42401123046875,-0.8887176513671875,0.575836181640625
1775751045749488000,12.121488037109375,0.4104156494140625,-0.877593994140625,0.5675811767578125
1775751045759502000,12.131502197265625,0.38336181640625,-0.86944580078125,0.55670166015625
1775751045769516300,12.141516357421875,0.360443115234375,-0.859405517578125,0.543975830078125
1775751045779529200,12.151529296875,0.34564208984375,-0.8515167236328125,0.5234527587890625
1775751045789543200,12.161543212890624,0.3453216552734375,-0.8414306640625,0.483001708984375
1775751045799557000,12.17155712890625,0.3600006103515625,-0.8328857421875,0.4494476318359375
1775751045809571300,12.1815712890625,0.3850250244140625,-0.8174896240234375,0.4294586181640625
1775751045819585300,12.191585205078125,0.39923095703125,-0.803863525390625,0.4056854248046875
1775751045829599200,12.20159912109375,0.397918701171875,-0.79754638671875,0.405059814453125
1775751045839613200,12.21161328125,0.3965911865234375,-0.7866973876953125,0.4044647216796875
1775751045849627100,12.221627197265626,0.392120361328125,-0.7774658203125,0.413909912109375
1775751045859641300,12.231641357421875,0.381378173828125,-0.7689208984375,0.4425201416015625
1775751045869655000,12.241655029296876,0.3762664794921875,-0.7635498046875,0.47088623046875
1775751045879669200,12.251669189453125,0.36328125,-0.757232666015625,0.4851531982421875
1775751045889683200,12.26168310546875,0.35595703125,-0.750701904296875,0.4696044921875
1775751045899697400,12.271697509765625,0.356048583984375,-0.750396728515625,0.4520416259765625
1775751045909711000,12.281711181640626,0.363983154296875,-0.7571258544921875,0.43548583984375
1775751045919725000,12.29172509765625,0.3788604736328125,-0.7602081298828125,0.4183349609375
1775751045929739300,12.3017392578125,0.3872222900390625,-0.7647552490234375,0.4307708740234375
1775751045939753200,12.311753173828125,0.3860626220703125,-0.7702178955078125,0.4459991455078125
1775751045949766100,12.32176611328125,0.3777923583984375,-0.7819366455078125,0.453399658203125
1775751045959780000,12.331780029296874,0.364990234375,-0.7921600341796875,0.454071044921875
1775751045969794300,12.341794189453125,0.3588409423828125,-0.788330078125,0.4649810791015625
1775751045979808300,12.351808349609374,0.3584136962890625,-0.7905731201171875,0.4909820556640625
1775751045989822200,12.361822265625,0.361968994140625,-0.7914581298828125,0.5146484375
1775751045999836200,12.371836181640624,0.3686370849609375,-0.787994384765625,0.5303192138671875
1775751046009850400,12.381850341796875,0.371337890625,-0.78802490234375,0.533477783203125
1775751046019864300,12.3918642578125,0.3695526123046875,-0.7827301025390625,0.515838623046875
1775751046029878000,12.4018779296875,0.3730621337890625,-0.7729034423828125,0.4941558837890625
1775751046039892200,12.411892333984374,0.3734588623046875,-0.76361083984375,0.4844512939453125
1775751046049906200,12.42190625,0.362884521484375,-0.76007080078125,0.4964752197265625
1775751046059920400,12.43192041015625,0.3472442626953125,-0.754669189453125,0.5103607177734375
1775751046069934000,12.44193408203125,0.3359527587890625,-0.751312255859375,0.521453857421875
1775751046079948300,12.4519482421875,0.3394775390625,-0.74359130859375,0.52777099609375
1775751046089962200,12.461962158203125,0.344970703125,-0.734649658203125,0.5296173095703125
1775751046099976200,12.47197607421875,0.3477020263671875,-0.7302703857421875,0.5222930908203125
1775751046109989000,12.481989013671875,0.3596343994140625,-0.7243499755859375,0.4986724853515625
1775751046120003300,12.49200341796875,0.377655029296875,-0.7303619384765625,0.4820098876953125
1775751046130017300,12.502017333984375,0.3880615234375,-0.735931396484375,0.4755401611328125
1775751046140031200,12.51203125,0.4093475341796875,-0.739288330078125,0.469390869140625
1775751046150045200,12.522045166015625,0.423065185546875,-0.7534332275390625,0.474151611328125
1775751046160059100,12.53205908203125,0.4263153076171875,-0.77410888671875,0.4820709228515625
1775751046170073300,12.5420732421875,0.43267822265625,-0.8032073974609375,0.4920654296875
1775751046180087300,12.55208740234375,0.43682861328125,-0.8355865478515625,0.50567626953125
1775751046190101200,12.562101318359375,0.4412841796875,-0.8809967041015625,0.5389862060546875
1775751046200115200,12.572115234375,0.451324462890625,-0.9382476806640625,0.5815277099609375
1775751046210129200,12.582129150390625,0.4605712890625,-1.0183868408203125,0.6321563720703125
1775751046220143400,12.592143310546875,0.4542388916015625,-1.1074676513671875,0.6740570068359375
1775751046230157000,12.602156982421874,0.448516845703125,-1.1739349365234375,0.704132080078125
1775751046240171300,12.612171142578125,0.4622650146484375,-1.22943115234375,0.737518310546875
1775751046250185200,12.622185302734374,0.4965362548828125,-1.2502288818359375,0.7763214111328125
1775751046260199400,12.632199462890625,0.5406036376953125,-1.2520599365234375,0.810272216796875
1775751046270212000,12.642212158203124,0.5888214111328125,-1.228790283203125,0.8190155029296875
1775751046280226300,12.652226318359375,0.6453094482421875,-1.1739959716796875,0.800262451171875
1775751046290240300,12.662240234375,0.70941162109375,-1.1086578369140625,0.75238037109375
1775751046300254200,12.672254150390625,0.75262451171875,-1.0443267822265625,0.718231201171875
1775751046310268200,12.68226806640625,0.75189208984375,-0.9961090087890625,0.709014892578125
1775751046320282000,12.6922822265625,0.711151123046875,-0.959442138671875,0.7097015380859375
1775751046330296300,12.70229638671875,0.665008544921875,-0.9080657958984375,0.708099365234375
1775751046340310300,12.712310302734375,0.6098785400390625,-0.87841796875,0.717437744140625
1775751046350324200,12.72232421875,0.5557403564453125,-0.8503570556640625,0.7069244384765625
1775751046360338200,12.732338134765625,0.5231781005859375,-0.8099517822265625,0.689788818359375
1775751046370352400,12.742352294921876,0.51416015625,-0.7790069580078125,0.6774139404296875
1775751046380366300,12.752366455078125,0.5050048828125,-0.7499847412109375,0.6492462158203125
1775751046390380000,12.762380126953126,0.49530029296875,-0.72265625,0.6174163818359375
1775751046400394200,12.772394287109375,0.4889984130859375,-0.711822509765625,0.5981903076171875
1775751046410407700,12.78240771484375,0.4603271484375,-0.714447021484375,0.571685791015625
1775751046420420900,12.7924208984375,0.412017822265625,-0.7216033935546875,0.5329437255859375
1775751046430434800,12.802434814453125,0.374359130859375,-0.7130889892578125,0.49224853515625
1775751046440449000,12.812448974609374,0.3484649658203125,-0.6944580078125,0.468658447265625
1775751046450462700,12.822462646484375,0.3201904296875,-0.682647705078125,0.467987060546875
1775751046460477000,12.832476806640624,0.2942047119140625,-0.6721954345703125,0.4775543212890625
1775751046470491000,12.842490966796875,0.2747802734375,-0.6585235595703125,0.4931182861328125
1775751046480505000,12.852505126953124,0.257537841796875,-0.6669769287109375,0.513092041015625
1775751046490518800,12.862518798828125,0.2546234130859375,-0.6674957275390625,0.5089111328125
1775751046500533000,12.872532958984374,0.277801513671875,-0.6637725830078125,0.4993438720703125
1775751046510547000,12.882546875,0.3292999267578125,-0.665679931640625,0.471893310546875
1775751046520561000,12.892560791015624,0.3643798828125,-0.654998779296875,0.434539794921875
1775751046530574800,12.902574951171875,0.380584716796875,-0.6456298828125,0.38824462890625
1775751046540588800,12.9125888671875,0.373138427734375,-0.6353912353515625,0.365264892578125
1775751046550603000,12.92260302734375,0.330841064453125,-0.62860107421875,0.384246826171875
1775751046560617000,12.932616943359376,0.295135498046875,-0.6417388916015625,0.425445556640625
1775751046570630000,12.9426298828125,0.277587890625,-0.6463470458984375,0.45965576171875
1775751046580643800,12.952643798828126,0.2418060302734375,-0.644439697265625,0.4976348876953125
1775751046590658000,12.962657958984375,0.2176055908203125,-0.656951904296875,0.5269927978515625
1775751046600672000,12.972672119140626,0.211273193359375,-0.653289794921875,0.5364990234375
1775751046610686000,12.98268603515625,0.2237701416015625,-0.6455078125,0.53668212890625
1775751046620700000,12.992699951171875,0.2514495849609375,-0.6373443603515625,0.5035247802734375
1775751046630713900,13.0027138671875,0.275054931640625,-0.6344757080078125,0.4607391357421875
1775751046640728000,13.01272802734375,0.3033905029296875,-0.6377410888671875,0.43341064453125
1775751046650741800,13.02274169921875,0.318939208984375,-0.6536407470703125,0.4367828369140625
1775751046660756000,13.032755859375,0.301055908203125,-0.661376953125,0.4601898193359375
