time,seconds_elapsed,z,y,x
1775751033703292400,0.07529248046875,-1.0859428868383167,-9.618604047390818,1.5727521519221364
1775751033713306400,0.085306396484375,-1.1134937415868043,-9.613597617405652,1.5840589972257613
1775751033723320300,0.0953203125,-1.1408942280791698,-9.608034722581506,1.5982514809682964
1775751033733334300,0.105334228515625,-1.171403640372306,-9.602190088206529,1.611251978447288
1775751033743348500,0.115348388671875,-1.2144274471279233,-9.594607085731624,1.6245220866478978
1775751033753362400,0.125362548828125,-1.2677759562820194,-9.584642741078138,1.6424804987952113
1775751033763376000,0.135376220703125,-1.329090548944473,-9.573625672501326,1.6581905474938452
1775751033773390300,0.145390380859375,-1.4032242911696433,-9.561441898232697,1.6673849306881428
1775751033783404300,0.155404296875,-1.4971268559649586,-9.547799157327413,1.6638852520041167
1775751033793418500,0.16541845703125,-1.6173561405412853,-9.531917697584628,1.642279715526104
1775751033803432400,0.175432373046875,-1.7594982739791274,-9.51311479743719,1.604738797160983
1775751033813446400,0.1854462890625,-1.9120340833984315,-9.49237479174733,1.552203723281622
1775751033823459300,0.195459228515625,-2.060444045059383,-9.472080776259302,1.4848064497046172
1775751033833474300,0.205474365234375,-2.1882874579012395,-9.455258820796013,1.4070689838990569
1775751033843488500,0.215488525390625,-2.285492279112339,-9.444023141032456,1.325642454317212
1775751033853501400,0.22550146484375,-2.3531851746350525,-9.437660620263218,1.250378246757388
1775751033863515400,0.235515380859375,-2.393888356423378,-9.435527699887752,1.1876485266000032
1775751033873529300,0.245529296875,-2.411362638315558,-9.437319259479642,1.1369769085049628
1775751033883543300,0.255543212890625,-2.414439999934286,-9.441236725184321,1.097229420006275
1775751033893557200,0.26555712890625,-2.4132173262715337,-9.444384960082173,1.0725472525618969
1775751033903571500,0.275571533203125,-2.4143546597383914,-9.443691717121004,1.0760984422374515
1775751033913585400,0.28558544921875,-2.417748101568967,-9.437738946196436,1.1198010981027036
1775751033923599400,0.295599365234375,-2.417280337926745,-9.426495667648314,1.2117470489375293
1775751033933613300,0.30561328125,-2.405240063782036,-9.410731696805357,1.3503094241924583
1775751033943627300,0.315627197265625,-2.3764532374978065,-9.394514136976003,1.5053094317682087
1775751033953641500,0.325641357421875,-2.330081508553773,-9.390501394203305,1.599869145298004
1775751033963655200,0.3356552734375,-2.2669436459869146,-9.405286875402927,1.6037290355965494
1775751033973669400,0.34566943359375,-2.1930228158600626,-9.428281382021307,1.5711651749916373
1775751033983683300,0.355683349609375,-2.1148849525600673,-9.446765133216976,1.567246686373651
1775751033993697300,0.365697265625,-2.0370216684177516,-9.45916050440967,1.5953769484452902
1775751034003711500,0.37571142578125,-1.9548099798075853,-9.47339185885787,1.6136787672027944
1775751034013725200,0.38572509765625,-1.8616653937727212,-9.500701306065917,1.5624578446619213
1775751034023739400,0.395739501953125,-1.7598042711883781,-9.543535654664039,1.4122316273592412
1775751034033753300,0.40575341796875,-1.6517274889595805,-9.587353753602503,1.2348470617569982
1775751034043767600,0.415767578125,-1.5520770281620322,-9.618349780368805,1.1175012967277318
1775751034053781200,0.42578125,-1.4732691566459835,-9.633307695525884,1.0951021987192333
1775751034063795500,0.43579541015625,-1.4251453233376143,-9.635800096863507,1.1361020253665746
1775751034073809400,0.445809326171875,-1.4007774825394153,-9.633767714253068,1.1826759988844393
1775751034083823400,0.4558232421875,-1.3873945616140961,-9.632553077766298,1.20807157529518
1775751034093837300,0.46583740234375,-1.3749956832900643,-9.632882163590192,1.21956459082067
1775751034103851300,0.475851318359375,-1.362684629379958,-9.634892334368825,1.2175013746805488
1775751034113865500,0.485865478515625,-1.346074563101679,-9.640365797343849,1.1924054388035088
1775751034123879400,0.49587939453125,-1.3202176527895033,-9.651952190241216,1.1257045499928295
1775751034133893400,0.505893310546875,-1.282493925203383,-9.669506551632285,1.0130397093214094
1775751034143907300,0.5159072265625,-1.2307155149102211,-9.688681207701563,0.8861042781699449
1775751034153921300,0.52592138671875,-1.1658139306064694,-9.705528882128,0.7835660600416362
1775751034163935500,0.535935546875,-1.0977171304579822,-9.718552614352106,0.7177402004998177
1775751034173949200,0.54594921875,-1.0390131586853415,-9.727264913117885,0.686419252628088
1775751034183963400,0.55596337890625,-0.9978687359355389,-9.731514387255906,0.6872164674203842
1775751034193977300,0.565977294921875,-0.973978887912631,-9.732027597475051,0.713724900443852
1775751034203991300,0.5759912109375,-0.9595882512494921,-9.730662738862634,0.7508535847462713
1775751034214005200,0.586005126953125,-0.9488302720002829,-9.729167531868814,0.7832019759695976
1775751034224019200,0.596019287109375,-0.939441681408137,-9.72820950049162,0.8060878345817327
1775751034234033400,0.606033447265625,-0.9333218833535909,-9.727820793434978,0.817795150445029
1775751034244047400,0.61604736328125,-0.9366909944605082,-9.727660634437203,0.8158364175926893
1775751034254061600,0.6260615234375,-0.949374754140526,-9.72777929238081,0.799617469523847
1775751034264075300,0.6360751953125,-0.9681298696234821,-9.728063954541087,0.773233685793355
1775751034274089200,0.646089111328125,-0.9899259602375328,-9.727812610128522,0.7483853680018335
1775751034284103400,0.656103515625,-1.0152494212601333,-9.726398067155479,0.7326855484362691
1775751034294117400,0.666117431640625,-1.0448976866792887,-9.723650229752064,0.7274556849587708
1775751034304131300,0.67613134765625,-1.0767959960475564,-9.71970119986534,0.7336769706264138
1775751034314145300,0.686145263671875,-1.1031569834243506,-9.715240128803252,0.7533620604358613
1775751034324159500,0.696159423828125,-1.114521623329818,-9.71170026423931,0.7817287616118789
1775751034334173400,0.70617333984375,-1.1041620688136666,-9.710793670788407,0.8072824511937796
1775751034344187100,0.716187255859375,-1.0740768002167342,-9.713039988410472,0.8207279159612954
1775751034354201300,0.726201416015625,-1.0307594904072581,-9.71765128159821,0.8216728686612099
1775751034364215300,0.73621533203125,-0.981210811927542,-9.723348616456985,0.8149135305941104
1775751034374229500,0.7462294921875,-0.9290072350248694,-9.72914122838378,0.8069208513397723
1775751034384243200,0.7562431640625,-0.8748820424098521,-9.734124862015246,0.8073273132488131
1775751034394257400,0.76625732421875,-0.8210787752255797,-9.737601598215102,0.8217909420829266
1775751034404270600,0.7762705078125,-0.7693222114380449,-9.7394551171273,0.8494376584213227
1775751034414284800,0.786284912109375,-0.7226433893062174,-9.7396591152668,0.8872472376599907
1775751034424298800,0.796298828125,-0.6821613029226661,-9.738693485105037,0.9289172186538577
1775751034434312700,0.806312744140625,-0.6426267265222966,-9.737795074960589,0.9658127517875283
1775751034444326700,0.81632666015625,-0.6008056466199457,-9.737610366043448,0.994168420112878
1775751034454340600,0.826340576171875,-0.5573270453015342,-9.738001411187648,1.0154355914819986
1775751034464354800,0.836354736328125,-0.5106915508547798,-9.738748430162667,1.0326384360216558
1775751034474368800,0.84636865234375,-0.4595254637736827,-9.73950830861926,1.0493825039431453
1775751034484382700,0.8563828125,-0.40634716008733957,-9.739887663325668,1.067640191297978
1775751034494396700,0.866396728515625,-0.3514581800255924,-9.739843824183941,1.0873474929392337
1775751034504410600,0.87641064453125,-0.29146510002417486,-9.739456286171079,1.1083451266519724
1775751034514424800,0.8864248046875,-0.2263386939886026,-9.738553784373401,1.1312561927706002
1775751034524438500,0.8964384765625,-0.16161504180133343,-9.736576346820593,1.159032088446617
1775751034534452700,0.90645263671875,-0.10456670088176614,-9.732826638898253,1.1964644318707287
1775751034544466700,0.916466796875,-0.0602513656114228,-9.727394092455505,1.242803281458467
1775751034554481000,0.92648095703125,-0.02723217158759944,-9.721108144053817,1.2921648398682475
1775751034564494600,0.93649462890625,-0.000787930298545325,-9.715195120617746,1.3361775845959782
1775751034574508500,0.946508544921875,0.019783741578063927,-9.710156541928649,1.3721711273886263
1775751034584522800,0.956522705078125,0.03094710502407979,-9.705479197767376,1.4046629456706343
1775751034594536700,0.96653662109375,0.035255857901554555,-9.701075409850478,1.43467449144423
1775751034604551000,0.976551025390625,0.03727782643254613,-9.697560679727792,1.4581927296757697
1775751034614564600,0.986564697265625,0.03944648255838547,-9.694304308280348,1.479633430980891
1775751034624578800,0.996578857421875,0.048282202207855875,-9.69047744346857,1.504233765360713
1775751034634592800,1.0065927734375,0.07254251381123904,-9.685715343633294,1.5336377006299793
1775751034644606700,1.016606689453125,0.12940749295395798,-9.679579032835363,1.5682473878487944
1775751034654620700,1.02662060546875,0.21742301813783121,-9.67231225670278,1.6029665267914532
1775751034664634600,1.036634521484375,0.29139709455557167,-9.66651438407898,1.6260326373413203
1775751034674648800,1.04664892578125,0.30794816065561026,-9.6646824924767,1.633843895614147
1775751034684662800,1.056662841796875,0.288631575364992,-9.665248894187808,1.634029627444595
1775751034694676700,1.0666767578125,0.26231643642392005,-9.666451840236782,1.6313484255366026
1775751034704690700,1.076690673828125,0.2358926677429117,-9.668533907207847,1.6230201576523482
1775751034714704600,1.08670458984375,0.20455500619839875,-9.671597386431694,1.6089653288148342
1775751034724718800,1.09671875,0.16364325969330965,-9.675888361623883,1.58771211290583
1775751034734732500,1.106732666015625,0.1176468760008458,-9.68137702216804,1.5580350597836077
1775751034744746800,1.116746826171875,0.07117616649463307,-9.687992056393623,1.519245894923061
1775751034754760700,1.1267607421875,0.022127710888325235,-9.694829208937287,1.4765342959217727
1775751034764775000,1.13677490234375,-0.03385852635821793,-9.700397364458441,1.439272486758977
1775751034774788600,1.14678857421875,-0.0954644712166395,-9.703349200001359,1.4164290790490806
1775751034784802600,1.156802490234375,-0.15514467674344778,-9.703334002432227,1.4112493383236229
1775751034794816800,1.166816650390625,-0.20324673661142587,-9.701844640657304,1.4153748938210309
1775751034804830700,1.176830810546875,-0.23331669804137198,-9.700479197522997,1.4200826331205665
1775751034814844700,1.1868447265625,-0.245483776903525,-9.70006418698132,1.4208710070192814
1775751034824858600,1.196858642578125,-0.24565000031590462,-9.70064286365211,1.4168831064268945
1775751034834872800,1.206872802734375,-0.23768598090047016,-9.70172306010425,1.410830089998245
1775751034844886800,1.21688671875,-0.22400056989723816,-9.70302712844014,1.4040899680882692
1775751034854900700,1.226900634765625,-0.2076836596129462,-9.70489350683391,1.3936694040998816
1775751034864914700,1.236914794921875,-0.19133604366313664,-9.706958038148283,1.381575207810849
1775751034874928600,1.2469287109375,-0.1769505033002235,-9.708596453005075,1.3719431638516484
1775751034884942800,1.25694287109375,-0.16656753137586638,-9.709607675874233,1.3660859622560442
1775751034894956800,1.266956787109375,-0.1622193826363422,-9.7100232709378,1.3636537666730582
1775751034904970800,1.276970703125,-0.16330964382477103,-9.71019044419825,1.3623219335474073
1775751034914984700,1.286984619140625,-0.16723655321123077,-9.710474521836638,1.3598128733359276
1775751034924998700,1.29699853515625,-0.17220520846927537,-9.710970196399092,1.3556472780890763
1775751034935012900,1.307012939453125,-0.17707913464857264,-9.711340783277153,1.35235758889392
1775751034945026600,1.317026611328125,-0.18032589801745488,-9.71099533084035,1.354407214900106
1775751034955040800,1.327040771484375,-0.18226236423905937,-9.709675480413436,1.3635852314814925
1775751034965054700,1.3370546875,-0.18693601860590278,-9.707894442215562,1.3755791822664438
1775751034975069000,1.34706884765625,-0.19354387417202815,-9.706490420636534,1.384553346838802
1775751034985082600,1.35708251953125,-0.1995164640419185,-9.706015788862109,1.387024413127452
1775751034995096600,1.3670966796875,-0.20516712848106397,-9.70657400726676,1.3822859864287078
1775751035005110800,1.37711083984375,-0.21115612149648366,-9.707959908667206,1.3716199232466517
1775751035015124700,1.387124755859375,-0.21761815711744129,-9.709921564128994,1.3566340971693396
1775751035025138700,1.397138671875,-0.22421824950221925,-9.712235686290263,1.3388853822499514
1775751035035152600,1.407152587890625,-0.22897550876559689,-9.714754391112923,1.3196646950818598
1775751035045166800,1.417166748046875,-0.22999142607618123,-9.71739175387919,1.2999142849512397
1775751035055180800,1.427180908203125,-0.22596726686032487,-9.719956635931133,1.2813052999407053
1775751035065194500,1.437194580078125,-0.21646107777049764,-9.722296477055549,1.2650984076358378
1775751035075208700,1.447208740234375,-0.20135325101502238,-9.724171623277664,1.2531243305951356
1775751035085222700,1.45722265625,-0.18010653791204093,-9.725590842425822,1.2453124878004194
1775751035095236900,1.46723681640625,-0.15341478421092034,-9.726629537823795,1.2407818586334585
1775751035105250800,1.477250732421875,-0.12279945472474209,-9.727304660606384,1.238888738363236
1775751035115264800,1.4872646484375,-0.08937179863103666,-9.727764094811677,1.2381529714345931
1775751035125278700,1.49727880859375,-0.05572322066249326,-9.728200732663273,1.2366937125369906
1775751035135292700,1.507292724609375,-0.02531567044178955,-9.72859879207015,1.2345463252447544
1775751035145307000,1.517306884765625,-0.0002274762867514255,-9.729016725221276,1.2315199631609022
1775751035155320600,1.527320556640625,0.019694949049758725,-9.729672558781504,1.2261537599526344
1775751035165334800,1.537334716796875,0.03651249776598997,-9.730718268442153,1.2174405113387852
1775751035175348700,1.5473486328125,0.052134324758476576,-9.731922968056798,1.2072088940512389
1775751035185362700,1.55736279296875,0.06771811216236091,-9.732934775447845,1.198232756717503
1775751035195376600,1.567376708984375,0.08394772775568998,-9.733588270920514,1.1918792229723185
1775751035205390600,1.577390625,0.10157325468682683,-9.733934892401098,1.1876654777348041
1775751035215404800,1.58740478515625,0.12135047975913621,-9.734090375223754,1.1845379202987998
1775751035225418800,1.597418701171875,0.1427592972218059,-9.734172208288312,1.1814791903153061
1775751035235432700,1.6074326171875,0.16531775051048025,-9.734283851969241,1.1776046139042824
1775751035245446700,1.61744677734375,0.1881299958971329,-9.734415953916312,1.1730884516540914
1775751035255460900,1.6274609375,0.210640883717034,-9.73434113511443,1.1698699279990046
1775751035265474800,1.637474853515625,0.2321238349949941,-9.733976393455267,1.1688400734946132
1775751035275488500,1.647488525390625,0.2525713240116835,-9.733501761680841,1.1685681977506726
1775751035285502700,1.657502685546875,0.272438711585477,-9.733089673748612,1.1675409735947846
1775751035295516700,1.6675166015625,0.2914884626334533,-9.732843590033054,1.16498303274028
1775751035305531000,1.67753076171875,0.3096132077910006,-9.732841836467385,1.1603142372116446
1775751035315544600,1.687544677734375,0.3265978064700961,-9.732953480148314,1.1546882140234112
1775751035325558800,1.697558837890625,0.3418988359764218,-9.73283248411715,1.1512857851687819
1775751035335572700,1.70757275390625,0.356062568548508,-9.732366620171069,1.1509383599705993
1775751035345586700,1.717586669921875,0.3697395770495757,-9.731557641875744,1.1534697781443595
1775751035355601000,1.727600830078125,0.38346521046534177,-9.730489720383286,1.1579863057207316
1775751035365614600,1.737614501953125,0.397757537853159,-9.729312493297456,1.1630468770459295
1775751035375628800,1.74762890625,0.41292047406304627,-9.728110131770372,1.1677994784004986
1775751035385642800,1.757642822265625,0.4294638683132827,-9.726906601199508,1.1718415933981536
1775751035395656700,1.76765673828125,0.44752544857412574,-9.725675013577938,1.175308392725885
1775751035405670400,1.77767041015625,0.46715836980491876,-9.724277421739696,1.1792384256511925
1775751035415684400,1.787684326171875,0.4878528558526188,-9.722713241162895,1.1837475736387073
1775751035425698600,1.797698486328125,0.5084157514099031,-9.7211373701483,1.1880216707613318
1775751035435712500,1.80771240234375,0.5269538631413132,-9.71971990456581,1.1915469953432678
1775751035445726500,1.8177265625,0.5422022126123309,-9.718526310867071,1.194414586668834
1775751035455740400,1.827740478515625,0.5536044080492108,-9.717719670659303,1.1957531417962164
1775751035465754600,1.837754638671875,0.5612777191560715,-9.717364865872263,1.1950642827492206
1775751035475768600,1.8477685546875,0.5659912306092679,-9.71733271716833,1.193103504070267
1775751035485782300,1.8577822265625,0.5689569850796833,-9.717543145048618,1.1899684939801691
1775751035495796500,1.86779638671875,0.5712294600563124,-9.718072137358783,1.1845481494318693
1775751035505810400,1.877810546875,0.5731565556613728,-9.718972301068902,1.1762052685003728
1775751035515824600,1.88782470703125,0.5744592357577756,-9.720157126939297,1.1657332665856928
1775751035525838300,1.89783837890625,0.5755246364995837,-9.721440737009049,1.1544473179396242
1775751035535852500,1.9078525390625,0.5764893533458932,-9.722582892781496,1.1443035981312393
1775751035545866500,1.917866455078125,0.5769219360768795,-9.723436879262328,1.1368136077020317
1775751035555880400,1.92788037109375,0.5774069431148469,-9.72399334410131,1.1317927838653326
1775751035565894400,1.937894287109375,0.5789808413680643,-9.724342303669452,1.1279689877934753
1775751035575908400,1.947908447265625,0.5822364090979099,-9.724517660236359,1.1247868506260215
1775751035585922600,1.957922607421875,0.5873412579562515,-9.724467975875735,1.1225449899833648
1775751035595936500,1.9679365234375,0.5936127029085532,-9.724266900345683,1.1209943995404987
1775751035605950500,1.977950439453125,0.5999477146163582,-9.724162855449318,1.1185295437969267
1775751035615964400,1.98796435546875,0.6057299147469922,-9.724245273035764,1.1147037018984556
1775751035625978400,1.997978271484375,0.6109851683940738,-9.724412446296215,1.1103672801293432
1775751035635992600,2.00799267578125,0.6158103235282003,-9.724556823202967,1.1064213189825416
1775751035646006500,2.018006591796875,0.6202152074236422,-9.724560914856195,1.103926214231178
1775751035656020500,2.0280205078125,0.6245288328390568,-9.724356332194805,1.1033042098753154
1775751035666034400,2.038034423828125,0.6291609496191144,-9.723954181134701,1.1042019624326378
1775751035676048600,2.048048583984375,0.6347358271420002,-9.723380765160918,1.1060569426495581
1775751035686062600,2.0580625,0.6417068351984023,-9.72263199262023,1.1086262086156755
1775751035696076300,2.068076171875,0.650098596772924,-9.721706109946966,1.1118502121634781
1775751035706090500,2.078090576171875,0.6600041239112615,-9.720575060090422,1.1158772026572377
1775751035716104400,2.0881044921875,0.6709789607815444,-9.719151749289034,1.121710804181546
1775751035726118700,2.09811865234375,0.6826315507829189,-9.717392338401078,1.1299000289212913
1775751035736132400,2.10813232421875,0.6950796750761569,-9.715299750036001,1.1402706162881104
1775751035746146600,2.118146484375,0.7079309733428061,-9.713000240921973,1.1519004099357872
1775751035756160500,2.128160400390625,0.7204012364026159,-9.710661568841338,1.1638233413111418
1775751035766175500,2.138175537109375,0.7311598732389509,-9.708462597492337,1.175404108185321
1775751035776188400,2.1481884765625,0.7392243756204843,-9.706565239438413,1.1859653227534144
1775751035786202400,2.158202392578125,0.744199314488843,-9.705078800272942,1.1949820112932472
1775751035796217300,2.16821728515625,0.7462838656779378,-9.703932552847265,1.2029668725673108
1775751035806230500,2.17823046875,0.7465108063016086,-9.70299381069243,1.210378390932828
1775751035816245500,2.18824560546875,0.7454157045412808,-9.702280693987012,1.216756986054033
1775751035826259500,2.198259521484375,0.7430236217729747,-9.701768068289756,1.2222977421116084
1775751035836273400,2.2082734375,0.7393540664147585,-9.701384621930123,1.2275438991367815
1775751035846287600,2.21828759765625,0.7348216836821287,-9.700917588940262,1.2339311159558592
1775751035856301600,2.228301513671875,0.7305598615191876,-9.700170569965243,1.242315936332941
1775751035866315300,2.238315185546875,0.7271577249255031,-9.699115507954359,1.2525174507431684
1775751035876329500,2.24832958984375,0.7248026862319559,-9.697798580136894,1.2640259560987352
1775751035886343400,2.258343505859375,0.723364104796201,-9.696420277521014,1.2753791247621178
1775751035896357600,2.268357666015625,0.7227972646936773,-9.695200964859128,1.2849115077391267
1775751035906371300,2.278371337890625,0.7230193830117583,-9.694293202364443,1.2916371627323329
1775751035916385500,2.288385498046875,0.7239316024858504,-9.693625093844533,1.2961299441069363
1775751035926399500,2.2983994140625,0.7259016604498029,-9.692968675762414,1.2999281673461198
1775751035936413400,2.308413330078125,0.728211617892608,-9.692226332962512,1.304172673048079
1775751035947052500,2.319052490234375,0.7301026192709803,-9.691339028733967,1.309688367729634
1775751035957066500,2.32906640625,0.7308915776915847,-9.69044061858952,1.3158869301088154
1775751035967080400,2.33908056640625,0.7309293524187058,-9.689532271572947,1.3225389353439212
1775751035977094400,2.349094482421875,0.7308461311146617,-9.688815063214301,1.3278294429674744
1775751035987108400,2.3591083984375,0.730796008362621,-9.688425771635771,1.3306931618355213
1775751035997122600,2.36912255859375,0.7305566466487944,-9.688418757373094,1.3308730484470723
1775751036007136500,2.379136474609375,0.7291036713615059,-9.688801619210839,1.3288777829766272
1775751036017150500,2.389150390625,0.7263127985339611,-9.689480249124765,1.325452484703064
1775751036027164400,2.399164306640625,0.7225411710407584,-9.69034592604339,1.3211774377323686
1775751036037178600,2.4091787109375,0.7186741934143006,-9.691312140727042,1.316190443100035
1775751036047192600,2.419192626953125,0.7149256545357405,-9.69232277907431,1.3107844924032688
1775751036057206300,2.429206298828125,0.7117545502189546,-9.693247492703795,1.3056639345191419
1775751036067220500,2.439220458984375,0.7095405274312943,-9.693808049196004,1.3027008469298482
1775751036077234400,2.449234375,0.7090078087940812,-9.693819739633797,1.3029134667672215
1775751036087248600,2.45924853515625,0.7106142210774123,-9.693227034437657,1.3064355034135282
1775751036097262300,2.469262451171875,0.7139063944905996,-9.692140408244729,1.3126830195009707
1775751036107276500,2.479276611328125,0.7181975888784974,-9.690808867380023,1.3201622693404556
1775751036117290500,2.48929052734375,0.7224415100585669,-9.689594230893254,1.3267422322526574
1775751036127304400,2.499304443359375,0.7257555299773812,-9.688680038657784,1.3316004859387873
1775751036137318400,2.509318359375,0.7277635818641632,-9.688045247885585,1.3351182848013936
1775751036147332400,2.519332275390625,0.7283890202861278,-9.687516840097308,1.3386078804828225
1775751036157346600,2.5293466796875,0.7272116470698267,-9.68697148117423,1.343192139533162
1775751036167360500,2.539360595703125,0.7241224488828331,-9.686364747452735,1.3492236747823654
1775751036177374500,2.54937451171875,0.7193791268132627,-9.685745154249668,1.356180215921998
1775751036187388400,2.559388427734375,0.7139178657326847,-9.685147188356519,1.3633216121092437
1775751036197402400,2.56940234375,0.709118648757413,-9.684562666466832,1.3699635343417524
1775751036207416600,2.57941650390625,0.706330844669789,-9.68398983501494,1.3754418196223674
1775751036217430300,2.58943017578125,0.7062719540894031,-9.683404728603362,1.3795872488640248
1775751036227444500,2.599444580078125,0.7087408284209669,-9.68268109050393,1.3833848875813186
1775751036237458400,2.60945849609375,0.7130990966957063,-9.68165583910942,1.3883178139388561
1775751036247472600,2.61947265625,0.7186777005456387,-9.680303255456685,1.3948549606226384
1775751036257486600,2.629486572265625,0.7248470368303358,-9.678725630876421,1.4025893542669712
1775751036267500300,2.639500244140625,0.7307075263615698,-9.677102998110652,1.4107282370589673
1775751036277514500,2.649514404296875,0.7355184337746351,-9.675569212672114,1.4187154364205896
1775751036287528400,2.659528564453125,0.7388234666693955,-9.674207861191034,1.4262626369297504
1775751036297542700,2.669542724609375,0.7402822141103446,-9.673073888725042,1.4331823531903325
1775751036307556400,2.679556396484375,0.7392801243957131,-9.672287122261524,1.4390074060820042
1775751036317570600,2.689570556640625,0.735807041457668,-9.67191945799291,1.443243436216563
1775751036327584500,2.69958447265625,0.7309436001397669,-9.671914781817794,1.4457503044709563
1775751036337598500,2.709598388671875,0.7264880820356309,-9.67206909559667,1.4469637719139457
1775751036347612400,2.7196123046875,0.7238369099397212,-9.672085462209582,1.4481791390530765
1775751036357626400,2.72962646484375,0.7235879036147147,-9.671718382462858,1.4507541041076182
1775751036367640600,2.739640625,0.7257778148744255,-9.670973701575399,1.4546150173194705
1775751036377654500,2.749654541015625,0.730117378448695,-9.669948450180888,1.4592574362978339
1775751036387668500,2.75966845703125,0.7360761407226324,-9.66867536150515,1.4646693783439695
1775751036397682700,2.7696826171875,0.743060446652025,-9.667207627040147,1.4708262935385108
1775751036407696600,2.779696533203125,0.7503423472885042,-9.665587916883826,1.4777537547141313
1775751036417710600,2.789710693359375,0.7572568759173154,-9.663786420419811,1.4859972669243813
1775751036427724500,2.799724609375,0.7635638671070337,-9.661928809854388,1.4948253010243175
1775751036437738800,2.80973876953125,0.7688031560000032,-9.660185765579342,1.5033677961811422
1775751036447752700,2.819752685546875,0.7730841943200677,-9.658702833545208,1.510694193546474
1775751036457766700,2.8297666015625,0.7768884089086204,-9.65750573271513,1.5163837834902107
1775751036467780600,2.839780517578125,0.780449973847717,-9.656557638210058,1.52058605748564
1775751036477794600,2.849794677734375,0.7836177902288735,-9.655781393140554,1.5238735547237097
1775751036487808800,2.859808837890625,0.7862677202157676,-9.654971245801448,1.5276428441293537
1775751036497822500,2.869822509765625,0.7886256815187632,-9.653974635979532,1.5327144483052193
1775751036507836700,2.879836669921875,0.791342685392499,-9.65291606683731,1.537979821487516
1775751036517850600,2.8898505859375,0.7945804982699454,-9.65189139996469,1.5427316921897232
1775751036527864600,2.899864501953125,0.7982835905715823,-9.65077262506783,1.5478038808874786
1775751036537878800,2.909878662109375,0.8025701087843626,-9.649566171887516,1.553100379860401
1775751036547892500,2.919892578125,0.8073859846334904,-9.648435706552863,1.5576212182857094
1775751036557906700,2.92990673828125,0.812777103087306,-9.647411039680241,1.5611621057629583
1775751036567920600,2.939920654296875,0.8191210652865469,-9.64653717945516,1.5632488489091396
1775751036577934800,2.949934814453125,0.8262097814384848,-9.645697806021571,1.564694225411862
1775751036587948500,2.959948486328125,0.8341461273957044,-9.644713471159339,1.5665513975858687
1775751036597962500,2.96996240234375,0.8425099049847573,-9.643624506878853,1.5687693658962845
1775751036607976700,2.979976806640625,0.85050346102193,-9.642534373554588,1.5711606449469924
1775751036617990700,2.98999072265625,0.8581919696979224,-9.641619012275338,1.5725927235767245
1775751036628005600,3.000005615234375,0.8654683173764497,-9.641068977177143,1.5719912505522369
1775751036638019600,3.01001953125,0.8719546837210654,-9.640786068582534,1.5701261873327195
1775751036648032800,3.02003271484375,0.8767425025194883,-9.640761518663167,1.5676180039040744
1775751036658047700,3.0300478515625,0.8790191422145813,-9.641094111618399,1.564288421089947
1775751036668061700,3.040061767578125,0.8773992128625512,-9.641973232540488,1.5597764966234564
1775751036678075600,3.05007568359375,0.8733025911986827,-9.643228201037644,1.5543145779557526
1775751036688089600,3.060089599609375,0.8700866248268634,-9.644296707051993,1.549477951579541
1775751036698103600,3.070103515625,0.8697941446863114,-9.644791212570667,1.5465565111748873
1775751036708117800,3.08011767578125,0.8742587959449738,-9.644548051464557,1.5455493799589572
1775751036718131500,3.09013134765625,0.883389977709949,-9.643532152420281,1.5466954812541602
1775751036728145700,3.100145751953125,0.8964070609975606,-9.641919456526637,1.5492650394812226
1775751036738159600,3.11015966796875,0.9123466076031327,-9.639968906980753,1.5520923718616366
1775751036748173800,3.120173828125,0.9298043767519295,-9.637874565050005,1.5547427402399479
1775751036758187500,3.1301875,0.9463604478206485,-9.63584919670224,1.557300461898744
1775751036768201500,3.140201416015625,0.9602176351942121,-9.634027241972088,1.5600930152267216
1775751036778215700,3.150215576171875,0.9705617729455233,-9.63253320402205,1.562921516650915
1775751036788229600,3.160229736328125,0.9773838740505277,-9.631430795738101,1.5654486970409751
1775751036798243600,3.17024365234375,0.9807755623154342,-9.630730538514255,1.5676472299985587
1775751036808257500,3.180257568359375,0.9816224614683539,-9.630382747989893,1.5692451667144893
1775751036818271700,3.190271728515625,0.9801287157792598,-9.63042424904406,1.5699280344121158
1775751036828285700,3.20028564453125,0.9761964178316295,-9.63079483592212,1.5700965228468178
1775751036838299600,3.210299560546875,0.9703881699442863,-9.631023968502879,1.5722919870644807
1775751036848313600,3.220313720703125,0.9637955667462199,-9.630973699620366,1.5766421450980006
1775751036858327600,3.23032763671875,0.957345879150182,-9.630693129113316,1.5822810277678072
1775751036868341800,3.240341796875,0.9524742545258253,-9.629954877966641,1.5896962724603712
1775751036878355700,3.250355712890625,0.9509601967010647,-9.6285233838588,1.5992413687884806
1775751036888369700,3.26036962890625,0.9545837940257043,-9.626132689329982,1.6114328879721462
1775751036898383600,3.270383544921875,0.965026642911136,-9.622458969253302,1.6270767395667731
1775751036908397600,3.2803974609375,0.9819421949420124,-9.617698622983694,1.6450054872281847
1775751036918411800,3.290411865234375,1.0044969949688762,-9.611936990717053,1.664944844059646
1775751036928425500,3.300425537109375,1.033160121808201,-9.605020343196392,1.6871669050008058
1775751036938439700,3.310439697265625,1.0668195956300943,-9.596991350519657,1.7117346522852777
1775751036948453600,3.32045361328125,1.1028214678596704,-9.588056933435798,1.7387698125965891
1775751036958467800,3.3304677734375,1.1372089636951683,-9.578680617803334,1.7680477833986281
1775751036968481500,3.3404814453125,1.1659179024375974,-9.56945920047164,1.7990251054644584
1775751036978495500,3.35049560546875,1.1887995232660322,-9.5607276124835,1.8302026262775062
1775751036988509700,3.360509765625,1.2073329588223247,-9.55231751153469,1.8617087945230304
1775751036998523600,3.370523681640625,1.224062413696572,-9.544110824203491,1.892617581397295
1775751037008537600,3.38053759765625,1.2403510660007595,-9.53614671345651,1.9219415832981466
1775751037018551600,3.390551513671875,1.258001727373153,-9.527966914132238,1.9508049819499254
1775751037028565800,3.400565673828125,1.2789523070737718,-9.518850710740685,1.9814432813197373
1775751037038579700,3.410579833984375,1.304481446736306,-9.508456157976388,2.014438226818293
1775751037048593400,3.420593505859375,1.336138713890314,-9.496724219128488,2.0487349025651813
1775751037058607600,3.430607666015625,1.3733673514358697,-9.483737896305323,2.083970758858323
1775751037068621600,3.44062158203125,1.4146945103414357,-9.469668454420566,2.119997911659628
1775751037078635800,3.4506357421875,1.4589583072207868,-9.454483160248397,2.1574406303472817
1775751037088649700,3.460649658203125,1.5059328243635595,-9.437892090931534,2.197446185260266
1775751037098663700,3.47066357421875,1.5543714227095244,-9.42025531195402,2.238993855048716
1775751037108677600,3.480677734375,1.6012452559567987,-9.402770508667826,2.279104185510427
1775751037118691600,3.490691650390625,1.6429856718383729,-9.386364148268102,2.3167146619804204
1775751037128705800,3.500705810546875,1.6778000878490507,-9.371549440973997,2.351470771932602
1775751037138719500,3.510719482421875,1.7046530234612522,-9.358943641901016,2.3821665005780757
1775751037148733700,3.520733642578125,1.7241471207432448,-9.348870576176047,2.407551993986219
1775751037158747600,3.53074755859375,1.7377197190217673,-9.340948551005125,2.4284493821948767
1775751037168761900,3.540761962890625,1.7465424924246966,-9.334384370183944,2.447293345005065
1775751037178775600,3.550775634765625,1.7509141316376626,-9.328355026891828,2.467082187449932
1775751037188789500,3.56078955078125,1.749591796992719,-9.32243498919308,2.4902900445580483
1775751037198803700,3.5708037109375,1.7418232088178396,-9.316066623204946,2.519392220401764
1775751037208817700,3.580817626953125,1.7274958466492591,-9.308817967250942,2.5557883526459335
1775751037218831600,3.59083154296875,1.7087113589413463,-9.30048385414779,2.5984070126667618
1775751037228845600,3.600845458984375,1.687912170410156,-9.291357713884114,2.644242881168425
1775751037238859800,3.61085986328125,1.6686102346993983,-9.281045578706264,2.6922709990173574
1775751037248873700,3.620873779296875,1.6541288510128855,-9.268788739201426,2.742959568247199
1775751037258887400,3.630887451171875,1.6467064459271727,-9.254299610599874,2.795834249344468
1775751037268901600,3.640901611328125,1.6483973216235637,-9.23741160416305,2.850150945943594
1775751037278915600,3.65091552734375,1.6593617832303047,-9.21859350644648,2.904213667781651
1775751037288929800,3.6609296875,1.677900771744549,-9.198678845664858,2.9562407921388743
1775751037298943500,3.670943603515625,1.7026352538980543,-9.17814225359261,3.005520079092681
1775751037308957700,3.680957763671875,1.732038604645431,-9.157204679504037,3.0522181173816323
1775751037318971600,3.6909716796875,1.7646755304865538,-9.135818192604184,3.097278909857571
1775751037328985600,3.700985595703125,1.797756546833366,-9.11430194184482,3.1413328633785245
1775751037338999800,3.710999755859375,1.827714170462638,-9.093858288753033,3.1830197955071924
1775751037349013500,3.721013427734375,1.8506885110758244,-9.075720574516058,3.2212825984060762
1775751037359027700,3.73102783203125,1.864210548210889,-9.060061233091353,3.257363673351705
1775751037369041700,3.741041748046875,1.869954206429422,-9.046251318925618,3.292261091470718
1775751037379055600,3.7510556640625,1.8700037446595728,-9.034213090607523,3.325128172805905
1775751037389069600,3.761069580078125,1.8663380617588758,-9.024109629744292,3.3544922144562004
1775751037399083500,3.77108349609375,1.8619531246729195,-9.015240679112075,3.3806749957218765
1775751037409097500,3.781097412109375,1.8595026627808808,-9.006817134159803,3.4043963553100824
1775751037419111400,3.791111328125,1.860655047686398,-8.998763591563701,3.4249987060949203
1775751037429125600,3.801125732421875,1.8647759270086883,-8.991393355056642,3.442066160751879
1775751037439139300,3.811139404296875,1.8714622729048132,-8.984418839868903,3.4566242629364132
1775751037449153500,3.821153564453125,1.8789153653897344,-8.977940583765506,3.4693872983977196
1775751037459167500,3.83116748046875,1.8858305516056715,-8.972047434073685,3.480862339875102
1775751037469181400,3.841181396484375,1.893398794902861,-8.966511427256464,3.4909994107469915
1775751037479195400,3.8511953125,1.9015443996965884,-8.961966185042261,3.498239883394539
1775751037489209300,3.861209228515625,1.9084078557252884,-8.959168663278222,3.501664597146213
1775751037499223600,3.8712236328125,1.9125183597840367,-8.958325198191403,3.5015795492112636
1775751037509237500,3.881237548828125,1.9149119769223033,-8.95876242056489,3.4991529065862297
1775751037519251700,3.891251708984375,1.9172994565807282,-8.95980813022554,3.4951699744299054
1775751037529265400,3.901265380859375,1.9198944415099917,-8.96094444077909,3.490829022616148
1775751037539279400,3.911279296875,1.9210984104722737,-8.961631253999471,3.4884017954692244
1775751037549293600,3.92129345703125,1.9191580900594591,-8.962189472404122,3.4880344234615563
1775751037559307500,3.9313076171875,1.9137632452785969,-8.963370791143179,3.4879619427472353
1775751037569321500,3.941321533203125,1.906798666962981,-8.965389145228267,3.4865903621330854
1775751037579335400,3.95133544921875,1.8990460070095956,-8.96786225734353,3.4844574417576193
1775751037589349600,3.961349609375,1.8921609236709773,-8.970377455034852,3.481727432271838
1775751037599363600,3.971363525390625,1.8880492505684494,-8.97249050166607,3.4785108083128926
1775751037609377300,3.981377197265625,1.8858194456897674,-8.973763005819917,3.476440139518678
1775751037619391500,3.9913916015625,1.8836846256181596,-8.973815612789988,3.477459545694291
1775751037629405400,4.001405517578125,1.8807184692889451,-8.972068476861715,3.4835710143119094
1775751037639419600,4.011419677734375,1.8771229290150104,-8.968692862948775,3.494183593741059
1775751037649433300,4.021433349609375,1.873616820590198,-8.964271539375185,3.5073929116651414
1775751037659447600,4.031447509765625,1.8711459004320203,-8.95915171214342,3.5217630900621413
1775751037669461500,4.04146142578125,1.868945029386878,-8.954262186536193,3.535342410342395
1775751037679475500,4.051475341796875,1.866908993514627,-8.949889962801336,3.5474642252907156
1775751037689489400,4.061489501953125,1.8659174982592461,-8.94585383915305,3.5581469473466276
1775751037699503400,4.07150341796875,1.8664304162174463,-8.942250261703133,3.5669323113486167
1775751037709517600,4.081517578125,1.8670577543355524,-8.939338173648714,3.5738957206204534
1775751037719531500,4.091531494140625,1.8676101275213062,-8.936633590865135,3.580364039851725
1775751037729545500,4.10154541015625,1.867461366700381,-8.93388283085227,3.5872982230290766
1775751037739559400,4.111559326171875,1.8658683984205127,-8.931149606496096,3.5949259414285417
1775751037749573400,4.121573486328125,1.8624049600936472,-8.92890095078647,3.6022976392403243
1775751037759587600,4.131587646484375,1.8553408669263123,-8.92642316249609,3.612072891062498
1775751037769601500,4.1416015625,1.8449379847250877,-8.923246870547532,3.6252234645366666
1775751037779615500,4.151615478515625,1.833884529660642,-8.921174155926703,3.635918169291317
1775751037789629400,4.16162939453125,1.8270459158122538,-8.919815727055072,3.6426872250348326
1775751037799643400,4.171643310546875,1.8240524330846963,-8.91782426097691,3.6490602671980854
1775751037809657600,4.18165771484375,1.822271979408711,-8.915603077796101,3.6553713500410314
1775751037819671300,4.19167138671875,1.822961569108069,-8.914435203060508,3.6578777799040076
1775751037829685500,4.201685546875,1.827399113164097,-8.914695899823307,3.6550212214291093
1775751037839699500,4.211699462890625,1.8353101785495876,-8.916133239150048,3.6475440174162386
1775751037849713700,4.221713623046875,1.8450294624008237,-8.918910302647948,3.635830491007864
1775751037859727400,4.231727294921875,1.8535814560383557,-8.92278451373279,3.6219507264763116
1775751037869741300,4.2417412109375,1.8578642479240892,-8.925941516458987,3.6119615396425124
1775751037879755500,4.251755615234375,1.8547079758502543,-8.927900833833217,3.6087446234226226
1775751037889769500,4.26176953125,1.8431093079932033,-8.9291657392025,3.61155646597296
1775751037899783400,4.271783447265625,1.8255163681574165,-8.930127862232922,3.618107787312567
1775751037909797400,4.28179736328125,1.8054205055899917,-8.93112154944539,3.625729660493135
1775751037919811600,4.2918115234375,1.786801729837805,-8.93251855676174,3.6315056135460733
1775751037929825500,4.301825439453125,1.7717340706959366,-8.934059940984845,3.6350948702096937
1775751037939839500,4.311839599609375,1.7599693986222147,-8.935158257615566,3.6381104186385866
1775751037949853400,4.321853515625,1.7514700119547544,-8.935269901296495,3.6419343608409163
1775751037959867400,4.331867431640625,1.745224980085343,-8.934000904273987,3.6480382306739685
1775751037969881600,4.341881591796875,1.7404513359427451,-8.93082227423787,3.6580925916984675
1775751037979895300,4.351895263671875,1.7358420885816215,-8.92595729855001,3.6721304694011807
1775751037989909500,4.361909423828125,1.7302147502191363,-8.920145981922746,3.6888676691904663
1775751037999923500,4.37192333984375,1.7217578875191508,-8.91500978807807,3.7052065173119306
1775751038009937400,4.3819375,1.7111368325226008,-8.91129748955667,3.719031044524908
1775751038019951600,4.39195166015625,1.6984369254253804,-8.909019023230671,3.730295073600113
1775751038029965300,4.40196533203125,1.6825806001238524,-8.907864592498541,3.7402231778964397
1775751038039979500,4.4119794921875,1.66545016323328,-8.907470624744892,3.748816526457667
1775751038049993500,4.421993408203125,1.6498815688319504,-8.907133940136433,3.7564948060005903
1775751038060007700,4.432007568359375,1.6374549257181583,-8.906979041835665,3.7622941399291157
1775751038070021400,4.442021484375,1.6283257167145608,-8.907478808051348,3.765073541514575
1775751038080035300,4.452035400390625,1.6228563453927636,-8.908097232210636,3.7659716593980788
1775751038090049500,4.462049560546875,1.6194836540892719,-8.908072097769379,3.7674811871781944
1775751038100063500,4.4720634765625,1.6160171470224856,-8.906738218817114,3.7721184915900228
1775751038110077400,4.482077392578125,1.6120381603889167,-8.903910301914811,3.7804859224408864
1775751038120091400,4.49209130859375,1.6067748330332339,-8.899597114890813,3.7928625889331102
1775751038130105600,4.502105712890625,1.5989660589784382,-8.894019607019423,3.809211081665754
1775751038140119600,4.51211962890625,1.584256419494003,-8.888683506688475,3.8277684826195237
1775751038150134500,4.522134521484375,1.5572197978779672,-8.892325662583112,3.8304075989514588
1775751038160147500,4.5321474609375,1.5222367473021148,-8.90868584575355,3.8063808266758916
1775751038170162400,4.542162353515625,1.5006154287330806,-8.91735722798705,3.794641873565316
1775751038180175600,4.552175537109375,1.4823600794658065,-8.913248623624444,3.8114284654542803
1775751038190190600,4.562190673828125,1.4599034791164098,-8.908414043074846,3.8313463411062956
1775751038200204300,4.572204345703125,1.4394047348365187,-8.906753416386247,3.842943547658622
1775751038210217500,4.582217529296875,1.4236429559506476,-8.906322623753548,3.849810218557715
1775751038220232400,4.592232421875,1.4157660850957035,-8.904835015544295,3.856149358451366
1775751038230246700,4.60224658203125,1.4171632385425268,-8.901566369137168,3.863180864523351
1775751038240260400,4.61226025390625,1.425647281510383,-8.897077825546264,3.870390942032635
1775751038250274300,4.6222744140625,1.4406507893748581,-8.891381659731268,3.877919876232743
1775751038260288500,4.63228857421875,1.4622398131094871,-8.884424095678328,3.885773220081627
1775751038270302500,4.642302490234375,1.4872083962798117,-8.876545325127243,3.894296133755147
1775751038280316400,4.65231640625,1.5108528912395238,-8.867889140462875,3.9049002376168964
1775751038290330400,4.662330322265625,1.5305601928807795,-8.857848807963729,3.9199826559364794
1775751038300344600,4.672344482421875,1.5467910505831242,-8.846688531523942,3.9387724043413996
1775751038310358500,4.682358642578125,1.5620770286507903,-8.835497859945892,3.9578105745494363
1775751038320372500,4.69237255859375,1.5801223884291946,-8.825167020067573,3.97366485402435
1775751038330386400,4.702386474609375,1.6046210160002112,-8.815057129463552,3.986269191792607
1775751038340400400,4.712400390625,1.6362018569171428,-8.803717989325524,3.9984716707617043
1775751038350414600,4.72241455078125,1.6743058159925042,-8.790767906859516,4.011170993337035
1775751038360428500,4.732428466796875,1.7184255282260477,-8.776298652002215,4.024174559555948
1775751038370442500,4.7424423828125,1.768018265043199,-8.761165964800119,4.035651354598999
1775751038380456400,4.75245654296875,1.819097002634406,-8.74523657426238,4.047483246690034
1775751038390470400,4.762470458984375,1.8670630150325596,-8.72848943760097,4.061763700976967
1775751038400485400,4.7724853515625,1.9122963875964283,-8.7110145711869,4.0782013332977884
1775751038410499300,4.782499267578125,1.9549416433632372,-8.693238675999641,4.095876106198132
1775751038420513300,4.79251318359375,1.9951064804911611,-8.675708864527941,4.113636219294369
1775751038430527200,4.80252734375,2.0335409866951406,-8.659388428846,4.129179240863025
1775751038440541200,4.812541259765625,2.072283097543567,-8.645528830319643,4.138942802247405
1775751038450555400,4.822555419921875,2.111942907758802,-8.63447435234189,4.141971210157871
1775751038460569300,4.8325693359375,2.1550239245943725,-8.625807061761616,4.137838348136842
1775751038470583300,4.842583251953125,2.198965211521089,-8.618541454672814,4.1298526100799435
1775751038480597200,4.85259716796875,2.236520742933452,-8.61121622635126,4.124959285080433
1775751038490611200,4.862611083984375,2.263345036973059,-8.601857446375488,4.129856117211282
1775751038500625400,4.87262548828125,2.27768993479833,-8.589239372342824,4.148188184976577
1775751038510639000,4.88263916015625,2.2814809976443646,-8.573736682784556,4.178073035630583
1775751038520653300,4.8926533203125,2.2793463237032294,-8.556774442067741,4.213858634760975
1775751038530667300,4.902667236328125,2.275834808450937,-8.54003139705956,4.24956590795815
1775751038540681500,4.912681396484375,2.2739063246063886,-8.52563286935091,4.279405458165705
1775751038550695200,4.922695068359375,2.2748007892280815,-8.515984166517853,4.298105774721503
1775751038560709000,4.932709228515625,2.278065636242926,-8.51254074806571,4.303191115161776
1775751038570723300,4.942723388671875,2.2817922555506227,-8.515011522093415,4.296325321045518
1775751038580737300,4.9527373046875,2.285440402794629,-8.520985335806012,4.282515114618837
1775751038590751200,4.962751220703125,2.288769839478284,-8.527468852606415,4.267810589700937
1775751038600765200,4.97276513671875,2.291572475808859,-8.531664550730586,4.257908496628701
1775751038610779400,4.982779296875,2.2926665546558795,-8.533839556682109,4.252959349788725
1775751038620793300,4.99279345703125,2.2914431503407657,-8.534570793566107,4.252148910188675
1775751038630807000,5.00280712890625,2.2884483524389565,-8.533890994608402,4.255124711129069
1775751038640821200,5.0128212890625,2.2855704589150845,-8.5320661172688,4.260332801166177
1775751038650835200,5.022835205078125,2.2861893214657902,-8.529898710101842,4.264335899327695
1775751038660849400,5.032849365234375,2.2960250713035464,-8.527881525060534,4.263083853439986
1775751038670863000,5.042863037109375,2.315538750068843,-8.52690069732964,4.254485536442697
1775751038680877300,5.052877197265625,2.3407639383487404,-8.527374160060287,4.2397102843761445
1775751038690891300,5.062891357421875,2.3661047158323227,-8.529930858805775,4.220447657762468
1775751038700905200,5.0729052734375,2.3877200430519876,-8.535356975507735,4.19724330778569
1775751038710919400,5.08291943359375,2.403844956161827,-8.542478205689788,4.173485123318433
1775751038720933000,5.09293310546875,2.4143390237778424,-8.547920689004659,4.156249034096301
1775751038730947300,5.102947265625,2.418683921114355,-8.549231187081336,4.151025454229116
1775751038740961300,5.112961181640625,2.4183485516801473,-8.546783209407328,4.156261016795039
1775751038750975500,5.1229755859375,2.4174314368352294,-8.542448979595303,4.165691400702298
1775751038760989200,5.1329892578125,2.4196745395869015,-8.538024733412266,4.173450344265997
1775751038771003100,5.143003173828125,2.427678105561435,-8.5340610904783,4.176909544809162
1775751038781017300,5.153017333984375,2.444665919110924,-8.531053725355862,4.173145516100526
1775751038791031300,5.16303125,2.471989540974796,-8.530285079070925,4.158592674612999
1775751038801045200,5.173045166015625,2.508983054590225,-8.532557115656138,4.131692100466788
1775751038811059200,5.18305908203125,2.5527190282031893,-8.536946290525794,4.095677661016583
1775751038821073400,5.193073486328125,2.5984204566702247,-8.540988259392977,4.058341909834742
1775751038831087400,5.20308740234375,2.641303320585191,-8.540346454358101,4.03192035137713
1775751038841101000,5.21310107421875,2.6808637620791793,-8.531443601456283,4.024652990722656
1775751038851115300,5.223115234375,2.7158079419493673,-8.514638012605905,4.036800524634122
1775751038861129200,5.233129150390625,2.7452377423122525,-8.492410398706793,4.063623357369005
1775751038871143400,5.243143310546875,2.7685882227614522,-8.469030692163109,4.096442800170183
1775751038881157000,5.2531572265625,2.78413621276617,-8.448954703339934,4.127246226973831
1775751038891171300,5.26317138671875,2.792212259455025,-8.436898354843258,4.146406269995868
1775751038901185300,5.273185302734375,2.7932091615378853,-8.4363746232301,4.146800237749517
1775751038911199200,5.28319921875,2.788046079686284,-8.446615446737407,4.129392883613705
1775751038921213200,5.293213134765625,2.775136621491611,-8.464463238117098,4.101446599806845
1775751038931227100,5.30322705078125,2.751137321744859,-8.484692371675372,4.075740203881264
1775751038941241300,5.313241455078125,2.716343656261265,-8.503013041263818,4.060865875354409
1775751038951255300,5.32325537109375,2.676462312249839,-8.51783651638627,4.056279132086038
1775751038961269500,5.33326953125,2.641057821391523,-8.528135207560657,4.057845650750399
1775751038971283200,5.343283203125,2.619402454422414,-8.532808460068702,4.062055669660866
1775751038981297200,5.353297119140625,2.6191250987857577,-8.531358845782279,4.0652810614481565
1775751038991311400,5.363311279296875,2.6428227852374313,-8.524747903209924,4.06381011211276
1775751039001325300,5.3733251953125,2.686306245394051,-8.514939041379094,4.055855061455071
1775751039011339300,5.38333935546875,2.7425840129330754,-8.50263836273253,4.043979914744198
1775751039021353200,5.393353271484375,2.8055671233296393,-8.487644207218288,4.032252652071416
1775751039031367400,5.403367431640625,2.871283458082378,-8.470180446720123,4.022707409612834
1775751039041381400,5.41338134765625,2.935769374257326,-8.451689096739887,4.015044619899988
1775751039051395000,5.42339501953125,2.995925736795366,-8.433858841016889,4.008094070109725
1775751039061409300,5.4334091796875,3.0508707944259044,-8.418083764258027,3.9998064264968036
1775751039071423200,5.44342333984375,3.1030145309001207,-8.40530202409625,3.9865535616919394
1775751039081437400,5.4534375,3.1579397147864103,-8.394317688745259,3.9665164435744282
1775751039091451100,5.463451171875,3.2214909804597496,-8.382740648198126,3.939802624171972
1775751039101465300,5.47346533203125,3.293139920131862,-8.366489186099171,3.915033509096503
1775751039111479300,5.483479248046875,3.369060838034749,-8.343246842199564,3.9000101274877785
1775751039121493200,5.4934931640625,3.4412139278367158,-8.314118362870811,3.8992137164130805
1775751039131507200,5.503507080078125,3.507783372287452,-8.280693063130974,3.9110052764937278
1775751039141521200,5.513521240234375,3.564776594619453,-8.245113800227642,3.934572614564001
1775751039151535400,5.523535400390625,3.602584931749105,-8.212117539554834,3.96899364734292
1775751039161549300,5.53354931640625,3.62428413785994,-8.184924996724725,4.005245987202227
1775751039171563300,5.543563232421875,3.638352410700917,-8.164666637071967,4.0337268162772055
1775751039181577200,5.5535771484375,3.653815060509741,-8.150503671684861,4.048370258657634
1775751039191591200,5.563591064453125,3.6775787979349492,-8.13976366648376,4.048460275028646
1775751039201605400,5.57360546875,3.709537532253563,-8.12898391379416,4.040954721704125
1775751039211619300,5.583619384765625,3.7482901644960043,-8.11503429889679,4.033226465539634
1775751039221633300,5.59363330078125,3.7904014595165845,-8.096807152810692,4.030500255446135
1775751039231646200,5.603646240234375,3.835537070794403,-8.073527984032035,4.034496923866868
1775751039241661200,5.6136611328125,3.885230783767998,-8.046422534963488,4.041092376609146
1775751039251675400,5.62367529296875,3.939990547959506,-8.017675748428703,4.045213548192382
1775751039261689000,5.633689208984375,3.999256099137664,-7.988795690903067,4.044194142016768
1775751039271702300,5.643702392578125,4.058426080986857,-7.961287506252527,4.039488448543846
1775751039281717200,5.65371728515625,4.115197477261722,-7.935296155905723,4.033185549007356
1775751039291730200,5.663730224609375,4.165231966497004,-7.909811001515388,4.031887910412252
1775751039301744000,5.673744140625,4.201022826324403,-7.885598351278901,4.042165851059556
1775751039311758300,5.68375830078125,4.220337475386262,-7.863981562754511,4.064101496274769
1775751039321773300,5.693773193359375,4.224242666131258,-7.846383362221717,4.09394922978878
1775751039331786200,5.7037861328125,4.2180768369778985,-7.8349547902345655,4.1220948355600235
1775751039341800200,5.71380029296875,4.206177724869549,-7.831656333211064,4.1404900316894055
1775751039351814100,5.723814208984375,4.19177861263901,-7.835107934969663,4.148548834982514
1775751039361828400,5.733828369140625,4.1743931780740615,-7.843923109588027,4.1494212339028715
1775751039371842000,5.743842041015625,4.153016628046333,-7.855114950209855,4.1497029734537
1775751039381856300,5.753856201171875,4.130725885783136,-7.865054744943976,4.153119211637973
1775751039391870200,5.7638701171875,4.106800820316374,-7.8734326971888535,4.160964079919458
1775751039401884400,5.773884521484375,4.0799291800037025,-7.881550537192821,4.172015343026817
1775751039411898400,5.7838984375,4.051194376167655,-7.8900126605898135,4.184005348289013
1775751039421912300,5.793912353515625,4.022721145877242,-7.9000395490854975,4.192550766055286
1775751039431926300,5.80392626953125,3.9999034571304914,-7.911226129010319,4.193287848158181
1775751039441940200,5.813940185546875,3.985715357302129,-7.922406863716244,4.185684095156192
1775751039451954400,5.823954345703125,3.9836663158178327,-7.930905227470397,4.17151411550641
1775751039461968100,5.833968017578125,3.9915225822761653,-7.937952223372459,4.1505438081920145
1775751039471982300,5.843982421875,4.002654217143356,-7.948136348256468,4.120224657773972
1775751039481996300,5.853996337890625,4.013147846367955,-7.963077312278747,4.080981903927028
1775751039492010200,5.86401025390625,4.02156788418889,-7.98138512238562,4.036690634518862
1775751039502024200,5.874024169921875,4.028325249494612,-8.002524941048026,3.987803854013979
1775751039512038100,5.8840380859375,4.034718749924004,-8.02597829734981,3.9338460538551208
1775751039522052400,5.89405224609375,4.041818060535192,-8.050124896612763,3.876797594204545
1775751039532066300,5.90406640625,4.048326419515908,-8.0733146335423,3.8213966095000504
1775751039542080300,5.914080322265625,4.051000022639334,-8.09446380455494,3.773516960211098
1775751039552094200,5.92409423828125,4.046804324515164,-8.11411893761754,3.7356215293198822
1775751039562108200,5.934108154296875,4.0341815743073814,-8.13403769005239,3.705834001560509
1775751039572122400,5.944122314453125,4.014619964747131,-8.154793477833271,3.6813831586539743
1775751039582136000,5.954135986328125,3.99109441999197,-8.175203228655457,3.6616412240907548
1775751039592150300,5.964150390625,3.9664541919931766,-8.192229766780137,3.6503438772678374
1775751039602164200,5.974164306640625,3.9426346327275037,-8.203988593634962,3.6497386048510667
1775751039612178400,5.984178466796875,3.9215024128496645,-8.210275711080431,3.658360302723944
1775751039622192400,5.9941923828125,3.9045977475389835,-8.211923478287458,3.6727141145080324
1775751039632206000,6.0042060546875,3.890163856256008,-8.21065272769928,3.6908234794333574
1775751039642220300,6.01422021484375,3.874527895706892,-8.208042252939938,3.713012222626805
1775751039652234200,6.024234130859375,3.855699861118197,-8.205498998197912,3.7381463716223835
1775751039662248400,6.03424853515625,3.832052151288092,-8.205195046815275,3.7630484654277563
1775751039672262100,6.04426220703125,3.8023824046894905,-8.209288453608751,3.7841537972986696
1775751039682276400,6.0542763671875,3.766644151832163,-8.218855323377252,3.7991058672368525
1775751039692290300,6.064290283203125,3.724966864314675,-8.233305289012193,3.8088931017577647
1775751039702304300,6.07430419921875,3.6804239582329985,-8.25067435696423,3.8146111871436235
1775751039712318200,6.084318115234375,3.6387004934862253,-8.268860586518048,3.8152570838317272
1775751039722332200,6.094332275390625,3.6031218151047826,-8.284986376410723,3.814043616388738
1775751039732346400,6.104346435546875,3.575785187628865,-8.296607840621471,3.8145088958129283
1775751039742360300,6.1143603515625,3.555380112981796,-8.30347188117206,3.818644680443406
1775751039752374300,6.124374267578125,3.5395343090742823,-8.305981233644484,3.8278915244773026
1775751039762388200,6.13438818359375,3.5254426553577183,-8.305190375527738,3.84258377443552
1775751039772402200,6.144402099609375,3.50770358504951,-8.304230590584874,3.8608483299225567
1775751039782416400,6.15441650390625,3.479860761617124,-8.305593695631623,3.883049932597577
1775751039792430000,6.16443017578125,3.440583520978689,-8.311359419551492,3.9056493024185297
1775751039802444300,6.1744443359375,3.390806513635814,-8.323208847299219,3.92389836807549
1775751039812458200,6.184458251953125,3.332107948690653,-8.341486262267827,3.9353599655494094
1775751039822472400,6.194472412109375,3.2698622126579284,-8.365030803984403,3.937592839168012
1775751039832486100,6.204486083984375,3.2098516883313652,-8.390808219319581,3.9321237601071592
1775751039842500000,6.2145,3.1583719687238334,-8.41537158268988,3.9213007527977224
1775751039852514300,6.224514404296875,3.1179967037156224,-8.436374038708209,3.9084634830564258
1775751039862528300,6.2345283203125,3.085924572150409,-8.453620941585301,3.896634805835783
1775751039872542500,6.24454248046875,3.0591508392542597,-8.467810210457444,3.8869241436824202
1775751039882556200,6.25455615234375,3.0329841323405504,-8.480863168776034,3.8789647091105577
1775751039892570400,6.2645703125,3.0056188632920384,-8.494577805873751,3.870243934777379
1775751039902584300,6.274584228515625,2.979276215289533,-8.510064128819108,3.8565687529072163
1775751039912598300,6.284598388671875,2.955030831827223,-8.527073715808987,3.8376007253259417
1775751039922612200,6.2946123046875,2.933781123049557,-8.545338855817914,3.8131975209534166
1775751039932626200,6.304626220703125,2.917654164113104,-8.563650757578015,3.7843840989232063
1775751039942640400,6.314640380859375,2.9077000485926865,-8.579611712297798,3.7557892880797383
1775751039952654300,6.324654296875,2.9040292511254546,-8.59129864296019,3.7318352887794375
1775751039962668300,6.334668212890625,2.9062095177739855,-8.59827374266982,3.714031044280529
1775751039972682200,6.34468212890625,2.9126980030104517,-8.601429576352238,3.701621352301538
1775751039982696200,6.3546962890625,2.921891655552387,-8.602590436825155,3.691667529042065
1775751039992710400,6.36471044921875,2.9315917963117357,-8.602665840148925,3.6837902197957035
1775751040002724000,6.37472412109375,2.9381203212976454,-8.6027693005234,3.678343937088549
1775751040012738300,6.38473828125,2.937273056818545,-8.604646200311183,3.6746263778701422
1775751040022752300,6.394752197265625,2.9280101384326813,-8.60916396999657,3.671435472874343
1775751040032766500,6.404766357421875,2.912331800046563,-8.616486860230564,3.666727149052918
1775751040042780200,6.4147802734375,2.893963491924107,-8.626035025298595,3.658806292925775
1775751040052794000,6.424794189453125,2.8757889528080818,-8.636075357797742,3.649445467123389
1775751040062808300,6.434808349609375,2.8581694172263146,-8.645483237612247,3.640998541295528
1775751040072822300,6.444822265625,2.840660064020753,-8.654066941562295,3.6343007972225543
1775751040082836200,6.454836181640625,2.820952616249025,-8.662458922332524,3.6296529714167116
1775751040092850200,6.46485009765625,2.7966853132158516,-8.672041574192047,3.625551673577726
1775751040102864400,6.474864501953125,2.767383230885863,-8.683605170735717,3.6203505978032946
1775751040112878300,6.48487841796875,2.7349688617542385,-8.696436595258117,3.614179507952928
1775751040122892300,6.494892333984375,2.702625219771266,-8.708975174313784,3.608317045660317
1775751040132906200,6.50490625,2.6731144631266592,-8.72009628778696,3.603436872403323
1775751040142920200,6.514920166015625,2.6498516609609126,-8.728176133868098,3.60105669926852
1775751040152934400,6.524934326171875,2.634403331938386,-8.732226870563625,3.602572364528477
1775751040162948400,6.5349482421875,2.6264275307536122,-8.731858037251234,3.6092803377345204
1775751040172962300,6.54496240234375,2.6249051434919237,-8.72701585791707,3.622076690943539
1775751040182976300,6.554976318359375,2.633634977914393,-8.71729876602292,3.639096799327433
1775751040192990200,6.564990234375,2.6570380653336643,-8.702059695836901,3.658511693893373
1775751040203004400,6.57500439453125,2.697792392787337,-8.68079946566522,3.679134795205295
1775751040213018000,6.58501806640625,2.7528856267169117,-8.654744402432442,3.699651221272349
1775751040223032300,6.5950322265625,2.815157081712782,-8.626067174002527,3.719713766092062
1775751040233046300,6.60504638671875,2.87887844325602,-8.596953892242908,3.738289287224412
1775751040243060200,6.615060302734375,2.9403505645677446,-8.568800979948044,3.755045776236057
1775751040253074200,6.62507421875,3.000262596955895,-8.540904672762752,3.7711779958695173
1775751040263088000,6.635088134765625,3.0607942225471136,-8.51237006767392,3.7870182468190787
1775751040273102300,6.645102294921875,3.12430427942723,-8.481651688805222,3.8040368938982483
1775751040283116300,6.6551162109375,3.1905949069365858,-8.446469316264986,3.827225461784005
1775751040293130200,6.665130126953125,3.257654472991824,-8.407479952657223,3.856470553229749
1775751040303144200,6.675144287109375,3.323005773824453,-8.367124561393261,3.888352715180814
1775751040313158400,6.685158447265625,3.38364349013865,-8.327863979628681,3.92020477425456
1775751040323172400,6.69517236328125,3.4394071706756946,-8.292119881552457,3.9473569850742813
1775751040333186000,6.70518603515625,3.490776415646076,-8.262133324089646,3.9651042386889457
1775751040343200300,6.7152001953125,3.535228720834851,-8.23788034184277,3.976159008927643
1775751040353214200,6.725214111328125,3.57013432226032,-8.218772905790805,3.9845086118608712
1775751040363228400,6.735228515625,3.5944656304404137,-8.20507580434978,3.9908527201905843
1775751040373242400,6.745242431640625,3.6095822432905433,-8.196056631591915,3.995739907710254
1775751040383256300,6.75525634765625,3.6164053673088548,-8.19009626188278,4.00178970926851
1775751040393270300,6.765270263671875,3.615541443955898,-8.185568555325268,4.011818059068918
1775751040403284000,6.775283935546875,3.6088019065678116,-8.181614264741539,4.025932801400125
1775751040413298200,6.785298095703125,3.6005966805413365,-8.177507413944602,4.041592142824828
1775751040423312100,6.79531201171875,3.5934225511282682,-8.172638346603513,4.057792166997492
1775751040433326000,6.805326171875,3.585896831798553,-8.167119290921091,4.07552334626019
1775751040443340000,6.815340087890625,3.572694528137147,-8.162507997733353,4.096306314308941
1775751040453353200,6.825353271484375,3.548623332197964,-8.161941596022247,4.118299242669344
1775751040463368200,6.8353681640625,3.511966503190994,-8.167726609164475,4.1382036743178965
1775751040473381000,6.845381103515625,3.4667587034597993,-8.179423476698995,4.153191107830405
1775751040483395000,6.85539501953125,3.419723396040499,-8.195803533613681,4.159884760250151
1775751040493409300,6.8654091796875,3.3765853883206844,-8.215185110431909,4.156894638523459
1775751040503423200,6.87542333984375,3.3377409861415623,-8.236130283305048,4.146805790707469
1775751040513437000,6.88543701171875,3.2994723380237816,-8.258558388212323,4.1328023997962475
1775751040523451100,6.895451171875,3.2611440686732527,-8.281310902768373,4.11767205068171
1775751040533465000,6.905465087890625,3.222424754178524,-8.30268862183988,4.1050826182216404
1775751040543479300,6.915479248046875,3.1817136813446876,-8.321074757879972,4.099610616551339
1775751040553493000,6.925492919921875,3.1382296366661784,-8.335334169378877,4.104155274243652
1775751040563507200,6.935507080078125,3.092560064642131,-8.346020398566127,4.117085482965409
1775751040573521200,6.945521240234375,3.0474191926673053,-8.354773613864182,4.132961097489297
1775751040583535000,6.95553515625,3.0054098967164755,-8.363684065550565,4.145681462852656
1775751040593549000,6.965549072265625,2.9665859528034924,-8.375137771978974,4.150518089228869
1775751040603563000,6.97556298828125,2.930411646616459,-8.39118406689465,4.143801055933535
1775751040613577200,6.9855771484375,2.8949250304326415,-8.411872050136328,4.126768380329013
1775751040623591200,6.995591064453125,2.857567944201827,-8.436351242354512,4.102765281189978
1775751040633605000,7.005605224609375,2.8179090107694265,-8.462536069446802,4.0761809333860874
1775751040643619000,7.015619140625,2.773042279560864,-8.488903267368674,4.052055376911163
1775751040653633000,7.025633056640625,2.7201252206265925,-8.515010353049636,4.033100793333351
1775751040663647200,7.035647216796875,2.658857097454369,-8.541426066288352,4.018074489115178
1775751040673661000,7.045660888671875,2.5930153827562927,-8.568221134233474,4.004031350715458
1775751040683675100,7.055675048828125,2.5332044726550578,-8.593321673220396,3.9884932975828646
1775751040693689000,7.065689208984375,2.48745219078362,-8.615361655592919,3.969700626568496
1775751040703703000,7.075703125,2.4588614715933796,-8.634739140757917,3.9453354161188003
1775751040713717000,7.085717041015625,2.4500761075913906,-8.6507170466125,3.9156870045691727
1775751040723731000,7.09573095703125,2.464180328528583,-8.66187264687717,3.882032279987633
1775751040733745200,7.1057451171875,2.4956448495894668,-8.668204772508144,3.8476445649564264
1775751040743759000,7.115759033203125,2.5388226047977804,-8.669733297249675,3.8158158867582674
1775751040753773300,7.125773193359375,2.587897016829252,-8.666965586102009,3.78904887586385
1775751040763787000,7.135787109375,2.638530641001463,-8.660942088028788,3.7678424217060207
1775751040773801200,7.14580126953125,2.685400236465037,-8.653409938958287,3.7519995404079554
1775751040783815200,7.155815185546875,2.7231018983498214,-8.647146202388406,3.7392464418187736
1775751040793829000,7.1658291015625,2.752202905149758,-8.644007319840789,3.725167063061893
1775751040803843000,7.175843017578125,2.771720091046393,-8.646866800925135,3.7040070783942936
1775751040813857000,7.18585693359375,2.77462545709908,-8.659724528932571,3.6716514537125824
1775751040823871200,7.195871337890625,2.7559932373434304,-8.683951207694411,3.6282042339131233
1775751040833885200,7.20588525390625,2.716599092327058,-8.717813729807734,3.5763407756850123
1775751040843899100,7.215899169921875,2.664118086722493,-8.755161755949258,3.5242037612125277
1775751040853913000,7.2259130859375,2.607589267031848,-8.788092550170422,3.4842969904989003
1775751040863927000,7.235927001953125,2.5508330683261153,-8.812651821887492,3.4642177868053317
1775751040873941200,7.245941162109375,2.4929437739372253,-8.829569054418801,3.4632851821303365
1775751040883955000,7.255954833984375,2.430473873759806,-8.841756920340657,3.4765655194640157
1775751040893969200,7.26596923828125,2.3633920958727597,-8.85200768072009,3.496674826034903
1775751040903983000,7.275983154296875,2.2957022690899667,-8.862464192804694,3.5152333960324524
1775751040913997000,7.2859970703125,2.2320424284756184,-8.87302650335133,3.5295544745907184
1775751040924011000,7.296010986328125,2.182698113461584,-8.880434733781218,3.5417665981709954
1775751040934025000,7.30602490234375,2.15625901934728,-8.88164469409287,3.5549034353807567
1775751040944039200,7.3160390625,2.1506166295461355,-8.876120962235332,3.5720781498044727
1775751040954053000,7.32605322265625,2.1538439210295675,-8.86498874284625,3.5976810853555796
1775751040964067000,7.336067138671875,2.1583611061930656,-8.848560755136608,3.635217327545583
1775751040974081000,7.3460810546875,2.1641087099343537,-8.828395334464311,3.68055196852684
1775751040984095000,7.356094970703125,2.1717688692986963,-8.807707351222634,3.7253316059738397
1775751040994109200,7.366109130859375,2.1791290228031572,-8.788574196207524,3.7660000087097285
1775751041004123100,7.376123046875,2.190602749106288,-8.769494817206263,3.803631235706806
1775751041014137000,7.38613720703125,2.212257239292562,-8.748686422455311,3.838855109301209
1775751041024151000,7.396151123046875,2.2493195803605017,-8.72486949353814,3.8713822911575435
1775751041034164200,7.406164306640625,2.299204431992024,-8.698004867488144,3.9024019910603758
1775751041044179200,7.41617919921875,2.3537241038173438,-8.669336406886577,3.933568113696575
1775751041054192000,7.426192138671875,2.403868190906942,-8.639518776249885,3.968693787613511
1775751041064206000,7.4362060546875,2.4451360208407045,-8.610901753574609,4.005501715528965
1775751041074220300,7.44622021484375,2.477327979393303,-8.584646783855558,4.041917429256439
1775751041084234000,7.45623388671875,2.498765027436614,-8.561883747905492,4.076846703818441
1775751041094248000,7.466248046875,2.5208804131329057,-8.541216222929954,4.106479917798936
1775751041104262100,7.47626220703125,2.5517268022954465,-8.520834529158472,4.12970151117146
1775751041114276000,7.486276123046875,2.588484169067442,-8.500586690899729,4.148514055930078
1775751041124290000,7.4962900390625,2.620004511968791,-8.48202636733651,4.166676904608309
1775751041134304000,7.506303955078125,2.6420547234743834,-8.465217271354794,4.186889379292726
1775751041144318200,7.516318115234375,2.655325123935938,-8.451303896814585,4.206556202793121
1775751041154332200,7.526332275390625,2.6587536370798945,-8.441050213825703,4.224935324570536
1775751041164345900,7.536345947265625,2.652237971575558,-8.434068099853397,4.242938014250994
1775751041174360000,7.546360107421875,2.6428561029851436,-8.427863984516263,4.261079527880251
1775751041184374000,7.5563740234375,2.638810042464733,-8.41973679216206,4.279614717002213
1775751041194388200,7.56638818359375,2.641452373667061,-8.40961053494513,4.297860860049724
1775751041204402200,7.576402099609375,2.6523396783843634,-8.396933424201608,4.3159012513920665
1775751041214416100,7.586416015625,2.6710195366740224,-8.382322130525111,4.3327480490356685
1775751041224430000,7.59643017578125,2.6985096011459824,-8.366410860165953,4.346448073086142
1775751041234444000,7.606444091796875,2.732833895552158,-8.349412379091978,4.357674400499463
1775751041244458200,7.616458251953125,2.7707842715010047,-8.333319906947017,4.364504246519505
1775751041254472000,7.626471923828125,2.808232835407555,-8.319674243432283,4.366604433669149
1775751041264486100,7.636486083984375,2.8362741040214896,-8.31020557334125,4.3665109101668
1775751041274500000,7.6465,2.8496628701657056,-8.307076627665758,4.363743491280078
1775751041284514300,7.656514404296875,2.8500933705374596,-8.310227785173058,4.3574607577487825
1775751041294528000,7.666528076171875,2.8399145063504574,-8.318628533771633,4.348067783242464
1775751041304542000,7.6765419921875,2.822753528191149,-8.329864213535188,4.337720869012177
1775751041314556200,7.68655615234375,2.803920817427337,-8.340686051800846,4.32912576688528
1775751041324570000,7.696570068359375,2.7897990608334537,-8.34966723063588,4.320932231296599
1775751041334584000,7.706583984375,2.782286785507202,-8.356391570454836,4.3127679218024015
1775751041344598000,7.716597900390625,2.7813290463909506,-8.359632159811257,4.307107119561731
1775751041354612200,7.7266123046875,2.77824306307435,-8.359768937933444,4.308831751397252
1775751041364626200,7.736626220703125,2.7694185361057517,-8.356838145178555,4.320179951624572
1775751041374639900,7.746639892578125,2.758364350388944,-8.351780861788988,4.336998984478414
1775751041384654000,7.756654052734375,2.749080389215052,-8.347815465289354,4.35050903891474
1775751041394668000,7.76666796875,2.741687648615241,-8.347818387898803,4.355165632548928
1775751041404682500,7.7766826171875,2.7332421840921044,-8.3521485260576,4.3521696656033395
1775751041414696400,7.786696533203125,2.7224869813218713,-8.36059778997302,4.342683167594671
1775751041424710400,7.79671044921875,2.711068053945899,-8.370562719148397,4.33060840665847
1775751041434724600,7.806724609375,2.697481134881079,-8.377973287665844,4.324759972891211
1775751041444738600,7.816738525390625,2.681625101840496,-8.381737024113535,4.327328946596384
1775751041454752500,7.82675244140625,2.6645348508298397,-8.381358253929019,4.338602620282769
1775751041464766500,7.836766357421875,2.6475503982812163,-8.377349018287658,4.356707893554866
1775751041474780700,7.84678076171875,2.630550163641572,-8.372653553947806,4.3759877635642885
1775751041484794600,7.856794677734375,2.612327401469648,-8.369225333064794,4.393427850925922
1775751041494808300,7.866808349609375,2.5915634303823114,-8.36667798666954,4.410546743509173
1775751041504821500,7.876821533203125,2.5675723139420152,-8.363289513275026,4.43095474076569
1775751041514835700,7.886835693359375,2.5408476808845997,-8.357417990893126,4.457363147480786
1775751041524849400,7.896849365234375,2.512873047766089,-8.347009409603476,4.492584975248575
1775751041534863400,7.90686328125,2.4873259340554474,-8.33016231969893,4.53783924447
1775751041544877600,7.916877685546875,2.4651859984397886,-8.307097670453786,4.5918791699543595
1775751041554891500,7.9268916015625,2.44420283164382,-8.27984375282526,4.651925934638083
1775751041564905500,7.936905517578125,2.4210724236860868,-8.25283884152174,4.711626077841222
1775751041574919400,7.94691943359375,2.391862988075614,-8.22967365451157,4.766746199777722
1775751041584933600,7.95693359375,2.355972467266023,-8.214486022251844,4.810611937250196
1775751041594947600,7.966947509765625,2.3152678241729734,-8.208180200105906,4.841043608132004
1775751041604961300,7.976961181640625,2.276473544745892,-8.207599185347556,4.860387775549293
1775751041614975500,7.9869755859375,2.2425562237054106,-8.21220171070695,4.86837468264997
1775751041624989400,7.996989501953125,2.2132399667195974,-8.21967833019793,4.869173431812227
1775751041635003600,8.007003662109375,2.18486844323799,-8.229159859770537,4.865970251856744
1775751041645017600,8.017017578125,2.153118090973049,-8.241228483226894,4.859693363544345
1775751041655031600,8.027031494140624,2.117276231610775,-8.256302133718133,4.849845338746905
1775751041665045500,8.03704541015625,2.082929871503264,-8.273018290719389,4.836211073409021
1775751041675059500,8.0470595703125,2.0560767897605894,-8.289424066597222,4.819584640517831
1775751041685073700,8.05707373046875,2.0368680852912364,-8.304469075515867,4.801809622113407
1775751041695087400,8.06708740234375,2.024318984841555,-8.319134729728102,4.781683948929608
1775751041705101600,8.0771015625,2.0192387589678167,-8.33497118128538,4.756186519579589
1775751041715115500,8.087115478515624,2.0209417634934184,-8.352507422497869,4.724593988224863
1775751041725129700,8.097129638671875,2.027638338522613,-8.369410626503825,4.691698265317082
1775751041735143400,8.107143310546874,2.0354870061963797,-8.385355799132585,4.659719072732329
1775751041745157400,8.117157470703125,2.044007581782341,-8.399281448632479,4.630822648593783
1775751041755171600,8.127171630859374,2.054452549559623,-8.410005671742558,4.606669619590043
1775751041765185500,8.137185546875,2.0681195481233297,-8.417808454447984,4.586256653897464
1775751041775199500,8.147199462890624,2.084384892617166,-8.424262745153904,4.567004840938747
1775751041785213400,8.15721337890625,2.1008448829002675,-8.43137462298572,4.5462905542120335
1775751041795227600,8.1672275390625,2.1158215027578176,-8.439988137552142,4.523306861248612
1775751041805241600,8.17724169921875,2.1316389573536814,-8.448203592711687,4.500484204065799
1775751041815255300,8.18725537109375,2.1479767825618383,-8.454885262432693,4.480119169168174
1775751041825269500,8.19726953125,2.1654905196815726,-8.459112524738908,4.463685043978691
1775751041835283500,8.207283447265626,2.1842235694631933,-8.46103092558086,4.4509012579903
1775751041845297700,8.217297607421875,2.2028619266986844,-8.461487437176704,4.440833452962338
1775751041855311600,8.2273115234375,2.219321186329424,-8.459970602872968,4.435525994203984
1775751041865325600,8.23732568359375,2.231216499045491,-8.456852763113378,4.435505535937845
1775751041875339500,8.247339599609376,2.2385209768399594,-8.452751173013448,4.439642197351158
1775751041885352700,8.257352783203125,2.243767937582731,-8.448370181450247,4.44532667272836
1775751041895366400,8.267366455078125,2.2476672831088305,-8.445113810002804,4.449539614248276
1775751041905380600,8.277380615234375,2.2489790963597596,-8.444785893222688,4.449497820933163
1775751041915394600,8.28739453125,2.2487105085514485,-8.447538991323112,4.444408096578717
1775751041925408500,8.297408447265624,2.2489316039562226,-8.451912968623638,4.43597227666676
1775751041935422500,8.30742236328125,2.251977109131962,-8.455169340071082,4.4282147944077845
1775751041945436400,8.3174365234375,2.257949315409362,-8.455687810987234,4.424182470151782
1775751041955450600,8.32745068359375,2.267387736492604,-8.452906071314215,4.424671714973449
1775751041965464600,8.337464599609374,2.2795136430941523,-8.44758224594295,4.4286070085957645
1775751041975478500,8.347478515625,2.294230150710791,-8.441637658324836,4.432340934427082
1775751041985492500,8.357492431640624,2.309668542861193,-8.436998892608285,4.4331601418554785
1775751041995506400,8.36750634765625,2.3224128736220297,-8.435210840147732,4.42990230910331
1775751042005520600,8.377520751953124,2.33062803652063,-8.436515493005514,4.42309555169791
1775751042015534300,8.387534423828125,2.3330901888504623,-8.441084116095304,4.41306953998506
1775751042025548500,8.397548583984374,2.330913283202797,-8.448245678287744,4.4004993967473505
1775751042035562500,8.4075625,2.3274450225703416,-8.456654025670886,4.3861625360980625
1775751042045576400,8.417576416015624,2.323091211275011,-8.466260642927885,4.369906690084934
1775751042055590700,8.427590576171875,2.319202971664816,-8.476230248278378,4.352610979630053
1775751042065604400,8.437604248046876,2.318419712332636,-8.484327630016207,4.337224609927833
1775751042075618600,8.44761865234375,2.321666731429845,-8.489846101176738,4.324670248781144
1775751042085632500,8.457632568359376,2.3294152997300026,-8.492401046356559,4.315480395631492
1775751042095646700,8.467646728515625,2.3407512249976397,-8.491152507600187,4.31180112259686
1775751042105660400,8.477660400390626,2.3538054984904826,-8.485773737171291,4.315279612362384
1775751042115674400,8.48767431640625,2.368641248572618,-8.476011052569746,4.326335551644862
1775751042125688600,8.4976884765625,2.384726121933013,-8.461899525108933,4.345081753169
1775751042135702500,8.50770263671875,2.4012150460496544,-8.44373842999637,4.371253136257827
1775751042145716500,8.517716552734376,2.4190055542841553,-8.422170156788825,4.402935391722619
1775751042155730400,8.52773046875,2.4383958989307284,-8.398281916201114,4.437735486947
1775751042165744600,8.53774462890625,2.4569392713591456,-8.373070318055152,4.474990574108064
1775751042175758600,8.547758544921875,2.4728350518882274,-8.346506720778345,4.515675927978754
1775751042185772500,8.5577724609375,2.4878999345511197,-8.318302955079078,4.55923099206686
1775751042195786500,8.567786376953125,2.504278530161083,-8.288256776383518,4.604759694315493
1775751042205800400,8.577800537109376,2.5205524963527917,-8.256635311195254,4.652437099030614
1775751042215814700,8.587814697265625,2.53496300676018,-8.224262150856852,4.701691543804109
1775751042225827300,8.597827392578125,2.5471079103231427,-8.191254784268141,4.75247246749252
1775751042235841500,8.607841552734374,2.5576775273934005,-8.157435516774655,4.804675825199484
1775751042245855500,8.61785546875,2.568786073645949,-8.123159153163433,4.856543082819878
1775751042255869700,8.62786962890625,2.5835838298052547,-8.0896882607162,4.904328039562702
1775751042265883400,8.63788330078125,2.604596514956653,-8.059275586795806,4.943130356165766
1775751042275897600,8.647897705078124,2.6332383798122403,-8.034497703891992,4.968225049933791
1775751042285911600,8.65791162109375,2.667467981672287,-8.014966489470005,4.981497788482904
1775751042295925500,8.667925537109374,2.7050579998761415,-7.9982181837648145,4.988136788105964
1775751042305939500,8.677939453125,2.744353945215046,-7.9805632846087216,4.994945299077034
1775751042315953400,8.687953369140626,2.7828607860028742,-7.958912009292841,5.0081689377874135
1775751042325967600,8.697967529296875,2.8177289780274033,-7.932825966399908,5.030017196980118
1775751042335981600,8.707981689453124,2.8472183996230362,-7.903319301408529,5.059768192121386
1775751042345995500,8.71799560546875,2.872844131527841,-7.872396924400329,5.093378200778365
1775751042356009500,8.728009521484376,2.8968966227665542,-7.8433046854287385,5.124545492458343
1775751042366023400,8.7380234375,2.920482081015408,-7.819442748326063,5.147571563258767
1775751042376037600,8.74803759765625,2.9441859049469232,-7.8042288125813,5.157146031811833
1775751042386051300,8.75805126953125,2.968540009480715,-7.80038733472228,5.148990197885036
1775751042396065500,8.7680654296875,2.993023293352127,-7.808155046114325,5.122975466662645
1775751042406079500,8.77807958984375,3.0164091373756525,-7.823603959658741,5.085552621719241
1775751042416093700,8.78809375,3.03662102753818,-7.839295449787378,5.049231016016006
1775751042426107600,8.798107666015625,3.053303282269835,-7.849456778317689,5.023321498733758
1775751042436121600,8.80812158203125,3.067382953287661,-7.852204031199216,5.0104357136756175
1775751042446135600,8.818135498046875,3.0799998582765458,-7.847869801387191,5.009484696561098
1775751042456149500,8.8281494140625,3.0911174646183848,-7.8386185734391205,5.017112707221508
1775751042466163700,8.838163818359375,3.100723205092549,-7.827812517264485,5.028045020124316
1775751042476177700,8.848177734375,3.1098160276085136,-7.819273236978054,5.035714531838893
1775751042486191900,8.85819189453125,3.1201483287915583,-7.816592619591951,5.033480489176512
1775751042496205600,8.86820556640625,3.1316119720920916,-7.8229884581089015,5.016396083384752
1775751042506219500,8.878219482421875,3.1434120077401397,-7.840608285951614,4.981382637670636
1775751042516233700,8.888233642578125,3.151486885385215,-7.866872608020901,4.93465771137476
1775751042526247700,8.89824755859375,3.156323804022372,-7.890737467733025,4.893288466893136
1775751042536261600,8.90826171875,3.1581983657225963,-7.9044164489954705,4.869949384620785
1775751042546274600,8.918274658203124,3.1566578582823275,-7.906442986387014,4.86765542846471
1775751042556288800,8.928288818359375,3.150334792740643,-7.899259796884656,4.883389004169405
1775751042566302500,8.938302490234374,3.1392966813758014,-7.886057200962305,4.91175497469306
1775751042576316700,8.948316650390625,3.126438368846476,-7.869294282209872,4.946715228915214
1775751042586330600,8.95833056640625,3.1127649405419824,-7.852264236953854,4.982274033552408
1775751042596344800,8.9683447265625,3.0989915589943524,-7.838915510559081,5.011787128284573
1775751042606358500,8.978358642578126,3.0885981752738356,-7.834130029848217,5.025670692208409
1775751042616372500,8.98837255859375,3.0839114787623285,-7.840321285703777,5.0188873156785965
1775751042626386700,8.99838671875,3.083884006233513,-7.855619977122545,4.994923087245225
1775751042636400600,9.008400634765625,3.0893089538916945,-7.8736045466244216,4.963155491584539
1775751042646414800,9.018414794921876,3.0989266770645973,-7.888466015669703,4.933474054548144
1775751042656428500,9.028428466796875,3.1092657002493738,-7.899373778653144,4.9094531274914734
1775751042666442800,9.03844287109375,3.1197882633075116,-7.907652946698665,4.889410164155065
1775751042676456700,9.048456787109375,3.132559482075274,-7.911833447253704,4.874455171607434
1775751042686470700,9.058470703125,3.1528488213881847,-7.910568541884422,4.863417644764483
1775751042696484600,9.068484619140625,3.1819571347117424,-7.902210463383794,4.858044135032594
1775751042706498600,9.07849853515625,3.216308609385788,-7.88994427152872,4.85535738016665
1775751042716512800,9.0885126953125,3.242892664928734,-7.882793815252184,4.849286535820364
1775751042726526700,9.098526611328126,3.250797154442966,-7.887170130640268,4.836866030186415
1775751042736540700,9.108540771484375,3.2361256550118327,-7.903601625481247,4.819851474760473
1775751042746554600,9.1185546875,3.2004163359880446,-7.928609810009598,4.802593758228421
1775751042756568600,9.128568603515625,3.144200527769327,-7.9533631429940455,4.798790566553175
1775751042766582800,9.138582763671875,3.0727292827516792,-7.96620450438857,4.823720425148308
1775751042776596500,9.148596435546875,2.9971105626657604,-7.9660513596534726,4.871320088452101
1775751042786610700,9.158610595703125,2.9271736876085397,-7.961037330883741,4.921780694144964
1775751042796624600,9.168624755859375,2.870924853903055,-7.958308782702684,4.959186003431678
1775751042806638600,9.178638671875,2.8293998343378304,-7.962556503275036,4.976199097552895
1775751042816652500,9.188652587890624,2.7940722081080076,-7.977505650603771,4.97221791896224
1775751042826665700,9.198665771484375,2.761260656352341,-8.000423584854602,4.953688575059175
1775751042836679700,9.2086796875,2.7347137179493903,-8.02215669323504,4.933227970832586
1775751042846693600,9.218693603515625,2.7183810073077677,-8.037141496399045,4.917836340433359
1775751042856707600,9.22870751953125,2.7125065623164177,-8.045121389237046,4.90802514051497
1775751042866721500,9.238721435546875,2.7161639157801867,-8.047733617562056,4.901717564803362
1775751042876735700,9.24873583984375,2.729183264090121,-8.047761090090871,4.894432960753143
1775751042886749700,9.258749755859375,2.7557559214562177,-8.04897455753386,4.877519819875062
1775751042896763600,9.268763671875,2.797902287790179,-8.052959243255852,4.846847910496592
1775751042906777600,9.278777587890625,2.8521377358466387,-8.058179023730755,4.806396073120832
1775751042916791600,9.28879150390625,2.9054359030529855,-8.063140445530415,4.765980476102233
1775751042926805800,9.2988056640625,2.9493308666199445,-8.066888399887084,4.732561313842237
1775751042936819500,9.3088193359375,2.9814401153251526,-8.070393777659534,4.706391976580023
1775751042946833700,9.318833740234375,3.0004256785631176,-8.073243321871757,4.689412200206518
1775751042956847600,9.32884765625,3.021479280246794,-8.071280497366189,4.679264607940614
1775751042966861800,9.33886181640625,3.0501828121617436,-8.064047038981318,4.673106377571821
1775751042976875500,9.34887548828125,3.0849498818993566,-8.054433991983533,4.666856085005402
1775751042986889700,9.3588896484375,3.1214839613094925,-8.048539673247934,4.65271387014538
1775751042996903700,9.368903564453126,3.150681414221227,-8.048968127793072,4.6322468361780045
1775751043006917600,9.378917724609375,3.1703596358984707,-8.051682062926888,4.614071420279145
1775751043016931600,9.388931640625,3.179465317896008,-8.054288446033,4.603244613577425
1775751043026945500,9.398945556640625,3.1755951984643933,-8.055685453349351,4.603470823548734
1775751043036959700,9.408959716796875,3.1616523055687544,-8.05523887862563,4.613834981174767
1775751043046973700,9.4189736328125,3.1397534852325912,-8.056185804086923,4.627117072074115
1775751043056987600,9.428987548828125,3.1114129414111376,-8.061628871923684,4.63676811299473
1775751043067001600,9.439001708984375,3.0792759279161688,-8.071699015039204,4.640700191746652
1775751043077015600,9.449015625,3.0485972965359687,-8.083948840281368,4.639638115473091
1775751043087029800,9.45902978515625,3.0343767557427284,-8.093096607854962,4.633000577154755
1775751043097042700,9.469042724609375,3.0449218228936195,-8.095559783098102,4.621768989044428
1775751043107056600,9.479056640625,3.0733555979564784,-8.092160203787683,4.608884080769122
1775751043117070600,9.489070556640625,3.111161304737627,-8.08474437457323,4.596516182105243
1775751043127084800,9.499084716796874,3.1477567589461803,-8.074195508030057,4.590139340549707
1775751043137098500,9.509098388671875,3.1761341276466846,-8.060695390465854,4.594315164929628
1775751043147112700,9.51911279296875,3.193100460016727,-8.046229058218001,4.607892439383268
1775751043157126700,9.529126708984375,3.2000022022292014,-8.032658798027038,4.626745608413219
1775751043167140600,9.539140625,3.2020804698079823,-8.023380682072043,4.6413823287919165
1775751043177154600,9.549154541015625,3.1988276054918763,-8.023711521461605,4.6430505542650815
1775751043187168500,9.55916845703125,3.1908231627345085,-8.036027982199192,4.627231346103549
1775751043197182700,9.5691826171875,3.182759975527227,-8.05714091285467,4.595964101180434
1775751043207196700,9.57919677734375,3.175791890080273,-8.081509630435704,4.557839245447516
1775751043217210600,9.589210693359375,3.1723607465878128,-8.10412244426012,4.5199236485511065
1775751043227224600,9.599224609375,3.1708313450634478,-8.12198718677461,4.488824745932221
1775751043237238500,9.609238525390625,3.1692969751030207,-8.133624433076381,4.468795518860221
1775751043247252700,9.619252685546876,3.166007870429754,-8.139153425630926,4.4610526496484875
1775751043257266400,9.629266357421875,3.1558538484230634,-8.141837550148367,4.463344267717003
1775751043267280600,9.63928076171875,3.1392744695439934,-8.144336965748668,4.470470758596062
1775751043277294600,9.649294677734375,3.11903569137454,-8.147721347489952,4.478460880567133
1775751043287308800,9.659308837890626,3.097245592109859,-8.154052304077148,4.482060074102878
1775751043297322800,9.66932275390625,3.0757115134328603,-8.164391327261924,4.478068958640098
1775751043307336400,9.67933642578125,3.0564561933428047,-8.176183471864462,4.46972958483994
1775751043317350700,9.6893505859375,3.0374808592379092,-8.188641386899352,4.459847073251009
1775751043327364600,9.699364501953125,3.0179166193291542,-8.203411086007952,4.445962632544338
1775751043337378800,9.70937890625,2.9969308221846815,-8.219031264466047,4.431289671808481
1775751043347392500,9.719392578125,2.974410070557892,-8.233705686506628,4.4192046817392105
1775751043357405700,9.72940576171875,2.952357228703797,-8.246025654375552,4.4110134842380875
1775751043367419600,9.739419677734375,2.932392006778717,-8.25511438523829,4.407327781462669
1775751043377433600,9.74943359375,2.9183623123824596,-8.260544593593478,4.406469703328609
1775751043387447600,9.759447509765625,2.9143782111823557,-8.260775479739904,4.408673935374617
1775751043397461800,9.769461669921874,2.921467292660475,-8.255279804933071,4.414268394380808
1775751043407475000,9.779474853515625,2.937411003984511,-8.245873678684234,4.421268336270749
1775751043417489200,9.7894892578125,2.958699291206896,-8.234070428165793,4.4290597207993265
1775751043427503000,9.799503173828125,2.9779587029501795,-8.222015833234787,4.438537158718705
1775751043437517000,9.80951708984375,2.9909067395895717,-8.211632386386395,4.4490398480325934
1775751043447531000,9.819531005859375,2.9927494448468086,-8.206022145289182,4.458140561594068
1775751043457545000,9.829544921875,2.9826000990152357,-8.207142089229821,4.462880741858482
1775751043467559200,9.83955908203125,2.9640961818143725,-8.215094509539007,4.460574803003668
1775751043477573000,9.849572998046876,2.9408877401843667,-8.227969188681245,4.4522024037167425
1775751043487587300,9.85958740234375,2.9128385805249213,-8.244702296817302,4.439668208575249
1775751043497601000,9.86960107421875,2.8797303839102386,-8.262400450593233,4.428352741573751
1775751043507615000,9.879614990234375,2.8449758813932537,-8.276621868169308,4.424255827648937
1775751043517629200,9.889629150390626,2.8094647152900696,-8.287627830830216,4.42634870827496
1775751043527643100,9.89964306640625,2.774591554829478,-8.29703746421039,4.430714210008085
1775751043537657000,9.909656982421875,2.7441315346360207,-8.30421890014708,4.436227712732554
1775751043547671000,9.919671142578125,2.7210338599041104,-8.307115790632366,4.445019214214384
1775751043557685200,9.929685302734375,2.7073741678640246,-8.305520630395412,4.456327959214151
1775751043567699200,9.93969921875,2.701077113546431,-8.301962645652889,4.466766935642063
1775751043577713000,9.949712890625,2.698414031817019,-8.299006718456745,4.473863031382859
1775751043587727000,9.95972705078125,2.69639801581949,-8.298487078496814,4.47604154446572
1775751043597740300,9.969740234375,2.693764744706452,-8.300799447092414,4.473340176552534
1775751043607754000,9.97975390625,2.690923383800685,-8.303332180440425,4.470347716738283
1775751043617768000,9.989767822265625,2.686067175941169,-8.303606905728579,4.472759161794185
1775751043627782100,9.9997822265625,2.6789798480287192,-8.300646886879205,4.482488820908963
1775751043637796000,10.009796142578125,2.671762171734869,-8.294956566283107,4.497305574029684
1775751043647810000,10.01981005859375,2.665966637198627,-8.28838303311169,4.512836320638656
1775751043657824000,10.029823974609375,2.6609780351310968,-8.283564819175005,4.524615898020565
1775751043667838200,10.039838134765626,2.656525147375464,-8.281541204392909,4.530933410604298
1775751043677852200,10.04985205078125,2.6528657480850812,-8.282506250032782,4.531311596266925
1775751043687866000,10.0598662109375,2.652152339118719,-8.286621868658065,4.524198257130384
1775751043697880000,10.069880126953125,2.655635797320306,-8.293247424277663,4.509988529992103
1775751043707894000,10.07989404296875,2.6638839857056738,-8.299553246423601,4.493496537135541
1775751043717908200,10.089908203125,2.6761311805993317,-8.30308142054975,4.479682531316578
1775751043727922200,10.099922119140626,2.6913369330376384,-8.302680438533425,4.471309547507762
1775751043737936100,10.10993603515625,2.706776201970875,-8.298729655081033,4.469324511170387
1775751043747950000,10.1199501953125,2.72095056553483,-8.292727199795841,4.47185549095273
1775751043757964000,10.129964111328125,2.734653219933808,-8.286323177972436,4.475365837161243
1775751043767978200,10.139978271484376,2.7500433890283107,-8.28029325015843,4.477094560649991
1775751043777992000,10.149991943359375,2.7687536424562333,-8.275555115720628,4.474323634631932
1775751043788006100,10.160006103515625,2.789249317996204,-8.273232810252905,4.465879046891629
1775751043798020000,10.17002001953125,2.8074732492119074,-8.273215859118103,4.454477070650458
1775751043808034300,10.180034423828126,2.8220050479114054,-8.274101994302868,4.443635943162441
1775751043818048000,10.190048095703125,2.8329706785619257,-8.274518173888325,4.4358807989910245
1775751043828062000,10.20006201171875,2.8403230871513485,-8.272578730258346,4.434795341841876
1775751043838075100,10.2100751953125,2.844114296127856,-8.267069611448049,4.442632319077849
1775751043848089000,10.220089111328125,2.844438121254742,-8.259287287008762,4.456875948485732
1775751043858103000,10.23010302734375,2.841788191267848,-8.25261555415988,4.4709012589678165
1775751043868117000,10.240116943359375,2.8380060423806306,-8.248505196231603,4.480876417276263
1775751043878131200,10.250131103515624,2.8346146463766693,-8.246286351138354,4.4871062515765425
1775751043888145200,10.260145263671875,2.8327234258025884,-8.244981113758683,4.490697261805832
1775751043898159000,10.2701591796875,2.832127505736053,-8.244045878735184,4.492792480519413
1775751043908173000,10.280173095703125,2.8339766407340763,-8.24336432621181,4.492874605844914
1775751043918187300,10.290187255859376,2.8394562411889432,-8.242869236171245,4.490322291013598
1775751043928201200,10.300201171875,2.847963080510497,-8.241904190531372,4.486705854082107
1775751043938215000,10.31021484375,2.857754406684637,-8.239629231336712,4.48465856616348
1775751043948229000,10.32022900390625,2.8673297520205376,-8.235683124059438,4.485790785063803
1775751043958243000,10.3302431640625,2.8753751113101838,-8.23118464359641,4.4888986879512665
1775751043968257300,10.34025732421875,2.881402701036632,-8.227560607880353,4.491675459188222
1775751043978271000,10.35027099609375,2.8861738609611987,-8.225746836456656,4.4919338178634645
1775751043988285200,10.36028515625,2.890409891095757,-8.226459953162074,4.48790383169502
1775751043998299100,10.370299072265626,2.8936624631509185,-8.229462642109393,4.4802959870398045
1775751044008313000,10.38031298828125,2.896091736124456,-8.233421608868241,4.471441649454832
1775751044018327000,10.3903271484375,2.8979128140717743,-8.236604330557585,4.46439523807466
1775751044028341000,10.400341064453125,2.900292987206578,-8.23724905820191,4.461661429196596
1775751044038355200,10.410355224609376,2.902432337322831,-8.234255137082934,4.465791953130066
1775751044048369200,10.420369140625,2.904938767185807,-8.22712046289742,4.477295636180043
1775751044058383000,10.430383056640625,2.9093732425019145,-8.216148987028003,4.494531433141232
1775751044068396000,10.44039599609375,2.9174200630962845,-8.202179498386382,4.514782778531313
1775751044078410200,10.45041015625,2.9284131662756203,-8.18618405687511,4.536646527554095
1775751044088424200,10.460424072265624,2.94051744556725,-8.168309962010383,4.560974036341905
1775751044098438100,10.470438232421875,2.950035215497017,-8.148870517525076,4.5895074723869556
1775751044108452000,10.4804521484375,2.9564868758544325,-8.128161491495371,4.6219688955307
1775751044118466000,10.490466064453125,2.9601629340186713,-8.10734666700363,4.65604359908998
1775751044128480300,10.500480224609374,2.9605487184658643,-8.088273717743158,4.688854566323757
1775751044138494000,10.510493896484375,2.9579803292825817,-8.071513721600175,4.719261395025253
1775751044148508200,10.520508056640624,2.953238395452499,-8.055702404484153,4.749150629593432
1775751044158522000,10.530522216796875,2.9467572167396545,-8.038609230864047,4.782026186496019
1775751044168536000,10.5405361328125,2.9424785165071485,-8.016907686665654,4.820932255734503
1775751044178550000,10.550550048828125,2.942789189891517,-7.988889214405417,4.867034081695974
1775751044188564000,10.56056396484375,2.95366626547575,-7.954359168294071,4.916747376152872
1775751044198578200,10.570578125,2.975102436736226,-7.914958301275968,4.967149529656767
1775751044208592100,10.580592041015626,3.005730799233913,-7.872560006007552,5.015847801852226
1775751044218606000,10.590606201171875,3.042466246435046,-7.829861851009726,5.06033868548572
1775751044228620000,10.6006201171875,3.081626582695544,-7.788840104791522,5.099794497561454
1775751044238634000,10.610634033203125,3.121982558481395,-7.750380902537703,5.133731838476658
1775751044248648200,10.620648193359376,3.1630434676662085,-7.715313680809736,5.1613440680235625
1775751044258662000,10.630661865234375,3.202195912881195,-7.685632243773341,5.181445775809884
1775751044268676000,10.640676025390626,3.235878986774385,-7.662907201746106,5.194162049520015
1775751044278690000,10.65068994140625,3.2589117795765397,-7.644873532405495,5.206320689347386
1775751044288703200,10.660703125,3.2679277374640106,-7.6265920257836575,5.227441803309321
1775751044298717000,10.670717041015624,3.2632556539997455,-7.605159361654519,5.261470329639315
1775751044308731100,10.680731201171875,3.2496248957931995,-7.579808647298813,5.3063031585782765
1775751044318745000,10.6907451171875,3.231477536945045,-7.552593308115005,5.3559565395414825
1775751044328759300,10.70075927734375,3.2123940662905572,-7.5268293367832895,5.4034921976983545
1775751044338773000,10.71077294921875,3.1975635769054294,-7.5046946618646375,5.442932227683067
1775751044348787000,10.720786865234375,3.1897800834223626,-7.487564663365482,5.471023180657625
1775751044358801200,10.73080126953125,3.191422297671437,-7.474042333969473,5.488526688644289
1775751044368815000,10.740815185546875,3.1994054053798315,-7.461693140006065,5.50066720829308
1775751044378829000,10.7508291015625,3.2083482980310913,-7.448750656324624,5.512985422596335
1775751044388843000,10.760843017578125,3.2177699141100047,-7.43499510269463,5.526044810655713
1775751044398857200,10.770857177734374,3.2260975974723696,-7.421581494370103,5.539205905523896
1775751044408871200,10.78087109375,3.2303926643177867,-7.410114343938231,5.552042590743303
1775751044418885000,10.790885009765624,3.2285145954862235,-7.402424373957515,5.563381730881333
1775751044428899300,10.8008994140625,3.221650262674689,-7.399567230960726,5.5711552874922745
1775751044438913000,10.8109130859375,3.213120042477548,-7.4019088256508105,5.572970812481642
1775751044448927200,10.82092724609375,3.204177734348178,-7.410013221651315,5.567346542859077
1775751044458941200,10.830941162109376,3.1956197493612764,-7.423354349261522,5.5544771244138476
1775751044468955400,10.840955322265625,3.1883386524423956,-7.440921570134162,5.535121851080656
1775751044478969300,10.85096923828125,3.1811960872113705,-7.460832139262557,5.512386287659407
1775751044488982300,10.860982177734375,3.17311185721606,-7.478770531535148,5.492698421370982
1775751044498996200,10.870996337890626,3.1607159015014767,-7.490286197283863,5.484149204212427
1775751044509010400,10.881010498046875,3.142999043025076,-7.492970321801304,5.490661362585425
1775751044519024000,10.891024169921875,3.12179638825953,-7.485681918358802,5.512653414162993
1775751044529038000,10.9010380859375,3.098990974472463,-7.472275324296951,5.5436237219661475
1775751044539052300,10.91105224609375,3.0786443520143627,-7.457497441881895,5.574771724423766
1775751044549066200,10.921066162109375,3.065347355806827,-7.444631530568003,5.599243317857384
1775751044559080200,10.931080078125,3.0589757749482986,-7.437449510109424,5.612254775121808
1775751044569094100,10.94109423828125,3.0566131374701855,-7.438678759643435,5.61191399886012
1775751044579108400,10.9511083984375,3.0527856881365176,-7.448504572609067,5.600953628906607
1775751044589122300,10.961122314453124,3.0427175908476114,-7.465279766321181,5.584072052210569
1775751044599136000,10.971135986328125,3.0263156143620606,-7.484584186249971,5.56711741027832
1775751044609150200,10.981150146484374,3.006320289559662,-7.503038126829266,5.553095314666629
1775751044619164200,10.9911640625,2.985628799186647,-7.518973947107791,5.542691409552097
1775751044629178400,11.001178466796874,2.967437308935821,-7.529751361709833,5.537827602908015
1775751044639192000,11.011192138671875,2.9540438666164874,-7.533591086003184,5.539766462016106
1775751044649206300,11.021206298828124,2.947702388635278,-7.5322069381684065,5.545022482848167
1775751044659220200,11.03122021484375,2.9494816732674836,-7.529045843788981,5.548368870666623
1775751044669234200,11.041234130859374,2.9580376124277707,-7.526469271299242,5.547309132480621
1775751044679248400,11.051248291015625,2.972051524733007,-7.527340793436765,5.538628982418775
1775751044689261300,11.06126123046875,2.986049362686276,-7.5326909222930665,5.52381135251522
1775751044699275300,11.071275146484375,2.992799129207432,-7.539200742578506,5.5112634211093185
1775751044709289200,11.081289306640626,2.9879958205789325,-7.542514981693029,5.509330407220125
1775751044719303200,11.09130322265625,2.9748306340575215,-7.539743763414025,5.520241092813015
1775751044729317000,11.101317138671876,2.9614380685210224,-7.530643342113494,5.539827252292633
1775751044739331300,11.111331298828125,2.9519448485106228,-7.518407545396685,5.5614709288239474
1775751044749345300,11.12134521484375,2.946584198260307,-7.506539412948489,5.580312407416105
1775751044759359200,11.131359130859375,2.946536267465353,-7.496329569101333,5.594046918258071
1775751044769373200,11.141373291015626,2.9533649444416166,-7.486762114810944,5.603252553498745
1775751044779387100,11.15138720703125,2.9628517347112298,-7.479277896535396,5.6082385252177716
1775751044789401300,11.1614013671875,2.9633056159585713,-7.476837517645954,5.611249981993437
1775751044799415000,11.1714150390625,2.948800413005054,-7.482230901122093,5.611699479326606
1775751044809429200,11.18142919921875,2.922112020304799,-7.4944982620209455,5.609288326531648
1775751044819443200,11.191443115234375,2.888301520639658,-7.508575887212157,5.6079737368017435
1775751044829457400,11.20145751953125,2.855305552227795,-7.521108621048927,5.608081873351336
1775751044839471400,11.211471435546875,2.8296812816277144,-7.532077758830785,5.606344674295187
1775751044849485000,11.221485107421875,2.812079866224527,-7.543249141186475,5.600175630271434
1775751044859499300,11.231499267578124,2.7983155447661874,-7.556572148618102,5.589100694027543
1775751044869513200,11.24151318359375,2.7848782633051274,-7.572706121817231,5.573953978300095
1775751044879527400,11.25152734375,2.7723510824263093,-7.590702966278791,5.555688838291168
1775751044889540000,11.2615400390625,2.7653262983560563,-7.607815429121255,5.535749627590179
1775751044899554300,11.27155419921875,2.7705525085717437,-7.620939699110388,5.5150417706042525
1775751044909568300,11.281568359375,2.7893051398366686,-7.626947415092587,5.497258276632428
1775751044919582200,11.291582275390626,2.8211761958718298,-7.623514518034458,5.485743779927492
1775751044929596200,11.30159619140625,2.864252244271338,-7.611702499687671,5.479823742228746
1775751044939610400,11.3116103515625,2.9128154919102784,-7.5954019377499815,5.476836835372447
1775751044949624300,11.321624267578125,2.9622347718566653,-7.577658191266655,5.474909666702151
1775751044959638000,11.331637939453126,3.0082214470058677,-7.560853186938166,5.473069007271528
1775751044969652200,11.34165234375,3.0488191225931045,-7.546323726326227,5.470656685432791
1775751044979666200,11.351666259765626,3.0829370807722207,-7.534406494039296,5.467964377608895
1775751044989680400,11.361680419921875,3.1119837270364163,-7.525133054259419,5.464277798050642
1775751044999694000,11.371694091796876,3.1383626153960824,-7.517406843921542,5.45982374125123
1775751045009708300,11.381708251953125,3.159214264766872,-7.510985870963335,5.456629913645982
1775751045019722200,11.39172216796875,3.1735601855054494,-7.506271701923012,5.454795099434256
1775751045029736200,11.401736083984375,3.182496940676868,-7.503322204467654,5.453643006789684
1775751045039750400,11.41175048828125,3.1886791364431377,-7.50127754689753,5.452849226063489
1775751045049764000,11.42176416015625,3.1964310657441612,-7.498411051550507,5.4522530137360095
1775751045059778300,11.4317783203125,3.2086841058567166,-7.49370506581664,5.4515258685052395
1775751045069791200,11.441791259765624,3.2226661617189643,-7.4881310650765895,5.450934916874766
1775751045079805200,11.45180517578125,3.2334844928532838,-7.482956292787194,5.4516340050548315
1775751045089819100,11.461819091796874,3.2413252694815395,-7.47701521230042,5.455128276911378
1775751045099833300,11.471833251953125,3.2468700441271063,-7.470007963886856,5.461431760969758
1775751045109847300,11.481847412109374,3.250513076804578,-7.463259658670425,5.468483433046937
1775751045119861200,11.491861328125,3.2524799929633734,-7.457354234018921,5.475364424732327
1775751045129875200,11.501875244140624,3.2546222656890746,-7.45101626316905,5.482715956538915
1775751045139889200,11.51188916015625,3.2601579802453515,-7.443514509236812,5.489615068402886
1775751045149903400,11.5219033203125,3.26946766038239,-7.4347531106323,5.495943686902523
1775751045159917000,11.5319169921875,3.2834637447699904,-7.4242153500050305,5.5018426818132395
1775751045169931300,11.54193115234375,3.2984389033228156,-7.413287128755449,5.5076189271271225
1775751045179945200,11.5519453125,3.3117660024076696,-7.40250679154396,5.514117641496658
1775751045189959200,11.561959228515626,3.322269568504393,-7.393260239771008,5.520201345324516
1775751045199973000,11.57197314453125,3.328789033401012,-7.387044433996081,5.524591689237952
1775751045209987000,11.581987060546876,3.3350936865031717,-7.382253692588209,5.527193980690837
1775751045220001300,11.592001220703125,3.343006651584804,-7.378386495766043,5.5275785960942505
1775751045230015200,11.60201513671875,3.350121452026069,-7.376138424578309,5.526270436105132
1775751045240029400,11.612029541015625,3.3516558219864963,-7.376909408950805,5.5243122877746815
1775751045250043100,11.622043212890626,3.3462001869291065,-7.3817276228874915,5.521180419489741
1775751045260056300,11.632056396484375,3.3361817740008233,-7.3911203051328656,5.514668845638632
1775751045270070300,11.6420703125,3.323006066085398,-7.407296948429941,5.500905108702183
1775751045280084200,11.652084228515625,3.310034940831363,-7.431828163096308,5.475577190700173
1775751045290098200,11.66209814453125,3.299629866673052,-7.463786897414923,5.438266573959589
1775751045300112100,11.672112060546874,3.2923820875018834,-7.499563728716969,5.393254296800494
1775751045310126300,11.682126220703125,3.28788448382169,-7.535583136603236,5.345576599824429
1775751045320140000,11.69214013671875,3.2865903523579236,-7.569468455070257,5.298288778948783
1775751045330154200,11.702154296875,3.288534764423966,-7.6010063336282965,5.25172576521635
1775751045340168200,11.712168212890624,3.292431187340617,-7.630274513688683,5.20664977517128
1775751045350182400,11.722182373046875,3.29744287802279,-7.656499088269472,5.164814374482631
1775751045360196000,11.732196044921874,3.3040681413814426,-7.677294039016962,5.129588747322559
1775751045370210000,11.7422099609375,3.311885244873166,-7.691983074104786,5.102471607816219
1775751045380224300,11.752224365234374,3.3206624255687,-7.702147325244545,5.081391410386562
1775751045390238200,11.76223828125,3.3319702937856315,-7.70885354488492,5.063787364634871
1775751045400252200,11.772252197265624,3.346909796503186,-7.714991024726629,5.044550164723396
1775751045410266000,11.78226611328125,3.3622844757676122,-7.723758268550037,5.0208559854030606
1775751045420280300,11.7922802734375,3.3739176304161544,-7.735213728544116,4.995350372746587
1775751045430294300,11.802294189453125,3.3800539412140846,-7.749776506903767,4.968560565498471
1775751045440307200,11.81230712890625,3.3785786079645157,-7.766096358063817,4.944022921091318
1775751045450321200,11.822321044921875,3.371299849133193,-7.781095189753175,4.9253719966351985
1775751045460335400,11.83233544921875,3.36093686055094,-7.794402415093779,4.911392571121454
1775751045470349300,11.842349365234375,3.349097369675338,-7.805991730600595,4.901065822896361
1775751045480363000,11.852363037109376,3.337247357405722,-7.816179362615943,4.892901513402164
1775751045490377200,11.862377197265625,3.3234546866357326,-7.8264394753456115,4.885887250725925
1775751045500391200,11.87239111328125,3.308029738488793,-7.836560471865535,4.880130002373456
1775751045510405400,11.8824052734375,3.293503492747247,-7.845598349323868,4.875430738641321
1775751045520419000,11.892419189453125,3.28266178073734,-7.853256170600652,4.870411449174583
1775751045530433300,11.902433349609375,3.2766315606623886,-7.860492551594972,4.862791037298739
1775751045540447200,11.912447265625,3.276647635014355,-7.866831106966734,4.852518357348441
1775751045550461200,11.922461181640625,3.2818463727012275,-7.869884064796566,4.8440448357746
1775751045560475100,11.93247509765625,3.2894875351041555,-7.868715605539083,4.840760407276451
1775751045570489000,11.942489013671874,3.2978783468306063,-7.864901600208878,4.841250528880954
1775751045580503300,11.95250341796875,3.3061113376468416,-7.859616937804222,4.8442161006882785
1775751045590517200,11.962517333984374,3.3111627758175133,-7.854123016563057,4.849673489311337
1775751045600531500,11.972531494140625,3.312422420489788,-7.848685793945193,4.857609835268557
1775751045610544000,11.982544189453124,3.309896701404452,-7.8449512835919855,4.865359134221077
1775751045620558300,11.992558349609375,3.3058094320908187,-7.844275576287507,4.869227792347967
1775751045630572300,12.002572265625,3.301936974571645,-7.84669549691081,4.867954411411285
1775751045640586200,12.012586181640625,3.30076179331243,-7.851355889937281,4.8612283180266616
1775751045650600200,12.02260009765625,3.3051647044464945,-7.8563050367772576,4.850233169020712
1775751045660614100,12.0326142578125,3.3158120629280803,-7.859733842182159,4.8373918076261875
1775751045670628400,12.04262841796875,3.331307445962727,-7.8605702930063,4.825374037574232
1775751045680642000,12.05264208984375,3.3495269932642575,-7.8593404589504,4.814752398055791
1775751045690656300,12.06265625,3.368522201113403,-7.856805972036719,4.805627719096839
1775751045700670200,12.072670166015625,3.386671605788171,-7.853836016315221,4.797720306973159
1775751045710684400,12.082684326171876,3.4043364418163895,-7.850843264240026,4.790108370664716
1775751045720698000,12.092697998046875,3.422334163060784,-7.84861623584032,4.7809249472558495
1775751045730712000,12.102712158203126,3.440006890134513,-7.847806088501215,4.769558042328059
1775751045740726300,12.112726318359375,3.4574642208918926,-7.8483526164680715,4.7560199308410285
1775751045750740200,12.122740234375,3.475434177346527,-7.850020257419347,4.740142562751472
1775751045760754200,12.132754150390625,3.4937691677212714,-7.851447075352072,4.724271916663646
1775751045770768100,12.14276806640625,3.5132135806426406,-7.851513126325607,4.709718198393285
1775751045780781300,12.15278125,3.533378709053993,-7.849957129055261,4.69721235256344
1775751045790795300,12.162795166015625,3.5541523247525095,-7.845795333200693,4.688484563967585
1775751045800809200,12.172809326171874,3.574907528011501,-7.839063979119062,4.683960364541411
1775751045810823200,12.1828232421875,3.5942999184846878,-7.831419017323851,4.681908692708611
1775751045820837400,12.19283740234375,3.6124051917567845,-7.823667672544717,4.680936048284173
1775751045830851300,12.202851318359375,3.628824119377136,-7.816472208082676,4.680258295153081
1775751045840865000,12.212864990234374,3.6429262944877148,-7.809813334715366,4.680416116063297
1775751045850879200,12.222879150390625,3.6541853551268577,-7.80348296265006,4.68220007687062
1775751045860893200,12.23289306640625,3.663084116375446,-7.798025866287946,4.684332997246086
1775751045870907400,12.242907470703125,3.6707521667852996,-7.794069237616657,4.684918688179552
1775751045880921000,12.252921142578124,3.676840546788275,-7.791693156135082,4.684091881966591
1775751045890935300,12.262935302734375,3.6813787747398017,-7.789483663392066,4.684208494083583
1775751045900949200,12.27294921875,3.6847920903146263,-7.7865633920311925,4.686375901250541
1775751045910963200,12.282963134765625,3.6885263084068893,-7.782665215548873,4.689915765814483
1775751045920977200,12.29297705078125,3.6927471409723163,-7.777518500310182,4.695126193939149
1775751045930991000,12.3029912109375,3.6962528110057113,-7.7724349134355775,4.700782027743757
1775751045941005300,12.31300537109375,3.6986405829250812,-7.768298836544155,4.705737312063574
1775751045951018200,12.323018310546875,3.7004616608723997,-7.764376694664358,4.710778813362121
1775751045961032200,12.3330322265625,3.7022260401964187,-7.75928258639574,4.717778170730173
1775751045971046100,12.343046142578125,3.7047009058773517,-7.752278845113516,4.727342117889226
1775751045981060400,12.353060302734375,3.7073926291793584,-7.74400727585256,4.738772151181101
1775751045991074300,12.36307421875,3.709759942832589,-7.735332971009612,4.751076336959004
1775751046001088300,12.373088134765625,3.712430623346567,-7.727589225015044,4.761577857229113
1775751046011102200,12.383102294921875,3.7153389120087024,-7.721210337632894,4.76964981226474
1775751046021116200,12.3931162109375,3.7187837917655706,-7.715791819715499,4.775727670873701
1775751046031130400,12.40313037109375,3.7232834412723776,-7.710839750266075,4.780218260291218
1775751046041144000,12.41314404296875,3.7284868551343675,-7.706203322637081,4.783644435347616
1775751046051158300,12.423158203125,3.7335841782733796,-7.701818823942542,4.786725742489099
1775751046061172200,12.433172119140625,3.738343063238263,-7.697602083030342,4.789790098495781
1775751046071186400,12.4431865234375,3.74366338147819,-7.693390602815151,4.7924029113426805
1775751046081200000,12.4532001953125,3.7500694491282105,-7.689448587191104,4.793719839160144
1775751046091214000,12.463214111328124,3.7572894635096192,-7.686448820853233,4.792878712160885
1775751046101228300,12.473228271484375,3.7650621433377265,-7.684325837349891,4.790183773988485
1775751046111241200,12.4832412109375,3.773696116170287,-7.6823080677866935,4.7866222821146245
1775751046121255200,12.493255126953125,3.7827287329316137,-7.680401941904425,4.782548164543509
1775751046131269000,12.50326904296875,3.7913670896783467,-7.678968694230914,4.7780061371997
1775751046141283300,12.513283447265625,3.798519591781497,-7.67813633506,4.773663431820273
1775751046151297300,12.52329736328125,3.80283131750077,-7.678199463424086,4.770123274995386
1775751046161311200,12.533311279296875,3.8044600877463814,-7.678912580129504,4.767684357410669
1775751046171325200,12.5433251953125,3.8039901321470735,-7.679965888574719,4.766360707591474
1775751046181339100,12.553339111328125,3.8028620048999784,-7.680940286564827,4.765691137766837
1775751046191353300,12.563353271484376,3.803440681570768,-7.681756863644718,4.763908930525184
1775751046201367000,12.573366943359375,3.8070132793605325,-7.682392238938808,4.760029458743333
1775751046211381200,12.58338134765625,3.8141315869331356,-7.682374703282117,4.754353166672587
1775751046221395200,12.593395263671875,3.8270767009630795,-7.67953509594202,4.7485398042187095
1775751046231409400,12.603409423828126,3.849181857526302,-7.669638555827737,4.746666703823209
1775751046241423000,12.613423095703125,3.8801588873311874,-7.650301987195014,4.7526446091890335
1775751046251437300,12.623437255859375,3.9186934929087758,-7.621829925948381,4.766755844388902
1775751046261451300,12.633451171875,3.9626758424982427,-7.586237219041585,4.787130523897707
1775751046271464200,12.643464111328125,4.0099335604965685,-7.546364058336615,4.810737317195534
1775751046281478100,12.65347802734375,4.0567020336732265,-7.504570743224025,4.836838265396654
1775751046291492000,12.6634921875,4.097796260605752,-7.463066766446828,4.86632301081717
1775751046301506300,12.67350634765625,4.129833613118529,-7.423934194976091,4.8989855094909665
1775751046311520300,12.683520263671875,4.151514406789839,-7.388713828513025,4.933782097584009
1775751046321534200,12.6935341796875,4.164069352458418,-7.357039756354689,4.970398886841536
1775751046331548200,12.703548095703125,4.169567073091864,-7.328084880027174,5.008422035765648
1775751046341562400,12.713562255859374,4.169028436170518,-7.301303840607404,5.047830501568317
1775751046351576300,12.723576416015625,4.16269426471293,-7.27572340914905,5.0898132017731665
1775751046361590300,12.73359033203125,4.151355124574899,-7.251464581683278,5.133507966592908
1775751046371604200,12.743604248046875,4.13444753665477,-7.230546881338953,5.176479093313217
1775751046381618200,12.7536181640625,4.1119826068684455,-7.214015433254837,5.21727872121334
1775751046391632400,12.76363232421875,4.084447826471925,-7.202146131762862,5.255168014624714
1775751046401646000,12.77364599609375,4.050883410522341,-7.19558545807302,5.290017209687829
1775751046411660000,12.783659912109375,4.010865288388729,-7.193593407472967,5.32311868430078
1775751046421672700,12.793672607421875,3.9670042270913717,-7.193879823198914,5.355500027945637
1775751046431687000,12.80368701171875,3.924805546048283,-7.194945991125702,5.3850709903448815
1775751046441700900,12.813700927734375,3.8880359043166037,-7.196670330700278,5.409390023565292
1775751046451715000,12.823715087890625,3.8567397255599496,-7.199751930102705,5.427662177836894
1775751046461728800,12.833728759765625,3.8315351416766643,-7.204114216965436,5.439715603724122
1775751046471743000,12.843742919921874,3.8139004085257646,-7.20919897288382,5.445366761353611
1775751046481757000,12.8537568359375,3.799721368786692,-7.214637949067353,5.448073097702861
1775751046491771000,12.86377099609375,3.7842899908989667,-7.21936439306736,5.452554042509198
1775751046501784800,12.873784912109375,3.765288937830925,-7.223565936410426,5.460138798549771
1775751046511798800,12.883798828125,3.740019472017884,-7.228783378797769,5.470585958284139
1775751046521813000,12.89381298828125,3.707395259527862,-7.236507835569977,5.482566318935156
1775751046531827000,12.903826904296874,3.668248075009882,-7.2468223088353865,5.495260965335369
1775751046541841000,12.9138408203125,3.627442309629917,-7.25832336153686,5.507159492921829
1775751046551854800,12.923854736328124,3.5923587212890387,-7.269377839514613,5.5155701783925295
1775751046561868800,12.933868896484375,3.56297276006788,-7.279338092514872,5.521490800613164
1775751046571881700,12.9438818359375,3.536294888761639,-7.288114688688516,5.52705720256865
1775751046581896000,12.95389599609375,3.5115345415145156,-7.296060679256915,5.532362907761335
