time,seconds_elapsed,z,y,x
1775751033685767400,0.057767333984375,-0.03350523114204407,-0.39498594403266907,-0.25750237703323364
1775751033695781000,0.067781005859375,-0.08064530789852142,-0.20771484076976776,-0.27010658383369446
1775751033705795300,0.07779541015625,-0.1304517537355423,-0.19048312306404114,-0.256767600774765
1775751033715809300,0.087809326171875,-0.17715027928352356,-0.3180277645587921,-0.2296648919582367
1775751033725823500,0.097823486328125,-0.2183493822813034,-0.5553076863288879,-0.20076559484004974
1775751033735837400,0.10783740234375,-0.23216480016708374,-0.9715906381607056,-0.24488218128681183
1775751033745851400,0.117851318359375,-0.3436889350414276,-1.2225807905197144,-0.3323012590408325
1775751033755865300,0.127865234375,-0.34852948784828186,-1.2951796054840088,-0.38629472255706787
1775751033765879300,0.13787939453125,-0.31003907322883606,-1.3652801513671875,-0.49543264508247375
1775751033775893500,0.1478935546875,-0.23799419403076172,-1.521827220916748,-0.6477665305137634
1775751033785907200,0.1579072265625,-0.12779125571250916,-1.9575083255767822,-0.8514354825019836
1775751033795921400,0.16792138671875,-0.05091990530490875,-2.3617565631866455,-1.0437109470367432
1775751033805935400,0.177935302734375,0.009529056958854198,-2.667626142501831,-1.150415062904358
1775751033815949600,0.187949462890625,0.09260956197977066,-2.8467159271240234,-1.138980746269226
1775751033825963300,0.19796337890625,0.21987910568714142,-2.6387901306152344,-1.0206817388534546
1775751033835977200,0.207977294921875,0.308734655380249,-2.3797245025634766,-0.7607407569885254
1775751033845991400,0.217991455078125,0.2707452178001404,-2.293940782546997,-0.47190043330192566
1775751033856005400,0.22800537109375,0.13344301283359528,-2.2583868503570557,-0.2046183943748474
1775751033866019300,0.238019287109375,0.01366095058619976,-2.1779205799102783,0.0363585390150547
1775751033876033300,0.248033203125,-0.06295180320739746,-2.011133909225464,0.1870841383934021
1775751033886047500,0.258047607421875,-0.14937324821949005,-1.8532443046569824,0.23016555607318878
1775751033896061400,0.2680615234375,-0.39870530366897583,-1.7917572259902954,0.2019168734550476
1775751033906075100,0.2780751953125,-0.7775732278823853,-1.7230215072631836,0.15772545337677002
1775751033916089300,0.28808935546875,-1.2392210960388184,-1.5628888607025146,0.1714436560869217
1775751033926103300,0.298103271484375,-1.6680374145507812,-1.204075574874878,0.24247309565544128
1775751033936117500,0.308117431640625,-1.9267584085464478,-0.766221284866333,0.3743307292461395
1775751033946131200,0.318131103515625,-1.4099712371826172,-0.5734701752662659,0.5382254123687744
1775751033956145400,0.3281455078125,-0.38085466623306274,-0.6029199361801147,0.7380700707435608
1775751033966159400,0.338159423828125,0.20727142691612244,-0.7718048691749573,0.8943312764167786
1775751033976173300,0.34817333984375,0.05067675933241844,-0.47970882058143616,0.9063594937324524
1775751033986187500,0.3581875,-0.24672164022922516,0.09151047468185425,0.8052331209182739
1775751033996201200,0.368201171875,-0.2179720103740692,0.42235150933265686,0.7702730298042297
1775751034006215400,0.37821533203125,0.36086899042129517,0.551423192024231,0.8613605499267578
1775751034016229400,0.3882294921875,1.5448384284973145,0.6473731994628906,0.9370289444923401
1775751034026243300,0.398243408203125,2.033504009246826,0.5117586255073547,1.0599825382232666
1775751034036257300,0.40825732421875,1.5305408239364624,0.2909924387931824,1.0447783470153809
1775751034046271200,0.418271240234375,0.44401660561561584,-0.08083466440439224,0.9026049375534058
1775751034056285400,0.428285400390625,-0.43124887347221375,-0.4944866895675659,0.6304115056991577
1775751034066299400,0.43829931640625,-0.6466951370239258,-0.7235054969787598,0.3787457048892975
1775751034076313300,0.448313232421875,-0.40504202246665955,-0.6611568927764893,0.2257191389799118
1775751034086327300,0.458327392578125,-0.18532831966876984,-0.30894505977630615,0.16700363159179688
1775751034096341200,0.46834130859375,-0.008126103319227695,0.09539895504713058,0.11088630557060242
1775751034106355500,0.47835546875,0.22613513469696045,0.3550640940666199,0.10521376878023148
1775751034116369200,0.488369140625,0.6314852833747864,0.5496431589126587,0.17055469751358032
1775751034126383400,0.49838330078125,1.1611816883087158,0.5702871680259705,0.2902502119541168
1775751034136397300,0.508397216796875,1.4409581422805786,0.6955468058586121,0.42197945713996887
1775751034146411500,0.51841162109375,1.2707635164260864,0.9204220175743103,0.5652165412902832
1775751034156425200,0.52842529296875,0.8809047341346741,0.9367509484291077,0.6397597193717957
1775751034166439200,0.538439208984375,0.4836340546607971,0.6772202849388123,0.5935432314872742
1775751034176453400,0.548453369140625,0.10483027249574661,0.3385796546936035,0.44890350103378296
1775751034186467300,0.55846728515625,-0.20664452016353607,0.15461941063404083,0.2670047879219055
1775751034196481300,0.568481201171875,-0.3620700538158417,0.21174101531505585,0.14312466979026794
1775751034206495200,0.5784951171875,-0.3234851062297821,0.31074029207229614,0.08931363373994827
1775751034216509400,0.588509521484375,-0.21400868892669678,0.47456490993499756,0.060447365045547485
1775751034226523400,0.5985234375,-0.08314602077007294,0.7038766741752625,0.02274499274790287
1775751034236537300,0.608537353515625,0.07966766506433487,0.9655583500862122,-0.08964919298887253
1775751034246551300,0.61855126953125,0.23849326372146606,1.128305435180664,-0.20394034683704376
1775751034256565200,0.628565185546875,0.38182753324508667,1.165440320968628,-0.28172993659973145
1775751034266579500,0.638579345703125,0.384085088968277,1.075251817703247,-0.300734281539917
1775751034276593400,0.648593505859375,0.27825772762298584,0.862378716468811,-0.3164096474647522
1775751034286607400,0.658607421875,0.14952769875526428,0.6413270235061646,-0.3423458933830261
1775751034296621300,0.668621337890625,0.020651748403906822,0.46742790937423706,-0.3668730854988098
1775751034306635300,0.67863525390625,-0.12612570822238922,0.37284842133522034,-0.328910231590271
1775751034316649500,0.6886494140625,-0.24740712344646454,0.3343638777732849,-0.1975809782743454
1775751034326663200,0.6986630859375,-0.25760143995285034,0.268088161945343,0.02701910026371479
1775751034336677400,0.708677490234375,-0.1507096141576767,0.1984449177980423,0.2514474093914032
1775751034346691300,0.71869140625,-0.02082378976047039,0.11989018321037292,0.412960946559906
1775751034356705500,0.72870556640625,0.058697402477264404,-0.007478422485291958,0.5019187927246094
1775751034366719200,0.73871923828125,0.08258701860904694,-0.13495860993862152,0.5410313010215759
1775751034376733200,0.748733154296875,0.011342935264110565,-0.21114766597747803,0.568897545337677
1775751034386747400,0.758747314453125,-0.13071593642234802,-0.2357986718416214,0.5781847834587097
1775751034396761300,0.76876123046875,-0.26757577061653137,-0.19981831312179565,0.5557771921157837
1775751034406774800,0.77877490234375,-0.37959393858909607,-0.15673795342445374,0.5123826265335083
1775751034416788700,0.788788818359375,-0.4452906548976898,-0.2033078521490097,0.44224318861961365
1775751034426802700,0.798802734375,-0.4145132899284363,-0.21745829284191132,0.41928035020828247
1775751034436816600,0.808816650390625,-0.32349762320518494,-0.19463606178760529,0.4434615969657898
1775751034446830800,0.818830810546875,-0.24219639599323273,-0.20513850450515747,0.46209704875946045
1775751034456844800,0.8288447265625,-0.19337239861488342,-0.25431138277053833,0.49127864837646484
1775751034466858800,0.838858642578125,-0.18408381938934326,-0.3368685841560364,0.552681028842926
1775751034476872700,0.848872802734375,-0.20059674978256226,-0.42170223593711853,0.5893692374229431
1775751034486886700,0.85888671875,-0.21947456896305084,-0.5861401557922363,0.6178222298622131
1775751034496900900,0.86890087890625,-0.2390458732843399,-0.8174421191215515,0.690678596496582
1775751034506914600,0.87891455078125,-0.25256699323654175,-0.9970824718475342,0.7748408317565918
1775751034516928800,0.8889287109375,-0.28376859426498413,-1.0947123765945435,0.8042312264442444
1775751034526942700,0.898942626953125,-0.36887258291244507,-1.0134576559066772,0.7376314401626587
1775751034536956700,0.908956787109375,-0.4645777940750122,-0.7277854681015015,0.5775522589683533
1775751034546970600,0.918970703125,-0.5128049850463867,-0.4802209436893463,0.4221043586730957
1775751034556984600,0.928984619140625,-0.4745446741580963,-0.16918689012527466,0.3051641583442688
1775751034566998800,0.938998779296875,-0.3817116618156433,0.09542239457368851,0.21962982416152954
1775751034577012700,0.9490126953125,-0.33314067125320435,0.13954298198223114,0.11975489556789398
1775751034587027000,0.95902685546875,-0.32487794756889343,0.11475188285112381,0.035392876714468
1775751034597040600,0.96904052734375,-0.24690406024456024,-0.014799186028540134,0.02538418583571911
1775751034607054600,0.9790546875,-0.21666891872882843,-0.00788508728146553,0.016037555411458015
1775751034617068800,0.98906884765625,-0.23616991937160492,0.06410974264144897,0.04890922084450722
1775751034627082800,0.999082763671875,-0.29180601239204407,0.21093088388442993,0.15840348601341248
1775751034637096700,1.0090966796875,-0.34809139370918274,0.647728443145752,0.3707274794578552
1775751034647110700,1.019110595703125,-0.3936080038547516,1.263832688331604,0.6718345880508423
1775751034657124900,1.029124755859375,-0.3117983639240265,1.2240498065948486,0.7039030194282532
1775751034667138800,1.039138916015625,-0.12777553498744965,0.6188275814056396,0.205734521150589
1775751034677152500,1.049152587890625,-0.01883254386484623,0.5127360224723816,-0.25753992795944214
1775751034687166700,1.059166748046875,-0.00392709719017148,0.7169229388237,-0.39433372020721436
1775751034697180700,1.0691806640625,0.05140380188822746,0.8234382271766663,-0.4082101285457611
1775751034707195000,1.07919482421875,0.11156781017780304,0.8323954939842224,-0.43770942091941833
1775751034717208600,1.08920849609375,0.18792302906513214,0.6845613121986389,-0.5151326060295105
1775751034727222800,1.099222900390625,0.27615541219711304,0.5010793209075928,-0.5555716156959534
1775751034737236700,1.10923681640625,0.3804605305194855,0.43020516633987427,-0.5487017035484314
1775751034747250700,1.119250732421875,0.44361498951911926,0.46140623092651367,-0.5622404217720032
1775751034757264600,1.1292646484375,0.41392606496810913,0.5246363282203674,-0.6368851065635681
1775751034767278600,1.139278564453125,0.28998255729675293,0.6099768280982971,-0.7202452421188354
1775751034777292800,1.149292724609375,0.09998732060194016,0.7557926177978516,-0.7467522025108337
1775751034787306800,1.159306640625,-0.0166170597076416,0.9001814723014832,-0.6706361770629883
1775751034797320700,1.16932080078125,-0.03302878886461258,0.9617297649383545,-0.502098560333252
1775751034807334700,1.179334716796875,0.001930791768245399,0.8726233243942261,-0.29047471284866333
1775751034817348600,1.1893486328125,0.04892253503203392,0.6065765023231506,-0.1135752946138382
1775751034827362800,1.19936279296875,0.07206247746944427,0.2888405919075012,0.022313827648758888
1775751034837376800,1.209376708984375,0.06577049195766449,0.06072406843304634,0.12070085108280182
1775751034847390700,1.219390625,0.09832337498664856,-0.03260055184364319,0.1690758466720581
1775751034857404700,1.22940478515625,0.1298336237668991,-0.045577872544527054,0.1771465539932251
1775751034867419000,1.2394189453125,0.1103358268737793,-0.007818241603672504,0.15743622183799744
1775751034877432800,1.249432861328125,0.0759727954864502,0.06953620165586472,0.1090037152171135
1775751034887446500,1.259446533203125,0.037220872938632965,0.20241248607635498,0.031973645091056824
1775751034897460700,1.269460693359375,0.01914040558040142,0.3338908851146698,-0.04842798784375191
1775751034907474700,1.279474609375,0.030599188059568405,0.4074050486087799,-0.09555262327194214
1775751034917489000,1.289489013671875,0.049847185611724854,0.39790502190589905,-0.10614294558763504
1775751034927502600,1.299502685546875,0.05138808861374855,0.3025028705596924,-0.09516379982233047
1775751034937516800,1.309516845703125,0.0049319081008434296,0.14511297643184662,-0.05994962155818939
1775751034947530800,1.31953076171875,-0.07494933903217316,0.09515208005905151,-0.030947795137763023
1775751034957544700,1.329544677734375,-0.12020204216241837,0.13444702327251434,-0.057802580296993256
1775751034967558700,1.33955859375,-0.10118786990642548,0.1649300903081894,-0.09343833476305008
1775751034977572600,1.349572509765625,-0.039270173758268356,0.1534593254327774,-0.08571277558803558
1775751034987586800,1.3595869140625,0.036078374832868576,0.11543924361467361,-0.07419593632221222
1775751034997600800,1.369600830078125,0.10211358219385147,0.09672681242227554,-0.07539995014667511
1775751035007614700,1.37961474609375,0.1502225250005722,0.10572243481874466,-0.07865326851606369
1775751035017628700,1.389628662109375,0.18412190675735474,0.11767417192459106,-0.0880342498421669
1775751035027642600,1.399642578125,0.19883906841278076,0.09571800380945206,-0.07000864297151566
1775751035037656800,1.40965673828125,0.2089148610830307,0.06732551008462906,-0.03262771666049957
1775751035047670500,1.41967041015625,0.19962044060230255,0.047680970281362534,0.021075190976262093
1775751035057684700,1.429684814453125,0.17800648510456085,0.005001949146389961,0.08234094828367233
1775751035067698700,1.43969873046875,0.1371522694826126,-0.04537840187549591,0.14518249034881592
1775751035077713000,1.449712890625,0.09008888155221939,-0.08197636157274246,0.21200226247310638
1775751035087726800,1.459726806640625,0.05491890758275986,-0.12168782204389572,0.27813202142715454
1775751035097740500,1.469740478515625,0.024636903777718544,-0.16391649842262268,0.32659250497817993
1775751035107754800,1.479754638671875,0.007299724500626326,-0.17115071415901184,0.36083754897117615
1775751035117768700,1.489768798828125,0.012959208339452744,-0.11539343744516373,0.3657955527305603
1775751035127783000,1.499782958984375,0.023195600137114525,-0.009491239674389362,0.3243578374385834
1775751035137796600,1.509796630859375,0.0297847930341959,0.10857894271612167,0.2578533887863159
1775751035147810800,1.519810791015625,0.04886208102107048,0.17898093163967133,0.19098007678985596
1775751035157824800,1.52982470703125,0.08489305526018143,0.1764615923166275,0.15381699800491333
1775751035167838700,1.539838623046875,0.10816136002540588,0.11868856847286224,0.14570926129817963
1775751035177852700,1.549852783203125,0.1011069118976593,0.0542864091694355,0.15090402960777283
1775751035187866600,1.55986669921875,0.07457703351974487,0.0025869945529848337,0.1625116765499115
1775751035197880800,1.569880859375,0.05042242631316185,-0.04307689517736435,0.18028002977371216
1775751035207894800,1.579894775390625,0.03600407391786575,-0.08566323667764664,0.20635849237442017
1775751035217908700,1.58990869140625,0.03363252803683281,-0.08018352091312408,0.22583073377609253
1775751035227922700,1.599922607421875,0.03909573704004288,-0.035897012799978256,0.23264868557453156
1775751035237936600,1.6099365234375,0.049195773899555206,0.008841694332659245,0.23341435194015503
1775751035247950800,1.619950927734375,0.04015301167964935,0.04249206557869911,0.22718468308448792
1775751035257964500,1.629964599609375,0.01721440628170967,0.054129280149936676,0.217352032661438
1775751035267978800,1.639978759765625,0.002882871776819229,0.04386306181550026,0.20498856902122498
1775751035277992700,1.64999267578125,0.0073260897770524025,0.033494044095277786,0.2007906287908554
1775751035288006700,1.660006591796875,0.02262541837990284,0.01315388549119234,0.19620466232299805
1775751035298020900,1.670020751953125,0.045162152498960495,-0.004056526813656092,0.18749719858169556
1775751035308034600,1.68003466796875,0.06484930217266083,-0.016741694882512093,0.18069574236869812
1775751035318048800,1.690048828125,0.04584978148341179,-0.023741815239191055,0.16253697872161865
1775751035328062700,1.700062744140625,0.012745356187224388,0.0005464806454256177,0.14718465507030487
1775751035338077000,1.710076904296875,-0.01672545075416565,0.04101480916142464,0.13576608896255493
1775751035348090600,1.720090576171875,-0.044383708387613297,0.07886658608913422,0.12926317751407623
1775751035358104800,1.730104736328125,-0.05463341623544693,0.10212264209985733,0.13237296044826508
1775751035368118800,1.740118896484375,-0.052088767290115356,0.10861755907535553,0.13866174221038818
1775751035378132700,1.7501328125,-0.04369474947452545,0.09196507930755615,0.15490463376045227
1775751035388146700,1.760146728515625,-0.035058919340372086,0.047389619052410126,0.1745622158050537
1775751035398160600,1.77016064453125,-0.036504216492176056,0.0037175065372139215,0.1959386169910431
1775751035408174600,1.780174560546875,-0.04188726097345352,-0.020258933305740356,0.21285155415534973
1775751035418188500,1.7901884765625,-0.042519230395555496,-0.019628029316663742,0.21515677869319916
1775751035428202500,1.800202392578125,-0.03463973477482796,-0.006599845830351114,0.19904252886772156
1775751035438216400,1.810216552734375,-0.02931048348546028,0.0076158419251441956,0.16455352306365967
1775751035448230400,1.82023046875,-0.01908101700246334,0.029030052945017815,0.1227477565407753
1775751035458244600,1.83024462890625,0.0016197345685213804,0.061286792159080505,0.08035289496183395
1775751035468258300,1.84025830078125,0.015079882927238941,0.08268076181411743,0.04266969859600067
1775751035478272500,1.8502724609375,0.0256331916898489,0.06780754029750824,0.02406592108309269
1775751035488286500,1.860286376953125,0.04740506783127785,0.045466285198926926,0.017316939309239388
1775751035498300700,1.87030078125,0.0801510289311409,0.028979720547795296,0.01738884299993515
1775751035508314400,1.880314453125,0.1071016862988472,0.007633684668689966,0.013848437927663326
1775751035518328300,1.890328369140625,0.11996208876371384,-0.013069196604192257,0.01133814174681902
1775751035528342500,1.900342529296875,0.11633406579494476,-0.02870754525065422,0.013827398419380188
1775751035538356500,1.9103564453125,0.0898774266242981,-0.030961910262703896,0.008833172731101513
1775751035548370400,1.920370361328125,0.060446832329034805,-0.034324418753385544,0.005850964691489935
1775751035558384400,1.93038427734375,0.04463058337569237,-0.028969598934054375,0.015247662551701069
1775751035568398600,1.940398681640625,0.037998516112565994,-0.017783258110284805,0.030426349490880966
1775751035578412500,1.95041259765625,0.02877199277281761,-0.005119128152728081,0.048774197697639465
1775751035588426500,1.960426513671875,0.017546769231557846,0.001213336130604148,0.061758171766996384
1775751035598440400,1.9704404296875,0.02262222208082676,0.018878083676099777,0.0627848207950592
1775751035608454400,1.980454345703125,0.038414232432842255,0.025306954979896545,0.057196974754333496
1775751035618468600,1.990468505859375,0.04608094319701195,0.012688098475337029,0.05271540954709053
1775751035628482600,2.000482666015625,0.04441460222005844,0.0021166803780943155,0.05053135007619858
1775751035638496500,2.01049658203125,0.035235218703746796,-0.009088835678994656,0.046758983284235
1775751035648510500,2.020510498046875,0.01480397954583168,-0.017642909660935402,0.04513631761074066
1775751035658524400,2.0305244140625,-0.0034932682756334543,-0.019581956788897514,0.04832438752055168
1775751035668538600,2.04053857421875,-0.011857724748551846,-0.018864501267671585,0.054615575820207596
1775751035678552300,2.05055224609375,-0.01968076080083847,-0.022412631660699844,0.06971409916877747
1775751035688566500,2.06056640625,-0.026999659836292267,-0.028802886605262756,0.08597030490636826
1775751035698580500,2.07058056640625,-0.03521790727972984,-0.017958227545022964,0.10050610452890396
1775751035708594700,2.0805947265625,-0.05080565810203552,-0.004049602895975113,0.11251908540725708
1775751035718608400,2.0906083984375,-0.07534828037023544,-0.013619937933981419,0.11878737062215805
1775751035728622300,2.100622314453125,-0.09555661678314209,-0.04440315067768097,0.130622997879982
1775751035738636500,2.110636474609375,-0.10902129113674164,-0.08876342326402664,0.1410236954689026
1775751035748650500,2.120650390625,-0.11327409744262695,-0.1065293699502945,0.14286313951015472
1775751035758664400,2.13066455078125,-0.11157872527837753,-0.08938447386026382,0.12680880725383759
1775751035768678400,2.140678466796875,-0.1076098158955574,-0.044260405004024506,0.09667541086673737
1775751035778692600,2.150692626953125,-0.09317494928836823,-0.00621155695989728,0.05968623235821724
1775751035788706600,2.16070654296875,-0.08245866000652313,0.008163920603692532,0.02581987902522087
1775751035798720300,2.17072021484375,-0.07778534293174744,0.010482735000550747,0.0022008363157510757
1775751035808734500,2.180734375,-0.06500669568777084,0.010663030669093132,-0.009529056958854198
1775751035818748400,2.19074853515625,-0.05872589722275734,0.03003166802227497,-0.025960760191082954
1775751035828762600,2.2007626953125,-0.05489653721451759,0.0631033331155777,-0.043534427881240845
1775751035838776600,2.210776611328125,-0.062370166182518005,0.06486315280199051,-0.05506165325641632
1775751035848790500,2.22079052734375,-0.08225332945585251,0.04940749704837799,-0.053105030208826065
1775751035858804500,2.230804443359375,-0.10279881954193115,0.04722210764884949,-0.04466121271252632
1775751035868818400,2.240818359375,-0.11890002340078354,0.0612441822886467,-0.035470642149448395
1775751035878832600,2.25083251953125,-0.1228092759847641,0.0679207295179367,-0.02594158612191677
1775751035888846300,2.260846435546875,-0.108377605676651,0.07111252844333649,-0.018508169800043106
1775751035898860500,2.270860595703125,-0.07764685899019241,0.06450815498828888,-0.00824088603258133
1775751035908874500,2.28087451171875,-0.04831213876605034,0.025014540180563927,0.0017723336350172758
1775751035918888400,2.290888427734375,-0.035403795540332794,-0.013390906155109406,0.01997530646622181
1775751035928902400,2.30090234375,-0.03668877109885216,-0.029317142441868782,0.027995148673653603
1775751035938916400,2.310916259765625,-0.045585595071315765,-0.021921543404459953,0.023816915228962898
1775751035949556500,2.321556396484375,-0.0600430965423584,0.0012389025650918484,0.009407349862158298
1775751035959570400,2.3315703125,-0.06916948407888412,0.023875504732131958,-0.004248274490237236
1775751035969584400,2.34158447265625,-0.058635614812374115,0.023984961211681366,-0.004623514134436846
1775751035979598600,2.3515986328125,-0.03382321074604988,0.00467651104554534,-0.0011438276851549745
1775751035989612500,2.361612548828125,-0.005873601883649826,-0.012221512384712696,0.00026072346372529864
1775751035999626500,2.37162646484375,0.02251170016825199,-0.02654079720377922,-0.007428887765854597
1775751036009640400,2.381640380859375,0.03604774922132492,-0.015604792162775993,-0.022725818678736687
1775751036019654400,2.391654296875,0.04538159444928169,0.005555087700486183,-0.038307443261146545
1775751036029668600,2.401668701171875,0.052927929908037186,0.014701182022690773,-0.0427117757499218
1775751036039682300,2.411682373046875,0.05722334235906601,0.00478330347687006,-0.041060350835323334
1775751036049696500,2.421696533203125,0.06066654250025749,-0.013108877465128899,-0.03356302157044411
1775751036059710500,2.43171044921875,0.044561609625816345,-0.03922729566693306,-0.02147280052304268
1775751036069724700,2.441724609375,0.013610350899398327,-0.06695932894945145,-0.0029768813401460648
1775751036079738400,2.45173828125,-0.019995812326669693,-0.07998218387365341,0.021134579554200172
1775751036089752300,2.46175244140625,-0.05158356577157974,-0.07479887455701828,0.04073331505060196
1775751036099766500,2.4717666015625,-0.06931515783071518,-0.05700176581740379,0.05012255534529686
1775751036109780500,2.481780517578125,-0.06862673163414001,-0.03465784713625908,0.05011483281850815
1775751036119794400,2.49179443359375,-0.05056250840425491,-0.01398985181003809,0.03834765404462814
1775751036129808400,2.501808349609375,-0.034996598958969116,-0.0054182009771466255,0.02424275502562523
1775751036139822600,2.511822509765625,-0.02937120385468006,-0.015667643398046494,0.012425243854522705
1775751036149836500,2.52183642578125,-0.040412936359643936,-0.015478292480111122,-0.006308229640126228
1775751036159850200,2.531850341796875,-0.05687260255217552,0.0038365498185157776,-0.028382105752825737
1775751036169864400,2.541864501953125,-0.06865868717432022,0.023482955992221832,-0.04957154765725136
1775751036179878400,2.55187841796875,-0.0730891227722168,0.023843280971050262,-0.060748301446437836
1775751036189892600,2.561892578125,-0.0672440156340599,0.001347559504210949,-0.05447682365775108
1775751036199906600,2.571906494140625,-0.05577697977423668,-0.026009762659668922,-0.03230893611907959
1775751036209920500,2.58192041015625,-0.03958043083548546,-0.04302017018198967,-0.003084473079070449
1775751036219934500,2.5919345703125,-0.03206179663538933,-0.03164474666118622,0.024819063022732735
1775751036229948400,2.601948486328125,-0.04357197880744934,-0.02273966744542122,0.04248141497373581
1775751036239962600,2.611962646484375,-0.05934881046414375,-0.020057331770658493,0.05812482163310051
1775751036249976300,2.621976318359375,-0.07206300646066666,-0.02809182181954384,0.06570098549127579
1775751036259990500,2.631990478515625,-0.07704418152570724,-0.03536012023687363,0.0660884752869606
1775751036270004500,2.64200439453125,-0.077229805290699,-0.04953133314847946,0.05933496356010437
1775751036280018700,2.652018798828125,-0.07100226730108261,-0.0688038319349289,0.04650731384754181
1775751036290032400,2.662032470703125,-0.06422106176614761,-0.0762644112110138,0.032519593834877014
1775751036300046300,2.67204638671875,-0.05690748989582062,-0.05264376848936081,0.004689560271799564
1775751036310060500,2.682060546875,-0.04385028034448624,-0.0251583494246006,-0.02785559929907322
1775751036320074500,2.692074462890625,-0.025351162999868393,-0.012086490169167519,-0.04820481315255165
1775751036330088400,2.70208837890625,-0.01004810631275177,-0.014155765995383263,-0.047989897429943085
1775751036340102400,2.712102294921875,-0.006161489523947239,-0.01689802296459675,-0.03079945780336857
1775751036350116600,2.72211669921875,-0.01672198809683323,-0.020377710461616516,-0.00714739179238677
1775751036360130600,2.732130615234375,-0.03287432715296745,-0.025413215160369873,0.018874088302254677
1775751036370144300,2.742144287109375,-0.04014502093195915,-0.03623230755329132,0.04459676146507263
1775751036380158500,2.752158447265625,-0.047568585723638535,-0.042693935334682465,0.06388683617115021
1775751036390172400,2.76217236328125,-0.05651893466711044,-0.03886058181524277,0.0745253637433052
1775751036400186600,2.7721865234375,-0.06400135159492493,-0.028013525530695915,0.07945860922336578
1775751036410200600,2.78220068359375,-0.07897976785898209,-0.01546604186296463,0.07472297549247742
1775751036420214500,2.792214599609375,-0.08953254669904709,0.009755425155162811,0.06491002440452576
1775751036430228700,2.802228759765625,-0.08887767791748047,0.02274659089744091,0.05312526971101761
1775751036440242400,2.812242431640625,-0.07878828793764114,0.006441654171794653,0.043888892978429794
1775751036450256600,2.822256591796875,-0.059127502143383026,-0.015972575172781944,0.04169897735118866
1775751036460270600,2.8322705078125,-0.04274400323629379,-0.02599990926682949,0.041785530745983124
1775751036470284800,2.842284912109375,-0.03202664107084274,-0.008784436620771885,0.03459978848695755
1775751036480298800,2.852298828125,-0.03395610302686691,0.006838198751211166,0.027190076187253
1775751036490312700,2.862312744140625,-0.04743276163935661,-0.0013813816476613283,0.023442475125193596
1775751036500326700,2.87232666015625,-0.05252792313694954,-0.01534540019929409,0.0283456202596426
1775751036510340600,2.882340576171875,-0.04405960440635681,-0.025478994473814964,0.03556651622056961
1775751036520354800,2.892354736328125,-0.046776559203863144,-0.030296387150883675,0.04055062308907509
1775751036530368500,2.902368408203125,-0.05190687254071236,-0.014040451496839523,0.04373496398329735
1775751036540382700,2.9123828125,-0.04700985178351402,0.009938917122781277,0.046363502740859985
1775751036550396700,2.922396728515625,-0.03785790130496025,0.01889432966709137,0.04983173683285713
1775751036560410600,2.93241064453125,-0.02346564456820488,0.019637882709503174,0.05915014073252678
1775751036570424600,2.942424560546875,-0.014089720323681831,0.024690698832273483,0.06697956472635269
1775751036580438500,2.9524384765625,-0.01731906831264496,0.019295133650302887,0.07516106218099594
1775751036590452700,2.96245263671875,-0.023512249812483788,0.045037515461444855,0.0808865949511528
1775751036600466700,2.972466796875,-0.02756211906671524,0.06884884089231491,0.07211307436227798
1775751036610480600,2.982480712890625,-0.026203108951449394,0.09839847683906555,0.06421653926372528
1775751036620494600,2.99249462890625,-0.005622998345643282,0.12091496586799622,0.056294698268175125
1775751036630509600,3.002509521484375,0.009846772067248821,0.11853650212287903,0.05094653740525246
1775751036640523800,3.012523681640625,0.018926553428173065,0.08673995733261108,0.040721595287323
1775751036650536400,3.022536376953125,0.030118487775325775,0.050516702234745026,0.023738086223602295
1775751036660551400,3.032551513671875,0.04646709933876991,0.008073372766375542,-0.007153517100960016
1775751036670565600,3.042565673828125,0.061224475502967834,-0.03139520809054375,-0.03784485161304474
1775751036680579600,3.05257958984375,0.059841230511665344,-0.02726171538233757,-0.03368952125310898
1775751036690593800,3.06259375,0.039617717266082764,-0.00893996562808752,-0.013523798435926437
1775751036700607500,3.072607421875,0.01637045107781887,0.021375063806772232,0.029528863728046417
1775751036710621700,3.08262158203125,-0.007723433431237936,0.04110642522573471,0.07569609582424164
1775751036720635600,3.0926357421875,-0.025418007746338844,0.029414614662528038,0.12033785879611969
1775751036730649600,3.102649658203125,-0.02768648788332939,-0.00714552728459239,0.15846101939678192
1775751036740663600,3.11266357421875,-0.02166481502354145,-0.04068724066019058,0.18663352727890015
1775751036750677500,3.122677490234375,-0.01727326214313507,-0.06142394617199898,0.18672753870487213
1775751036760691700,3.132691650390625,-0.020173178985714912,-0.06241490691900253,0.1613641232252121
1775751036770705700,3.14270556640625,-0.019637349992990494,-0.07579383254051208,0.1275843232870102
1775751036780719900,3.152719970703125,-0.015283881686627865,-0.09003162384033203,0.09416138380765915
1775751036790733600,3.162733642578125,-0.010135192424058914,-0.11963824927806854,0.06072193756699562
1775751036800747500,3.17274755859375,-0.0016202671686187387,-0.1384124755859375,0.03636333346366882
1775751036810761700,3.18276171875,0.007456318475306034,-0.14757587015628815,0.014404239133000374
1775751036820775700,3.192775634765625,0.020016850903630257,-0.14550846815109253,-0.0106531772762537
1775751036830789600,3.20278955078125,0.0031497206073254347,-0.15520796179771423,-0.03220134600996971
1775751036840803600,3.212803466796875,-0.022538598626852036,-0.16867876052856445,-0.040455546230077744
1775751036850817800,3.22281787109375,-0.03380723297595978,-0.19048285484313965,-0.03912529721856117
1775751036860831700,3.232831787109375,-0.047620780766010284,-0.21157243847846985,-0.023313311859965324
1775751036870845400,3.242845458984375,-0.06572175770998001,-0.2540477216243744,0.013946974650025368
1775751036880859600,3.252859619140625,-0.08296066522598267,-0.31691935658454895,0.07272693514823914
1775751036890873600,3.26287353515625,-0.11272308230400085,-0.40184304118156433,0.15720932185649872
1775751036900887800,3.2728876953125,-0.12789511680603027,-0.509194016456604,0.24734614789485931
1775751036910901500,3.282901611328125,-0.13284753262996674,-0.6254779696464539,0.326215922832489
1775751036920915700,3.292915771484375,-0.1455145925283432,-0.7355920076370239,0.40990814566612244
1775751036930929700,3.3029296875,-0.15735261142253876,-0.8093538284301758,0.4846007823944092
1775751036940943600,3.312943603515625,-0.1778898388147354,-0.8557959198951721,0.5255375504493713
1775751036950957600,3.32295751953125,-0.1987770050764084,-0.8374336361885071,0.524886429309845
1775751036960971500,3.332971435546875,-0.22435906529426575,-0.7996317148208618,0.4627055823802948
1775751036970985700,3.34298583984375,-0.23348811268806458,-0.7232285141944885,0.3898574709892273
1775751036980999700,3.352999755859375,-0.24379855394363403,-0.6581302285194397,0.3265717327594757
1775751036991013600,3.363013671875,-0.2482934296131134,-0.5894352793693542,0.2918829917907715
1775751037001027600,3.373027587890625,-0.2372029572725296,-0.5518863201141357,0.2795376479625702
1775751037011041500,3.38304150390625,-0.22393162548542023,-0.5642857551574707,0.2909359633922577
1775751037021055700,3.3930556640625,-0.23149900138378143,-0.6081147193908691,0.33306556940078735
1775751037031069700,3.403069580078125,-0.24990756809711456,-0.6700811386108398,0.39216965436935425
1775751037041083600,3.413083740234375,-0.2599357068538666,-0.699656069278717,0.4644739329814911
1775751037051097600,3.42309765625,-0.2611556947231293,-0.7341932654380798,0.5383931398391724
1775751037061111800,3.43311181640625,-0.2601570188999176,-0.7880802154541016,0.600349485874176
1775751037071125800,3.443125732421875,-0.255266398191452,-0.8638706207275391,0.653247594833374
1775751037081139500,3.453139404296875,-0.2650260627269745,-0.9486637711524963,0.7066404819488525
1775751037091153700,3.463153564453125,-0.2829377055168152,-0.963563084602356,0.7371398210525513
1775751037101167600,3.473167724609375,-0.2796364426612854,-0.9017857313156128,0.7243734002113342
1775751037111181800,3.483181884765625,-0.26317542791366577,-0.8227769732475281,0.6599113345146179
1775751037121195500,3.493195556640625,-0.2468329519033432,-0.731779158115387,0.5723804235458374
1775751037131209700,3.503209716796875,-0.21492455899715424,-0.6872335076332092,0.48002520203590393
1775751037141223700,3.5132236328125,-0.16149994730949402,-0.662598192691803,0.3932594060897827
1775751037151237600,3.523237548828125,-0.1087174266576767,-0.6470775604248047,0.3250854015350342
1775751037161251600,3.53325146484375,-0.07278872281312943,-0.6688169240951538,0.27876025438308716
1775751037171265500,3.543265625,-0.07517038285732269,-0.6863144636154175,0.23949354887008667
1775751037181279700,3.55327978515625,-0.10549526661634445,-0.6760871410369873,0.1814108043909073
1775751037191293700,3.563293701171875,-0.1707983762025833,-0.631213903427124,0.10339882969856262
1775751037201307600,3.5733076171875,-0.25509968400001526,-0.6049330234527588,0.02502412721514702
1775751037211321600,3.583321533203125,-0.33810746669769287,-0.5667473077774048,-0.03971785306930542
1775751037221335600,3.59333544921875,-0.39257392287254333,-0.49939730763435364,-0.08159393072128296
1775751037231349800,3.603349853515625,-0.4275952875614166,-0.4377429783344269,-0.09485780447721481
1775751037241363500,3.613363525390625,-0.4671586751937866,-0.37982454895973206,-0.06226949766278267
1775751037251377700,3.623377685546875,-0.4954068064689636,-0.37700241804122925,0.008251538500189781
1775751037261391600,3.6333916015625,-0.5112971067428589,-0.39627012610435486,0.11150708794593811
1775751037271405800,3.64340576171875,-0.5075689554214478,-0.4403960406780243,0.23172830045223236
1775751037281419800,3.653419677734375,-0.47241121530532837,-0.5325981378555298,0.3519255518913269
1775751037291433500,3.66343359375,-0.4236268997192383,-0.6352373957633972,0.458125501871109
1775751037301447700,3.67344775390625,-0.3786226809024811,-0.7195832133293152,0.545354962348938
1775751037311461600,3.683461669921875,-0.34260767698287964,-0.7824385762214661,0.611413836479187
1775751037321475800,3.693475830078125,-0.32237112522125244,-0.8262633085250854,0.6479127407073975
1775751037331489500,3.703489501953125,-0.30231910943984985,-0.8205811977386475,0.6276455521583557
1775751037341503700,3.713503662109375,-0.2745780348777771,-0.7460054755210876,0.539975106716156
1775751037351517700,3.723517578125,-0.2616438567638397,-0.6632168292999268,0.4086112082004547
1775751037361531600,3.73353173828125,-0.2686721980571747,-0.5692059397697449,0.28569912910461426
1775751037371545600,3.743545654296875,-0.27391329407691956,-0.4624722898006439,0.1824536919593811
1775751037381559600,3.7535595703125,-0.25767308473587036,-0.36271029710769653,0.09794946759939194
1775751037391573800,3.76357373046875,-0.2370532900094986,-0.2730991840362549,0.05043947324156761
1775751037401587500,3.77358740234375,-0.22156621515750885,-0.21684841811656952,0.04393869638442993
1775751037411601700,3.7836015625,-0.19885237514972687,-0.18979336321353912,0.07523829489946365
1775751037421615400,3.793615478515625,-0.15130403637886047,-0.20748847723007202,0.11785446107387543
1775751037431629300,3.80362939453125,-0.10934460163116455,-0.25801315903663635,0.16704252362251282
1775751037441643500,3.8136435546875,-0.08204373717308044,-0.30036062002182007,0.20099861919879913
1775751037451657500,3.823657470703125,-0.05398733541369438,-0.3451467454433441,0.2104341983795166
1775751037461671700,3.833671630859375,-0.04333069548010826,-0.34788259863853455,0.21509872376918793
1775751037471685400,3.843685302734375,-0.020621921867132187,-0.3186892867088318,0.2158374935388565
1775751037481699600,3.853699462890625,0.009616674855351448,-0.25942516326904297,0.18592193722724915
1775751037491713500,3.863713623046875,0.03753912076354027,-0.19735968112945557,0.12966158986091614
1775751037501727500,3.8737275390625,0.055158328264951706,-0.14251959323883057,0.08369676023721695
1775751037511741400,3.883741455078125,0.06286178529262543,-0.08625099807977676,0.058642275631427765
1775751037521755400,3.89375537109375,0.06505542993545532,-0.05088901147246361,0.050450924783945084
1775751037531769600,3.90376953125,0.051595281809568405,-0.06835269182920456,0.04676031321287155
1775751037541783600,3.913783447265625,0.03230707347393036,-0.10527954995632172,0.031019700691103935
1775751037551797500,3.923797607421875,0.035357456654310226,-0.15815208852291107,0.008022506721317768
1775751037561811500,3.9338115234375,0.05164188891649246,-0.1660371720790863,-0.010244647972285748
1775751037571825400,3.943825439453125,0.0582481250166893,-0.15368090569972992,-0.026192720979452133
1775751037581839600,3.953839599609375,0.05648937448859215,-0.12431689351797104,-0.03522137179970741
1775751037591853300,3.963853271484375,0.05060671642422676,-0.0503113754093647,-0.03442002460360527
1775751037601867500,3.973867431640625,0.025299496948719025,0.029094768688082695,-0.036499954760074615
1775751037611881500,3.983881591796875,-0.011186874471604824,0.07942904531955719,-0.0523683987557888
1775751037621895400,3.9938955078125,-0.07036764174699783,0.09952126443386078,-0.07017242908477783
1775751037631909400,4.003909423828125,-0.1253986656665802,0.09053575992584229,-0.0732068344950676
1775751037641923300,4.01392333984375,-0.15383510291576385,0.06719235330820084,-0.06851967424154282
1775751037651937500,4.0239375,-0.16707740724086761,0.041123732924461365,-0.04661410674452782
1775751037661951500,4.033951416015625,-0.15471874177455902,0.011187673546373844,-0.030175479128956795
1775751037671965400,4.04396533203125,-0.13191968202590942,-0.020536966621875763,-0.016321981325745583
1775751037681979400,4.0539794921875,-0.11162666231393814,-0.03459686040878296,-0.0022426480427384377
1775751037691993600,4.06399365234375,-0.09939556568861008,-0.008856075815856457,0.00705737667158246
1775751037702007600,4.074007568359375,-0.0844602882862091,0.03597371280193329,-0.0055004931055009365
1775751037712021500,4.084021484375,-0.08813944458961487,0.08855942636728287,-0.029292641207575798
1775751037722035500,4.094035400390625,-0.102353535592556,0.14232732355594635,-0.053283728659152985
1775751037732049400,4.10404931640625,-0.1168440580368042,0.16738420724868774,-0.08082640916109085
1775751037742063600,4.114063720703125,-0.11508184671401978,0.1675269454717636,-0.0983516052365303
1775751037752077600,4.12407763671875,-0.09649831056594849,0.03686533868312836,-0.08379023522138596
1775751037762091500,4.134091552734375,-0.10797493904829025,-0.1807039976119995,-0.035467714071273804
1775751037772105500,4.14410546875,-0.1050902009010315,-0.1261587291955948,-0.0795036107301712
1775751037782119400,4.154119384765625,-0.07083608955144882,-0.033722009509801865,-0.07996833324432373
1775751037792133600,4.164133544921875,-0.06112141162157059,-0.014282799325883389,-0.031312648206949234
1775751037802147300,4.174147216796875,-0.06839822977781296,-0.0292966365814209,-0.012382101267576218
1775751037812161500,4.18416162109375,-0.045277465134859085,0.017193900421261787,-0.010157562792301178
1775751037822175500,4.194175537109375,0.0019062906503677368,0.0916481614112854,0.0018674085149541497
1775751037832189400,4.204189453125,0.04225850850343704,0.1589084267616272,0.015166436322033405
1775751037842203400,4.214203369140625,0.07321082800626755,0.23479120433330536,0.01242258120328188
1775751037852217300,4.22421728515625,0.10695627331733704,0.2742067873477936,-0.009354619309306145
1775751037862231600,4.2342314453125,0.08887367695569992,0.21489766240119934,-0.019102854654192924
1775751037872245500,4.24424560546875,0.03410204499959946,0.11247940361499786,-0.057973820716142654
1775751037882259500,4.254259521484375,-0.018366755917668343,0.018867697566747665,-0.11618972569704056
1775751037892273400,4.2642734375,-0.05890645831823349,-0.024940770119428635,-0.17597396671772003
1775751037902287400,4.274287353515625,-0.08124905079603195,-0.01173575222492218,-0.21865138411521912
1775751037912301600,4.284301513671875,-0.07853475213050842,0.048161137849092484,-0.23703837394714355
1775751037922315300,4.294315185546875,-0.06576357036828995,0.12948529422283173,-0.2301626354455948
1775751037932329500,4.30432958984375,-0.06482134014368057,0.17647570371627808,-0.21337538957595825
1775751037942343400,4.314343505859375,-0.07191493362188339,0.18154636025428772,-0.17679421603679657
1775751037952357600,4.324357666015625,-0.08106502145528793,0.13683907687664032,-0.12989647686481476
1775751037962371600,4.33437158203125,-0.11296942830085754,0.08256571739912033,-0.09066944569349289
1775751037972385300,4.34438525390625,-0.15400287508964539,0.04595763608813286,-0.06844323873519897
1775751037982399500,4.3543994140625,-0.18651102483272552,0.02207787148654461,-0.06610338389873505
1775751037992413400,4.364413330078125,-0.1907110959291458,0.025659823790192604,-0.09635982662439346
1775751038002427600,4.374427734375,-0.1650179773569107,0.016714798286557198,-0.12281113862991333
1775751038012441300,4.38444140625,-0.1307297796010971,0.019038937985897064,-0.13977308571338654
1775751038022455600,4.39445556640625,-0.11063063889741898,-0.0030189594253897667,-0.17027239501476288
1775751038032469500,4.404469482421875,-0.09623359143733978,-0.007468835450708866,-0.1899092197418213
1775751038042483500,4.4144833984375,-0.08454098552465439,-0.0084249097853899,-0.1810520738363266
1775751038052497400,4.424497314453125,-0.07510247081518173,0.017299627885222435,-0.15410754084587097
1775751038062511400,4.434511474609375,-0.04296956956386566,0.04017698019742966,-0.13054496049880981
1775751038072525600,4.444525634765625,-0.013671870343387127,0.02020833268761635,-0.07732301950454712
1775751038082539500,4.45453955078125,0.004722849931567907,-0.0600161999464035,-0.014489460736513138
1775751038092553500,4.464553466796875,-0.0038059235084801912,-0.1928325742483139,0.04553233087062836
1775751038102567400,4.4745673828125,-0.03328152373433113,-0.2645123600959778,0.07155860215425491
1775751038112581400,4.484581298828125,-0.06876787543296814,-0.3108276426792145,0.0769224762916565
1775751038122595600,4.494595703125,-0.10254741460084915,-0.37531182169914246,0.08484750986099243
1775751038132609300,4.504609375,-0.11192174255847931,-0.5422446131706238,0.09617234021425247
1775751038142623500,4.51462353515625,-0.051849350333213806,-0.6132402420043945,0.012120045721530914
1775751038152638500,4.524638427734375,0.26499783992767334,-0.029797310009598732,-0.4099435806274414
1775751038162651600,4.534651611328125,0.18873023986816406,0.2849595546722412,-0.4023469090461731
1775751038172666600,4.54466650390625,-0.17928959429264069,0.19096888601779938,-0.26306411623954773
1775751038182679300,4.55467919921875,-0.25787922739982605,0.052022721618413925,-0.2770734131336212
1775751038192694500,4.564694580078125,-0.18546652793884277,0.25275927782058716,-0.34929460287094116
1775751038202708500,4.57470849609375,-0.13010767102241516,0.3136700391769409,-0.3304862976074219
1775751038212721700,4.5847216796875,-0.09609270840883255,0.19866089522838593,-0.20234937965869904
1775751038222736400,4.594736328125,-0.09783388674259186,0.13768382370471954,-0.06604932248592377
1775751038232750300,4.604750244140625,-0.10374370217323303,0.1563025265932083,0.009836651384830475
1775751038242764500,4.6147646484375,-0.10311892628669739,0.1423393040895462,0.08801773935556412
1775751038252778500,4.624778564453125,-0.09884082525968552,0.07900507003068924,0.19272524118423462
1775751038262792700,4.634792724609375,-0.0878630131483078,-0.01341407559812069,0.28673750162124634
1775751038272806400,4.644806396484375,-0.08403071761131287,-0.13401292264461517,0.33491382002830505
1775751038282820400,4.6548203125,-0.10636132955551147,-0.26141244173049927,0.348926842212677
1775751038292834600,4.66483447265625,-0.14524027705192566,-0.3430761396884918,0.34187477827072144
1775751038302848500,4.6748486328125,-0.16512849926948547,-0.2985784411430359,0.30286213755607605
1775751038312862500,4.684862548828125,-0.16021950542926788,-0.14882543683052063,0.25531166791915894
1775751038322876400,4.69487646484375,-0.14529487490653992,0.0015046859625726938,0.25530821084976196
1775751038332890600,4.704890625,-0.1515735387802124,0.09615769237279892,0.29674404859542847
1775751038342904600,4.714904541015625,-0.1662483662366867,0.15498478710651398,0.34253576397895813
1775751038352918300,4.724918212890625,-0.1912487894296646,0.21264515817165375,0.38828834891319275
1775751038362932500,4.734932373046875,-0.17434915900230408,0.2215939164161682,0.4508771598339081
1775751038372946400,4.744946533203125,-0.15675924718379974,0.1510358601808548,0.5209878087043762
1775751038382960600,4.754960693359375,-0.15756405889987946,0.01888607256114483,0.5482910871505737
1775751038392974300,4.764974365234375,-0.1672140210866928,-0.06375554203987122,0.5530991554260254
1775751038402989000,4.774989013671875,-0.1726149171590805,-0.10983142256736755,0.5489304661750793
1775751038413003300,4.785003173828125,-0.17937427759170532,-0.10009703785181046,0.5147413611412048
1775751038423017200,4.795017333984375,-0.18364332616329193,-0.02781085856258869,0.45622026920318604
1775751038433031400,4.805031494140625,-0.1485484540462494,0.08741240203380585,0.4046558737754822
1775751038443045400,4.81504541015625,-0.10205020010471344,0.20630310475826263,0.3530302345752716
1775751038453059000,4.82505908203125,-0.04128192737698555,0.2984825670719147,0.34366920590400696
1775751038463073300,4.8350732421875,0.029046032577753067,0.2680612802505493,0.39100369811058044
1775751038473087200,4.845087158203125,0.05372261628508568,0.10891503095626831,0.4117199182510376
1775751038483101400,4.855101318359375,0.0022359900176525116,-0.07163263857364655,0.3808802366256714
1775751038493115100,4.865115234375,-0.1128690242767334,-0.22041332721710205,0.30820098519325256
1775751038503129300,4.87512939453125,-0.24556688964366913,-0.2830663323402405,0.20353953540325165
1775751038513143300,4.885143310546875,-0.34669697284698486,-0.23033574223518372,0.09411824494600296
1775751038523157200,4.8951572265625,-0.40320339798927307,-0.08053132891654968,-0.0025808694772422314
1775751038533171200,4.905171142578125,-0.39391028881073,0.07196740061044693,-0.06740593910217285
1775751038543185200,4.91518505859375,-0.3068898916244507,0.1941835880279541,-0.09493450075387955
1775751038553199400,4.925199462890625,-0.16485074162483215,0.25287193059921265,-0.09360398352146149
1775751038563213300,4.93521337890625,0.005625661462545395,0.1972598135471344,-0.05410477891564369
1775751038573227300,4.945227294921875,0.1278114914894104,0.09867358207702637,-0.0062272693030536175
1775751038583241200,4.9552412109375,0.1845030039548874,0.010706174187362194,0.03569621220231056
1775751038593255200,4.965255126953125,0.16173617541790009,-0.0946149230003357,0.08281765133142471
1775751038603269400,4.975269287109375,0.11633193492889404,-0.16095426678657532,0.09965495765209198
1775751038613283000,4.985282958984375,0.0699567124247551,-0.1734282374382019,0.07871291786432266
1775751038623297300,4.99529736328125,0.02364514209330082,-0.16673998534679413,0.050216566771268845
1775751038633311200,5.005311279296875,-0.02442251890897751,-0.11881080269813538,0.022841932252049446
1775751038643325400,5.015325439453125,-0.04613287374377251,-0.032757412642240524,0.0026290726382285357
1775751038653339100,5.025339111328125,-0.03062315657734871,0.0975758284330368,0.03356727957725525
1775751038663353000,5.03535302734375,0.02997148036956787,0.20114482939243317,0.10747905820608139
1775751038673367300,5.0453671875,0.10841409116983414,0.19572769105434418,0.19138912856578827
1775751038683381200,5.05538134765625,0.18767988681793213,0.1044989749789238,0.25450339913368225
1775751038693395500,5.0653955078125,0.2688194811344147,-0.014219149947166443,0.2742486000061035
1775751038703409200,5.0754091796875,0.33070841431617737,-0.13604359328746796,0.27199503779411316
1775751038713423400,5.08542333984375,0.3182336390018463,-0.2836468815803528,0.2792534828186035
1775751038723437300,5.095437255859375,0.21625879406929016,-0.40985968708992004,0.26683515310287476
1775751038733451300,5.105451171875,0.09713267534971237,-0.47997725009918213,0.2369968295097351
1775751038743465200,5.11546533203125,0.01824052259325981,-0.44476574659347534,0.2001330852508545
1775751038753479200,5.125479248046875,-0.011040134355425835,-0.3054499328136444,0.16229116916656494
1775751038763493400,5.135493408203125,-0.014312626793980598,-0.1420503556728363,0.13938425481319427
1775751038773507300,5.14550732421875,-0.0035337484441697598,0.08463845402002335,0.12788739800453186
1775751038783521300,5.155521240234375,0.0410478338599205,0.3324200212955475,0.1269848495721817
1775751038793535200,5.16553515625,0.1230260580778122,0.559855580329895,0.13674692809581757
1775751038803549200,5.175549072265625,0.21007519960403442,0.6714947819709778,0.17441600561141968
1775751038813563400,5.1855634765625,0.26876407861709595,0.6247323155403137,0.24184031784534454
1775751038823577000,5.1955771484375,0.24827586114406586,0.38398388028144836,0.328980028629303
1775751038833591300,5.20559130859375,0.11872931569814682,0.09674625098705292,0.4291265904903412
1775751038843605200,5.215605224609375,-0.03337979316711426,-0.16914774477481842,0.5049142837524414
1775751038853619500,5.225619384765625,-0.16655808687210083,-0.3623872399330139,0.533703088760376
1775751038863633200,5.235633056640625,-0.24850808084011078,-0.409601628780365,0.4935324788093567
1775751038873647000,5.245647216796875,-0.267526239156723,-0.34808874130249023,0.3749839961528778
1775751038883661300,5.255661376953125,-0.22054249048233032,-0.1640413999557495,0.198506161570549
1775751038893675300,5.26567529296875,-0.10241345316171646,0.12769964337348938,-0.03194834664463997
1775751038903689200,5.275689208984375,0.027218038216233253,0.4203283190727234,-0.24882872402668
1775751038913703200,5.285703125,0.1315191388130188,0.5902145504951477,-0.41049832105636597
1775751038923717400,5.29571728515625,0.18357142806053162,0.46670860052108765,-0.4731196165084839
1775751038933731300,5.3057314453125,0.17727598547935486,0.11445920169353485,-0.43835097551345825
1775751038943745300,5.315745361328125,0.15520928800106049,-0.2304856777191162,-0.3589584231376648
1775751038953759200,5.32575927734375,0.12451503425836563,-0.4102453291416168,-0.25094327330589294
1775751038963773200,5.335773193359375,0.06895909458398819,-0.36705708503723145,-0.13281424343585968
1775751038973787400,5.345787353515625,-0.007523696403950453,-0.12007421255111694,-0.020133497193455696
1775751038983801300,5.35580126953125,-0.06446687132120132,0.21510644257068634,0.11020373553037643
1775751038993815300,5.365815185546875,-0.05348639562726021,0.42689192295074463,0.2583335340023041
1775751039003829200,5.375829345703125,0.0014554174849763513,0.43763646483421326,0.4304041266441345
1775751039013843200,5.38584326171875,0.05440039187669754,0.28105804324150085,0.5911120176315308
1775751039023857400,5.395857421875,0.10155937820672989,0.06380560994148254,0.744268536567688
1775751039033871000,5.40587109375,0.13961808383464813,-0.1233791932463646,0.827118456363678
1775751039043885300,5.41588525390625,0.16565687954425812,-0.22730505466461182,0.8401498198509216
1775751039053899300,5.425899169921875,0.18750092387199402,-0.28156670928001404,0.7920145392417908
1775751039063913500,5.43591357421875,0.22494415938854218,-0.22277981042861938,0.7305706143379211
1775751039073927200,5.44592724609375,0.2595974802970886,-0.12118501216173172,0.6823431253433228
1775751039083941000,5.455941162109375,0.2976367473602295,0.05011243373155594,0.7094453573226929
1775751039093955300,5.465955322265625,0.2779242992401123,0.1145595982670784,0.7769359350204468
1775751039103969300,5.47596923828125,0.1683645099401474,0.13560442626476288,0.8481153249740601
1775751039113983200,5.485983154296875,0.008827580139040947,0.11508983373641968,0.8299091458320618
1775751039123997200,5.4959970703125,-0.1639878749847412,0.13727717101573944,0.750154972076416
1775751039134011400,5.506011474609375,-0.2641586661338806,0.05251434072852135,0.714154064655304
1775751039144025300,5.516025390625,-0.3034656047821045,-0.20560215413570404,0.6200936436653137
1775751039154039000,5.5260390625,-0.31447911262512207,-0.31759101152420044,0.44904226064682007
1775751039164053200,5.53605322265625,-0.2801584303379059,-0.22335238754749298,0.29122331738471985
1775751039174067200,5.546067138671875,-0.21967217326164246,-0.01902375929057598,0.17180797457695007
1775751039184081400,5.556081298828125,-0.15367823839187622,0.2710501551628113,0.13066214323043823
1775751039194095400,5.566095458984375,-0.10640659928321838,0.4308520555496216,0.15364068746566772
1775751039204109300,5.576109375,-0.12520211935043335,0.5085282325744629,0.20950475335121155
1775751039214123300,5.586123291015625,-0.15873372554779053,0.472177654504776,0.27796369791030884
1775751039224137200,5.59613720703125,-0.1952054500579834,0.3472785949707031,0.36869415640830994
1775751039234150100,5.606150146484375,-0.2046559453010559,0.26269927620887756,0.46978560090065
1775751039244165000,5.6161650390625,-0.15340474247932434,0.18171440064907074,0.569428026676178
1775751039254179300,5.626179443359375,-0.07694937288761139,0.15948259830474854,0.6542268395423889
1775751039264193300,5.636193359375,-0.025074459612369537,0.1588042974472046,0.6669013500213623
1775751039274206200,5.646206298828125,-0.03039039671421051,0.2281050682067871,0.6079813241958618
1775751039284221200,5.65622119140625,-0.06216350570321083,0.21925565600395203,0.5564696192741394
1775751039294234400,5.666234375,-0.11883104592561722,0.06395767629146576,0.4731374680995941
1775751039304248300,5.676248291015625,-0.22537000477313995,-0.0333947092294693,0.31443116068840027
1775751039314262300,5.68626220703125,-0.3220800459384918,-0.07814113795757294,0.1295505315065384
1775751039324277200,5.69627734375,-0.3392409086227417,-0.08310047537088394,-0.014790131710469723
1775751039334290200,5.706290283203125,-0.2690999209880829,0.007112504448741674,-0.1443427950143814
1775751039344304400,5.716304443359375,-0.18780797719955444,0.10674189031124115,-0.23578377068042755
1775751039354318300,5.726318359375,-0.11031559109687805,0.17720647156238556,-0.29879307746887207
1775751039364332300,5.736332275390625,-0.06366925686597824,0.13536900281906128,-0.33950138092041016
1775751039374346200,5.74634619140625,-0.08319316059350967,0.10859891772270203,-0.3389059007167816
1775751039384360200,5.756360107421875,-0.11492738127708435,0.058938417583703995,-0.3230121433734894
1775751039394374400,5.76637451171875,-0.13218413293361664,0.006425675004720688,-0.33741211891174316
1775751039404388000,5.77638818359375,-0.16706249117851257,0.025417475029826164,-0.3724537193775177
1775751039414402300,5.78640234375,-0.164637953042984,0.07661301642656326,-0.41316521167755127
1775751039424416300,5.796416259765625,-0.12868954241275787,0.18358713388442993,-0.4101686179637909
1775751039434430500,5.806430419921875,-0.06487460434436798,0.28168627619743347,-0.3634359836578369
1775751039444444200,5.816444091796875,-0.011012171395123005,0.34731003642082214,-0.2482638657093048
1775751039454458000,5.8264580078125,0.06048331782221794,0.3600527048110962,-0.1084069013595581
1775751039464472300,5.836472412109375,0.1850457489490509,0.3299989402294159,-0.03250707685947418
1775751039474486300,5.846486328125,0.32906150817871094,0.293605774641037,-0.012908607721328735
1775751039484500200,5.856500244140625,0.4361554682254791,0.22057178616523743,-0.0009068063227459788
1775751039494514200,5.86651416015625,0.5273684859275818,0.14020425081253052,0.01660134643316269
1775751039504528400,5.8765283203125,0.6152074933052063,0.09375046193599701,0.02967081032693386
1775751039514542300,5.886542236328125,0.6634085774421692,0.0921616181731224,0.041669949889183044
1775751039524556000,5.89655615234375,0.6506001353263855,0.11677109450101852,0.03171505406498909
1775751039534570200,5.9065703125,0.5675560832023621,0.11666776239871979,-0.0033894050866365433
1775751039544584200,5.916584228515625,0.45337042212486267,0.09079967439174652,-0.06741632521152496
1775751039554598400,5.926598388671875,0.35874882340431213,0.060511812567710876,-0.15776273608207703
1775751039564612000,5.936612060546875,0.30108100175857544,0.029804501682519913,-0.23912523686885834
1775751039574626300,5.946626220703125,0.2588382065296173,0.01296453457325697,-0.285942018032074
1775751039584640300,5.95664013671875,0.20584636926651,-0.0636543408036232,-0.27257853746414185
1775751039594654200,5.966654296875,0.12368838489055634,-0.1653735190629959,-0.2224101722240448
1775751039604668400,5.97666845703125,0.031001858413219452,-0.22707362473011017,-0.16886305809020996
1775751039614682000,5.98668212890625,-0.050637077540159225,-0.23046250641345978,-0.1159558966755867
1775751039624696300,5.9966962890625,-0.11115821450948715,-0.2000284343957901,-0.08566377311944962
1775751039634710300,6.006710205078125,-0.16782201826572418,-0.18560607731342316,-0.09913137555122375
1775751039644724500,6.016724365234375,-0.2201635241508484,-0.16536551713943481,-0.14078295230865479
1775751039654738200,6.02673828125,-0.24431759119033813,-0.13273993134498596,-0.21088559925556183
1775751039664752000,6.036752197265625,-0.22655324637889862,-0.09576274454593658,-0.2972641587257385
1775751039674766300,6.046766357421875,-0.16673491895198822,-0.0640341117978096,-0.3867461085319519
1775751039684780300,6.0567802734375,-0.11158564686775208,-0.03331534564495087,-0.4751918315887451
1775751039694794200,6.066794189453125,-0.0706707090139389,-0.023610521107912064,-0.5311594605445862
1775751039704808200,6.07680810546875,-0.00881799217313528,-0.020594490692019463,-0.5130811333656311
1775751039714822400,6.086822509765625,0.06130383908748627,-0.09036744385957718,-0.4107699692249298
1775751039724836400,6.09683642578125,0.0965060293674469,-0.20745837688446045,-0.26098713278770447
1775751039734850000,6.10685009765625,0.11500115692615509,-0.34560826420783997,-0.1018185093998909
1775751039744864300,6.1168642578125,0.10207124054431915,-0.44967207312583923,0.006592122372239828
1775751039754878200,6.126878173828125,0.05024426057934761,-0.4971171021461487,0.061952315270900726
1775751039764892400,6.136892333984375,-0.010926949791610241,-0.46147680282592773,0.02568565495312214
1775751039774906000,6.146906005859375,-0.092809297144413,-0.37958115339279175,-0.12145639210939407
1775751039784920300,6.15692041015625,-0.1601308137178421,-0.29047709703445435,-0.3056379556655884
1775751039794934300,6.166934326171875,-0.1723739057779312,-0.1428985595703125,-0.4978742301464081
1775751039804948200,6.1769482421875,-0.14375238120555878,-0.04851214215159416,-0.6651660203933716
1775751039814962200,6.186962158203125,-0.0424281507730484,-0.016023706644773483,-0.7363472580909729
1775751039824976100,6.19697607421875,0.06871993839740753,-0.0488080196082592,-0.7122975587844849
1775751039834990300,6.206990234375,0.15598906576633453,-0.0925978422164917,-0.6050885915756226
1775751039845004300,6.21700439453125,0.20212461054325104,-0.12447241693735123,-0.44942495226860046
1775751039855018500,6.2270185546875,0.20179757475852966,-0.1428205370903015,-0.33376917243003845
1775751039865032200,6.2370322265625,0.16883109509944916,-0.12074212729930878,-0.26796621084213257
1775751039875046100,6.247046142578125,0.12891830503940582,-0.07782342284917831,-0.26764369010925293
1775751039885060400,6.257060302734375,0.09620935469865799,-0.004830974154174328,-0.3204091787338257
1775751039895074300,6.26707421875,0.11634045839309692,0.08485017716884613,-0.3547397255897522
1775751039905088300,6.277088134765625,0.16032762825489044,0.15015462040901184,-0.3582007586956024
1775751039915102200,6.287102294921875,0.2112129032611847,0.17368656396865845,-0.34157678484916687
1775751039925116400,6.297116455078125,0.27350690960884094,0.17814497649669647,-0.28895190358161926
1775751039935130400,6.30713037109375,0.2893359363079071,0.16893655061721802,-0.20808449387550354
1775751039945144000,6.31714404296875,0.2583673596382141,0.12414538115262985,-0.11481260508298874
1775751039955158300,6.327158203125,0.19853785634040833,0.08549679070711136,-0.025596173480153084
1775751039965172200,6.337172119140625,0.13447391986846924,0.06662429869174957,0.03723898157477379
1775751039975186400,6.3471865234375,0.09536433219909668,0.07965487986803055,0.06709940731525421
1775751039985200000,6.3572001953125,0.0605834536254406,0.12609988451004028,0.06288735568523407
1775751039995214300,6.36721435546875,0.015505456365644932,0.16925133764743805,0.021214740350842476
1775751040005228300,6.377228271484375,-0.0034165694378316402,0.15535283088684082,-0.0500679612159729
1775751040015242200,6.3872421875,-0.004863731097429991,0.12407108396291733,-0.13839809596538544
1775751040025256200,6.397256103515625,0.008564460091292858,0.11587706953287125,-0.2177823930978775
1775751040035270100,6.407270263671875,0.044441498816013336,0.12451875954866409,-0.266671359539032
1775751040045284400,6.417284423828125,0.06196323782205582,0.14943236112594604,-0.2746637761592865
1775751040055298300,6.42729833984375,0.0560118705034256,0.14460459351539612,-0.2670498192310333
1775751040065312300,6.437312255859375,0.040235571563243866,0.14165885746479034,-0.25845232605934143
1775751040075326200,6.447326171875,0.021344436332583427,0.12021908909082413,-0.266628235578537
1775751040085340200,6.457340087890625,0.019776901230216026,0.08473566174507141,-0.2999422550201416
1775751040095354400,6.467354248046875,0.03314676880836487,0.08058645576238632,-0.3582439124584198
1775751040105368300,6.477368408203125,0.0446028895676136,0.09566979855298996,-0.4099124073982239
1775751040115382300,6.48738232421875,0.04434243217110634,0.08706513047218323,-0.41356226801872253
1775751040125396200,6.497396240234375,0.04655365273356438,0.05878954753279686,-0.3758489787578583
1775751040135410400,6.507410400390625,0.039448872208595276,0.0041313618421554565,-0.29123422503471375
1775751040145424400,6.51742431640625,0.0187811441719532,-0.06342744082212448,-0.17391693592071533
1775751040155438000,6.52743798828125,-0.023496005684137344,-0.11100161820650101,-0.06355367600917816
1775751040165452300,6.537452392578125,-0.08458146452903748,-0.13972380757331848,0.018093517050147057
1775751040175466200,6.54746630859375,-0.1493852287530899,-0.11575961858034134,0.10859998315572739
1775751040185480400,6.55748046875,-0.20319172739982605,-0.03279922530055046,0.23355069756507874
1775751040195494100,6.567494140625,-0.2587237060070038,0.08717751502990723,0.38290610909461975
1775751040205508400,6.57750830078125,-0.29051706194877625,0.18281349539756775,0.5268480777740479
1775751040215522300,6.587522216796875,-0.30026236176490784,0.21807880699634552,0.6170839667320251
1775751040225536300,6.597536376953125,-0.28957030177116394,0.21725508570671082,0.6505926847457886
1775751040235550200,6.60755029296875,-0.2551811635494232,0.18130747973918915,0.6435864567756653
1775751040245564200,6.617564208984375,-0.23475046455860138,0.1471167504787445,0.6357990503311157
1775751040255578400,6.627578369140625,-0.22497957944869995,0.11739320307970047,0.6490113139152527
1775751040265592300,6.63759228515625,-0.2117958664894104,0.0876704603433609,0.6984137296676636
1775751040275606300,6.647606201171875,-0.2644529640674591,0.046479351818561554,0.7556620836257935
1775751040285620200,6.6576201171875,-0.32460257411003113,-0.018969696015119553,0.8038282990455627
1775751040295634200,6.66763427734375,-0.34322819113731384,-0.07550301402807236,0.8216887712478638
1775751040305648400,6.6776484375,-0.3469052314758301,-0.0913618728518486,0.7852402329444885
1775751040315662000,6.687662109375,-0.32917657494544983,-0.05077502876520157,0.7039943933486938
1775751040325676300,6.69767626953125,-0.25350576639175415,0.040107205510139465,0.6178184747695923
1775751040335690200,6.707690185546875,-0.17264313995838165,0.076454296708107,0.52623450756073
1775751040345704200,6.7177041015625,-0.13686837255954742,0.07820159196853638,0.41858208179473877
1775751040355718400,6.727718505859375,-0.13821806013584137,0.13704600930213928,0.2597886919975281
1775751040365732000,6.737732177734375,-0.1551312655210495,0.22459475696086884,0.10050397366285324
1775751040375746300,6.747746337890625,-0.1857443004846573,0.28710633516311646,-0.03187910467386246
1775751040385760300,6.75776025390625,-0.24729394912719727,0.3231743276119232,-0.14693379402160645
1775751040395774500,6.7677744140625,-0.30684196949005127,0.3324437141418457,-0.23417948186397552
1775751040405788200,6.7777880859375,-0.34012696146965027,0.34767648577690125,-0.27489814162254333
1775751040415802000,6.787802001953125,-0.32436609268188477,0.3030607998371124,-0.2410496324300766
1775751040425816000,6.797816162109375,-0.2841680645942688,0.1805676519870758,-0.17149053514003754
1775751040435830000,6.807830078125,-0.24958986043930054,0.015391206368803978,-0.13973046839237213
1775751040445844200,6.81784423828125,-0.21167470514774323,-0.12940779328346252,-0.18933077156543732
1775751040455857200,6.827857177734375,-0.17225459218025208,-0.18319033086299896,-0.32064032554626465
1775751040465872100,6.8378720703125,-0.14347460865974426,-0.1329183727502823,-0.47120508551597595
1775751040475885000,6.847885009765625,-0.11443576216697693,0.012251073494553566,-0.5863385796546936
1775751040485899300,6.857899169921875,-0.057790063321590424,0.17624107003211975,-0.6329383254051208
1775751040495913000,6.867912841796875,-0.010152236558496952,0.2920808494091034,-0.6246204376220703
1775751040505927200,6.87792724609375,0.040595896542072296,0.3111344575881958,-0.616865873336792
1775751040515941000,6.887941162109375,0.08088526129722595,0.269097238779068,-0.599006175994873
1775751040525955300,6.897955322265625,0.11427464336156845,0.14662513136863708,-0.5350818037986755
1775751040535969000,6.907968994140625,0.12493421137332916,-0.07153703272342682,-0.44669973850250244
1775751040545983000,6.91798291015625,0.08659055083990097,-0.2821581959724426,-0.37441888451576233
1775751040555997200,6.9279970703125,0.030478013679385185,-0.44179579615592957,-0.3276953101158142
1775751040566011100,6.93801123046875,-0.0057313889265060425,-0.5041995048522949,-0.29909589886665344
1775751040576025000,6.948025146484375,-0.008463259786367416,-0.436686247587204,-0.29520606994628906
1775751040586039000,6.9580390625,0.020682642236351967,-0.2995166778564453,-0.3243591785430908
1775751040596053200,6.96805322265625,0.08864092081785202,-0.11271003633737564,-0.3803683817386627
1775751040606067200,6.978067138671875,0.16062615811824799,0.05795251578092575,-0.44586002826690674
1775751040616081000,6.988080810546875,0.2265966534614563,0.1361200213432312,-0.5045188069343567
1775751040626095000,6.99809521484375,0.26663729548454285,0.15620984137058258,-0.5334916114807129
1775751040636109000,7.008109130859375,0.26077887415885925,0.126067116856575,-0.5660011172294617
1775751040646123300,7.018123291015625,0.22647202014923096,0.041848115622997284,-0.6171396374702454
1775751040656137000,7.028136962890625,0.20633453130722046,-0.06867387145757675,-0.6622796654701233
1775751040666151200,7.038151123046875,0.21742579340934753,-0.17105776071548462,-0.693226158618927
1775751040676165000,7.0481650390625,0.22753143310546875,-0.16940900683403015,-0.6530134677886963
1775751040686179000,7.058178955078125,0.24429096281528473,-0.1243073046207428,-0.5239809155464172
1775751040696193000,7.068193115234375,0.2793389558792114,-0.03875911235809326,-0.36265116930007935
1775751040706207000,7.07820703125,0.3090531826019287,0.08346160501241684,-0.20821179449558258
1775751040716221200,7.08822119140625,0.3032136857509613,0.2927764654159546,-0.026980750262737274
1775751040726235100,7.098235107421875,0.29369980096817017,0.39044710993766785,0.14744165539741516
1775751040736249000,7.1082490234375,0.282765656709671,0.34849512577056885,0.32143235206604004
1775751040746263000,7.118262939453125,0.2821129262447357,0.15843091905117035,0.4887539744377136
1775751040756277000,7.128277099609375,0.284079909324646,-0.058269962668418884,0.6140199899673462
1775751040766291200,7.138291259765625,0.2640708088874817,-0.20608632266521454,0.6568412184715271
1775751040776305200,7.14830517578125,0.2411433756351471,-0.28050437569618225,0.5859543085098267
1775751040786319000,7.158319091796875,0.22478064894676208,-0.22861532866954803,0.4575182795524597
1775751040796333000,7.1683330078125,0.2412397861480713,-0.0761893093585968,0.29641488194465637
1775751040806347000,7.178346923828125,0.3235684633255005,0.06288149207830429,0.06679101288318634
1775751040816361200,7.188361328125,0.4436967372894287,0.09778275340795517,-0.19063518941402435
1775751040826375000,7.198375,0.576590359210968,0.027646541595458984,-0.41670694947242737
1775751040836389000,7.20838916015625,0.6452961564064026,-0.07769399881362915,-0.5486119985580444
1775751040846403000,7.218403076171875,0.580926239490509,-0.22543418407440186,-0.5544427037239075
1775751040856417300,7.228417236328125,0.3985915780067444,-0.3694470226764679,-0.4978872835636139
1775751040866431000,7.238430908203125,0.19042080640792847,-0.4567299783229828,-0.46887773275375366
1775751040876445000,7.24844482421875,0.03759664297103882,-0.5545036792755127,-0.4712199866771698
1775751040886459100,7.258459228515625,-0.0750018060207367,-0.543109118938446,-0.5385447144508362
1775751040896473000,7.26847314453125,-0.12591558694839478,-0.3540875017642975,-0.6265435218811035
1775751040906487000,7.278487060546875,-0.13729794323444366,-0.12383033335208893,-0.6962035894393921
1775751040916501000,7.2885009765625,-0.17693589627742767,0.17304421961307526,-0.6832219958305359
1775751040926515200,7.29851513671875,-0.24737517535686493,0.44360727071762085,-0.5451104640960693
1775751040936529200,7.308529052734375,-0.29821279644966125,0.5260193347930908,-0.31285643577575684
1775751040946543000,7.318543212890625,-0.32964447140693665,0.3146820366382599,-0.09694971889257431
1775751040956557000,7.32855712890625,-0.3932192027568817,0.02460334636271,0.04061613604426384
1775751040966571000,7.338571044921875,-0.46427232027053833,-0.16592586040496826,0.12472169101238251
1775751040976585200,7.348585205078125,-0.46049225330352783,-0.22296756505966187,0.1795702874660492
1775751040986599200,7.35859912109375,-0.41192710399627686,-0.23890019953250885,0.18548597395420074
1775751040996613000,7.368613037109375,-0.39501363039016724,-0.1381557434797287,0.16370157897472382
1775751041006627000,7.378626953125,-0.4326409101486206,0.09707195311784744,0.1680491864681244
1775751041016641000,7.38864111328125,-0.43745988607406616,0.25419604778289795,0.2630084753036499
1775751041026655200,7.3986552734375,-0.41370874643325806,0.22126713395118713,0.4538964033126831
1775751041036668200,7.408668212890625,-0.34042495489120483,-0.017188042402267456,0.6344587206840515
1775751041046683100,7.41868310546875,-0.2830362319946289,-0.3952367901802063,0.7869774103164673
1775751041056696000,7.428696044921875,-0.24035029113292694,-0.6632916927337646,0.8045356273651123
1775751041066710000,7.4387099609375,-0.22812025249004364,-0.6621263027191162,0.7205880284309387
1775751041076724000,7.448723876953125,-0.2754227817058563,-0.490632563829422,0.4951719343662262
1775751041086738200,7.45873828125,-0.3210960030555725,-0.13729368150234222,0.29943278431892395
1775751041096752000,7.468752197265625,-0.3193335235118866,0.11529756337404251,0.27863216400146484
1775751041106766000,7.47876611328125,-0.2759855091571808,0.17043618857860565,0.3498581349849701
1775751041116780000,7.488780029296875,-0.21512988209724426,0.03416382893919945,0.3858132064342499
1775751041126794000,7.4987939453125,-0.18604204058647156,-0.14710955321788788,0.35543692111968994
1775751041136808200,7.50880810546875,-0.16100139915943146,-0.24077533185482025,0.3041364550590515
1775751041146822100,7.518822265625,-0.13116520643234253,-0.2673526108264923,0.2051134705543518
1775751041156836000,7.528836181640625,-0.1395706832408905,-0.22568772733211517,0.058034539222717285
1775751041166850000,7.53885009765625,-0.1738993525505066,-0.11218752712011337,-0.06664427369832993
1775751041176864300,7.5488642578125,-0.24262835085391998,0.08662676811218262,-0.1113121435046196
1775751041186878200,7.558878173828125,-0.2908051908016205,0.2438901662826538,-0.11581022292375565
1775751041196892000,7.568891845703125,-0.3244587779045105,0.36099255084991455,-0.07700183987617493
1775751041206906000,7.578906005859375,-0.3331497311592102,0.3987034559249878,-0.01062308344990015
1775751041216920000,7.588920166015625,-0.2855779528617859,0.36988458037376404,0.11374706774950027
1775751041226934300,7.598934326171875,-0.20970742404460907,0.21309523284435272,0.2824082672595978
1775751041236948000,7.608947998046875,-0.10933101922273636,0.037521809339523315,0.43036949634552
1775751041246962200,7.618962158203125,0.007800398860126734,-0.1135430708527565,0.5234243273735046
1775751041256976100,7.62897607421875,0.0718584805727005,-0.21759304404258728,0.4971882104873657
1775751041266990000,7.638989990234375,0.10797174274921417,-0.24454902112483978,0.32995685935020447
1775751041277004000,7.649004150390625,0.11360299587249756,-0.13077105581760406,0.10885804146528244
1775751041287018000,7.65901806640625,0.09021484851837158,0.05357028543949127,-0.12304789572954178
1775751041297032200,7.6690322265625,0.048220258206129074,0.24490535259246826,-0.32108187675476074
1775751041307046100,7.679046142578125,-0.03501790389418602,0.4321514070034027,-0.4591502845287323
1775751041317060000,7.68906005859375,-0.09769859910011292,0.5871196985244751,-0.4920320510864258
1775751041327074000,7.699073974609375,-0.07647532969713211,0.5394126176834106,-0.3945270776748657
1775751041337088000,7.709087890625,-0.025799905881285667,0.3409581184387207,-0.19172176718711853
1775751041347102200,7.719102294921875,0.030491063371300697,-0.059601012617349625,0.015293468721210957
1775751041357116000,7.729115966796875,0.050695933401584625,-0.47369620203971863,0.15003237128257751
1775751041367130000,7.739130126953125,0.02839861810207367,-0.6834890842437744,0.22089563310146332
1775751041377144000,7.74914404296875,0.04357277601957321,-0.6896919012069702,0.23696647584438324
1775751041387158300,7.759158203125,0.09317149221897125,-0.521754801273346,0.18383455276489258
1775751041397172200,7.769172119140625,0.10969800502061844,-0.2758725881576538,0.0522213913500309
1775751041407186400,7.7791865234375,0.11770665645599365,-0.061948057264089584,-0.09406737983226776
1775751041417200600,7.78920068359375,0.13681884109973907,0.06798198074102402,-0.16763266921043396
1775751041427214600,7.799214599609375,0.08823185414075851,0.04166169464588165,-0.17393238842487335
1775751041437228500,7.809228515625,0.02022644132375717,-0.07400551438331604,-0.14802701771259308
1775751041447242500,7.819242431640625,-0.036495424807071686,-0.20933830738067627,-0.09364526718854904
1775751041457256400,7.82925634765625,-0.10172289609909058,-0.32058069109916687,-0.036855220794677734
1775751041467270700,7.839270751953125,-0.11699879169464111,-0.3631814122200012,-0.011416971683502197
1775751041477284400,7.849284423828125,-0.09881605952978134,-0.35408642888069153,-0.024645958095788956
1775751041487298600,7.859298583984375,-0.10353518277406693,-0.2906701862812042,-0.08551250398159027
1775751041497312500,7.8693125,-0.1689719706773758,-0.18561780452728271,-0.17958147823810577
1775751041507325400,7.879325439453125,-0.24835708737373352,-0.12481863051652908,-0.2471461445093155
1775751041517339400,7.88933935546875,-0.3431040942668915,-0.1425859034061432,-0.26100441813468933
1775751041527353600,7.899353515625,-0.44986382126808167,-0.20441199839115143,-0.2064778059720993
1775751041537367600,7.909367431640625,-0.5326982736587524,-0.29953503608703613,-0.10825004428625107
1775751041547381500,7.919381591796875,-0.6016845107078552,-0.37417837977409363,-0.04517253860831261
1775751041557395500,7.9293955078125,-0.5936689376831055,-0.45547404885292053,-0.00552259711548686
1775751041567409400,7.939409423828125,-0.5190820693969727,-0.5771037936210632,-0.004540423396974802
1775751041577423600,7.949423583984375,-0.39530497789382935,-0.6251837015151978,-0.048642370849847794
1775751041587437600,7.9594375,-0.22897033393383026,-0.5956687331199646,-0.14723685383796692
1775751041597451500,7.969451416015625,-0.1266772449016571,-0.5053457021713257,-0.18523696064949036
1775751041607465500,7.979465576171875,-0.019106050953269005,-0.38151007890701294,-0.20334379374980927
1775751041617479700,7.989479736328125,0.050937749445438385,-0.25791728496551514,-0.21344250440597534
1775751041627493600,7.99949365234375,0.09113390743732452,-0.22012917697429657,-0.20709672570228577
1775751041637507300,8.00950732421875,0.1363684982061386,-0.2519206702709198,-0.22155369818210602
1775751041647521500,8.019521484375,0.18711183965206146,-0.2899519205093384,-0.257961243391037
1775751041657535500,8.029535400390625,0.2242799699306488,-0.25792741775512695,-0.2831861674785614
1775751041667549700,8.0395498046875,0.23682665824890137,-0.15176528692245483,-0.2617543637752533
1775751041677563400,8.0495634765625,0.23043294250965118,-0.06891355663537979,-0.2086791694164276
1775751041687577600,8.05957763671875,0.23607777059078217,-0.012229768559336662,-0.1652587354183197
1775751041697591600,8.069591552734375,0.2774854004383087,0.03710875287652016,-0.10414477437734604
1775751041707605500,8.07960546875,0.3555924594402313,0.06716039776802063,-0.036377448588609695
1775751041717619500,8.089619384765625,0.3716398775577545,0.10614480823278427,0.013510748744010925
1775751041727633400,8.09963330078125,0.3708699345588684,0.08316625654697418,0.047443147748708725
1775751041737647600,8.109647705078125,0.3428489565849304,0.07330883294343948,0.05886038765311241
1775751041747661600,8.11966162109375,0.28077226877212524,0.09718167781829834,0.061224207282066345
1775751041757675500,8.129675537109375,0.22268527746200562,0.126610666513443,0.08544406294822693
1775751041767689500,8.139689453125,0.20137572288513184,0.11478277295827866,0.12534832954406738
1775751041777703400,8.149703369140624,0.21453440189361572,0.10251811891794205,0.14572258293628693
1775751041787717600,8.159717529296875,0.25026842951774597,0.08815409243106842,0.12853986024856567
1775751041797731300,8.1697314453125,0.24957627058029175,0.1137515977025032,0.1234111487865448
1775751041807745500,8.17974560546875,0.2223515808582306,0.12656059861183167,0.12497922033071518
1775751041817759500,8.189759521484374,0.16988757252693176,0.15379995107650757,0.11958178877830505
1775751041827773700,8.199773681640625,0.11398275941610336,0.1820390373468399,0.12411396205425262
1775751041837787600,8.20978759765625,0.08773171901702881,0.17320853471755981,0.13008743524551392
1775751041847801300,8.21980126953125,0.04602688178420067,0.14323732256889343,0.13241901993751526
1775751041857815600,8.229815673828124,0.003686613868921995,0.052136968821287155,0.1293974071741104
1775751041867829500,8.23982958984375,-0.019460516050457954,-0.06667622923851013,0.13102619349956512
1775751041877843700,8.24984375,-0.030466295778751373,-0.13278867304325104,0.1345016211271286
1775751041887856400,8.2598564453125,-0.017004549503326416,-0.1441688984632492,0.12787513434886932
1775751041897870600,8.26987060546875,0.01836009882390499,-0.11380379647016525,0.08426933735609055
1775751041907884500,8.279884521484375,0.05780977010726929,-0.025354892015457153,0.009320264682173729
1775751041917898500,8.2898984375,0.0731908529996872,0.10252957046031952,-0.056123457849025726
1775751041927912400,8.299912353515625,0.04354587942361832,0.22929950058460236,-0.09400266408920288
1775751041937926700,8.3099267578125,-0.014771489426493645,0.2942532002925873,-0.0929962545633316
1775751041947940600,8.319940673828125,-0.06457473337650299,0.28507834672927856,-0.0480269156396389
1775751041957954300,8.329954345703126,-0.0974983274936676,0.2156960666179657,0.02377457171678543
1775751041967968500,8.339968505859375,-0.08367571979761124,0.1331242322921753,0.09707222133874893
1775751041977982500,8.349982421875,-0.03485811501741409,0.062061239033937454,0.15467692911624908
1775751041987996700,8.35999658203125,0.027602599933743477,0.007452589925378561,0.1605217605829239
1775751041998010400,8.37001025390625,0.08594579994678497,-0.039677105844020844,0.13345739245414734
1775751042008024600,8.380024658203125,0.13576582074165344,-0.0842144787311554,0.09304179251194
1775751042018038500,8.39003857421875,0.18298660218715668,-0.12945306301116943,0.048296958208084106
1775751042028052500,8.400052490234375,0.20888850092887878,-0.14510606229305267,0.03587757423520088
1775751042038066700,8.410066650390625,0.23621466755867004,-0.17383889853954315,0.041918687522411346
1775751042048080400,8.420080322265624,0.27092498540878296,-0.22227701544761658,0.06081994250416756
1775751042058094600,8.430094482421875,0.2612350583076477,-0.24720552563667297,0.1065988838672638
1775751042068108500,8.440108642578124,0.22887445986270905,-0.25370922684669495,0.15324415266513824
1775751042078122500,8.45012255859375,0.1877126395702362,-0.233174666762352,0.19850297272205353
1775751042088136400,8.460136474609374,0.13831233978271484,-0.26060736179351807,0.258370041847229
1775751042098150400,8.470150390625,0.0847867950797081,-0.36286795139312744,0.33438223600387573
1775751042108164600,8.48016455078125,0.03139707073569298,-0.48725274205207825,0.41659802198410034
1775751042118178600,8.490178466796875,-0.0349060520529747,-0.5707036852836609,0.4807972311973572
1775751042128192500,8.500192626953124,-0.11464455723762512,-0.613584578037262,0.5114765763282776
1775751042138206500,8.51020654296875,-0.20112165808677673,-0.5633240938186646,0.4965466558933258
1775751042148220400,8.520220458984374,-0.2855404019355774,-0.40627428889274597,0.44173160195350647
1775751042158234600,8.530234619140625,-0.3640008568763733,-0.23000817000865936,0.34969913959503174
1775751042168248300,8.540248291015626,-0.4537467062473297,-0.056472063064575195,0.22760440409183502
1775751042178262500,8.550262451171875,-0.5495219826698303,0.12359890341758728,0.10987989604473114
1775751042188276500,8.5602763671875,-0.6353119611740112,0.32592111825942993,0.015470302663743496
1775751042198290700,8.570290771484375,-0.7127833366394043,0.4839240610599518,-0.06970211863517761
1775751042208304400,8.580304443359376,-0.7532188892364502,0.5419572591781616,-0.12432541698217392
1775751042218318300,8.590318359375,-0.7661017179489136,0.511440634727478,-0.13947533071041107
1775751042228331500,8.60033154296875,-0.7739825248718262,0.45925068855285645,-0.13646650314331055
1775751042238345700,8.610345703125,-0.7766294479370117,0.43566784262657166,-0.128681018948555
1775751042248359400,8.620359375,-0.7521792054176331,0.4600442945957184,-0.10836748778820038
1775751042258373400,8.630373291015625,-0.6864811778068542,0.5307767987251282,-0.08733543753623962
1775751042268387600,8.6403876953125,-0.5638340711593628,0.6558883786201477,-0.0682901069521904
1775751042278401500,8.650401611328125,-0.434328556060791,0.75082927942276,-0.052500758320093155
1775751042288415500,8.66041552734375,-0.3540020287036896,0.7945045828819275,-0.0308159701526165
1775751042298429400,8.670429443359374,-0.3363327383995056,0.7897164821624756,-0.004851746838539839
1775751042308443600,8.680443603515625,-0.3783259987831116,0.7068399786949158,0.05047382786870003
1775751042318457600,8.69045751953125,-0.43347978591918945,0.5395580530166626,0.11281470209360123
1775751042328471300,8.70047119140625,-0.4818718433380127,0.36631301045417786,0.15791399776935577
1775751042338485500,8.710485595703124,-0.5094781517982483,0.2401910275220871,0.1763414740562439
1775751042348499500,8.72049951171875,-0.49200063943862915,0.2204998880624771,0.1649487465620041
1775751042358513700,8.730513671875,-0.4190143048763275,0.2504274249076843,0.13759168982505798
1775751042368527400,8.74052734375,-0.2791115343570709,0.2852860689163208,0.11167832463979721
1775751042378541600,8.75054150390625,-0.08173906803131104,0.3392622172832489,0.08618095517158508
1775751042388555500,8.760555419921875,0.12420503795146942,0.42592519521713257,0.036546558141708374
1775751042398569500,8.770569580078124,0.2697417438030243,0.5158620476722717,-0.029774140566587448
1775751042408583700,8.780583740234375,0.280899316072464,0.5553109049797058,-0.09067291021347046
1775751042418597600,8.79059765625,0.15578986704349518,0.5620465874671936,-0.13856320083141327
1775751042428611800,8.80061181640625,-0.0008591357618570328,0.539831817150116,-0.15983787178993225
1775751042438625500,8.81062548828125,-0.13931500911712646,0.47798389196395874,-0.14067323505878448
1775751042448639700,8.8206396484375,-0.2154950052499771,0.35691046714782715,-0.08117048442363739
1775751042458653700,8.83065380859375,-0.21159853041172028,0.18882344663143158,0.0076025258749723434
1775751042468667600,8.840667724609375,-0.12811295688152313,0.023609189316630363,0.09691083431243896
1775751042478681600,8.850681640625,0.019846143200993538,-0.07662153989076614,0.17887547612190247
1775751042488695600,8.860695556640625,0.2106030434370041,-0.11324186623096466,0.21496716141700745
1775751042498709800,8.870709716796876,0.40811851620674133,-0.035824574530124664,0.1821538209915161
1775751042508723700,8.8807236328125,0.5626729130744934,0.07839653640985489,0.06561283022165298
1775751042518737700,8.890737548828126,0.49750298261642456,0.2000523954629898,-0.05356655642390251
1775751042528751600,8.900751708984375,0.2642122209072113,0.25810158252716064,-0.12639601528644562
1775751042538765600,8.910765625,0.005416070576757193,0.22633273899555206,-0.14469459652900696
1775751042548778500,8.920778564453125,-0.20357203483581543,0.13706465065479279,-0.14899401366710663
1775751042558792700,8.930792724609375,-0.3359993100166321,0.02028636261820793,-0.14070305228233337
1775751042568806700,8.940806640625,-0.4048447012901306,-0.06629513204097748,-0.11936234682798386
1775751042578820600,8.950820556640625,-0.42162632942199707,-0.09294325858354568,-0.10998668521642685
1775751042588834600,8.96083447265625,-0.3685324788093567,-0.10919146984815598,-0.11383255571126938
1775751042598848500,8.9708486328125,-0.2165842354297638,-0.05639989301562309,-0.11394654214382172
1775751042608862700,8.98086279296875,-0.005681321490556002,0.07516958564519882,-0.125618115067482
1775751042618876700,8.990876708984375,0.18736110627651215,0.21699170768260956,-0.1515892595052719
1775751042628891000,9.000890869140624,0.27298733592033386,0.32905617356300354,-0.16112416982650757
1775751042638904600,9.010904541015625,0.22440087795257568,0.45207080245018005,-0.1628941148519516
1775751042648918500,9.02091845703125,0.11866380274295807,0.5044373273849487,-0.18648172914981842
1775751042658932700,9.0309326171875,0.08983481675386429,0.4656957983970642,-0.15577414631843567
1775751042668946700,9.04094677734375,0.08853305876255035,0.2932167053222656,-0.04060415178537369
1775751042678960600,9.050960693359375,0.09461279213428497,0.1596253514289856,0.13172687590122223
1775751042688974600,9.060974609375,0.07894860953092575,0.023138608783483505,0.32338523864746094
1775751042698988800,9.07098876953125,0.034213628619909286,-0.004052266012877226,0.4469764232635498
1775751042709002800,9.081002685546874,0.08502727746963501,-0.06185218319296837,0.42340612411499023
1775751042719016400,9.091016357421875,0.22716177999973297,-0.20416031777858734,0.3003973662853241
1775751042729030700,9.10103076171875,0.36059415340423584,-0.3617209196090698,0.10681992024183273
1775751042739044600,9.111044677734375,0.392674058675766,-0.3845449984073639,-0.15330193936824799
1775751042749058800,9.121058837890626,0.2939136326313019,-0.395070344209671,-0.406313419342041
1775751042759072500,9.131072509765625,-0.02473623864352703,-0.4830383062362671,-0.5750318765640259
1775751042769086700,9.141086669921876,-0.36581313610076904,-0.5079936981201172,-0.6475710272789001
1775751042779100700,9.1511005859375,-0.5196237564086914,-0.3681599199771881,-0.6830555200576782
1775751042789114600,9.161114501953126,-0.48905864357948303,-0.10345661640167236,-0.6964129209518433
1775751042799128600,9.171128662109375,-0.3250614404678345,0.13070209324359894,-0.6322456002235413
1775751042809142500,9.181142578125,-0.05738526210188866,0.14098668098449707,-0.5349153280258179
1775751042819156700,9.19115673828125,0.22618013620376587,-0.03404957801103592,-0.40314745903015137
1775751042829169700,9.201169677734375,0.352369487285614,-0.24060115218162537,-0.21193169057369232
1775751042839183600,9.21118359375,0.3619174659252167,-0.43186405301094055,0.026612170040607452
1775751042849197600,9.221197509765625,0.3272433876991272,-0.5538986325263977,0.2371544986963272
1775751042859211800,9.231211669921874,0.26069656014442444,-0.5189656615257263,0.3350442945957184
1775751042869225700,9.241225830078125,0.18938244879245758,-0.3404068350791931,0.33154410123825073
1775751042879239700,9.25123974609375,0.19327545166015625,-0.07394532859325409,0.32900184392929077
1775751042889253600,9.261253662109375,0.30213508009910583,0.12437734752893448,0.39699235558509827
1775751042899267600,9.271267578125,0.4167884290218353,0.2195637822151184,0.5271453261375427
1775751042909281800,9.28128173828125,0.5069707632064819,0.046246323734521866,0.6608437299728394
1775751042919295500,9.29129541015625,0.5390570759773254,-0.27052736282348633,0.7331128716468811
1775751042929309700,9.301309814453125,0.5096081495285034,-0.43378472328186035,0.7014771699905396
1775751042939323600,9.31132373046875,0.437434583902359,-0.520707368850708,0.5532927513122559
1775751042949337600,9.321337646484375,0.2616505026817322,-0.331330806016922,0.4238543212413788
1775751042959351600,9.3313515625,0.12122736126184464,-0.08366240561008453,0.3826909065246582
1775751042969365500,9.341365478515625,0.05208956450223923,0.02762017585337162,0.4000118672847748
1775751042979379700,9.351379638671874,0.11562620103359222,0.08359555900096893,0.41622090339660645
1775751042989393700,9.3613935546875,0.2578941285610199,-0.004190750420093536,0.3999479413032532
1775751042999407600,9.37140771484375,0.2904507517814636,-0.10987456887960434,0.3316221535205841
1775751043009421600,9.381421630859375,0.20959317684173584,-0.10332905501127243,0.21555626392364502
1775751043019435500,9.391435546875,0.0770372599363327,-0.10271652787923813,0.04391978681087494
1775751043029449700,9.40144970703125,-0.08212362974882126,-0.05624409765005112,-0.11441179364919662
1775751043039463400,9.41146337890625,-0.17514730989933014,0.016656741499900818,-0.25920066237449646
1775751043049477600,9.4214775390625,-0.15276505053043365,0.046790942549705505,-0.3611784279346466
1775751043059491600,9.43149169921875,-0.07342441380023956,0.026394322514533997,-0.4086066782474518
1775751043069505800,9.441505859375,0.002369148191064596,0.003605653764680028,-0.4096570312976837
1775751043079519700,9.451519775390626,0.03121917136013508,0.09318294376134872,-0.3083391785621643
1775751043089533400,9.461533447265625,0.03976552188396454,0.2546096444129944,-0.08216890692710876
1775751043099546600,9.471546630859375,0.056835051625967026,0.27490854263305664,0.15519677102565765
1775751043109560800,9.481560791015625,0.07570488005876541,0.23544713854789734,0.32328006625175476
1775751043119574500,9.491574462890625,0.06648341566324234,0.1197652816772461,0.4079105257987976
1775751043129588500,9.50158837890625,0.0174450371414423,-0.08227889239788055,0.4298400580883026
1775751043139602700,9.511602783203125,-0.030856981873512268,-0.2768947184085846,0.4086471498012543
1775751043149616600,9.52161669921875,-0.08148500323295593,-0.3724108636379242,0.3156495690345764
1775751043159630600,9.531630615234375,-0.12396775186061859,-0.2209901660680771,0.166395366191864
1775751043169644500,9.54164453125,-0.08232896029949188,0.03209109231829643,-0.03735296428203583
1775751043179658800,9.55165869140625,0.030896397307515144,0.2814843952655792,-0.25842490792274475
1775751043189672700,9.561672607421874,0.15617549419403076,0.5104110836982727,-0.39525172114372253
1775751043199686400,9.571686279296875,0.24032604694366455,0.5836594700813293,-0.4261915385723114
1775751043209700600,9.58170068359375,0.27323687076568604,0.5419484972953796,-0.3570931553840637
1775751043219714600,9.591714599609375,0.2645834684371948,0.39299947023391724,-0.2355739027261734
1775751043229728800,9.601728759765624,0.21695947647094727,0.17762058973312378,-0.11872052401304245
1775751043239742700,9.61174267578125,0.12565219402313232,0.023981232196092606,-0.034873828291893005
1775751043249756700,9.621756591796874,0.03797135129570961,-0.11180642247200012,-0.04097273200750351
1775751043259770600,9.6317705078125,-0.016282299533486366,-0.15218260884284973,-0.10427021235227585
1775751043269784600,9.64178466796875,-0.058524295687675476,-0.1121172159910202,-0.18194183707237244
1775751043279798800,9.651798828125,-0.06388524174690247,-0.0007115966291166842,-0.26336798071861267
1775751043289812500,9.6618125,-0.020600616931915283,0.13880714774131775,-0.34663891792297363
1775751043299826700,9.67182666015625,0.01113334484398365,0.24542440474033356,-0.37497493624687195
1775751043309840600,9.681840576171876,0.02064668945968151,0.24728062748908997,-0.3646935522556305
1775751043319854800,9.691854736328125,0.08211324363946915,0.21697865426540375,-0.35394662618637085
1775751043329868500,9.70186865234375,0.13686411082744598,0.1469401717185974,-0.32639941573143005
1775751043339882500,9.711882568359375,0.16756956279277802,-0.027210315689444542,-0.2601141333580017
1775751043349896700,9.721896728515626,0.17995032668113708,-0.16739672422409058,-0.17870768904685974
1775751043359909600,9.73190966796875,0.1557254195213318,-0.27615994215011597,-0.10937948524951935
1775751043369923600,9.741923583984375,0.14308898150920868,-0.34431877732276917,-0.012239888310432434
1775751043379937500,9.7519375,0.11576201766729355,-0.3597475290298462,0.10893473774194717
1775751043389951700,9.76195166015625,0.0519244484603405,-0.30935439467430115,0.2201147824525833
1775751043399965400,9.77196533203125,-0.0010223875287920237,-0.22564058005809784,0.29022011160850525
1775751043409979100,9.781979248046875,-0.048765674233436584,-0.10495011508464813,0.3113429844379425
1775751043419993000,9.7919931640625,-0.07819626480340958,-0.08198727667331696,0.29540154337882996
1775751043430007000,9.802007080078125,-0.08288583159446716,-0.11442511528730392,0.24795414507389069
1775751043440021000,9.81202099609375,-0.05838075280189514,-0.1617225855588913,0.14993277192115784
1775751043450035200,9.82203515625,-0.011126686818897724,-0.1690681129693985,-0.0003094593121204525
1775751043460049200,9.832049072265624,0.0438031405210495,-0.09760831296443939,-0.15687111020088196
1775751043470063000,9.84206298828125,0.0886334627866745,0.013561348430812359,-0.27677062153816223
1775751043480077000,9.8520771484375,0.1000291258096695,0.1269342452287674,-0.38996508717536926
1775751043490091000,9.862091064453125,0.10608062893152237,0.15435707569122314,-0.4756232500076294
1775751043500105200,9.872105224609374,0.042096056044101715,0.0984666496515274,-0.47040054202079773
1775751043510119200,9.882119140625,0.007472829893231392,-0.05497456714510918,-0.3988528549671173
1775751043520133000,9.892133056640626,0.03248497098684311,-0.2365395724773407,-0.30037206411361694
1775751043530147000,9.90214697265625,0.06489138305187225,-0.3597238063812256,-0.19474844634532928
1775751043540161000,9.9121611328125,0.0419921912252903,-0.4028609097003937,-0.08871042728424072
1775751043550175200,9.92217529296875,-0.02149330824613571,-0.33782702684402466,-0.010664895176887512
1775751043560189000,9.93218896484375,-0.06118958815932274,-0.21056495606899261,0.022525016218423843
1775751043570203100,9.942203125,-0.060867879539728165,-0.10092741250991821,0.018029866740107536
1775751043580217000,9.952217041015626,-0.02948838286101818,-0.03593190014362335,-0.0035049861762672663
1775751043590231300,9.962231201171875,0.03597291558980942,-0.023357519879937172,-0.016869528219103813
1775751043600244000,9.972243896484375,0.06228840723633766,-0.03576012700796127,-0.012895292602479458
1775751043610258200,9.982258056640624,0.024290692061185837,-0.08127088844776154,-0.004193946253508329
1775751043620272000,9.992272216796875,-0.048529185354709625,-0.13985083997249603,-0.007875233888626099
1775751043630286000,10.0022861328125,-0.12718218564987183,-0.12551797926425934,-0.0212395079433918
1775751043640300000,10.012300048828125,-0.16191565990447998,-0.08947955071926117,-0.025547970086336136
1775751043650314000,10.02231396484375,-0.13799408078193665,-0.054789211601018906,-0.031065240502357483
1775751043660328200,10.032328125,-0.0813920646905899,-0.018627479672431946,-0.043050266802310944
1775751043670342100,10.042342041015624,-0.0258659515529871,0.0052472264505922794,-0.05440305545926094
1775751043680356000,10.052356201171875,0.052920740097761154,0.035588622093200684,-0.040704820305109024
1775751043690370000,10.0623701171875,0.1397821307182312,0.061469752341508865,-0.004829642828553915
1775751043700384300,10.07238427734375,0.18688999116420746,0.06471747905015945,0.04915636032819748
1775751043710398200,10.082398193359374,0.1682468056678772,0.04873664677143097,0.1111006885766983
1775751043720412000,10.092411865234375,0.11253640055656433,0.033913757652044296,0.16063068807125092
1775751043730426000,10.102426025390624,0.04730786010622978,-0.007417436223477125,0.19302138686180115
1775751043740440000,10.112440185546875,0.005586512852460146,-0.08265413343906403,0.21685002744197845
1775751043750454300,10.122454345703124,-0.0005246427026577294,-0.12516723573207855,0.23185932636260986
1775751043760468000,10.132468017578125,0.00899455975741148,-0.11421738564968109,0.23770177364349365
1775751043770482200,10.142482177734376,0.033414147794246674,-0.04911348223686218,0.24264512956142426
1775751043780496100,10.15249609375,0.08854477852582932,0.010009757243096828,0.24652695655822754
1775751043790510000,10.162510009765626,0.14036616683006287,-0.0035744947381317616,0.23376615345478058
1775751043800524000,10.17252392578125,0.15456587076187134,-0.04085821658372879,0.20822271704673767
1775751043810538000,10.1825380859375,0.13357830047607422,-0.062077753245830536,0.1760927438735962
1775751043820552200,10.19255224609375,0.06934232264757156,-0.07726309448480606,0.14077122509479523
1775751043830566100,10.202566162109376,-0.031031684949994087,-0.09541946649551392,0.10762393474578857
1775751043840579000,10.2125791015625,-0.1170099750161171,-0.12680907547473907,0.08377372473478317
1775751043850593000,10.222593017578125,-0.13194578886032104,-0.1397792100906372,0.04801439866423607
1775751043860607200,10.232607177734375,-0.09943630546331406,-0.08821827918291092,0.005182245280593634
1775751043870621200,10.24262109375,-0.07080493122339249,-0.030346186831593513,-0.02984311617910862
1775751043880635100,10.25263525390625,-0.05441397428512573,0.026812706142663956,-0.041481129825115204
1775751043890649000,10.262649169921875,-0.04694220796227455,0.059299543499946594,-0.04379035905003548
1775751043900663000,10.2726630859375,-0.03997005149722099,0.09571986645460129,-0.04177407920360565
1775751043910677200,10.28267724609375,-0.023996412754058838,0.1502494215965271,-0.026127740740776062
1775751043920691000,10.29269091796875,-0.012574381195008755,0.17864404618740082,-0.0006282397080212831
1775751043930705200,10.302705078125,-0.020844828337430954,0.169027641415596,0.02738714963197708
1775751043940719000,10.312718994140624,-0.04104197397828102,0.11288554221391678,0.05837808921933174
1775751043950733300,10.3227333984375,-0.040289897471666336,0.02008902281522751,0.09255629777908325
1775751043960747000,10.3327470703125,-0.0068155620247125626,-0.08122587949037552,0.12171205133199692
1775751043970761000,10.342760986328125,0.038790538907051086,-0.14249056577682495,0.1366308182477951
1775751043980775200,10.352775146484374,0.08412366360425949,-0.12912443280220032,0.12534567713737488
1775751043990789000,10.3627890625,0.11734766513109207,-0.0794287770986557,0.08685873448848724
1775751044000803000,10.372802978515624,0.12774890661239624,-0.04188726097345352,0.05548456311225891
1775751044010817000,10.382817138671875,0.10287205129861832,-0.018126007169485092,0.029896913096308708
1775751044020831200,10.392831298828124,0.05302700027823448,0.00700757559388876,0.025192171335220337
1775751044030845200,10.40284521484375,-0.014358166605234146,-0.023780696094036102,0.03892263025045395
1775751044040859000,10.41285888671875,-0.07935447990894318,-0.10217323899269104,0.08328690379858017
1775751044050873000,10.422873046875,-0.13329067826271057,-0.17310945689678192,0.13897839188575745
1775751044060887000,10.432886962890626,-0.1673479825258255,-0.20244844257831573,0.19913068413734436
1775751044070900200,10.442900146484375,-0.18098123371601105,-0.2188820093870163,0.248191699385643
1775751044080914000,10.452913818359375,-0.18747881054878235,-0.26407453417778015,0.30078965425491333
1775751044090928000,10.46292822265625,-0.2036854773759842,-0.3587416410446167,0.3289225101470947
1775751044100942000,10.472942138671876,-0.236871138215065,-0.41311195492744446,0.32130664587020874
1775751044110956300,10.482956298828125,-0.28441548347473145,-0.3660410940647125,0.2654742896556854
1775751044120970000,10.492969970703125,-0.3190637528896332,-0.24801219999790192,0.15930309891700745
1775751044130984200,10.502984130859375,-0.34326255321502686,-0.09796624630689621,0.02966654859483242
1775751044140998100,10.512998046875,-0.3850555419921875,0.06138293445110321,-0.08599427342414856
1775751044151012000,10.52301220703125,-0.4439745247364044,0.148405984044075,-0.17324554920196533
1775751044161026000,10.533026123046875,-0.5231207609176636,0.18074475228786469,-0.1674928516149521
1775751044171040000,10.5430400390625,-0.6043252944946289,0.13560177385807037,-0.10624920576810837
1775751044181054200,10.55305419921875,-0.6745102405548096,0.16067463159561157,0.0028269453905522823
1775751044191068200,10.563068115234374,-0.6992843151092529,0.17824989557266235,0.1286274790763855
1775751044201082000,10.57308203125,-0.6730700135231018,0.13296258449554443,0.2785160541534424
1775751044211096000,10.583095947265624,-0.5909357070922852,0.03882888704538345,0.4328422248363495
1775751044221110000,10.593110107421875,-0.4947649836540222,-0.05849100649356842,0.5332468748092651
1775751044231124200,10.603124267578124,-0.4170158803462982,-0.08769629895687103,0.5705500245094299
1775751044241138000,10.613137939453125,-0.36865365505218506,-0.014476677402853966,0.542965829372406
1775751044251152100,10.623152099609374,-0.33386239409446716,0.11862891167402267,0.43963730335235596
1775751044261166000,10.633166015625,-0.2993643283843994,0.29266035556793213,0.2707819640636444
1775751044271180000,10.643179931640624,-0.30126848816871643,0.3899514973163605,0.07864581048488617
1775751044281194200,10.6531943359375,-0.3743879795074463,0.34010323882102966,-0.06375660747289658
1775751044291207200,10.663207275390626,-0.467954158782959,0.15473392605781555,-0.13140515983104706
1775751044301221000,10.67322119140625,-0.5423064231872559,-0.0409650094807148,-0.13210344314575195
1775751044311235000,10.683235107421876,-0.5696544051170349,-0.18729212880134583,-0.09672654420137405
1775751044321249000,10.6932490234375,-0.528326690196991,-0.2760659456253052,-0.06457792967557907
1775751044331263000,10.703262939453126,-0.44768136739730835,-0.25468289852142334,-0.03333478793501854
1775751044341277200,10.713277099609375,-0.3267458975315094,-0.19357027113437653,0.010231065563857555
1775751044351291100,10.723291015625,-0.20067104697227478,-0.1328137069940567,0.0863649845123291
1775751044361305000,10.73330517578125,-0.10850091278553009,-0.12275680899620056,0.19197289645671844
1775751044371319000,10.743319091796875,-0.06926243007183075,-0.2030782848596573,0.27008315920829773
1775751044381333000,10.7533330078125,-0.05859460309147835,-0.25992637872695923,0.3187641203403473
1775751044391347200,10.76334716796875,-0.05815012380480766,-0.2652876079082489,0.32113489508628845
1775751044401361000,10.77336083984375,-0.06714121997356415,-0.24177826941013336,0.258785218000412
1775751044411375400,10.783375244140625,-0.06950770318508148,-0.20384633541107178,0.14914554357528687
1775751044421389000,10.79338916015625,-0.05091777443885803,-0.15376399457454681,0.03335396200418472
1775751044431403300,10.8034033203125,-0.014197577722370625,-0.0695982500910759,-0.06121622025966644
1775751044441417200,10.813417236328124,0.0523391030728817,0.005041630007326603,-0.1226193904876709
1775751044451431200,10.82343115234375,0.14240029454231262,0.024775654077529907,-0.13841167092323303
1775751044461445400,10.8334453125,0.22493112087249756,0.046421825885772705,-0.13436126708984375
1775751044471459000,10.843458984375,0.285535603761673,0.05216333642601967,-0.13348188996315002
1775751044481473300,10.853473388671874,0.28297364711761475,0.034928955137729645,-0.12269315868616104
1775751044491486200,10.863486328125,0.18969430029392242,-0.05813254415988922,-0.1009732186794281
1775751044501500200,10.873500244140626,0.06345673650503159,-0.2162225842475891,-0.06156056746840477
1775751044511514000,10.88351416015625,-0.08280859887599945,-0.3899078071117401,0.012461462989449501
1775751044521528300,10.8935283203125,-0.18567000329494476,-0.5165262222290039,0.07747801393270493
1775751044531542300,10.903542236328125,-0.20754040777683258,-0.5313035845756531,0.10314901918172836
1775751044541556200,10.91355615234375,-0.18582765758037567,-0.4216388463973999,0.11404401063919067
1775751044551570200,10.923570068359375,-0.11893437802791595,-0.23447002470493317,0.07395145297050476
1775751044561584000,10.933584228515626,-0.0014290522085502744,-0.07688972353935242,0.02370479702949524
1775751044571598300,10.943598388671875,0.1355045586824417,-0.026005500927567482,-0.012026302516460419
1775751044581612000,10.953612060546876,0.24812725186347961,-0.06596437096595764,-0.06157201901078224
1775751044591626200,10.963626220703125,0.29854995012283325,-0.14280667901039124,-0.09502584487199783
1775751044601640200,10.97364013671875,0.27079129219055176,-0.17498433589935303,-0.13032391667366028
1775751044611654400,10.983654296875,0.2138984352350235,-0.13825774192810059,-0.17738597095012665
1775751044621668400,10.99366845703125,0.126645028591156,-0.08888699859380722,-0.18848975002765656
1775751044631682000,11.00368212890625,0.023857396095991135,-0.06469883769750595,-0.15012158453464508
1775751044641696300,11.0136962890625,-0.0602705292403698,-0.019462913274765015,-0.0931062400341034
1775751044651710200,11.023710205078125,-0.0733138918876648,0.05084826797246933,-0.03712180256843567
1775751044661724400,11.033724365234375,-0.04012105241417885,0.098814457654953,0.024468058720231056
1775751044671738000,11.043738037109375,0.027691015973687172,0.15622103214263916,0.06101035699248314
1775751044681752300,11.05375244140625,0.1442919373512268,0.13542893528938293,0.10891582816839218
1775751044691765200,11.06376513671875,0.2176087498664856,-0.05434739589691162,0.1676633059978485
1775751044701779200,11.073779296875,0.1941545605659485,-0.29584258794784546,0.19663529098033905
1775751044711793200,11.083793212890624,0.09049927443265915,-0.4903968870639801,0.19674980640411377
1775751044721807400,11.093807373046875,-0.051237087696790695,-0.48002785444259644,0.16532903909683228
1775751044731821300,11.1038212890625,-0.1584618091583252,-0.3289025127887726,0.10862395167350769
1775751044741835000,11.1138349609375,-0.20895321667194366,-0.14013366401195526,0.021284248679876328
1775751044751849200,11.12384912109375,-0.22415587306022644,0.07334398478269577,-0.07521459460258484
1775751044761863200,11.13386328125,-0.23360610008239746,0.2512199878692627,-0.11580409854650497
1775751044771877400,11.14387744140625,-0.18326622247695923,0.2789176404476166,-0.0680679976940155
1775751044781891000,11.15389111328125,-0.052265603095293045,0.02737037092447281,0.037337519228458405
1775751044791905300,11.1639052734375,0.10425503551959991,-0.3037974238395691,0.08507254719734192
1775751044801919200,11.173919189453125,0.23912230134010315,-0.5218376517295837,0.06435315310955048
1775751044811933200,11.18393310546875,0.25502830743789673,-0.5794185996055603,-0.006013950332999229
1775751044821947400,11.193947509765625,0.18308299779891968,-0.48453420400619507,-0.09800166636705399
1775751044831961000,11.203961181640626,0.12311553955078125,-0.2870994210243225,-0.15647801756858826
1775751044841975300,11.213975341796875,0.10156150907278061,-0.08890004456043243,-0.18507957458496094
1775751044851989200,11.2239892578125,0.1336027979850769,0.00827683787792921,-0.19205306470394135
1775751044862003200,11.234003173828125,0.18946632742881775,0.005625661462545395,-0.17881421744823456
1775751044872017200,11.24401708984375,0.24564172327518463,-0.023619841784238815,-0.15787191689014435
1775751044882031000,11.254031005859375,0.2651776075363159,-0.005020857788622379,-0.1225392296910286
1775751044892044300,11.264044189453125,0.23919713497161865,0.10234181582927704,-0.05234948918223381
1775751044902058200,11.274058349609374,0.18140947818756104,0.20655503869056702,0.0550462082028389
1775751044912072200,11.284072265625,0.08369569480419159,0.2510066628456116,0.19475910067558289
1775751044922086100,11.294086181640624,0.010742925107479095,0.22374707460403442,0.377544105052948
1775751044932100400,11.304100341796875,-0.0038059235084801912,0.13277322053909302,0.5352716445922852
1775751044942114000,11.314114013671874,0.015577361918985844,0.037829671055078506,0.6291353106498718
1775751044952128300,11.324128173828125,0.0383969247341156,-0.032704684883356094,0.6498389840126038
1775751044962142200,11.33414208984375,0.05680256336927414,-0.05919940769672394,0.597823977470398
1775751044972156200,11.34415625,0.04859842732548714,-0.02413596212863922,0.4933338165283203
1775751044982170000,11.354170166015624,0.02311277575790882,0.05519667640328407,0.3532446026802063
1775751044992184000,11.36418408203125,-0.013676663860678673,0.19298836588859558,0.22267888486385345
1775751045002198300,11.3741982421875,-0.053585994988679886,0.2486356496810913,0.12148888409137726
1775751045012212200,11.384212158203125,-0.06276937574148178,0.2253231406211853,0.04707403481006622
1775751045022226400,11.394226318359374,-0.056948237121105194,0.18534615635871887,-0.0016916398890316486
1775751045032240000,11.404240234375,-0.061817560344934464,0.177248015999794,-0.045106757432222366
1775751045042254300,11.41425439453125,-0.0794929638504982,0.21375969052314758,-0.06762857735157013
1775751045052268300,11.424268310546875,-0.09438402950763702,0.24991156160831451,-0.031375765800476074
1775751045062282200,11.4342822265625,-0.10387127101421356,0.2762545049190521,-0.007835285738110542
1775751045072295200,11.444295166015625,-0.1126735508441925,0.2707257568836212,-0.0374365895986557
1775751045082309000,11.45430908203125,-0.15165556967258453,0.27533063292503357,-0.08891256153583527
1775751045092323300,11.4643232421875,-0.2103777378797531,0.31117919087409973,-0.14514680206775665
1775751045102337000,11.4743369140625,-0.23064519464969635,0.31409215927124023,-0.17706824839115143
1775751045112351200,11.484351318359375,-0.22450554370880127,0.31200531125068665,-0.1969519406557083
1775751045122365200,11.494365234375,-0.23053839802742004,0.30980631709098816,-0.21036869287490845
1775751045132379400,11.50437939453125,-0.2636367082595825,0.39382585883140564,-0.2252696007490158
1775751045142393000,11.51439306640625,-0.2925138771533966,0.4773348569869995,-0.2445567548274994
1775751045152407300,11.5244072265625,-0.3151973485946655,0.5407963991165161,-0.22054222226142883
1775751045162421200,11.534421142578125,-0.3027220368385315,0.5197121500968933,-0.1790781468153
1775751045172435200,11.544435302734374,-0.277835875749588,0.44419288635253906,-0.14292679727077484
1775751045182449400,11.554449462890625,-0.2529233396053314,0.3720875382423401,-0.11986861377954483
1775751045192463000,11.564463134765624,-0.20663893222808838,0.32413893938064575,-0.14607571065425873
1775751045202477300,11.574477294921875,-0.19089750945568085,0.3363338112831116,-0.1720047891139984
1775751045212491300,11.5844912109375,-0.1620352417230606,0.3373008072376251,-0.149208664894104
1775751045222505200,11.594505126953125,-0.11431139707565308,0.2925165593624115,-0.1105550080537796
1775751045232519200,11.604519287109374,-0.06564372777938843,0.20808103680610657,-0.10674535483121872
1775751045242533000,11.614533203125,-0.012189288623631,0.11284053325653076,-0.13982714712619781
1775751045252547300,11.62454736328125,0.044262003153562546,0.06452493369579315,-0.17104364931583405
1775751045262560300,11.634560302734375,0.12909859418869019,0.058939214795827866,-0.21531444787979126
1775751045272574200,11.64457421875,0.2443343698978424,0.1232585534453392,-0.2754038870334625
1775751045282588200,11.654588134765625,0.37083718180656433,0.22872266173362732,-0.3174208402633667
1775751045292602400,11.664602294921876,0.45626339316368103,0.30208316445350647,-0.3239264190196991
1775751045302616000,11.674615966796875,0.4998931884765625,0.3139696419239044,-0.2956241965293884
1775751045312630300,11.68463037109375,0.5007568597793579,0.304252564907074,-0.2439788430929184
1775751045322644200,11.694644287109375,0.4968361258506775,0.28166496753692627,-0.17807438969612122
1775751045332658200,11.704658203125,0.4980071187019348,0.24091966450214386,-0.11666563153266907
1775751045342672100,11.714672119140625,0.4911375045776367,0.17331159114837646,-0.0554981455206871
1775751045352686000,11.72468603515625,0.445425420999527,0.10602816194295883,0.009605223312973976
1775751045362700300,11.7347001953125,0.3652176558971405,0.029936593025922775,0.07943357527256012
1775751045372714200,11.74471435546875,0.31246575713157654,-0.04617521911859512,0.13979998230934143
1775751045382728400,11.754728515625,0.26232802867889404,-0.0683729350566864,0.17983661592006683
1775751045392742100,11.7647421875,0.2321232557296753,0.009449427947402,0.17758624255657196
1775751045402756000,11.774756103515625,0.2482750564813614,0.1249464601278305,0.12998303771018982
1775751045412770300,11.784770263671875,0.25603604316711426,0.16751736402511597,0.056420132517814636
1775751045422784300,11.7947841796875,0.28224048018455505,0.14895352721214294,0.006449643522500992
1775751045432798200,11.804798095703125,0.32258710265159607,0.03952903300523758,-0.019183548167347908
1775751045442811100,11.81481103515625,0.2929019033908844,-0.07316768914461136,-0.03515612334012985
1775751045452825300,11.824825439453125,0.23605860769748688,-0.09685064852237701,-0.06416593492031097
1775751045462839000,11.834839111328124,0.16777221858501434,-0.05453062057495117,-0.11712396144866943
1775751045472853200,11.844853271484375,0.0807046964764595,0.07215435802936554,-0.19328103959560394
1775751045482867200,11.8548671875,0.018202971667051315,0.18117165565490723,-0.27996373176574707
1775751045492881400,11.86488134765625,-0.009681656025350094,0.21347738802433014,-0.33073264360427856
1775751045502895000,11.87489501953125,-0.028854284435510635,0.22273880243301392,-0.33198806643486023
1775751045512909000,11.884908935546875,-0.041313350200653076,0.24546729028224945,-0.3059138357639313
1775751045522923300,11.89492333984375,-0.021391840651631355,0.26490357518196106,-0.2581564486026764
1775751045532937200,11.904937255859375,0.021586252376437187,0.2596110701560974,-0.1811053454875946
1775751045542951200,11.914951171875,0.04875662177801132,0.1915111094713211,-0.06204499676823616
1775751045552965000,11.924965087890625,0.033779799938201904,0.06278695166110992,0.05457482859492302
1775751045562979300,11.934979248046876,0.023135945200920105,-0.04309367388486862,0.1304863691329956
1775751045572993300,11.9449931640625,0.011382350698113441,-0.09169423580169678,0.16816051304340363
1775751045583007200,11.95500732421875,-0.014945393428206444,-0.10126936435699463,0.1394367218017578
1775751045593021200,11.965021240234375,-0.06945817172527313,-0.05319424718618393,0.06257576495409012
1775751045603035100,11.97503515625,-0.12167663127183914,0.04068830609321594,-0.04817605018615723
1775751045613048300,11.98504833984375,-0.13640710711479187,0.17824217677116394,-0.1604248285293579
1775751045623062000,11.99506201171875,-0.11578039824962616,0.27696290612220764,-0.22487758100032806
1775751045633076200,12.005076171875,-0.05830325186252594,0.31432783603668213,-0.22410713136196136
1775751045643090200,12.015090087890625,0.002752110594883561,0.3111986219882965,-0.15742051601409912
1775751045653104400,12.0251044921875,0.05590853840112686,0.2663893401622772,-0.04832359030842781
1775751045663118000,12.0351181640625,0.08234120905399323,0.18568411469459534,0.07201427221298218
1775751045673132300,12.04513232421875,0.10541297495365143,0.08806195110082626,0.17247456312179565
1775751045683146200,12.055146240234375,0.12112376093864441,0.0059750680811703205,0.23951885104179382
1775751045693160200,12.06516015625,0.12464100122451782,-0.03771994635462761,0.2569878399372101
1775751045703174100,12.075174072265625,0.10106882452964783,-0.009046758525073528,0.2299003154039383
1775751045713188000,12.08518798828125,0.08111722022294998,0.07188910245895386,0.1830292046070099
1775751045723202300,12.095202392578125,0.07511525601148605,0.15411153435707092,0.1357162892818451
1775751045733216300,12.10521630859375,0.07659783959388733,0.2063414603471756,0.09462238103151321
1775751045743230200,12.115230224609375,0.08717058598995209,0.2619408071041107,0.07030878216028214
1775751045753244200,12.125244140625,0.09309452027082443,0.26244279742240906,0.07389552891254425
1775751045763258000,12.135258056640625,0.09735158830881119,0.21646519005298615,0.11491326987743378
1775751045773272300,12.145272216796876,0.10659195482730865,0.1459241807460785,0.16711202263832092
1775751045783285200,12.15528515625,0.09943151473999023,0.06750607490539551,0.21960346400737762
1775751045793299200,12.16529931640625,0.06837985664606094,0.006258961278945208,0.2642263174057007
1775751045803313200,12.175313232421875,0.0426555834710598,-0.016330769285559654,0.2635064721107483
1775751045813327400,12.185327392578126,0.010237457230687141,0.015383750200271606,0.22528505325317383
1775751045823341000,12.195341064453125,-0.0167989544570446,0.06705919653177261,0.17755241692066193
1775751045833355300,12.205355224609375,-0.04030081629753113,0.10001394897699356,0.12878353893756866
1775751045843369200,12.215369140625,-0.06924059242010117,0.11668187379837036,0.08343417197465897
1775751045853383400,12.225383544921876,-0.07636108249425888,0.10732273012399673,0.05379878357052803
1775751045863397000,12.235397216796875,-0.061712898313999176,0.11016698181629181,0.036616332828998566
1775751045873411000,12.2454111328125,-0.029954969882965088,0.09398428350687027,0.02533092349767685
1775751045883425300,12.25542529296875,-0.01182150561362505,0.044870004057884216,0.03809598460793495
1775751045893439200,12.265439208984375,-0.014281201176345348,-0.010402306914329529,0.05019019916653633
1775751045903453200,12.275453125,-0.025801504030823708,-0.022130869328975677,0.05919594690203667
1775751045913467100,12.285467041015625,-0.05763160437345505,-0.005285043269395828,0.0583016574382782
