time,seconds_elapsed,z,y,x
1775341147605947600,0.06794775390625,2.3018953800201416,9.533005714416504,0.07657032459974289
1775341147622735400,0.0847353515625,2.2923240661621094,9.542576789855957,0.11485548317432404
1775341147639522600,0.1015224609375,2.337787628173828,9.513862609863281,0.064606212079525
1775341147656310000,0.11831005859375,2.321038007736206,9.53061294555664,0.09571290761232376
1775341147673097500,0.135097412109375,2.311466693878174,9.54496955871582,0.07178468257188797
1775341147689885000,0.151885009765625,2.3258235454559326,9.53061294555664,0.0933200865983963
1775341147706672400,0.16867236328125,2.3497519493103027,9.533005714416504,0.09810572862625122
1775341147723459800,0.1854599609375,2.344966173171997,9.525827407836914,0.13160525262355804
1775341147740247300,0.202247314453125,2.328216314315796,9.53061294555664,0.07657032459974289
1775341147757034800,0.21903466796875,2.297109842300415,9.542576789855957,0.1052841991186142
1775341147773822200,0.235822265625,2.359323024749756,9.523433685302734,0.08135596662759781
1775341147790609700,0.252609619140625,2.306680917739868,9.549755096435547,0.059820566326379776
1775341147807396900,0.26939697265625,2.287538528442383,9.542576789855957,0.11246266216039658
1775341147824184300,0.286184326171875,2.3497519493103027,9.525827407836914,0.05024927482008934
1775341147840971800,0.3029716796875,2.344966173171997,9.523433685302734,0.11246266216039658
1775341147857759200,0.31975927734375,2.2851455211639404,9.54496955871582,0.06699903309345245
1775341147874546700,0.336546630859375,2.311466693878174,9.533005714416504,0.11246266216039658
1775341147891334100,0.353334228515625,2.342573404312134,9.535398483276367,0.07417750358581543
1775341147908121600,0.37012158203125,2.3330020904541016,9.523433685302734,0.11006984114646912
1775341147924908800,0.38690869140625,2.2636101245880127,9.54496955871582,0.10767702013254166
1775341147941696300,0.4036962890625,2.3497519493103027,9.528220176696777,0.09571290761232376
1775341147958483700,0.420483642578125,2.3473589420318604,9.516255378723145,0.09092725813388824
1775341147975271200,0.437271240234375,2.3186452388763428,9.533005714416504,0.07178468257188797
1775341147992058600,0.45405859375,2.328216314315796,9.525827407836914,0.09092725813388824
1775341148008846000,0.47084619140625,2.2995026111602783,9.547362327575684,0.064606212079525
1775341148025633500,0.487633544921875,2.3090739250183105,9.518648147583008,0.11724831163883209
1775341148042421000,0.5044208984375,2.3401806354522705,9.521040916442871,0.07657032459974289
1775341148059208400,0.52120849609375,2.3018953800201416,9.549755096435547,0.12921242415905
1775341148075996000,0.537995849609375,2.306680917739868,9.547362327575684,0.10289137065410614
1775341148092783000,0.554783203125,2.342573404312134,9.53061294555664,0.09571290761232376
1775341148109570600,0.571570556640625,2.3306093215942383,9.528220176696777,0.0933200865983963
1775341148126358000,0.58835791015625,2.3330020904541016,9.525827407836914,0.09092725813388824
1775341148143145500,0.6051455078125,2.273181438446045,9.554540634155273,0.07178468257188797
1775341148159933000,0.621932861328125,2.2995026111602783,9.535398483276367,0.10289137065410614
1775341148176720400,0.638720458984375,2.3569302558898926,9.525827407836914,0.0933200865983963
1775341148193507800,0.6555078125,2.311466693878174,9.53061294555664,0.0933200865983963
1775341148210295300,0.67229541015625,2.3306093215942383,9.521040916442871,0.12203395366668701
1775341148227082500,0.68908251953125,2.3306093215942383,9.53779125213623,0.14117653667926788
1775341148243870000,0.705869873046875,2.3401806354522705,9.535398483276367,0.06939185410737991
1775341148260657400,0.722657470703125,2.227717876434326,9.554540634155273,0.0933200865983963
1775341148277444900,0.73944482421875,2.282752752304077,9.525827407836914,0.0933200865983963
1775341148294232300,0.756232421875,2.510071039199829,9.499505996704102,0.02153540402650833
1775341148311019800,0.773019775390625,2.2325034141540527,9.556933403015137,0.07896314561367035
1775341148327807200,0.78980712890625,2.1678972244262695,9.638289451599121,0.10767702013254166
1775341148344594700,0.8065947265625,2.3306093215942383,9.542576789855957,0.08374879509210587
1775341148361382100,0.823382080078125,2.423929452896118,9.473184585571289,0.1579262912273407
1775341148378169300,0.84016943359375,2.3401806354522705,9.518648147583008,0.09810572862625122
1775341148394956800,0.856956787109375,2.366501569747925,9.53061294555664,0.12681959569454193
1775341148411744300,0.873744140625,2.242074728012085,9.554540634155273,0.07417750358581543
1775341148428531700,0.89053173828125,2.2947168350219727,9.54496955871582,0.1052841991186142
1775341148445319200,0.907319091796875,2.3856441974639893,9.518648147583008,0.04546362906694412
1775341148462106600,0.924106689453125,2.383251428604126,9.501898765563965,0.064606212079525
1775341148478894000,0.94089404296875,2.3306093215942383,9.54496955871582,0.0933200865983963
1775341148495681500,0.957681640625,2.2229323387145996,9.571290969848633,0.07657032459974289
1775341148512468700,0.97446875,2.3186452388763428,9.540184020996094,0.12442677468061447
1775341148529256200,0.991256103515625,2.3712873458862305,9.501898765563965,0.11964113265275955
1775341148546043600,1.008043701171875,2.3473589420318604,9.523433685302734,0.11724831163883209
1775341148562831000,1.0248310546875,2.287538528442383,9.54496955871582,0.0933200865983963
1775341148579618600,1.04161865234375,2.289931297302246,9.54496955871582,0.10049854964017868
1775341148596406000,1.058406005859375,2.273181438446045,9.573683738708496,0.05024927482008934
1775341148613193500,1.075193359375,2.3712873458862305,9.504291534423828,0.062213387340307236
1775341148629980700,1.091980712890625,2.335394859313965,9.55214786529541,0.08853443711996078
1775341148646768000,1.10876806640625,2.2923240661621094,9.55214786529541,0.07657032459974289
1775341148663555600,1.1255556640625,2.359323024749756,9.523433685302734,0.12681959569454193
1775341148680343000,1.142343017578125,2.282752752304077,9.53061294555664,0.12681959569454193
1775341148697130500,1.159130615234375,2.3401806354522705,9.53061294555664,0.11724831163883209
1775341148713918000,1.17591796875,2.352144718170166,9.504291534423828,0.12203395366668701
1775341148730705400,1.192705322265625,2.2923240661621094,9.53779125213623,0.07657032459974289
1775341148747492900,1.209492919921875,2.3162522315979004,9.53779125213623,0.06699903309345245
1775341148764280300,1.2262802734375,2.3162522315979004,9.53779125213623,0.064606212079525
1775341148781067500,1.243067626953125,2.313859462738037,9.53779125213623,0.07178468257188797
1775341148797855000,1.25985498046875,2.328216314315796,9.53779125213623,0.062213387340307236
1775341148814642400,1.276642333984375,2.3018953800201416,9.525827407836914,0.1052841991186142
1775341148831430000,1.293429931640625,2.306680917739868,9.547362327575684,0.10767702013254166
1775341148848217300,1.31021728515625,2.3186452388763428,9.540184020996094,0.12442677468061447
1775341148865004800,1.3270048828125,2.328216314315796,9.53061294555664,0.11246266216039658
1775341148881792300,1.343792236328125,2.328216314315796,9.53779125213623,0.10049854964017868
1775341148898579700,1.360579833984375,2.304288148880005,9.540184020996094,0.07657032459974289
1775341148915367000,1.377366943359375,2.2995026111602783,9.540184020996094,0.07417750358581543
1775341148932154400,1.394154296875,2.342573404312134,9.523433685302734,0.062213387340307236
1775341148948941800,1.41094189453125,2.344966173171997,9.523433685302734,0.07896314561367035
1775341148965729300,1.427729248046875,2.328216314315796,9.535398483276367,0.0933200865983963
1775341148982516700,1.444516845703125,2.2755744457244873,9.561718940734863,0.11964113265275955
1775341148999304200,1.46130419921875,2.2923240661621094,9.535398483276367,0.10767702013254166
1775341149016091600,1.478091552734375,2.383251428604126,9.511469841003418,0.11724831163883209
1775341149032878800,1.49487890625,2.2779672145843506,9.547362327575684,0.09092725813388824
1775341149049666300,1.511666259765625,2.3090739250183105,9.549755096435547,0.07657032459974289
1775341149066453800,1.528453857421875,2.344966173171997,9.53061294555664,0.08135596662759781
1775341149083241200,1.5452412109375,2.337787628173828,9.540184020996094,0.04785645380616188
1775341149100028700,1.562028564453125,2.328216314315796,9.518648147583008,0.08614161610603333
1775341149116816100,1.578816162109375,2.306680917739868,9.542576789855957,0.08374879509210587
1775341149133603600,1.595603515625,2.306680917739868,9.542576789855957,0.11006984114646912
1775341149150390800,1.612390869140625,2.3090739250183105,9.533005714416504,0.1052841991186142
1775341149167178200,1.62917822265625,2.3234307765960693,9.528220176696777,0.1339980661869049
1775341149183965700,1.645965576171875,2.3330020904541016,9.525827407836914,0.08614161610603333
1775341149200753200,1.662753173828125,2.3330020904541016,9.53779125213623,0.09571290761232376
1775341149217540600,1.67954052734375,2.3018953800201416,9.540184020996094,0.07657032459974289
1775341149234328000,1.696328125,2.321038007736206,9.533005714416504,0.059820566326379776
1775341149251115500,1.713115478515625,2.3258235454559326,9.533005714416504,0.064606212079525
1775341149267903000,1.729903076171875,2.3018953800201416,9.535398483276367,0.08135596662759781
1775341149284690200,1.746690185546875,2.3306093215942383,9.523433685302734,0.11006984114646912
1775341149301477600,1.7634775390625,2.3162522315979004,9.535398483276367,0.11964113265275955
1775341149318265000,1.78026513671875,2.2923240661621094,9.533005714416504,0.11485548317432404
1775341149335052500,1.797052490234375,2.3401806354522705,9.525827407836914,0.1052841991186142
1775341149351840000,1.813840087890625,2.2779672145843506,9.556933403015137,0.0933200865983963
1775341149368627500,1.83062744140625,2.313859462738037,9.533005714416504,0.06699903309345245
1775341149385415000,1.847414794921875,2.3330020904541016,9.523433685302734,0.09092725813388824
1775341149402202400,1.864202392578125,2.321038007736206,9.535398483276367,0.064606212079525
1775341149418989600,1.880989501953125,2.3162522315979004,9.535398483276367,0.08135596662759781
1775341149435777000,1.897777099609375,2.2755744457244873,9.547362327575684,0.0933200865983963
1775341149452564500,1.914564453125,2.3497519493103027,9.528220176696777,0.11246266216039658
1775341149469352000,1.93135205078125,2.328216314315796,9.53779125213623,0.11724831163883209
1775341149486139400,1.948139404296875,2.2923240661621094,9.549755096435547,0.10767702013254166
1775341149502926800,1.9649267578125,2.328216314315796,9.549755096435547,0.10049854964017868
1775341149519714300,1.98171435546875,2.2995026111602783,9.523433685302734,0.08135596662759781
1775341149536501500,1.99850146484375,2.3234307765960693,9.547362327575684,0.08614161610603333
1775341149553289000,2.0152890625,2.2995026111602783,9.53779125213623,0.064606212079525
1775341149570076400,2.032076416015625,2.3330020904541016,9.528220176696777,0.08614161610603333
1775341149586863900,2.04886376953125,2.3258235454559326,9.528220176696777,0.08135596662759781
1775341149603651300,2.0656513671875,2.3090739250183105,9.540184020996094,0.10767702013254166
1775341149620438800,2.082438720703125,2.313859462738037,9.533005714416504,0.10767702013254166
1775341149637226000,2.09922607421875,2.335394859313965,9.528220176696777,0.12442677468061447
1775341149654013400,2.116013427734375,2.321038007736206,9.561718940734863,0.0933200865983963
1775341149670801000,2.13280078125,2.3258235454559326,9.477970123291016,0.13639089465141296
1775341149687588400,2.14958837890625,2.093719720840454,9.643074989318848,-0.02871387079358101
1775341149704375800,2.166375732421875,2.2707886695861816,9.573683738708496,0.275174617767334
1775341149721163300,2.183163330078125,2.3617160320281982,9.53779125213623,-0.11724831163883209
1775341149737950700,2.19995068359375,2.3569302558898926,9.492327690124512,0.20817556977272034
1775341149754738000,2.216738037109375,2.421536445617676,9.535398483276367,0
1775341149771525400,2.233525390625,2.2851455211639404,9.556933403015137,0.24167509377002716
1775341149788312800,2.250312744140625,2.1678972244262695,9.609575271606445,-0.06699903309345245
1775341149805100300,2.267100341796875,2.187039852142334,9.54496955871582,0.2799602448940277
1775341149821887700,2.2838876953125,2.5435705184936523,9.446864128112793,0
1775341149838675200,2.30067529296875,2.352144718170166,9.525827407836914,0.06939185410737991
1775341149855462700,2.317462646484375,2.2061824798583984,9.58325481414795,0.12681959569454193
1775341149872250000,2.33425,2.2372891902923584,9.564111709594727,0.016749758273363113
1775341149889037300,2.351037353515625,2.4335005283355713,9.485149383544922,0.08853443711996078
1775341149905824800,2.36782470703125,2.3952155113220215,9.489934921264648,0.09092725813388824
1775341149922612200,2.3846123046875,2.2468605041503906,9.561718940734863,0.16271193325519562
1775341149939399700,2.401399658203125,2.2133610248565674,9.58325481414795,0.059820566326379776
1775341149956187100,2.418187255859375,2.3736801147460938,9.492327690124512,0.17706887423992157
1775341149972974600,2.434974609375,2.368894338607788,9.497113227844238,0.04307080805301666
1775341149989762000,2.451761962890625,2.2085752487182617,9.585647583007812,0.10767702013254166
1775341150006549200,2.46854931640625,2.2636101245880127,9.559326171875,0.07417750358581543
1775341150023336700,2.485336669921875,2.4526431560516357,9.489934921264648,0.064606212079525
1775341150040124200,2.502124267578125,2.266003131866455,9.54496955871582,0.04785645380616188
1775341150056911600,2.51891162109375,2.273181438446045,9.556933403015137,0.10767702013254166
1775341150073699000,2.535698974609375,2.2755744457244873,9.523433685302734,0.10289137065410614
1775341150090486500,2.552486572265625,2.306680917739868,9.53779125213623,0.09092725813388824
1775341150107274000,2.56927392578125,2.335394859313965,9.518648147583008,0.16031911969184875
1775341150124061200,2.586061279296875,2.335394859313965,9.542576789855957,0.08374879509210587
1775341150140848600,2.6028486328125,2.3234307765960693,9.533005714416504,0.11724831163883209
1775341150157636000,2.619635986328125,2.3497519493103027,9.525827407836914,0.05024927482008934
1775341150174423600,2.636423583984375,2.3497519493103027,9.523433685302734,0.08135596662759781
1775341150191211000,2.6532109375,2.256431818008423,9.571290969848633,0.016749758273363113
1775341150207998500,2.66999853515625,2.3306093215942383,9.518648147583008,0.14835500717163086
1775341150224786000,2.686785888671875,2.392822742462158,9.497113227844238,0.05503492057323456
1775341150241573000,2.703572998046875,2.368894338607788,9.511469841003418,0.11964113265275955
1775341150258360600,2.720360595703125,2.306680917739868,9.533005714416504,0.15074782073497772
1775341150275148000,2.73714794921875,2.2683959007263184,9.554540634155273,0.11485548317432404
1775341150291935500,2.753935546875,2.352144718170166,9.54496955871582,0.08853443711996078
1775341150308723000,2.770722900390625,2.3162522315979004,9.511469841003418,0.11006984114646912
1775341150325510100,2.78751025390625,2.3306093215942383,9.523433685302734,0.04785645380616188
1775341150342297600,2.804297607421875,2.3162522315979004,9.549755096435547,0.02392822690308094
1775341150359085000,2.8210849609375,2.337787628173828,9.542576789855957,0.1698904037475586
1775341150375872500,2.83787255859375,2.287538528442383,9.554540634155273,0.014356935396790504
1775341150392660000,2.854659912109375,2.423929452896118,9.501898765563965,0.1579262912273407
1775341150409447400,2.871447509765625,2.3401806354522705,9.516255378723145,0.12921242415905
1775341150426234600,2.888234619140625,2.1750757694244385,9.58325481414795,0.13160525262355804
1775341150443022000,2.90502197265625,2.311466693878174,9.535398483276367,0.0526420995593071
1775341150459809500,2.9218095703125,2.3952155113220215,9.499505996704102,0.20099709928035736
1775341150476597000,2.938596923828125,2.3497519493103027,9.533005714416504,-0.04307080805301666
1775341150493384400,2.955384521484375,2.289931297302246,9.56889820098877,0.062213387340307236
1775341150510172000,2.972171875,2.282752752304077,9.523433685302734,0.10767702013254166
1775341150526959400,2.98895947265625,2.287538528442383,9.542576789855957,0.11724831163883209
1775341150543746800,3.005746826171875,2.3401806354522705,9.523433685302734,0.009571290574967861
1775341150560534000,3.022533935546875,2.366501569747925,9.518648147583008,0.17946170270442963
1775341150577321500,3.039321533203125,2.2851455211639404,9.554540634155273,0.11964113265275955
1775341150594109000,3.05610888671875,2.1846470832824707,9.578469276428223,0.07417750358581543
1775341150610896400,3.072896484375,2.3497519493103027,9.518648147583008,0.1698904037475586
1775341150627683800,3.089683837890625,2.4741785526275635,9.475577354431152,0.035892341285943985
1775341150644471300,3.10647119140625,2.3617160320281982,9.509077072143555,0.064606212079525
1775341150661258500,3.123258544921875,2.194218397140503,9.588040351867676,0.04546362906694412
1775341150678046000,3.1400458984375,2.210968017578125,9.564111709594727,0.08853443711996078
1775341150694833400,3.15683349609375,2.447857618331909,9.489934921264648,0.059820566326379776
1775341150711620900,3.173620849609375,2.4526431560516357,9.494720458984375,0.11006984114646912
1775341150728408300,3.190408203125,2.2396819591522217,9.554540634155273,0.14117653667926788
1775341150753589500,3.215589599609375,2.3306093215942383,9.518648147583008,0.11485548317432404
1775341150770376700,3.232376708984375,2.273181438446045,9.55214786529541,0.12921242415905
1775341150787164200,3.2491640625,2.1583259105682373,9.58325481414795,0.04307080805301666
1775341150803951600,3.26595166015625,2.289931297302246,9.542576789855957,0.07896314561367035
1775341150820739000,3.282739013671875,2.4502503871917725,9.501898765563965,0.07417750358581543
1775341150837526500,3.299526611328125,2.344966173171997,9.53061294555664,0.004785645287483931
1775341150854314000,3.31631396484375,2.2779672145843506,9.53779125213623,0.07896314561367035
1775341150871101400,3.333101318359375,2.2707886695861816,9.540184020996094,0.12442677468061447
1775341150887888600,3.349888671875,2.3162522315979004,9.511469841003418,0.15074782073497772
1775341150904676000,3.366676025390625,2.335394859313965,9.540184020996094,0.12921242415905
1775341150921463600,3.383463623046875,2.2947168350219727,9.535398483276367,0.09092725813388824
1775341150938251000,3.4002509765625,2.495713949203491,9.4660062789917,0.11006984114646912
1775341150955038500,3.41703857421875,2.2779672145843506,9.542576789855957,0.038285162299871445
1775341150971825700,3.43382568359375,2.155933141708374,9.609575271606445,0.03349951654672623
1775341150988613000,3.450613037109375,2.179861545562744,9.647860527038574,0.08853443711996078
1775341151005400600,3.467400634765625,2.321038007736206,9.485149383544922,0.11006984114646912
1775341151022188000,3.48418798828125,2.6871397495269775,9.43489933013916,0.08135596662759781
1775341151038975500,3.5009755859375,2.196611166000366,9.535398483276367,0.12442677468061447
1775341151055763000,3.517762939453125,2.1918256282806396,9.56889820098877,0.12921242415905
1775341151072550100,3.534550048828125,2.249253273010254,9.628718376159668,0.1339980661869049
1775341151089337600,3.551337646484375,2.2085752487182617,9.58325481414795,-0.064606212079525
1775341151106125000,3.568125,2.3473589420318604,9.511469841003418,0.31106695532798767
1775341151122912500,3.58491259765625,2.3401806354522705,9.55214786529541,-0.1986042857170105
1775341151139700000,3.601699951171875,2.3736801147460938,9.506684303283691,0.28953152894973755
1775341151156487400,3.6184873046875,2.172683000564575,9.602396965026855,-0.0526420995593071
1775341151173274600,3.635274658203125,2.3473589420318604,9.516255378723145,0.20099709928035736
1775341151190062000,3.65206201171875,2.3497519493103027,9.53779125213623,0.0023928226437419653
1775341151206849500,3.668849609375,2.335394859313965,9.513862609863281,0.22971096634864807
1775341151223637000,3.685636962890625,2.3186452388763428,9.554540634155273,-0.014356935396790504
1775341151240424400,3.702424560546875,2.311466693878174,9.511469841003418,0.18903298676013947
1775341151257212000,3.7192119140625,2.321038007736206,9.547362327575684,-0.02153540402650833
1775341151273999400,3.735999267578125,2.2947168350219727,9.540184020996094,0.14117653667926788
1775341151290786600,3.75278662109375,2.3258235454559326,9.57607650756836,-0.02392822690308094
1775341151307574000,3.769573974609375,2.280359983444214,9.521040916442871,0.16510476171970367
1775341151324361500,3.786361572265625,2.2683959007263184,9.559326171875,0.04307080805301666
1775341151341149000,3.80314892578125,2.400001049041748,9.504291534423828,0.1698904037475586
1775341151357936400,3.819936279296875,2.3258235454559326,9.525827407836914,0.06939185410737991
1775341151374723800,3.836723876953125,2.2995026111602783,9.540184020996094,0.15314064919948578
1775341151391511300,3.85351123046875,2.2612173557281494,9.559326171875,0.0933200865983963
1775341151408298500,3.870298583984375,2.3736801147460938,9.499505996704102,0.07657032459974289
1775341151425086000,3.8870859375,2.3497519493103027,9.53779125213623,0.06699903309345245
1775341151441873400,3.903873291015625,2.287538528442383,9.528220176696777,0.02153540402650833
1775341151458660900,3.920660888671875,2.3473589420318604,9.533005714416504,0.13160525262355804
1775341151475448300,3.9374482421875,2.2923240661621094,9.559326171875,0.04307080805301666
1775341151492235800,3.95423583984375,2.297109842300415,9.518648147583008,0.1579262912273407
1775341151509023200,3.971023193359375,2.304288148880005,9.518648147583008,0.0933200865983963
1775341151525810700,3.987810791015625,2.3617160320281982,9.528220176696777,0.15314064919948578
1775341151542598000,4.004597900390625,2.287538528442383,9.518648147583008,0.059820566326379776
1775341151559385300,4.02138525390625,2.2851455211639404,9.55214786529541,0.12681959569454193
1775341151576172800,4.0381728515625,2.3186452388763428,9.53779125213623,0.04546362906694412
1775341151592960300,4.054960205078125,2.3330020904541016,9.525827407836914,0.07178468257188797
1775341151609747700,4.071747802734375,2.3569302558898926,9.518648147583008,0.09571290761232376
1775341151626535200,4.08853515625,2.2636101245880127,9.55214786529541,0.07178468257188797
1775341151643322400,4.105322265625,2.3162522315979004,9.549755096435547,0.11006984114646912
1775341151660109800,4.12210986328125,2.352144718170166,9.528220176696777,0.14356936514377594
1775341151676897300,4.138897216796875,2.313859462738037,9.549755096435547,0.11006984114646912
1775341151693684700,4.155684814453125,2.328216314315796,9.523433685302734,0.12921242415905
1775341151710472200,4.17247216796875,2.297109842300415,9.55214786529541,0.10767702013254166
1775341151727259600,4.189259765625,2.2995026111602783,9.547362327575684,0.07178468257188797
1775341151744047000,4.206047119140625,2.3330020904541016,9.523433685302734,0.05503492057323456
1775341151760834300,4.222834228515625,2.3258235454559326,9.542576789855957,0.08614161610603333
1775341151777621800,4.239621826171875,2.3258235454559326,9.533005714416504,0.064606212079525
1775341151794409200,4.2564091796875,2.3641088008880615,9.521040916442871,0.09571290761232376
1775341151811196700,4.27319677734375,2.251646041870117,9.564111709594727,0.1339980661869049
1775341151827984100,4.289984130859375,2.337787628173828,9.54496955871582,0.09810572862625122
1775341151844771600,4.306771484375,2.344966173171997,9.506684303283691,0.12681959569454193
1775341151861559000,4.32355908203125,2.2995026111602783,9.540184020996094,0.12681959569454193
1775341151878346200,4.34034619140625,2.3234307765960693,9.53779125213623,0.04546362906694412
1775341151895133700,4.3571337890625,2.304288148880005,9.549755096435547,0.10049854964017868
1775341151911921200,4.373921142578125,2.3186452388763428,9.525827407836914,0.05503492057323456
1775341151928708600,4.39070849609375,2.2205393314361572,9.561718940734863,0.08135596662759781
1775341151945496000,4.40749609375,2.2468605041503906,9.535398483276367,0.04546362906694412
1775341151962283500,4.424283447265625,2.3545374870300293,9.521040916442871,0.1459621787071228
1775341151979070700,4.44107080078125,2.256431818008423,9.590433120727539,0.02871387079358101
1775341151995858200,4.457858154296875,2.3306093215942383,9.528220176696777,0.19621145725250244
1775341152012645600,4.474645751953125,2.3473589420318604,9.504291534423828,0.09092725813388824
1775341152029433000,4.49143310546875,2.5387847423553467,9.600004196166992,-0.014356935396790504
1775341152046220500,4.508220458984375,2.1415762901306152,9.56650447845459,0.15074782073497772
1775341152063008000,4.525008056640625,2.2851455211639404,9.595218658447266,0.10767702013254166
1775341152079795500,4.54179541015625,1.9956140518188477,9.753145217895508,-0.04785645380616188
1775341152096582700,4.558582763671875,2.201396942138672,9.588040351867676,0.28953152894973755
1775341152113370000,4.5753701171875,2.4741785526275635,9.387042999267578,-0.02153540402650833
1775341152130157600,4.592157470703125,2.801995277404785,9.442078590393066,0.12203395366668701
1775341152146945000,4.608945068359375,2.196611166000366,9.607182502746582,0.038285162299871445
1775341152163732500,4.625732421875,2.0171494483947754,9.609575271606445,0.2392822653055191
1775341152180520000,4.64252001953125,2.227717876434326,9.535398483276367,-0.02632104977965355
1775341152197307400,4.659307373046875,2.455035924911499,9.463613510131836,0.2727817893028259
1775341152214094600,4.676094482421875,2.1343977451324463,9.674181938171387,-0.08853443711996078
1775341152230882000,4.692882080078125,2.0889341831207275,9.623932838439941,0.24406790733337402
1775341152247669500,4.70966943359375,2.5746772289276123,9.499505996704102,-0.035892341285943985
1775341152264457000,4.72645703125,3.0939197540283203,9.300901412963867,0.09810572862625122
1775341152281244400,4.743244384765625,2.1918256282806396,9.66939640045166,-0.035892341285943985
1775341152298031900,4.760031982421875,1.4691931009292603,9.69093132019043,0.19621145725250244
1775341152314819000,4.776819091796875,2.7110681533813477,9.351150512695312,0.10289137065410614
1775341152331606500,4.7936064453125,2.124826431274414,9.638289451599121,0.009571290574967861
1775341152348394000,4.81039404296875,2.524427890777588,9.454042434692383,0.17946170270442963
1775341152365181400,4.827181396484375,2.1990039348602295,9.628718376159668,0.06699903309345245
1775341152381969000,4.843968994140625,2.2612173557281494,9.540184020996094,0.0933200865983963
1775341152398756400,4.86075634765625,2.5363919734954834,9.410971641540527,0.2512463629245758
1775341152415543800,4.877543701171875,2.170290231704712,9.607182502746582,-0.02392822690308094
1775341152432331000,4.8943310546875,2.5292134284973145,9.494720458984375,0.11006984114646912
1775341152449118500,4.911118408203125,2.3736801147460938,9.504291534423828,0.08135596662759781
1775341152465906000,4.927906005859375,2.4095723628997803,9.535398483276367,0.11485548317432404
1775341152482693400,4.944693359375,2.3569302558898926,9.528220176696777,-0.04307080805301666
1775341152499480800,4.961480712890625,2.280359983444214,9.540184020996094,0.24646073579788208
1775341152516268300,4.978268310546875,2.172683000564575,9.57607650756836,0.03349951654672623
1775341152533055700,4.9950556640625,2.469393014907837,9.475577354431152,0.1818545162677765
1775341152549843000,5.011843017578125,2.50289249420166,9.535398483276367,-0.0023928226437419653
1775341152566630400,5.02863037109375,2.313859462738037,9.528220176696777,0.2584248483181
1775341152583417900,5.04541796875,2.2061824798583984,9.57607650756836,-0.09810572862625122
1775341152600205300,5.062205322265625,2.4717857837677,9.492327690124512,0.20578274130821228
1775341152616992800,5.07899267578125,2.3330020904541016,9.53779125213623,-0.04785645380616188
1775341152633780200,5.0957802734375,2.392822742462158,9.475577354431152,0.2153540402650833
1775341152650567400,5.1125673828125,2.297109842300415,9.573683738708496,-0.10049854964017868
1775341152667355000,5.12935498046875,2.3545374870300293,9.511469841003418,0.3397808074951172
1775341152684142300,5.146142333984375,2.400001049041748,9.53061294555664,-0.04546362906694412
1775341152700929800,5.1629296875,2.3952155113220215,9.504291534423828,0.1986042857170105
1775341152717717200,5.17971728515625,2.282752752304077,9.561718940734863,0.07178468257188797
1775341152734504700,5.196504638671875,2.352144718170166,9.542576789855957,0.0933200865983963
1775341152751292200,5.213292236328125,2.438286304473877,9.501898765563965,0.07417750358581543
1775341152768079400,5.230079345703125,2.376072883605957,9.518648147583008,0.04785645380616188
1775341152784866800,5.24686669921875,2.368894338607788,9.492327690124512,0.15314064919948578
1775341152801654300,5.263654296875,2.3641088008880615,9.53779125213623,-0.019142581149935722
1775341152818441700,5.280441650390625,2.2995026111602783,9.547362327575684,0.20817556977272034
1775341152835229200,5.297229248046875,2.337787628173828,9.554540634155273,0.03349951654672623
1775341152852016600,5.3140166015625,2.3306093215942383,9.53061294555664,0.17946170270442963
1775341152868803800,5.330803955078125,2.390429735183716,9.516255378723145,0.009571290574967861
1775341152885591300,5.34759130859375,2.344966173171997,9.525827407836914,0.16510476171970367
1775341152902378800,5.364378662109375,2.337787628173828,9.540184020996094,0.019142581149935722
1775341152919166200,5.381166259765625,2.3234307765960693,9.511469841003418,0.16271193325519562
1775341152935953700,5.39795361328125,2.321038007736206,9.528220176696777,0.007178467698395252
1775341152952741000,5.4147412109375,2.3306093215942383,9.540184020996094,0.15074782073497772
1775341152969528300,5.4315283203125,2.3497519493103027,9.54496955871582,0.035892341285943985
1775341152986315800,5.448315673828125,2.392822742462158,9.499505996704102,0.1866401731967926
1775341153003103200,5.465103271484375,2.3712873458862305,9.533005714416504,0.02871387079358101
1775341153019890700,5.481890625,2.2372891902923584,9.564111709594727,0.13639089465141296
1775341153036678100,5.49867822265625,2.2755744457244873,9.53061294555664,0.062213387340307236
1775341153053465600,5.515465576171875,2.4574289321899414,9.518648147583008,0.11485548317432404
1775341153070252800,5.532252685546875,2.3617160320281982,9.511469841003418,0.10049854964017868
1775341153087040300,5.549040283203125,2.2947168350219727,9.549755096435547,0.0933200865983963
1775341153103827700,5.56582763671875,2.306680917739868,9.549755096435547,0.06939185410737991
1775341153120615200,5.582615234375,2.4023938179016113,9.504291534423828,0.1052841991186142
1775341153137402600,5.599402587890625,2.3569302558898926,9.533005714416504,0.05503492057323456
1775341153154190000,5.616190185546875,2.321038007736206,9.547362327575684,0.12203395366668701
1775341153170977300,5.632977294921875,2.352144718170166,9.542576789855957,0.10049854964017868
1775341153187764700,5.6497646484375,2.392822742462158,9.516255378723145,0.10289137065410614
1775341153204552200,5.66655224609375,2.3641088008880615,9.516255378723145,0.1052841991186142
1775341153221339600,5.683339599609375,2.3497519493103027,9.54496955871582,0.12681959569454193
1775341153238127000,5.700127197265625,2.2923240661621094,9.54496955871582,0.062213387340307236
1775341153254914300,5.716914306640625,2.344966173171997,9.521040916442871,0.10767702013254166
1775341153271701800,5.73370166015625,2.3808584213256836,9.518648147583008,0.05024927482008934
1775341153288489200,5.7504892578125,2.368894338607788,9.509077072143555,0.09810572862625122
1775341153305276700,5.767276611328125,2.3641088008880615,9.511469841003418,0.064606212079525
1775341153322064100,5.784064208984375,2.342573404312134,9.523433685302734,0.12442677468061447
1775341153338851600,5.8008515625,2.297109842300415,9.547362327575684,0.08853443711996078
1775341153355638800,5.817638671875,2.368894338607788,9.523433685302734,0.12203395366668701
1775341153372426200,5.83442626953125,2.3952155113220215,9.521040916442871,0.10289137065410614
1775341153389213700,5.851213623046875,2.421536445617676,9.506684303283691,0.05742774158716202
1775341153406001200,5.868001220703125,2.392822742462158,9.53779125213623,0.10767702013254166
1775341153422788600,5.88478857421875,2.2923240661621094,9.561718940734863,0.08135596662759781
1775341153439576000,5.901576171875,2.3090739250183105,9.53061294555664,0.11964113265275955
1775341153456363300,5.91836328125,2.352144718170166,9.516255378723145,0.06699903309345245
1775341153473150700,5.935150634765625,2.306680917739868,9.56650447845459,0.08135596662759781
1775341153489938200,5.951938232421875,2.445464849472046,9.482755661010742,0.12442677468061447
1775341153506725600,5.9687255859375,2.5986053943634033,9.461220741271973,0.05742774158716202
1775341153523513000,5.98551318359375,2.2325034141540527,9.595218658447266,0.06939185410737991
1775341153540300300,6.00230029296875,2.203789710998535,9.549755096435547,0.12681959569454193
1775341153557087700,6.019087646484375,2.3736801147460938,9.549755096435547,0.05024927482008934
1775341153573875200,6.035875244140625,2.447857618331909,9.53779125213623,0.12203395366668701
1775341153590662700,6.05266259765625,2.2707886695861816,9.573683738708496,0.059820566326379776
1775341153607450000,6.0694501953125,2.029113531112671,9.638289451599121,0.13160525262355804
1775341153624237600,6.086237548828125,2.416750907897949,9.53061294555664,0.11964113265275955
1775341153641024800,6.103024658203125,2.2444677352905273,9.592825889587402,0.06699903309345245
1775341153657812200,6.119812255859375,2.170290231704712,9.695717811584473,0.08853443711996078
1775341153674599700,6.136599609375,2.1990039348602295,9.592825889587402,0.035892341285943985
1775341153691387100,6.15338720703125,2.2636101245880127,9.533005714416504,0.11246266216039658
1775341153708174600,6.170174560546875,2.541177749633789,9.399007797241211,0.04785645380616188
1775341153724961800,6.1869619140625,2.6536402702331543,9.379864692687988,0.11964113265275955
1775341153741749200,6.203749267578125,2.5052852630615234,9.439684867858887,0.08614161610603333
1775341153758536700,6.22053662109375,2.2540390491485596,9.571290969848633,0.1052841991186142
1775341153775324200,6.23732421875,2.3736801147460938,9.504291534423828,0.12921242415905
1775341153792111600,6.254111572265625,2.3952155113220215,9.497113227844238,0.064606212079525
1775341153808899000,6.270899169921875,2.3641088008880615,9.504291534423828,0.12203395366668701
1775341153825686300,6.287686279296875,2.3545374870300293,9.53779125213623,0.03349951654672623
1775341153842473700,6.3044736328125,2.1750757694244385,9.604789733886719,0.12203395366668701
1775341153859261200,6.32126123046875,2.2851455211639404,9.57607650756836,0.0526420995593071
1775341153876048600,6.338048583984375,2.526820659637451,9.4660062789917,0.11964113265275955
1775341153892835800,6.3548359375,2.3162522315979004,9.547362327575684,0.02153540402650833
1775341153909623300,6.371623291015625,2.3784656524658203,9.504291534423828,0.15314064919948578
1775341153926410800,6.38841064453125,2.337787628173828,9.540184020996094,0.040677983313798904
1775341153951592000,6.413592041015625,2.342573404312134,9.525827407836914,0.09092725813388824
1775341153968379400,6.43037939453125,2.4646072387695312,9.506684303283691,0.10767702013254166
1775341153985166800,6.447166748046875,2.3162522315979004,9.559326171875,0.02871387079358101
1775341154001954000,6.4639541015625,2.2372891902923584,9.554540634155273,0.11964113265275955
1775341154018741500,6.480741455078125,2.531606435775757,9.315258979797363,0.1818545162677765
1775341154035529000,6.497529052734375,2.644068956375122,9.595218658447266,-0.009571290574967861
1775341154052316400,6.51431640625,1.8807586431503296,9.659825325012207,0.16271193325519562
1775341154069103900,6.531103759765625,2.2229323387145996,9.559326171875,0.15074782073497772
1775341154085891000,6.54789111328125,2.7110681533813477,9.363115310668945,0.009571290574967861
1775341154102678500,6.564678466796875,2.713460922241211,9.415757179260254,0.15553347766399384
1775341154119466000,6.581466064453125,2.0410776138305664,9.645467758178711,0.03349951654672623
1775341154136253400,6.59825341796875,1.9932212829589844,9.631111145019531,0.1746760457754135
1775341154153041000,6.615041015625,2.4837498664855957,9.482755661010742,-0.0023928226437419653
1775341154169828000,6.631828125,2.6009981632232666,9.415757179260254,0.15553347766399384
1775341154186615600,6.648615478515625,2.273181438446045,9.559326171875,0.02392822690308094
1775341154203403000,6.665403076171875,2.196611166000366,9.556933403015137,0.18903298676013947
1775341154220190500,6.6821904296875,2.3880369663238525,9.53061294555664,0.04546362906694412
1775341154236978000,6.69897802734375,2.4813570976257324,9.473184585571289,0.1746760457754135
1775341154253765400,6.715765380859375,2.4287149906158447,9.513862609863281,0.04785645380616188
1775341154270552600,6.732552490234375,2.3808584213256836,9.533005714416504,0.11964113265275955
1775341154287340000,6.749340087890625,2.3018953800201416,9.521040916442871,0.03349951654672623
1775341154304127500,6.76612744140625,2.3258235454559326,9.521040916442871,0.11964113265275955
1775341154320915000,6.7829150390625,2.368894338607788,9.518648147583008,0.04546362906694412
1775341154337702100,6.7997021484375,2.3784656524658203,9.509077072143555,0.11485548317432404
1775341154354489600,6.816489501953125,2.3880369663238525,9.547362327575684,0.11724831163883209
1775341154371277000,6.833277099609375,2.4406790733337402,9.521040916442871,0.06699903309345245
1775341154388064500,6.850064453125,2.2636101245880127,9.53061294555664,0.1459621787071228
1775341154404852000,6.86685205078125,2.2372891902923584,9.554540634155273,0.04785645380616188
1775341154421639200,6.88363916015625,2.342573404312134,9.564111709594727,0.14117653667926788
1775341154438426600,6.900426513671875,2.2396819591522217,9.561718940734863,0.05503492057323456
1775341154455214000,6.917214111328125,2.390429735183716,9.501898765563965,0.1052841991186142
1775341154472001500,6.93400146484375,2.4023938179016113,9.487542152404785,0.009571290574967861
1775341154488789000,6.9507890625,2.342573404312134,9.518648147583008,0.16749759018421173
1775341154505576200,6.967576171875,2.2061824798583984,9.590433120727539,-0.004785645287483931
1775341154522363600,6.98436376953125,2.234896421432495,9.54496955871582,0.20099709928035736
1775341154539151000,7.001151123046875,2.4526431560516357,9.518648147583008,0.035892341285943985
1775341154555938600,7.0179384765625,2.400001049041748,9.489934921264648,0.15074782073497772
1775341154572726000,7.03472607421875,2.297109842300415,9.56889820098877,0.07178468257188797
1775341154589513200,7.05151318359375,2.251646041870117,9.590433120727539,0.14356936514377594
1775341154606300700,7.06830078125,2.3880369663238525,9.499505996704102,0.02632104977965355
1775341154623088000,7.085088134765625,2.469393014907837,9.487542152404785,0.08614161610603333
1775341154639875600,7.10187548828125,2.2995026111602783,9.578469276428223,0.10049854964017868
1775341154656663000,7.1186630859375,2.249253273010254,9.564111709594727,0.031106693670153618
1775341154673450500,7.135450439453125,2.3736801147460938,9.511469841003418,0.17946170270442963
1775341154690237700,7.15223779296875,2.3736801147460938,9.506684303283691,0.05024927482008934
1775341154707025200,7.169025146484375,2.313859462738037,9.53061294555664,0.15074782073497772
1775341154723812600,7.1858125,2.3952155113220215,9.53779125213623,0.05742774158716202
1775341154740600000,7.20260009765625,2.313859462738037,9.521040916442871,0.12442677468061447
1775341154757387500,7.219387451171875,2.337787628173828,9.55214786529541,0.038285162299871445
1775341154774174700,7.2361748046875,2.2923240661621094,9.590433120727539,0.08853443711996078
1775341154790962200,7.252962158203125,2.3258235454559326,9.470791816711426,0.10289137065410614
1775341154807749600,7.26974951171875,2.3880369663238525,9.53779125213623,0.07417750358581543
1775341154824537000,7.286537109375,2.3617160320281982,9.54496955871582,0.08614161610603333
1775341154841324500,7.303324462890625,2.3090739250183105,9.542576789855957,0.17706887423992157
1775341154858111700,7.32011181640625,2.311466693878174,9.494720458984375,0.04546362906694412
1775341154874899200,7.336899169921875,2.4406790733337402,9.521040916442871,0.11724831163883209
1775341154891686700,7.353686767578125,2.282752752304077,9.509077072143555,0.10767702013254166
1775341154908474000,7.37047412109375,2.2995026111602783,9.55214786529541,0.11964113265275955
1775341154925261300,7.38726123046875,2.3330020904541016,9.521040916442871,0.040677983313798904
1775341154942048800,7.404048828125,2.2755744457244873,9.504291534423828,0.08853443711996078
1775341154958836200,7.420836181640625,2.3258235454559326,9.55214786529541,0.03349951654672623
1775341154975623700,7.437623779296875,2.2995026111602783,9.533005714416504,0.12442677468061447
1775341154992411100,7.4544111328125,2.3784656524658203,9.523433685302734,0.1052841991186142
1775341155009198300,7.4711982421875,2.3306093215942383,9.535398483276367,0.12442677468061447
1775341155025985800,7.48798583984375,2.306680917739868,9.540184020996094,0.08374879509210587
1775341155042773200,7.504773193359375,2.3473589420318604,9.506684303283691,0.08853443711996078
1775341155059560700,7.521560791015625,2.3186452388763428,9.494720458984375,-0.01196411345154047
1775341155076348000,7.538347900390625,2.3952155113220215,9.564111709594727,0.16510476171970367
1775341155093135400,7.55513525390625,2.407179594039917,9.564111709594727,0.03349951654672623
1775341155109922800,7.5719228515625,2.282752752304077,9.497113227844238,0.07178468257188797
1775341155126710300,7.588710205078125,2.414358139038086,9.535398483276367,0.10049854964017868
1775341155143497700,7.605497802734375,2.4765713214874268,9.470791816711426,0.05024927482008934
1775341155160285200,7.62228515625,2.2468605041503906,9.607182502746582,0.1459621787071228
1775341155177072400,7.639072265625,2.289931297302246,9.523433685302734,0.031106693670153618
1775341155193859800,7.65585986328125,2.586641311645508,9.461220741271973,0.1746760457754135
1775341155210647300,7.672647216796875,2.0961127281188965,9.616754531860352,-0.02632104977965355
1775341155227434800,7.689434814453125,2.469393014907837,9.463613510131836,0.2871387302875519
1775341155244222200,7.70622216796875,2.50289249420166,9.523433685302734,-0.1746760457754135
1775341155261009400,7.723009521484375,2.1415762901306152,9.564111709594727,0.2847459018230438
1775341155277796900,7.739796875,2.311466693878174,9.647860527038574,-0.019142581149935722
1775341155294584300,7.756584228515625,2.287538528442383,9.542576789855957,0.22013968229293823
1775341155311371800,7.773371826171875,2.3401806354522705,9.578469276428223,-0.019142581149935722
1775341155328159000,7.790158935546875,2.2923240661621094,9.57607650756836,0.13160525262355804
1775341155344946400,7.806946533203125,2.2372891902923584,9.604789733886719,0.08135596662759781
1775341155361734000,7.82373388671875,1.6462619304656982,9.872786521911621,0.2584248483181
1775341155378521300,7.840521240234375,2.2372891902923584,9.726823806762695,0.16749759018421173
1775341155395308500,7.85730859375,1.9022940397262573,10.073782920837402,0.3924229145050049
1775341155412096000,7.874095947265625,1.0408778190612793,10.822736740112305,0.23210379481315613
1775341155428883500,7.890883544921875,2.383251428604126,10.571490287780762,0.059820566326379776
1775341155445671000,7.9076708984375,1.8807586431503296,11.143375396728516,0.20099709928035736
1775341155462458400,7.924458251953125,2.3952155113220215,11.119446754455566,-0.24646073579788208
1775341155479245600,7.94124560546875,2.4765713214874268,11.162517547607422,0.059820566326379776
1775341155496033000,7.958032958984375,0.8374879360198975,11.34676456451416,-0.13639089465141296
1775341155512820500,7.974820556640625,3.4959139823913574,9.55214786529541,0.15074782073497772
1775341155529608000,7.99160791015625,-2.7421748638153076,13.186845779418945,0.26560330390930176
1775341155546395400,8.0083955078125,-1.8185452222824097,12.136396408081055,0.2632105052471161
1775341155563182600,8.0251826171875,1.9884356260299683,9.17886734008789,-0.3732803463935852
1775341155579970000,8.041969970703125,5.2043890953063965,8.257631301879883,0.18424734473228455
1775341155596757500,8.058757568359376,5.376672267913818,6.965506553649902,-0.5623133182525635
1775341155613545000,8.075544921875,6.726224422454834,6.44387149810791,0.16749759018421173
1775341155630332200,8.092332275390625,6.9104719161987305,6.740581512451172,-0.2919243574142456
1775341155647119600,8.10911962890625,6.180660724639893,7.247859954833984,-0.2991028428077698
1775341155663907000,8.125906982421874,3.290131092071533,8.50169849395752,-0.1698904037475586
1775341155680694500,8.142694580078125,0.5240281820297241,9.521040916442871,-0.30628129839897156
1775341155697481700,8.159481689453125,-1.1318050622940063,9.90149974822998,-0.13639089465141296
1775341155714269200,8.176269287109376,-1.129412293434143,9.863214492797852,-0.2392822653055191
1775341155731056600,8.193056640625,-0.46420758962631226,8.243273735046387,0.3732803463935852
1775341155747844000,8.209843994140625,1.8424733877182007,7.135396957397461,0.01196411345154047
1775341155764631600,8.226631591796876,4.091726779937744,5.60399055480957,0.13878370821475983
1775341155781418800,8.243418701171874,6.860222339630127,4.610969066619873,0.22492532432079315
1775341155798206200,8.260206298828125,6.939185619354248,4.809573650360107,0.31824541091918945
1775341155814993700,8.27699365234375,24.69632339477539,-1.5984054803848267,-1.7012969255447388
1775341155831781000,8.293781005859374,11.887542724609375,3.5150563716888428,13.6175537109375
1775341155848568300,8.310568359375,8.898907661437988,6.888936519622803,-6.5874409675598145
1775341155865355800,8.327355712890625,-9.365508079528809,8.63330364227295,5.656632900238037
1775341155882143200,8.344143310546874,14.816357612609863,4.1659040451049805,-2.7326035499572754
1775341155898930700,8.3609306640625,6.022734642028809,7.195217609405518,-0.9786644577980042
1775341155915718100,8.37771826171875,11.145768165588379,4.778466701507568,0.7776673436164856
1775341155932505300,8.39450537109375,3.2159535884857178,10.200602531433105,-1.3519448041915894
1775341155949292800,8.411292724609375,6.649653911590576,7.599604606628418,0.31106695532798767
1775341155966080300,8.428080322265625,10.246066093444824,8.322237014770508,-0.698704183101654
1775341155982867700,8.44486767578125,6.025127410888672,8.544769287109375,0.3613162338733673
1775341155999655000,8.461655029296875,9.166903495788574,6.685546398162842,-0.5120640397071838
1775341156016442400,8.4784423828125,7.377072334289551,7.625925540924072,0.5240281820297241
1775341156033229800,8.495229736328126,7.22871732711792,7.8556365966796875,-0.016749758273363113
1775341156050017300,8.512017333984375,7.621140003204346,6.527620315551758,0.18424734473228455
1775341156066804500,8.528804443359375,7.056434154510498,6.678368091583252,-0.363709032535553
1775341156083592000,8.545592041015626,6.120840549468994,7.35314416885376,0.10289137065410614
1775341156100379400,8.56237939453125,6.149554252624512,6.97268533706665,-0.9786644577980042
1775341156117166800,8.579166748046875,9.726823806762695,5.97727108001709,0.3613162338733673
1775341156133954300,8.595954345703126,5.886343479156494,7.271788120269775,-0.5288137793540955
1775341156150741500,8.612741455078124,7.238288402557373,6.616154670715332,0.275174617767334
1775341156167529000,8.629529052734375,8.233702659606934,6.8482584953308105,-0.28235307335853577
1775341156184316400,8.64631640625,7.118647575378418,7.073183536529541,0.2105683982372284
1775341156201104000,8.663103759765624,6.915257453918457,7.412964344024658,-0.21774685382843018
1775341156217891300,8.679891357421875,6.690331935882568,7.343572616577148,0.14835500717163086
1775341156234678800,8.6966787109375,6.489335060119629,7.386643409729004,-0.33499518036842346
1775341156251466000,8.713466064453126,7.429714202880859,6.896114826202393,-0.02392822690308094
1775341156268253400,8.73025341796875,7.341179847717285,6.977470874786377,-0.20578274130821228
1775341156285041000,8.747041015625,5.85284423828125,7.439285755157471,-0.33020952343940735
1775341156301828400,8.763828369140626,6.996613502502441,7.252645492553711,-0.2727817893028259
1775341156318615800,8.78061572265625,6.975078105926514,7.077969551086426,-0.2727817893028259
1775341156335403000,8.797403076171875,7.020541667938232,7.18086051940918,-0.32303106784820557
1775341156352190500,8.8141904296875,7.477570533752441,6.809973239898682,-0.1698904037475586
1775341156368978000,8.83097802734375,7.319644451141357,6.750152587890625,-0.38763725757598877
1775341156385765400,8.847765380859375,6.891329288482666,7.085147857666016,0.07657032459974289
1775341156402552800,8.864552734375,6.305087566375732,7.18086051940918,-0.04785645380616188
1775341156419340300,8.88134033203125,6.041877269744873,7.3052873611450195,0.05742774158716202
1775341156436127500,8.89812744140625,5.601597785949707,7.302894592285156,-0.1986042857170105
1775341156452915000,8.9149150390625,5.625525951385498,7.57806921005249,-0.009571290574967861
1775341156469702400,8.931702392578124,6.5419769287109375,7.039684295654297,-0.09810572862625122
1775341156486489900,8.94848974609375,6.604190349578857,7.142575740814209,-0.0526420995593071
1775341156503277300,8.96527734375,5.98444938659668,7.381857872009277,-0.16271193325519562
1775341156520064500,8.982064453125,5.836094379425049,7.393822193145752,-0.11246266216039658
1775341156536852000,8.99885205078125,6.020341873168945,7.336394309997559,-0.15553347766399384
1775341156553639400,9.015639404296875,6.070590972900391,7.350750923156738,-0.040677983313798904
1775341156570427000,9.032427001953126,5.5106706619262695,7.226324558258057,-0.11964113265275955
1775341156587214300,9.04921435546875,5.625525951385498,6.7932233810424805,-0.2799602448940277
1775341156604001800,9.066001708984375,11.303693771362305,4.883750915527344,-0.02871387079358101
1775341156620789000,9.0827890625,3.8668015003204346,7.513463020324707,-0.9379864931106567
1775341156637576400,9.099576416015625,6.9822564125061035,6.022734642028809,0.39960137009620667
1775341156654364000,9.116364013671875,6.561119556427002,6.436692714691162,-0.7489534616470337
1775341156671151400,9.1331513671875,6.252445697784424,6.434299945831299,0.14117653667926788
1775341156687938800,9.149938720703124,6.6831536293029785,6.209374904632568,-0.2799602448940277
1775341156704726000,9.16672607421875,6.247660160064697,6.288337707519531,-0.05742774158716202
1775341156721513500,9.183513427734376,6.32662296295166,6.50608491897583,-0.20338992774486542
1775341156738301000,9.200301025390624,6.585047721862793,6.441478729248047,0.24646073579788208
1775341156755088400,9.21708837890625,6.553941249847412,6.386443614959717,-0.19381862878799438
1775341156771875800,9.233875732421875,5.958128452301025,6.821937561035156,0
1775341156788663000,9.2506630859375,6.905686378479004,6.7932233810424805,-0.2991028428077698
1775341156805450500,9.267450439453125,6.424728870391846,6.795616149902344,0.08374879509210587
1775341156822238000,9.284238037109375,6.881757736206055,7.176074981689453,-0.11006984114646912
1775341156839025400,9.301025390625,6.391229152679443,7.188039302825928,-0.05024927482008934
1775341156855812900,9.317812744140625,6.833901405334473,6.802794933319092,-0.26560330390930176
1775341156872600300,9.334600341796875,6.9822564125061035,7.381857872009277,-0.19142581522464752
1775341156889387500,9.351387451171876,6.391229152679443,7.207181930541992,-0.1866401731967926
1775341156906175000,9.368175048828125,7.76470947265625,6.781259536743164,-0.13160525262355804
1775341156922962400,9.38496240234375,5.982056617736816,7.487142086029053,-0.30628129839897156
1775341156939750000,9.40175,6.805187702178955,7.128218650817871,-0.016749758273363113
1775341156956537300,9.418537353515624,7.582854747772217,6.97986364364624,-0.39960137009620667
1775341156973324800,9.43532470703125,5.85284423828125,7.314858913421631,-0.20099709928035736
1775341156990112000,9.452112060546876,6.814758777618408,6.8004021644592285,-0.33738797903060913
1775341157006899500,9.4688994140625,7.051648139953613,6.675975322723389,-0.24646073579788208
1775341157023687000,9.48568701171875,6.573083877563477,6.915257453918457,-0.038285162299871445
1775341157040474400,9.502474365234375,6.3529438972473145,7.357929706573486,-0.7441678643226624
1775341157057261800,9.51926171875,6.484549522399902,6.977470874786377,0.6149554252624512
1775341157074049000,9.536049072265625,7.087540626525879,6.599404811859131,-0.8279166221618652
1775341157090836500,9.55283642578125,6.080162525177002,6.6831536293029785,0.698704183101654
1775341157107624000,9.5696240234375,7.176074981689453,6.927221775054932,-0.6460621356964111
1775341157124411400,9.586411376953125,6.97986364364624,6.503692150115967,0.3613162338733673
1775341157141198600,9.603198486328125,6.577869415283203,6.881757736206055,-0.5168496966362
1775341157157986000,9.619986083984376,6.474977970123291,6.831508636474609,0.13160525262355804
1775341157174773500,9.6367734375,6.570691108703613,7.152146816253662,-0.02153540402650833
1775341157191561000,9.65356103515625,6.647261142730713,6.795616149902344,-0.12442677468061447
1775341157208348400,9.670348388671876,6.503692150115967,6.929614543914795,-0.17706887423992157
1775341157225135900,9.687135986328125,6.252445697784424,7.231110095977783,-0.040677983313798904
1775341157241923000,9.703923095703125,7.1234331130981445,7.0061845779418945,-0.11006984114646912
1775341157258710500,9.72071044921875,6.52044153213501,7.463213920593262,-0.22492532432079315
1775341157275498000,9.737498046875,6.654439926147461,7.0683979988098145,-0.08374879509210587
1775341157292285400,9.754285400390625,7.41535758972168,7.018148899078369,-0.550349235534668
1775341157309073000,9.771072998046876,6.814758777618408,7.113861560821533,-0.04307080805301666
1775341157325860000,9.787860107421874,7.008577346801758,7.365108013153076,-0.16510476171970367
1775341157342647600,9.8046474609375,6.654439926147461,7.223931789398193,-0.2871387302875519
1775341157359435000,9.82143505859375,6.932007312774658,7.183253765106201,-0.27038896083831787
1775341157376222500,9.838222412109374,7.073183536529541,7.056434154510498,-0.2105683982372284
1775341157393010000,9.855010009765625,6.790830612182617,7.441678524017334,0
1775341157409797400,9.87179736328125,6.1328043937683105,7.255038261413574,-0.3924229145050049
1775341157426584600,9.88858447265625,7.087540626525879,7.015756130218506,0.23688943684101105
1775341157443372000,9.9053720703125,7.058826923370361,7.188039302825928,-0.5288137793540955
1775341157460159500,9.922159423828125,7.176074981689453,7.11146879196167,0.2871387302875519
1775341157476947000,9.938947021484376,6.606583118438721,7.3746795654296875,-0.3038884699344635
1775341157493734400,9.955734375,6.668796539306641,7.195217609405518,0.19142581522464752
1775341157510521600,9.972521484375,7.1473612785339355,7.192824840545654,-0.24885354936122894
1775341157527309000,9.98930908203125,6.695117950439453,7.190432071685791,0.11724831163883209
1775341157544096500,10.006096435546874,6.714260101318359,7.2574310302734375,-0.20578274130821228
1775341157560884000,10.022884033203125,6.393621921539307,7.1234331130981445,-0.09810572862625122
1775341157577671200,10.039671142578126,7.511070251464844,7.080362319946289,-0.05024927482008934
1775341157594458600,10.056458740234374,6.623332977294922,7.080362319946289,-0.2919243574142456
1775341157611246000,10.07324609375,6.577869415283203,7.1162543296813965,0.20099709928035736
1775341157628033500,10.090033447265625,7.025327205657959,7.238288402557373,-0.46899324655532837
1775341157644821000,10.106821044921874,6.563512325286865,7.341179847717285,0.07896314561367035
1775341157661608200,10.123608154296875,7.372286796569824,7.10429048538208,-0.4378865361213684
1775341157678395600,10.140395751953125,6.7692952156066895,7.070790767669678,-0.02392822690308094
1775341157695183000,10.15718310546875,6.788437843322754,7.427321434020996,-0.26081767678260803
1775341157711970600,10.173970458984375,6.778866767883301,7.410571575164795,-0.2871387302875519
1775341157728758000,10.190758056640625,7.066005229949951,7.350750923156738,-0.17946170270442963
1775341157745545200,10.207545166015626,7.018148899078369,7.054041385650635,-0.2560320198535919
1775341157762332700,10.224332763671875,6.723831653594971,7.369893550872803,-0.064606212079525
1775341157779120000,10.2411201171875,6.551548480987549,7.022934436798096,-0.05742774158716202
1775341157795907600,10.257907470703126,6.812366008758545,7.0755767822265625,-0.19142581522464752
1775341157812695000,10.274695068359375,6.728617191314697,7.149754047393799,0.16271193325519562
1775341157829482200,10.291482177734375,6.759724140167236,6.9344000816345215,-0.02392822690308094
1775341157846269700,10.308269775390626,6.920042991638184,7.23589563369751,-0.016749758273363113
1775341157863057200,10.32505712890625,6.92482852935791,6.946363925933838,-0.11006984114646912
1775341157879844600,10.3418447265625,6.977470874786377,7.264609336853027,-0.3565305769443512
1775341157896632000,10.358632080078126,6.539584159851074,7.168896675109863,-0.05024927482008934
1775341157913419300,10.375419189453124,6.970292568206787,6.912864685058594,-0.13639089465141296
1775341157930206700,10.392206787109375,6.989434719085693,7.192824840545654,-0.2847459018230438
1775341157946994200,10.408994140625,6.50608491897583,7.2095746994018555,0.31824541091918945
1775341157963781600,10.42578173828125,7.0995049476623535,7.341179847717285,-0.19621145725250244
1775341157980569000,10.442569091796875,6.953542709350586,6.836294174194336,0.14117653667926788
1775341157997356300,10.459356201171875,6.738188743591309,7.377072334289551,-0.3565305769443512
1775341158014143700,10.476143798828126,7.037291526794434,7.2430739402771,-0.02632104977965355
1775341158030931200,10.49293115234375,7.176074981689453,7.056434154510498,-0.20817556977272034
1775341158047718700,10.50971875,6.597012042999268,7.23589563369751,-0.31824541091918945
1775341158064505900,10.526505859375,6.908079147338867,7.245467185974121,-0.11485548317432404
1775341158081293300,10.543293212890624,7.04207706451416,6.929614543914795,-0.4139583110809326
1775341158098080800,10.560080810546875,6.671189308166504,7.142575740814209,-0.2679961323738098
1775341158114868200,10.5768681640625,6.608976364135742,7.307680130004883,-0.1986042857170105
1775341158131655400,10.593655517578124,7.283751964569092,7.054041385650635,-0.09092725813388824
1775341158148443000,10.61044287109375,6.647261142730713,7.168896675109863,-0.1459621787071228
1775341158165230300,10.627230224609375,6.460621356964111,6.989434719085693,0.11006984114646912
1775341158182017800,10.644017822265624,7.1162543296813965,7.259823799133301,-0.17706887423992157
1775341158198805000,10.660804931640625,6.8554368019104,7.2430739402771,-0.10767702013254166
1775341158215592400,10.677592529296875,6.932007312774658,7.1856465339660645,-0.08853443711996078
1775341158232380000,10.6943798828125,6.888936519622803,7.29810905456543,-0.28235307335853577
1775341158249167400,10.71116748046875,6.941578388214111,7.207181930541992,-0.038285162299871445
1775341158265954800,10.727954833984375,6.845865726470947,7.278966426849365,-0.038285162299871445
1775341158282742000,10.744741943359376,6.955935478210449,7.192824840545654,-0.11964113265275955
1775341158299529500,10.761529541015625,6.678368091583252,7.046862602233887,-0.04785645380616188
1775341158316317000,10.77831689453125,6.821937561035156,7.216753005981445,-0.1339980661869049
1775341158333104400,10.7951044921875,6.6113691329956055,7.058826923370361,-0.014356935396790504
1775341158349891800,10.811891845703125,6.960721015930176,7.125825881958008,-0.20099709928035736
1775341158366679000,10.828678955078125,6.898507595062256,7.11146879196167,-0.13160525262355804
1775341158383466500,10.845466552734376,6.905686378479004,7.195217609405518,-0.11006984114646912
1775341158400254000,10.86225390625,6.9104719161987305,7.35314416885376,-0.25363919138908386
1775341158417041400,10.87904150390625,6.9344000816345215,7.1856465339660645,-0.019142581149935722
1775341158433828600,10.89582861328125,6.991827964782715,7.365108013153076,-0.17228323221206665
1775341158450616000,10.912615966796874,6.967899322509766,7.2813591957092285,-0.08374879509210587
1775341158467403500,10.929403564453125,7.046862602233887,7.247859954833984,-0.1052841991186142
1775341158484191000,10.94619091796875,6.807580471038818,7.369893550872803,-0.2799602448940277
1775341158500978200,10.962978271484374,6.98704195022583,7.106683254241943,-0.009571290574967861
1775341158517765600,10.979765625,6.8554368019104,7.362715244293213,-0.2584248483181
1775341158534553000,10.996552978515625,6.876972198486328,7.22871732711792,-0.1339980661869049
1775341158551340500,11.013340576171874,7.032505512237549,7.226324558258057,-0.17228323221206665
1775341158568128000,11.0301279296875,6.915257453918457,7.293323516845703,-0.1986042857170105
1775341158584915200,11.046915283203125,6.771687984466553,7.271788120269775,-0.20099709928035736
1775341158601702700,11.06370263671875,6.999006271362305,7.144968509674072,-0.20338992774486542
1775341158618490000,11.080489990234375,6.802794933319092,7.295716285705566,-0.17706887423992157
1775341158635277600,11.097277587890625,6.903293132781982,7.1234331130981445,-0.05503492057323456
1775341158652064800,11.114064697265626,6.821937561035156,7.0995049476623535,-0.02153540402650833
1775341158668852200,11.130852294921874,6.845865726470947,7.121040344238281,-0.09571290761232376
1775341158685639700,11.1476396484375,6.936792850494385,7.101897716522217,-0.11964113265275955
1775341158702427100,11.16442724609375,6.501298904418945,7.195217609405518,-0.16271193325519562
1775341158719214300,11.18121435546875,7.0683979988098145,7.077969551086426,-0.04546362906694412
1775341158736001800,11.198001708984375,6.829115867614746,6.9822564125061035,-0.24167509377002716
1775341158752789200,11.214789306640625,6.510870456695557,7.16650390625,-0.11006984114646912
1775341158769576400,11.231576416015624,6.92482852935791,7.211967468261719,-0.04546362906694412
1775341158786364000,11.248364013671875,6.999006271362305,7.341179847717285,-0.09810572862625122
1775341158803151400,11.2651513671875,7.152146816253662,7.357929706573486,-0.3565305769443512
1775341158819938800,11.281938720703126,6.891329288482666,7.3746795654296875,0.07417750358581543
1775341158836726300,11.298726318359375,7.609176158905029,7.654639720916748,-0.16271193325519562
1775341158853513500,11.315513427734375,7.2335028648376465,7.719245910644531,-0.014356935396790504
1775341158870301000,11.332301025390626,7.487142086029053,8.365307807922363,-0.1818545162677765
1775341158887088400,11.34908837890625,7.869993686676025,8.72901725769043,-0.05503492057323456
1775341158903875800,11.365875732421875,7.690532207489014,9.040083885192871,-0.2799602448940277
1775341158920663000,11.3826630859375,7.982456207275391,9.037691116333008,-0.0526420995593071
1775341158937450500,11.399450439453124,8.717052459716797,8.779266357421875,-0.5335994362831116
1775341158954238000,11.416238037109375,8.10688304901123,8.9850492477417,-0.20099709928035736
1775341158971025400,11.433025390625,7.738388538360596,8.6907320022583,-0.28953152894973755
1775341158987812600,11.4498125,7.860422611236572,8.693124771118164,-0.13160525262355804
1775341159004600000,11.46660009765625,7.609176158905029,8.451449394226074,-0.25363919138908386
1775341159021387500,11.483387451171875,8.413164138793945,8.09252643585205,-0.064606212079525
1775341159038175000,11.500175048828124,7.211967468261719,8.12123966217041,-0.15074782073497772
1775341159054962200,11.516962158203125,7.657032489776611,8.248059272766113,0.09092725813388824
1775341159071749600,11.53374951171875,7.7455668449401855,8.281558990478516,-0.28235307335853577
1775341159088537000,11.550537109375,7.463213920593262,8.185846328735352,0.1052841991186142
1775341159105324500,11.567324462890625,7.76470947265625,7.41535758972168,-0.06939185410737991
1775341159122112000,11.584112060546875,7.740781307220459,8.394021987915039,-0.380458801984787
1775341159138899200,11.600899169921876,5.998806476593018,8.171489715576172,0.04546362906694412
1775341159155686700,11.617686767578125,8.298309326171875,7.51585578918457,-0.02392822690308094
1775341159172474000,11.63447412109375,7.994420528411865,7.357929706573486,-0.062213387340307236
1775341159189261300,11.65126123046875,6.738188743591309,7.680960655212402,-0.18424734473228455
1775341159206048800,11.668048828125,6.991827964782715,7.8628153800964355,-0.15553347766399384
1775341159222836200,11.684836181640625,7.41535758972168,7.841279983520508,0.11724831163883209
1775341159239623700,11.701623779296876,7.113861560821533,7.477570533752441,-0.3158525824546814
1775341159256411000,11.718410888671874,7.027719974517822,7.867600917816162,-0.11724831163883209
1775341159273198300,11.7351982421875,6.912864685058594,8.171489715576172,0.04546362906694412
1775341159289985800,11.75198583984375,6.733402729034424,7.350750923156738,-0.12203395366668701
1775341159306773200,11.768773193359374,7.357929706573486,7.594819068908691,-0.3852444589138031
1775341159323560400,11.785560546875,7.343572616577148,7.6474609375,-0.3924229145050049
1775341159340348000,11.802347900390625,7.494320392608643,7.8317084312438965,-0.39960137009620667
1775341159357135400,11.81913525390625,7.152146816253662,8.102097511291504,-0.05024927482008934
1775341159373922800,11.8359228515625,6.869793891906738,7.441678524017334,-0.20338992774486542
1775341159390710000,11.8527099609375,6.905686378479004,7.250252723693848,0.019142581149935722
1775341159407497500,11.86949755859375,6.879364967346191,6.9822564125061035,0.040677983313798904
1775341159424285000,11.886284912109375,6.465406894683838,7.152146816253662,0.04307080805301666
1775341159441072400,11.903072265625,6.625725746154785,7.393822193145752,-0.20099709928035736
1775341159457859600,11.919859619140626,6.754938125610352,6.766902446746826,-0.23449662327766418
1775341159474647000,11.93664697265625,7.503891944885254,6.7310099601745605,0.02153540402650833
1775341159491434500,11.9534345703125,6.948757171630859,6.709474563598633,-0.0933200865983963
1775341159508222000,11.970221923828126,6.592226505279541,6.675975322723389,-0.08853443711996078
1775341159525009200,11.987009033203124,6.594619274139404,6.709474563598633,-0.15553347766399384
1775341159541796600,12.003796630859375,6.640082836151123,6.1950178146362305,-0.05742774158716202
1775341159558584000,12.020583984375,7.082755088806152,6.240481376647949,-0.014356935396790504
1775341159575371500,12.03737158203125,6.7621169090271,6.156732559204102,-0.20338992774486542
1775341159592158700,12.05415869140625,5.615954875946045,6.16391134262085,0
1775341159608946200,12.0709462890625,5.867201328277588,6.089733600616455,-0.16510476171970367
1775341159625733600,12.087733642578126,6.348158359527588,6.068198204040527,-0.08135596662759781
1775341159642520800,12.104520751953125,5.065605640411377,5.8719868659973145,-0.2153540402650833
1775341159659308300,12.121308349609375,6.03948450088501,5.927021503448486,0.0023928226437419653
1775341159676095700,12.138095703125,5.017749309539795,5.615954875946045,-0.2727817893028259
1775341159692883200,12.15488330078125,5.467599868774414,5.5034918785095215,0.2105683982372284
1775341159709670700,12.171670654296875,5.625525951385498,5.249852657318115,-0.3517449200153351
1775341159726457900,12.188457763671876,5.438885688781738,5.036891460418701,-0.12442677468061447
1775341159743245300,12.205245361328124,5.307280540466309,4.575077056884766,-0.11964113265275955
1775341159760032800,12.22203271484375,4.271188259124756,5.237888813018799,0.17946170270442963
1775341159776820000,12.238820068359376,3.964907169342041,5.443671703338623,-0.48095735907554626
1775341159793607400,12.255607421875,5.6446685791015625,4.438685894012451,0.12203395366668701
1775341159810395000,12.272394775390625,5.20678186416626,4.792823791503906,-0.5862415432929993
1775341159827182000,12.28918212890625,4.802394866943359,5.1182475090026855,0.32303106784820557
1775341159843969500,12.305969482421874,5.726024627685547,5.213960647583008,-0.37088751792907715
1775341159860757000,12.322757080078125,4.223331928253174,5.824130535125732,0.040677983313798904
1775341159877544400,12.33954443359375,4.6061835289001465,5.283352375030518,-0.3613162338733673
1775341159894331600,12.35633154296875,6.8554368019104,4.996213912963867,0.007178467698395252
1775341159911119000,12.373119140625,3.335594654083252,6.362515449523926,0.24406790733337402
1775341159927906600,12.389906494140625,7.795815944671631,4.8574299812316895,-0.2512463629245758
1775341159944694000,12.406694091796876,5.730810165405273,5.4556355476379395,0.04307080805301666
1775341159961481200,12.423481201171874,5.26899528503418,6.092126369476318,-0.275174617767334
1775341159978268700,12.4402685546875,6.2428741455078125,5.458028316497803,-0.3732803463935852
1775341159995056000,12.45705615234375,5.828916072845459,5.881557941436768,-0.1459621787071228
1775341160011843300,12.47384326171875,5.816951751708984,6.175875186920166,-0.1986042857170105
1775341160028630800,12.490630859375,6.238088607788086,6.022734642028809,-0.2871387302875519
1775341160045418200,12.507418212890625,6.369693756103516,6.214160442352295,-0.24885354936122894
1775341160062205700,12.524205810546874,6.240481376647949,6.652047157287598,0.1986042857170105
1775341160078993200,12.5409931640625,6.5419769287109375,6.764509677886963,-0.45224347710609436
1775341160095780400,12.5577802734375,7.039684295654297,6.838686943054199,0.1986042857170105
1775341160112567800,12.57456787109375,6.089733600616455,7.252645492553711,-0.16271193325519562
1775341160129355300,12.591355224609375,7.276573657989502,6.939185619354248,0.21774685382843018
1775341160146142500,12.608142578125,6.967899322509766,7.312466144561768,-0.20817556977272034
1775341160162930000,12.624929931640626,6.666403770446777,7.434499740600586,-0.17946170270442963
1775341160179717400,12.64171728515625,7.142575740814209,7.487142086029053,-0.3852444589138031
1775341160196504600,12.658504638671875,7.369893550872803,7.3986077308654785,-0.04546362906694412
1775341160213292000,12.6752919921875,7.377072334289551,7.561319351196289,-0.4019941985607147
1775341160230079500,12.69207958984375,6.563512325286865,7.4847493171691895,0.13160525262355804
1775341160246867000,12.708866943359375,7.357929706573486,7.365108013153076,-0.4618147611618042
1775341160263654100,12.725654052734376,6.795616149902344,7.448856830596924,-0.0933200865983963
1775341160280441600,12.742441650390624,6.448657035827637,7.700103282928467,-0.17946170270442963
1775341160297229000,12.75922900390625,7.314858913421631,6.967899322509766,0
1775341160314016300,12.776016357421875,7.554141044616699,6.9344000816345215,-0.2991028428077698
1775341160330803700,12.7928037109375,6.9104719161987305,7.401000499725342,0.02153540402650833
1775341160347591200,12.809591064453125,6.281159400939941,7.499105930328369,0.19621145725250244
1775341160364378600,12.826378662109375,7.204789161682129,7.41535758972168,-0.6173482537269592
1775341160381165800,12.843165771484376,8.030312538146973,7.350750923156738,0.13160525262355804
1775341160397953300,12.859953369140625,6.592226505279541,7.41535758972168,-0.3565305769443512
1775341160414740700,12.87674072265625,6.8482584953308105,7.637889862060547,-0.15553347766399384
1775341160431528200,12.893528076171876,7.070790767669678,7.877171993255615,-0.41156548261642456
1775341160448315400,12.9103154296875,6.532405853271484,7.719245910644531,0.43549370765686035
1775341160465102800,12.927102783203125,8.439485549926758,7.357929706573486,-0.48095735907554626
1775341160481890300,12.943890380859376,6.9822564125061035,7.168896675109863,-0.016749758273363113
1775341160498677500,12.960677490234374,5.776273727416992,7.944170951843262,-0.4139583110809326
1775341160515465000,12.97746484375,7.477570533752441,7.377072334289551,0.10767702013254166
1775341160532252400,12.99425244140625,7.927421569824219,6.963113784790039,-0.1818545162677765
1775341160549039900,13.011039794921874,6.750152587890625,7.731209754943848,-0.01196411345154047
1775341160565827000,13.0278271484375,6.695117950439453,7.523034572601318,0.13878370821475983
1775341160582614500,13.044614501953125,7.274180889129639,7.2813591957092285,-0.12921242415905
1775341160599402000,13.061402099609374,7.16650390625,7.712067604064941,0.08853443711996078
1775341160616189200,13.078189208984375,7.125825881958008,7.534998416900635,-0.31345975399017334
1775341160632976600,13.0949765625,7.389036178588867,7.3292155265808105,0.09092725813388824
1775341160649764000,13.11176416015625,7.142575740814209,7.685746192932129,-0.2632105052471161
1775341160666551300,13.12855126953125,6.920042991638184,7.537391185760498,-0.11006984114646912
1775341160683338800,13.1453388671875,7.195217609405518,7.401000499725342,-0.275174617767334
1775341160700126200,13.162126220703126,7.037291526794434,7.606783390045166,-0.13160525262355804
1775341160716913700,13.17891357421875,6.857829570770264,7.558926582336426,-0.14356936514377594
1775341160733700900,13.195700927734375,7.343572616577148,7.456035137176514,-0.1866401731967926
1775341160750488300,13.21248828125,7.008577346801758,7.274180889129639,-0.2273181527853012
1775341160767275800,13.22927587890625,7.149754047393799,7.472784996032715,-0.1698904037475586
1775341160784063000,13.24606298828125,7.226324558258057,7.221538543701172,-0.2392822653055191
1775341160800850400,13.262850341796875,6.8004021644592285,7.197610378265381,-0.16749759018421173
1775341160817638000,13.279637939453124,6.9104719161987305,7.372286796569824,-0.20338992774486542
1775341160834425300,13.29642529296875,7.1234331130981445,6.963113784790039,-0.1986042857170105
1775341160851212500,13.313212646484375,7.027719974517822,7.161718368530273,-0.1339980661869049
1775341160868000000,13.33,6.561119556427002,7.247859954833984,-0.03349951654672623
1775341160884787500,13.346787353515625,6.891329288482666,7.463213920593262,-0.24885354936122894
1775341160901574700,13.36357470703125,7.03489875793457,7.6043901443481445,0.4019941985607147
1775341160918362000,13.380362060546876,7.458428382873535,7.76470947265625,-0.5814558863639832
1775341160935149300,13.3971494140625,7.401000499725342,8.372486114501953,0.5024927258491516
1775341160951936800,13.413936767578125,8.566305160522461,8.38684368133545,-0.7393822073936462
1775341160968724200,13.43072412109375,9.401400566101074,8.200202941894531,0.638883650302887
1775341160985511700,13.44751171875,7.456035137176514,9.355937004089355,-0.42831525206565857
1775341161002299100,13.464299072265625,8.094919204711914,9.731609344482422,0.23688943684101105
1775341161019086300,13.48108642578125,8.9850492477417,9.042476654052734,-0.7824530005455017
1775341161035873800,13.497873779296874,8.530412673950195,9.078369140625,-0.17946170270442963
1775341161052661000,13.514660888671875,8.111668586730957,9.339186668395996,-0.33499518036842346
1775341161069448400,13.531448486328125,8.678768157958984,8.69791030883789,-0.13878370821475983
1775341161086236000,13.54823583984375,7.678567886352539,9.284152030944824,0.19381862878799438
1775341161103023400,13.5650234375,8.102097511291504,8.678768157958984,-0.19621145725250244
1775341161119810600,13.581810546875,7.8077802658081055,8.178668022155762,-0.32303106784820557
1775341161136598000,13.598597900390626,7.494320392608643,8.513663291931152,-0.10767702013254166
1775341161153385500,13.615385498046875,7.922635555267334,8.240880966186523,-0.16271193325519562
1775341161170172700,13.632172607421875,7.657032489776611,8.248059272766113,-0.016749758273363113
1775341161186960100,13.648960205078126,8.2695951461792,8.470592498779297,0.031106693670153618
1775341161203747600,13.66574755859375,7.089933395385742,8.066205024719238,-0.16271193325519562
1775341161220534800,13.68253466796875,7.678567886352539,8.257631301879883,-0.13639089465141296
1775341161237322200,13.699322265625,7.424928665161133,8.461020469665527,-0.22971096634864807
1775341161254109700,13.716109619140624,7.6666035652160645,7.817351341247559,-0.16510476171970367
1775341161270897200,13.732897216796875,8.310273170471191,8.01356315612793,-0.2584248483181
1775341161287684400,13.749684326171876,7.357929706573486,7.946564197540283,-0.1052841991186142
1775341161304471800,13.766471923828124,7.750352382659912,8.327022552490234,-0.2919243574142456
1775341161321259300,13.78325927734375,7.530212879180908,7.470392227172852,-0.02153540402650833
1775341161338046500,13.80004638671875,7.326822757720947,7.915457248687744,-0.08374879509210587
1775341161354834000,13.816833984375,7.29810905456543,7.735995769500732,-0.07178468257188797
1775341161371621400,13.833621337890625,7.255038261413574,7.953742504119873,0.040677983313798904
1775341161388408800,13.850408935546875,7.09711217880249,8.015955924987793,-0.02632104977965355
1775341161405196000,13.867196044921876,7.726424217224121,7.609176158905029,-0.48095735907554626
1775341161421983500,13.8839833984375,7.312466144561768,7.223931789398193,0.10767702013254166
1775341161438770700,13.900770751953125,6.714260101318359,7.8628153800964355,-0.24406790733337402
1775341161455558100,13.91755810546875,6.666403770446777,6.853044033050537,-0.014356935396790504
1775341161472345600,13.934345703125,7.252645492553711,7.307680130004883,-0.22971096634864807
1775341161489132800,13.9511328125,6.331408500671387,7.152146816253662,-0.30628129839897156
1775341161505920300,13.967920166015626,6.857829570770264,6.728617191314697,0.06939185410737991
1775341161522707700,13.984707763671874,7.420143127441406,6.728617191314697,-0.11724831163883209
1775341161539495200,14.0014951171875,5.962913990020752,7.056434154510498,0.42831525206565857
1775341161556282400,14.018282470703125,6.2189459800720215,6.690331935882568,-0.15553347766399384
1775341161573069800,14.03506982421875,6.8410797119140625,6.247660160064697,0.040677983313798904
1775341161589857300,14.051857177734375,6.348158359527588,6.206982135772705,0.08614161610603333
1775341161606644500,14.06864453125,5.994020938873291,6.527620315551758,0.05503492057323456
1775341161623432000,14.085431884765624,6.415157318115234,5.515456199645996,-0.3565305769443512
1775341161640219400,14.102219482421875,6.259624004364014,5.314459323883057,-0.09810572862625122
1775341161657006600,14.119006591796875,6.599404811859131,6.427121639251709,0.04546362906694412
1775341161673794000,14.1357939453125,6.2428741455078125,5.252245903015137,-0.3278166949748993
1775341161690581500,14.15258154296875,6.259624004364014,5.2354960441589355,-0.064606212079525
1775341161707368700,14.16936865234375,5.747560024261475,5.163711071014404,-0.26081767678260803
1775341161724156200,14.18615625,5.807380676269531,5.850451469421387,0.031106693670153618
1775341161740943600,14.202943603515624,4.42193603515625,5.237888813018799,-0.33499518036842346
1775341161757731000,14.21973095703125,5.800201892852783,4.180261135101318,0.3517449200153351
1775341161774518300,14.236518310546876,5.350351333618164,4.436293125152588,-0.4618147611618042
1775341161791305700,14.2533056640625,4.9435715675354,4.498506546020508,-0.11964113265275955
1775341161808093200,14.27009326171875,3.91705060005188,4.527220249176025,-0.3732803463935852
1775341161824880400,14.28688037109375,4.0079779624938965,4.398007869720459,0.035892341285943985
1775341161841667800,14.303667724609374,5.237888813018799,4.395615100860596,-0.5623133182525635
1775341161858455300,14.320455322265625,4.565505504608154,4.271188259124756,0.035892341285943985
1775341161875242500,14.337242431640625,4.713860511779785,4.728217601776123,-0.20817556977272034
1775341161892030000,14.354030029296876,5.0943193435668945,4.991427898406982,0.11724831163883209
1775341161908817400,14.3708173828125,5.020142078399658,5.2354960441589355,-0.15553347766399384
1775341161925604600,14.3876044921875,4.754538536071777,5.874379634857178,0.16749759018421173
1775341161942392000,14.40439208984375,9.633503913879395,4.208974838256836,-0.2153540402650833
1775341161959179500,14.421179443359375,2.3569302558898926,6.7621169090271,0.5048855543136597
1775341161975966700,14.437966796875,6.532405853271484,6.0777692794799805,-0.031106693670153618
1775341161992754200,14.454754150390626,6.489335060119629,5.584847927093506,-0.33738797903060913
1775341162009541600,14.471541748046874,5.824130535125732,6.618547439575195,-0.20817556977272034
1775341162026328800,14.488328857421875,6.750152587890625,6.180660724639893,-0.08853443711996078
1775341162043116300,14.5051162109375,6.592226505279541,6.424728870391846,-0.3756731450557709
1775341162059903700,14.52190380859375,5.929414749145508,6.647261142730713,-0.07178468257188797
1775341162076691000,14.53869091796875,6.742974281311035,6.221338748931885,-0.48095735907554626
1775341162093478400,14.555478515625,6.293123722076416,6.680760860443115,0.1579262912273407
1775341162110265900,14.572265869140624,6.522834300994873,6.970292568206787,-0.10049854964017868
1775341162127053000,14.589052978515625,6.479763507843018,7.137789726257324,-0.21296121180057526
1775341162143840500,14.605840576171875,7.008577346801758,6.805187702178955,0.1746760457754135
1775341162160628000,14.6226279296875,6.716653347015381,7.539783954620361,-0.3517449200153351
1775341162177415200,14.639415283203125,7.963313579559326,7.025327205657959,0.20338992774486542
1775341162194202600,14.65620263671875,6.865008354187012,7.786244869232178,-0.916451096534729
1775341162210990000,14.672989990234376,6.254838466644287,7.372286796569824,0.3086741268634796
1775341162227777300,14.68977734375,7.0755767822265625,7.271788120269775,-0.7561319470405579
1775341162244564700,14.706564697265625,7.6043901443481445,6.989434719085693,-0.03349951654672623
1775341162261352200,14.723352294921876,6.704689025878906,7.223931789398193,-0.2632105052471161
1775341162278139400,14.740139404296874,7.11146879196167,7.618747234344482,-0.08614161610603333
1775341162294926800,14.7569267578125,6.833901405334473,6.893722057342529,0.32542386651039124
1775341162311714300,14.77371435546875,7.020541667938232,7.3746795654296875,0.04785645380616188
1775341162328501500,14.79050146484375,6.929614543914795,7.295716285705566,-0.01196411345154047
1775341162345289000,14.8072890625,7.192824840545654,7.523034572601318,0.05503492057323456
1775341162362076400,14.824076416015625,6.410371780395508,7.858029365539551,-0.30149564146995544
1775341162378863600,14.840863525390626,7.0923261642456055,7.2095746994018555,-0.11724831163883209
1775341162395651000,14.857651123046875,7.8077802658081055,7.465606689453125,-0.5312066078186035
1775341162412438500,14.8744384765625,5.613562107086182,7.9728851318359375,-0.11485548317432404
1775341162429225700,14.891225830078126,6.98704195022583,7.542177200317383,0.11724831163883209
1775341162446013200,14.90801318359375,8.695517539978027,6.812366008758545,-0.46899324655532837
1775341162462800600,14.924800537109375,6.187839508056641,7.70967435836792,-0.02871387079358101
1775341162479587800,14.941587890625,6.4079790115356445,8.09970474243164,-0.19381862878799438
1775341162496375300,14.958375244140624,8.353343963623047,6.893722057342529,-0.019142581149935722
1775341162513162800,14.975162841796875,7.5708909034729,7.434499740600586,-0.019142581149935722
1775341162529950000,14.991949951171875,6.020341873168945,7.405786037445068,0.04785645380616188
1775341162546737400,15.0087373046875,7.372286796569824,7.372286796569824,-0.2919243574142456
1775341162563524900,15.02552490234375,7.046862602233887,7.226324558258057,-0.08135596662759781
1775341162580312300,15.042312255859375,7.001399040222168,7.345965385437012,-0.275174617767334
1775341162597099500,15.059099609375,7.010970115661621,7.369893550872803,-0.41156548261642456
1775341162613887000,15.075886962890625,6.967899322509766,7.405786037445068,-0.17946170270442963
1775341162630674200,15.092674072265625,7.128218650817871,7.587640762329102,-0.014356935396790504
1775341162647461600,15.109461669921876,6.750152587890625,7.278966426849365,-0.1986042857170105
1775341162664249000,15.1262490234375,7.3292155265808105,7.247859954833984,0.009571290574967861
1775341162681036300,15.143036376953125,7.2335028648376465,7.75753116607666,-0.32303106784820557
1775341162697823700,15.15982373046875,6.922435760498047,7.245467185974121,0.04785645380616188
1775341162714611200,15.176611083984374,7.401000499725342,7.16650390625,-0.5048855543136597
1775341162731398400,15.1933984375,7.140182971954346,7.654639720916748,0.1818545162677765
1775341162748185900,15.210185791015626,6.7621169090271,7.278966426849365,-0.380458801984787
1775341162764973300,15.226973388671874,7.149754047393799,7.726424217224121,0.12921242415905
1775341162781760500,15.243760498046875,6.807580471038818,7.427321434020996,-0.16271193325519562
1775341162798548000,15.2605478515625,7.137789726257324,7.408178806304932,-0.1698904037475586
1775341162815335400,15.27733544921875,7.058826923370361,7.36032247543335,-0.33499518036842346
1775341162832122600,15.29412255859375,7.1856465339660645,7.207181930541992,0.03349951654672623
1775341162848910000,15.31091015625,6.766902446746826,7.322037220001221,-0.24646073579788208
1775341162865697500,15.327697509765626,6.836294174194336,7.221538543701172,0.10289137065410614
1775341162882484700,15.344484619140625,6.9344000816345215,7.125825881958008,-0.30628129839897156
1775341162899272200,15.361272216796875,7.113861560821533,7.319644451141357,-0.22013968229293823
1775341162916059600,15.3780595703125,6.747759819030762,7.336394309997559,-0.1746760457754135
1775341162932846800,15.394846923828124,7.121040344238281,7.176074981689453,-0.16749759018421173
1775341162949634300,15.41163427734375,7.35314416885376,7.4847493171691895,-0.08614161610603333
1775341162966421500,15.42842138671875,7.144968509674072,7.9250288009643555,0.09092725813388824
1775341162983209000,15.445208984375,7.238288402557373,8.008777618408203,-0.07178468257188797
1775341162999996400,15.461996337890625,8.037490844726562,8.149953842163086,0.059820566326379776
1775341163016783600,15.47878369140625,7.6737823486328125,8.128418922424316,-0.4019941985607147
1775341163033571000,15.495571044921874,8.171489715576172,8.61176872253418,0.02871387079358101
1775341163050358500,15.512358642578125,7.81974458694458,8.724231719970703,-0.3756731450557709
1775341163067145700,15.529145751953125,8.279166221618652,8.461020469665527,-0.07178468257188797
1775341163083933200,15.54593310546875,8.02074146270752,8.60459041595459,-0.35892340540885925
1775341163100720600,15.562720703125,7.7455668449401855,8.642875671386719,-0.23688943684101105
1775341163117507800,15.5795078125,7.637889862060547,8.652446746826172,-0.31106695532798767
1775341163134295300,15.59629541015625,7.984848976135254,8.461020469665527,-0.16271193325519562
1775341163151082500,15.61308251953125,7.566105365753174,8.271987915039062,-0.31106695532798767
1775341163167870000,15.629869873046875,7.805387496948242,8.042277336120605,-0.02632104977965355
1775341163184657400,15.646657470703126,8.197810173034668,7.88913631439209,-0.2105683982372284
1775341163201444900,15.66344482421875,7.274180889129639,8.427521705627441,0.17946170270442963
1775341163218232000,15.680232177734375,7.8556365966796875,8.090133666992188,-0.1579262912273407
1775341163235019500,15.69701953125,8.595019340515137,7.676175117492676,-0.36610186100006104
1775341163251806700,15.713806640625,6.989434719085693,8.630910873413086,-0.064606212079525
1775341163268594200,15.73059423828125,7.692924976348877,8.102097511291504,0.03349951654672623
1775341163285381600,15.747381591796875,7.496713161468506,7.628318786621094,-0.2512463629245758
1775341163302168800,15.7641689453125,7.396214962005615,8.508877754211426,0.46899324655532837
1775341163318956300,15.780956298828125,7.412964344024658,7.865208148956299,-0.3613162338733673
1775341163335743700,15.79774365234375,7.436892986297607,7.8556365966796875,0.19381862878799438
1775341163352531000,15.814531005859376,7.496713161468506,8.171489715576172,0.0933200865983963
1775341163369318400,15.831318359375,7.668996810913086,7.9968132972717285,-0.37088751792907715
1775341163386105900,15.84810595703125,7.585247993469238,8.135597229003906,0.17706887423992157
1775341163402893000,15.86489306640625,7.561319351196289,8.075776100158691,-0.48095735907554626
1775341163419680500,15.881680419921874,7.561319351196289,7.791030406951904,-0.2967100143432617
1775341163436467700,15.8984677734375,6.7932233810424805,8.312665939331055,0.007178467698395252
1775341163453255200,15.915255126953125,7.7455668449401855,7.448856830596924,-0.13878370821475983
1775341163470042600,15.932042724609374,7.226324558258057,7.4464640617370605,-0.39481574296951294
1775341163486829800,15.948829833984375,6.592226505279541,7.77188777923584,-0.20338992774486542
1775341163503617300,15.9656171875,6.798008918762207,7.77188777923584,-0.14356936514377594
1775341163520404700,15.98240478515625,7.4225358963012695,7.350750923156738,-0.0933200865983963
1775341163537192000,15.99919189453125,7.164111137390137,7.267002582550049,-0.2273181527853012
1775341163553979400,16.0159794921875,6.943971157073975,7.429714202880859,0.01196411345154047
1775341163570766800,16.032766845703126,6.9822564125061035,7.118647575378418,-0.031106693670153618
1775341163587554000,16.049553955078125,7.025327205657959,7.231110095977783,-0.035892341285943985
1775341163604341500,16.066341552734375,6.874579429626465,7.267002582550049,-0.22492532432079315
1775341163621128700,16.083128662109374,6.853044033050537,7.087540626525879,-0.44745782017707825
1775341163637916200,16.099916259765624,6.592226505279541,6.728617191314697,0.10049854964017868
1775341163654703600,16.11670361328125,7.082755088806152,6.874579429626465,-0.2105683982372284
1775341163671490800,16.13349072265625,6.9104719161987305,6.293123722076416,0.02392822690308094
1775341163688278300,16.1502783203125,7.300501823425293,6.673582553863525,-0.2584248483181
1775341163705065700,16.167065673828127,6.446264266967773,6.4701924324035645,-0.07178468257188797
1775341163721853000,16.18385302734375,6.664011001586914,6.491727828979492,0.1818545162677765
1775341163738640400,16.200640380859376,7.11146879196167,6.230910301208496,-0.02871387079358101
1775341163755427800,16.217427734375,6.970292568206787,6.051448345184326,-0.11246266216039658
1775341163772215000,16.234215087890625,6.1328043937683105,6.3529438972473145,-0.29431718587875366
1775341163789002500,16.25100244140625,5.826523303985596,6.967899322509766,-0.14835500717163086
1775341163805789700,16.267789794921875,6.2668023109436035,6.4319071769714355,0.031106693670153618
1775341163822577200,16.2845771484375,7.389036178588867,5.986842155456543,-0.2679961323738098
1775341163839364600,16.301364501953124,5.599205017089844,6.3529438972473145,-0.4259224236011505
1775341163856152000,16.318152099609375,5.726024627685547,6.453442573547363,0.13160525262355804
1775341163872939300,16.334939208984373,6.5419769287109375,6.104090690612793,-0.34217363595962524
1775341163889726700,16.351726806640624,5.8719868659973145,5.690132141113281,-0.3158525824546814
1775341163906514000,16.368513916015626,5.264209747314453,5.565705299377441,-0.28235307335853577
1775341163923301400,16.38530126953125,7.1856465339660645,5.706881999969482,0.49292147159576416
1775341163940088800,16.4020888671875,4.529613494873047,4.271188259124756,-0.5096712112426758
1775341163956876000,16.4188759765625,4.893322467803955,4.347758769989014,0.2584248483181
1775341163973663500,16.43566357421875,6.096911907196045,4.744967460632324,-0.7513462901115417
1775341163990450700,16.45245068359375,3.696911096572876,4.0558342933654785,0.6580262184143066
1775341164007238100,16.469238037109374,4.012763500213623,4.632504463195801,-1.1629117727279663
1775341164024025600,16.486025634765625,3.6849467754364014,3.8811583518981934,0.8709874153137207
1775341164040812800,16.502812744140623,5.625525951385498,3.5844483375549316,-1.1222338676452637
1775341164057600300,16.519600341796874,3.680161237716675,4.67078971862793,0.5431707501411438
1775341164074387500,16.536387451171876,4.548755645751953,4.965106964111328,-0.42352959513664246
1775341164091175000,16.5531748046875,4.412364959716797,5.357530117034912,0.5910272002220154
1775341164107962400,16.56996240234375,4.809573650360107,5.587240695953369,-0.4713860750198364
1775341164124749600,16.58674951171875,7.082755088806152,4.271188259124756,0.1818545162677765
1775341164141537000,16.603537109375,3.6394832134246826,6.491727828979492,0.064606212079525
1775341164158324200,16.62032421875,5.86002254486084,5.663811206817627,0.06939185410737991
1775341164175111700,16.637111572265624,5.1565327644348145,6.123233318328857,0
1775341164191899100,16.653899169921875,6.577869415283203,6.056233882904053,-0.33020952343940735
1775341164208686300,16.670686279296874,6.714260101318359,6.372086524963379,-0.07896314561367035
1775341164225473800,16.687473876953124,6.049055576324463,6.4701924324035645,-0.9403793215751648
1775341164242261200,16.70426123046875,6.781259536743164,6.656832695007324,0.44027936458587646
1775341164259048400,16.72104833984375,6.697510719299316,6.63051176071167,-0.9930213689804077
1775341164275836000,16.7378359375,6.577869415283203,7.477570533752441,0.4139583110809326
1775341164292623400,16.754623291015626,7.29093074798584,7.223931789398193,-0.2991028428077698
1775341164309410600,16.77141064453125,7.381857872009277,6.946363925933838,0.02871387079358101
1775341164326198000,16.788197998046876,6.884150981903076,7.716853141784668,-0.20338992774486542
1775341164342985200,16.804985107421874,6.020341873168945,7.57806921005249,0.6604190468788147
1775341164359772700,16.821772705078125,6.936792850494385,7.343572616577148,-0.3086741268634796
1775341164376560000,16.83856005859375,6.551548480987549,7.202396392822266,-0.14835500717163086
1775341164393347300,16.855347412109374,6.671189308166504,7.678567886352539,0.23688943684101105
1775341164410134800,16.872134765625,8.23130989074707,7.539783954620361,-0.6197410821914673
1775341164426922000,16.888921875,6.403193473815918,7.331608772277832,0.39960137009620667
1775341164443709400,16.90570947265625,6.400800704956055,7.869993686676025,-0.6317051649093628
1775341164460497000,16.922496826171876,7.221538543701172,7.45364236831665,0.4618147611618042
1775341164477284000,16.9392841796875,6.747759819030762,7.542177200317383,-0.8183453679084778
1775341164494071600,16.956071533203126,7.393822193145752,7.511070251464844,0.3445664644241333
1775341164510858800,16.972858642578124,7.719245910644531,7.3914289474487305,-0.37088751792907715
1775341164527646200,16.989646240234375,6.943971157073975,7.343572616577148,0.15314064919948578
1775341164544433700,17.00643359375,6.405586242675781,7.628318786621094,-0.4713860750198364
1775341164561220900,17.023220947265624,8.650053977966309,6.9344000816345215,0.0526420995593071
1775341164578008300,17.04000830078125,7.1856465339660645,7.51585578918457,-0.7178468108177185
1775341164594795800,17.056795654296874,6.056233882904053,7.747959613800049,0.27038896083831787
1775341164611583000,17.0735830078125,7.412964344024658,7.168896675109863,-0.6005984544754028
1775341164628370400,17.090370361328127,8.068597793579102,7.29093074798584,-0.15553347766399384
1775341164645157600,17.10715771484375,6.597012042999268,7.795815944671631,-0.4043870270252228
1775341164661945000,17.123945068359376,6.0466628074646,7.975277900695801,0.4043870270252228
1775341164678732500,17.140732666015627,8.128418922424316,7.283751964569092,-0.275174617767334
1775341164695519700,17.157519775390625,7.685746192932129,6.881757736206055,-0.014356935396790504
1775341164712307200,17.17430712890625,5.879165172576904,7.922635555267334,-0.040677983313798904
1775341164729094700,17.1910947265625,7.204789161682129,7.475177764892578,-0.1459621787071228
1775341164745881900,17.2078818359375,7.566105365753174,6.946363925933838,-0.0933200865983963
1775341164762669300,17.22466943359375,6.946363925933838,7.494320392608643,-0.16031911969184875
1775341164779456500,17.24145654296875,6.491727828979492,7.530212879180908,-0.1459621787071228
1775341164796244000,17.258243896484377,7.384250640869141,7.322037220001221,-0.019142581149935722
1775341164813031400,17.275031494140624,7.113861560821533,7.420143127441406,0.016749758273363113
1775341164829818600,17.291818603515626,6.716653347015381,7.5086774826049805,-0.4737788736820221
1775341164846606000,17.308606201171877,7.4464640617370605,7.2095746994018555,0.038285162299871445
1775341164863393300,17.325393310546875,6.903293132781982,7.70249605178833,-0.33020952343940735
1775341164880180700,17.3421806640625,7.133004188537598,7.334001541137695,0.16749759018421173
1775341164896968200,17.35896826171875,7.386643409729004,7.192824840545654,-0.30149564146995544
1775341164913755400,17.37575537109375,6.991827964782715,7.616354465484619,-0.038285162299871445
1775341164930542800,17.39254296875,6.7070817947387695,7.436892986297607,-0.031106693670153618
1775341164947330000,17.409330078125,7.1473612785339355,7.302894592285156,-0.12442677468061447
1775341164964117500,17.426117431640623,7.125825881958008,7.678567886352539,-0.18424734473228455
1775341164980905000,17.442905029296874,6.929614543914795,7.822137355804443,0.30628129839897156
1775341164997692200,17.459692138671876,8.396414756774902,7.8628153800964355,-1.093519926071167
1775341165014479600,17.476479736328123,7.743174076080322,8.429914474487305,0.6580262184143066
1775341165031266800,17.493266845703126,8.475378036499023,8.872586250305176,-0.5431707501411438
1775341165048054300,17.51005419921875,8.740981101989746,9.22433090209961,0.42831525206565857
1775341165064841500,17.526841552734375,8.281558990478516,9.741181373596191,-0.2512463629245758
1775341165081629000,17.54362890625,8.776873588562012,9.45882797241211,-0.1866401731967926
1775341165098416400,17.56041650390625,8.982656478881836,9.279366493225098,-0.2967100143432617
1775341165115203600,17.57720361328125,8.207381248474121,9.360722541809082,-0.3397808074951172
1775341165131991000,17.593990966796873,8.200202941894531,9.255437850952148,-0.15074782073497772
1775341165148778200,17.6107783203125,8.12123966217041,8.69791030883789,-0.4259224236011505
1775341165165565700,17.627565673828126,8.10688304901123,7.910671710968018,-0.17946170270442963
1775341165182353200,17.644353271484373,7.499105930328369,8.863015174865723,-0.05742774158716202
1775341165199140400,17.661140380859376,7.944170951843262,8.188239097595215,-0.1746760457754135
1775341165215927800,17.677927734375,7.788637638092041,7.968099594116211,0.09092725813388824
1775341165232715000,17.694715087890625,8.34855842590332,7.980063438415527,-0.2679961323738098
1775341165249502500,17.71150244140625,6.951149940490723,7.800601959228516,0.16749759018421173
1775341165266290000,17.7282900390625,7.3675007820129395,8.331808090209961,-0.37806597352027893
1775341165283077000,17.7450771484375,7.7838521003723145,7.8628153800964355,0.16510476171970367
1775341165299864600,17.761864501953124,7.159325122833252,7.846065521240234,-0.39481574296951294
1775341165316651800,17.77865185546875,7.164111137390137,8.24566650390625,0.007178467698395252
1775341165333439200,17.795439208984376,7.769495010375977,7.941778182983398,-0.1818545162677765
1775341165350226700,17.812226806640624,7.6474609375,7.688138961791992,-0.13878370821475983
1775341165367014000,17.829013916015626,6.999006271362305,7.439285755157471,0.21774685382843018
1775341165383801300,17.84580126953125,7.482356548309326,8.293522834777832,-0.2919243574142456
1775341165400588500,17.862588623046875,7.109076023101807,7.582854747772217,-0.11724831163883209
1775341165417376000,17.8793759765625,7.200003147125244,7.678567886352539,-0.2847459018230438
1775341165434163500,17.89616357421875,7.5326056480407715,7.613961696624756,-0.05742774158716202
1775341165450950700,17.91295068359375,7.278966426849365,7.250252723693848,-0.20338992774486542
1775341165467738000,17.929738037109374,6.752545356750488,7.6737823486328125,-0.12442677468061447
1775341165484525300,17.946525390625,7.341179847717285,7.384250640869141,-0.11006984114646912
1775341165501312800,17.963312744140627,7.17368221282959,7.168896675109863,-0.39481574296951294
1775341165518100200,17.980100341796874,6.58265495300293,7.427321434020996,-0.05024927482008934
1775341165534887400,17.996887451171876,7.2430739402771,7.130611419677734,-0.19142581522464752
1775341165551675000,18.0136748046875,6.915257453918457,7.11146879196167,-0.37088751792907715
1775341165568462000,18.030462158203125,6.429514408111572,7.207181930541992,0.15314064919948578
1775341165585249500,18.04724951171875,7.0301127433776855,7.152146816253662,0.2919243574142456
1775341165602036700,18.06403662109375,6.50608491897583,6.809973239898682,-0.4426721930503845
1775341165618824200,18.08082421875,6.386443614959717,6.805187702178955,0.03349951654672623
1775341165635611600,18.097611572265624,7.176074981689453,7.018148899078369,-0.05742774158716202
1775341165652398800,18.11439892578125,6.829115867614746,6.747759819030762,-0.062213387340307236
1775341165669186300,18.131186279296877,6.58265495300293,6.821937561035156,0.04785645380616188
1775341165685973500,18.147973388671875,5.857629776000977,6.860222339630127,-0.31345975399017334
1775341165702761000,18.164760986328126,5.221138954162598,6.652047157287598,0.3756731450557709
1775341165719548400,18.18154833984375,5.934200286865234,6.489335060119629,-0.12203395366668701
1775341165736335600,18.198335693359375,7.032505512237549,5.840879917144775,0.10049854964017868
1775341165753123000,18.215123046875,6.0777692794799805,5.881557941436768,-0.0023928226437419653
1775341165769910300,18.23191015625,4.979464054107666,6.223731517791748,-0.09571290761232376
1775341165786697700,18.24869775390625,6.235695838928223,5.304887771606445,0.05742774158716202
1775341165803485000,18.26548486328125,5.747560024261475,5.941378593444824,-0.13878370821475983
1775341165820272400,18.2822724609375,5.335994720458984,5.285745143890381,-0.24167509377002716
1775341165837059800,18.299059814453123,5.900700569152832,4.840680122375488,-0.13160525262355804
1775341165853847000,18.315846923828126,4.500899314880371,5.197210788726807,0.7824530005455017
1775341165870634500,18.332634521484376,4.709074974060059,4.668396949768066,-0.380458801984787
1775341165887421700,18.349421630859375,5.544169902801514,4.311866283416748,-0.22492532432079315
1775341165904209200,18.366209228515626,4.847858905792236,4.2209391593933105,-0.16031911969184875
1775341165920996400,18.382996337890624,4.668396949768066,4.1419758796691895,-0.11964113265275955
1775341165937783800,18.39978369140625,4.764110088348389,4.082155227661133,0.014356935396790504
1775341165954571300,18.4165712890625,4.759324073791504,4.2592244148254395,-0.12681959569454193
1775341165971358500,18.4333583984375,4.012763500213623,4.7712883949279785,-0.03349951654672623
1775341165988146000,18.45014599609375,4.72582483291626,4.984249591827393,0.01196411345154047
1775341166004933000,18.46693310546875,5.690132141113281,4.737788677215576,-0.17946170270442963
1775341166021720600,18.483720458984376,4.838287353515625,5.589633464813232,-0.1746760457754135
1775341166038507800,18.5005078125,6.3601226806640625,5.089533805847168,-0.02632104977965355
1775341166055295200,18.517295166015625,6.209374904632568,5.264209747314453,-0.26081767678260803
1775341166072082700,18.534082763671876,5.79063081741333,5.958128452301025,0.22013968229293823
1775341166088870000,18.550869873046874,5.388636589050293,5.910272121429443,-0.5168496966362
1775341166105657300,18.5676572265625,7.025327205657959,5.685346603393555,0.23449662327766418
1775341166122444500,18.584444580078124,5.9676995277404785,6.601797580718994,-0.29431718587875366
1775341166139232000,18.60123193359375,5.84566593170166,6.283552169799805,-0.07896314561367035
1775341166156019200,18.618019287109377,6.1710896492004395,6.967899322509766,-0.2967100143432617
1775341166172806700,18.634806640625,6.754938125610352,6.297909259796143,0.16031911969184875
1775341166189593900,18.65159375,6.7932233810424805,7.154539585113525,-0.5575276613235474
1775341166206381300,18.66838134765625,6.276373863220215,6.5180487632751465,-0.1579262912273407
1775341166223168800,18.685168701171875,7.085147857666016,7.171289443969727,-0.2392822653055191
1775341166239956000,18.7019560546875,6.898507595062256,7.970492362976074,-0.22971096634864807
1775341166256743400,18.718743408203125,7.271788120269775,6.628118515014648,0.016749758273363113
1775341166273530600,18.735530517578123,8.872586250305176,7.858029365539551,0.33499518036842346
1775341166290318000,18.752318115234374,5.546562671661377,7.561319351196289,-0.48574298620224
1775341166307105500,18.76910546875,7.477570533752441,7.384250640869141,0.49292147159576416
1775341166323892700,18.785892822265627,8.319844245910645,7.539783954620361,-0.9571290612220764
1775341166340680200,18.80268017578125,5.886343479156494,7.29093074798584,0.9643075466156006
1775341166357467400,18.81946728515625,6.965506553649902,7.750352382659912,-0.9882357716560364
1775341166374254800,18.8362548828125,7.824530124664307,7.178467750549316,0.760917603969574
1775341166391042000,18.8530419921875,7.238288402557373,7.6474609375,-0.7034898400306702
1775341166407829500,18.86982958984375,5.869594097137451,7.025327205657959,0.2967100143432617
1775341166424617000,18.886616943359375,7.479963779449463,7.412964344024658,-0.42352959513664246
1775341166441404200,18.903404052734373,7.448856830596924,7.384250640869141,-0.27756741642951965
1775341166458191600,18.920191650390624,6.558726787567139,7.539783954620361,0.007178467698395252
1775341166474978800,18.936978759765626,7.3675007820129395,7.341179847717285,-0.5335994362831116
1775341166491766300,18.953766357421873,7.408178806304932,7.410571575164795,0.1052841991186142
1775341166508553500,18.970553466796876,7.76470947265625,7.204789161682129,-0.09571290761232376
1775341166525341000,18.9873408203125,7.2335028648376465,7.204789161682129,-0.3732803463935852
1775341166542128000,19.004128173828125,6.709474563598633,7.805387496948242,-0.08853443711996078
1775341166558915600,19.02091552734375,7.286144733428955,7.539783954620361,-0.3732803463935852
1775341166575703000,19.037703125,7.077969551086426,7.477570533752441,-0.02871387079358101
1775341166592490200,19.054490234375,7.10429048538208,7.118647575378418,-0.5024927258491516
1775341166609277700,19.071277587890624,7.389036178588867,7.168896675109863,-0.3732803463935852
1775341166626065000,19.08806494140625,6.410371780395508,7.69531774520874,-0.1698904037475586
1775341166642852400,19.104852294921876,7.259823799133301,7.460821151733398,-0.04546362906694412
1775341166659639600,19.1216396484375,6.98704195022583,7.106683254241943,0.07657032459974289
1775341166676427000,19.138427001953126,7.403393268585205,7.676175117492676,-0.07417750358581543
1775341166693214200,19.155214111328124,6.891329288482666,7.331608772277832,-0.11724831163883209
1775341166710001700,19.172001708984375,6.853044033050537,7.427321434020996,0.34217363595962524
1775341166726789000,19.1887890625,7.539783954620361,7.3052873611450195,-0.41156548261642456
1775341166743576300,19.205576416015624,7.063612461090088,7.4225358963012695,0.35892340540885925
1775341166760363800,19.22236376953125,6.929614543914795,7.460821151733398,-0.5479564070701599
1775341166777151000,19.23915087890625,7.11146879196167,7.350750923156738,0.31106695532798767
1775341166793938400,19.2559384765625,7.101897716522217,7.6737823486328125,-0.33499518036842346
1775341166810725600,19.2727255859375,7.142575740814209,7.238288402557373,0.07657032459974289
1775341166827513000,19.28951318359375,7.326822757720947,7.451249599456787,-0.44027936458587646
1775341166844300500,19.306300537109376,6.565905570983887,7.611568927764893,0.13639089465141296
1775341166861087700,19.323087646484375,7.372286796569824,7.582854747772217,-0.10289137065410614
1775341166877875200,19.339875244140625,7.032505512237549,7.8795647621154785,-0.3086741268634796
1775341166894662400,19.356662353515624,6.838686943054199,7.738388538360596,-0.17706887423992157
1775341166911449900,19.373449951171875,8.10688304901123,7.9728851318359375,0.14835500717163086
1775341166928237000,19.390237060546873,6.912864685058594,8.343772888183594,-0.6221339106559753
1775341166945024500,19.4070244140625,8.023134231567383,8.551948547363281,0.40677985548973083
1775341166961811700,19.423811767578126,8.425128936767578,8.260024070739746,-0.6891329288482666
1775341166978599200,19.44059912109375,8.044670104980469,8.678768157958984,0.3397808074951172
1775341166995386400,19.457386474609375,7.9250288009643555,9.207581520080566,-0.4618147611618042
1775341167012173800,19.474173828125,8.207381248474121,9.042476654052734,0.1579262912273407
1775341167028961300,19.490961181640625,8.219346046447754,8.831908226013184,-0.39481574296951294
1775341167045748500,19.50774853515625,8.365307807922363,8.796015739440918,-0.07178468257188797
1775341167062536000,19.524535888671874,7.616354465484619,8.874979019165039,-0.33738797903060913
1775341167079323100,19.5413232421875,8.09252643585205,8.623732566833496,0.08135596662759781
1775341167096110600,19.558110595703123,7.960920810699463,8.458627700805664,-0.3732803463935852
1775341167112897800,19.574897705078126,7.439285755157471,8.413164138793945,-0.12203395366668701
1775341167129685200,19.591685302734376,8.09970474243164,8.260024070739746,-0.06699903309345245
1775341167146472400,19.608472412109375,7.956135272979736,8.044670104980469,-0.33499518036842346
1775341167163260000,19.625260009765626,6.759724140167236,8.343772888183594,0.11006984114646912
1775341167180047400,19.64204736328125,8.094919204711914,7.89631462097168,-0.19621145725250244
1775341167196834600,19.65883447265625,7.51585578918457,8.11406135559082,-0.35892340540885925
1775341167213621800,19.675621826171874,7.654639720916748,7.858029365539551,-0.02153540402650833
1775341167230409200,19.6924091796875,7.479963779449463,8.200202941894531,-0.5216353535652161
1775341167247196700,19.70919677734375,7.300501823425293,7.750352382659912,0.37088751792907715
1775341167263983900,19.72598388671875,7.322037220001221,7.769495010375977,-0.5455635786056519
1775341167280771300,19.742771240234376,7.657032489776611,8.200202941894531,0.13160525262355804
1775341167297558500,19.75955859375,7.044469833374023,7.654639720916748,-0.24646073579788208
1775341167314346000,19.776345947265625,7.692924976348877,7.853243827819824,-0.2679961323738098
1775341167331133200,19.79313330078125,7.22871732711792,7.523034572601318,-0.12442677468061447
1775341167347920600,19.809920654296874,7.2335028648376465,7.511070251464844,-0.09571290761232376
1775341167364708000,19.8267080078125,7.223931789398193,7.8556365966796875,-0.16749759018421173
1775341167381495300,19.843495361328124,7.1162543296813965,7.549355506896973,-0.1866401731967926
1775341167398282800,19.86028271484375,7.16650390625,7.561319351196289,-0.014356935396790504
1775341167415070000,19.877070068359377,6.900900363922119,7.350750923156738,-0.0526420995593071
1775341167431857400,19.893857421875,7.434499740600586,7.733603000640869,-0.22013968229293823
1775341167448644600,19.91064453125,7.2813591957092285,7.420143127441406,0.20817556977272034
1775341167465432000,19.92743212890625,7.051648139953613,7.3675007820129395,-0.09092725813388824
1775341167482219300,19.94421923828125,7.101897716522217,7.518248558044434,0.02153540402650833
1775341167499006700,19.9610068359375,6.738188743591309,7.302894592285156,0.01196411345154047
1775341167515794000,19.9777939453125,6.788437843322754,7.427321434020996,-0.15074782073497772
1775341167532581400,19.994581298828123,6.860222339630127,7.202396392822266,0.019142581149935722
1775341167549368600,20.01136865234375,6.900900363922119,7.300501823425293,0.2871387302875519
1775341167566156000,20.028156005859376,6.687939167022705,7.04207706451416,-0.10289137065410614
1775341167582943200,20.044943115234375,6.939185619354248,7.152146816253662,-0.1698904037475586
1775341167599730700,20.061730712890625,6.235695838928223,6.802794933319092,-0.21774685382843018
1775341167616518100,20.07851806640625,6.3361945152282715,7.231110095977783,-0.1339980661869049
1775341167633305300,20.095305419921875,6.786045074462891,6.8004021644592285,-0.09571290761232376
1775341167650092800,20.1120927734375,6.656832695007324,6.955935478210449,-0.38763725757598877
1775341167666880000,20.1288798828125,6.063412666320801,6.948757171630859,0.25363919138908386
1775341167683667500,20.14566748046875,6.307480335235596,6.51326322555542,-0.22013968229293823
1775341167700454700,20.16245458984375,6.6592254638671875,6.309873104095459,-0.28953152894973755
1775341167717242000,20.1792421875,5.850451469421387,6.489335060119629,-0.038285162299871445
1775341167734029300,20.196029296875,6.367300987243652,6.675975322723389,-0.014356935396790504
1775341167750816800,20.212816650390625,6.455835342407227,6.0370917320251465,-0.2727817893028259
1775341167767604000,20.22960400390625,6.364908218383789,6.214160442352295,-0.24167509377002716
1775341167784391400,20.246391357421874,6.027520179748535,6.3840508460998535,-0.2153540402650833
1775341167801178600,20.2631787109375,5.92223596572876,5.654240131378174,-0.2584248483181
1775341167817966000,20.279966064453124,6.448657035827637,5.60399055480957,-0.5240281820297241
1775341167834753300,20.296753173828126,5.764309883117676,6.281159400939941,-0.24406790733337402
1775341167851540700,20.313540771484377,5.678168296813965,4.945964336395264,0.16031911969184875
1775341167868328200,20.330328125,5.460421085357666,4.797609329223633,-0.059820566326379776
1775341167885115400,20.347115478515626,4.931607246398926,4.735395908355713,-0.13878370821475983
1775341167901902800,20.36390283203125,4.893322467803955,4.094119548797607,0.02871387079358101
1775341167918690000,20.38068994140625,3.6777684688568115,4.658825874328613,-0.28235307335853577
1775341167935477500,20.3974775390625,5.209175109863281,3.8907296657562256,-0.02392822690308094
1775341167952264700,20.4142646484375,4.3070807456970215,4.438685894012451,-0.21296121180057526
1775341167969052200,20.43105224609375,5.108676433563232,4.374079704284668,-0.064606212079525
1775341167985839400,20.44783935546875,5.027320384979248,4.886143684387207,-0.016749758273363113
1775341168002626800,20.464626708984376,3.452843189239502,6.329015731811523,0.03349951654672623
1775341168019414000,20.4814140625,11.016555786132812,2.9168508052825928,-0.37088751792907715
1775341168036201500,20.498201416015625,1.6175481081008911,7.106683254241943,0.13160525262355804
1775341168052989000,20.514989013671876,6.355337142944336,5.821737289428711,0.21774685382843018
1775341168069776100,20.531776123046875,7.472784996032715,5.1804609298706055,-0.46899324655532837
1775341168086563300,20.548563232421873,4.285545349121094,6.16391134262085,0.24406790733337402
1775341168103350800,20.565350830078124,5.898307800292969,6.309873104095459,-0.6939185857772827
1775341168120138200,20.58213818359375,6.922435760498047,5.431707382202148,0.34217363595962524
1775341168136925400,20.598925537109373,5.9509501457214355,6.632904529571533,-0.9523434042930603
1775341168153713000,20.615712890625,6.530013084411621,6.300302028656006,0.12681959569454193
1775341168170500000,20.6325,6.8865437507629395,6.836294174194336,-0.7010970115661621
1775341168187287600,20.64928759765625,6.041877269744873,6.446264266967773,0.2584248483181
1775341168204074800,20.66607470703125,6.338587284088135,7.003791809082031,-0.3756731450557709
1775341168220862200,20.6828623046875,6.501298904418945,7.003791809082031,0.02632104977965355
1775341168237649400,20.6996494140625,6.8171515464782715,6.790830612182617,-1.306481122970581
1775341168254436900,20.716436767578124,8.346165657043457,6.340980052947998,0.2225325107574463
1775341168271224000,20.73322412109375,6.350551128387451,7.762316703796387,-0.6843472719192505
1775341168288011500,20.750011474609376,6.065805435180664,7.073183536529541,0.9762716293334961
1775341168304799000,20.766799072265623,7.685746192932129,7.23589563369751,-1.0049854516983032
1775341168321586200,20.783586181640626,6.398407936096191,6.903293132781982,0.4091726839542389
1775341168338373400,20.800373291015624,6.955935478210449,7.336394309997559,-0.4139583110809326
1775341168355160800,20.817160888671875,7.779066562652588,6.838686943054199,0.20099709928035736
1775341168371948300,20.8339482421875,6.063412666320801,7.525427341461182,-0.2392822653055191
1775341168388735500,20.850735595703124,6.314659118652344,7.527820110321045,0.23210379481315613
1775341168405523000,20.86752294921875,7.69531774520874,6.941578388214111,0.01196411345154047
1775341168422310100,20.88431005859375,7.88913631439209,7.410571575164795,0.3038884699344635
1775341168439097600,20.90109765625,6.211767673492432,7.671389579772949,-0.39481574296951294
1775341168455884800,20.917884765625,5.6925249099731445,7.81974458694458,0.1866401731967926
1775341168472672300,20.93467236328125,7.211967468261719,7.293323516845703,-0.5216353535652161
1775341168489459500,20.95145947265625,8.997013092041016,6.592226505279541,-0.30149564146995544
1775341168506247000,20.968246826171875,5.958128452301025,7.630711555480957,-0.7130611538887024
1775341168523034000,20.9850341796875,5.359922885894775,8.023134231567383,0.038285162299871445
1775341168539821600,21.001821533203124,8.451449394226074,6.946363925933838,-0.31106695532798767
1775341168556608800,21.01860888671875,7.6498541831970215,7.338787078857422,0.380458801984787
1775341168573396200,21.035396240234373,5.958128452301025,7.716853141784668,0.27756741642951965
1775341168590183400,21.052183349609376,7.085147857666016,7.45364236831665,0.062213387340307236
1775341168606971000,21.068970947265626,7.546962738037109,7.250252723693848,-0.1986042857170105
1775341168623758300,21.08575830078125,7.001399040222168,7.546962738037109,-0.3397808074951172
1775341168640545500,21.102545654296875,7.429714202880859,7.429714202880859,-0.21296121180057526
1775341168657333000,21.1193330078125,6.642475605010986,7.618747234344482,-0.5575276613235474
1775341168674120200,21.1361201171875,7.046862602233887,7.410571575164795,-0.2392822653055191
1775341168690907600,21.15290771484375,7.70967435836792,7.539783954620361,-0.49292147159576416
1775341168707694800,21.16969482421875,6.927221775054932,7.678567886352539,0.22013968229293823
1775341168724482300,21.186482421875,7.35314416885376,7.582854747772217,-0.17946170270442963
1775341168741269500,21.20326953125,7.389036178588867,7.412964344024658,-0.04785645380616188
1775341168758057000,21.220056884765626,6.891329288482666,7.470392227172852,0.059820566326379776
1775341168774844200,21.23684423828125,7.5326056480407715,7.381857872009277,0.20578274130821228
1775341168791631600,21.253631591796875,6.8482584953308105,7.645068168640137,-0.3732803463935852
1775341168808418800,21.270418701171874,7.17368221282959,7.4225358963012695,0.062213387340307236
1775341168825206300,21.287206298828124,7.1856465339660645,7.5565338134765625,-0.6269195079803467
1775341168841993500,21.303993408203127,7.056434154510498,7.501499176025391,-0.019142581149935722
1775341168858781000,21.320781005859374,7.214360237121582,7.3746795654296875,-0.42352959513664246
1775341168875568000,21.337568115234376,6.965506553649902,7.29093074798584,-0.059820566326379776
1775341168892355600,21.35435546875,6.477370738983154,7.6737823486328125,0.02392822690308094
1775341168909142800,21.371142822265625,7.219145774841309,7.384250640869141,-0.23449662327766418
1775341168925930200,21.38793017578125,7.668996810913086,7.04207706451416,0.040677983313798904
1775341168942717400,21.404717529296875,7.056434154510498,7.970492362976074,0.1339980661869049
1775341168959505000,21.4215048828125,6.91765022277832,7.992027759552002,-0.1339980661869049
1775341168976292400,21.438292236328124,8.085348129272461,8.221738815307617,0.03349951654672623
1775341168993079600,21.45507958984375,7.63310432434082,8.037490844726562,-0.3445664644241333
1775341169009867000,21.471866943359377,6.51326322555542,9.276973724365234,-0.2847459018230438
1775341169026654200,21.488654296875,9.157332420349121,8.949156761169434,0.0526420995593071
1775341169043441700,21.505441650390626,10.162318229675293,8.71226692199707,-0.4737788736820221
1775341169060228900,21.522228759765625,8.185846328735352,9.485149383544922,0.007178467698395252
1775341169077016300,21.539016357421875,7.549355506896973,9.248259544372559,-0.6460621356964111
