time,seconds_elapsed,z,y,x
1774658131139353600,0.075353515625,3.988835334777832,8.970691680908203,-0.13639089465141296
1774658131156140500,0.092140625,3.809373617172241,9.061619758605957,-0.07657032459974289
1774658131172929000,0.108928955078125,3.9457645416259766,9.008976936340332,-0.17228323221206665
1774658131189717800,0.1257177734375,3.933800458908081,8.992227554321289,-0.07178468257188797
1774658131206506500,0.142506591796875,3.838087558746338,9.044869422912598,-0.16510476171970367
1774658131223295200,0.159295166015625,3.957728624343872,8.989834785461426,-0.059820566326379776
1774658131240083700,0.176083740234375,3.8979079723358154,9.013762474060059,-0.1698904037475586
1774658131256872400,0.19287255859375,3.8739798069000244,9.008976936340332,-0.07896314561367035
1774658131273661200,0.2096611328125,3.9194436073303223,9.006584167480469,-0.16510476171970367
1774658131290450000,0.226449951171875,3.9050865173339844,9.013762474060059,-0.09092725813388824
1774658131307238400,0.24323828125,3.8668015003204346,9.018548965454102,-0.1339980661869049
1774658131324027100,0.260027099609375,3.90987229347229,9.004191398620605,-0.09092725813388824
1774658131340816000,0.27681591796875,3.9050865173339844,9.028120040893555,-0.12203395366668701
1774658131357604600,0.2936044921875,3.8883368968963623,9.023334503173828,-0.1052841991186142
1774658131374393000,0.31039306640625,3.9194436073303223,8.997013092041016,-0.11246266216039658
1774658131391181800,0.327181884765625,3.9050865173339844,9.020941734313965,-0.12442677468061447
1774658131407970600,0.343970458984375,3.9122650623321533,9.013762474060059,-0.11246266216039658
1774658131424759300,0.36075927734375,3.902693748474121,9.025727272033691,-0.13639089465141296
1774658131441547800,0.3775478515625,3.9194436073303223,9.013762474060059,-0.11485548317432404
1774658131458336500,0.39433642578125,3.8979079723358154,9.018548965454102,-0.1339980661869049
1774658131475125200,0.411125244140625,3.9194436073303223,9.004191398620605,-0.10049854964017868
1774658131491913700,0.427913818359375,3.8835511207580566,9.016156196594238,-0.14835500717163086
1774658131508702500,0.444702392578125,3.9050865173339844,9.016156196594238,-0.0933200865983963
1774658131525491200,0.4614912109375,3.902693748474121,9.016156196594238,-0.14117653667926788
1774658131542280000,0.478280029296875,3.9146578311920166,9.004191398620605,-0.08853443711996078
1774658131559068400,0.495068359375,3.893122434616089,9.028120040893555,-0.12921242415905
1774658131575857200,0.511857177734375,3.8979079723358154,9.013762474060059,-0.10289137065410614
1774658131592646000,0.52864599609375,3.902693748474121,9.016156196594238,-0.12442677468061447
1774658131609434600,0.5454345703125,3.926621913909912,9.025727272033691,-0.11006984114646912
1774658131626223000,0.56222314453125,3.8979079723358154,9.023334503173828,-0.13639089465141296
1774658131643011800,0.57901171875,3.9194436073303223,9.016156196594238,-0.09810572862625122
1774658131659800600,0.595800537109375,3.9194436073303223,9.020941734313965,-0.12921242415905
1774658131676589300,0.61258935546875,3.9194436073303223,9.013762474060059,-0.10289137065410614
1774658131693377800,0.629377685546875,3.902693748474121,9.020941734313965,-0.12442677468061447
1774658131710166500,0.64616650390625,3.9146578311920166,9.004191398620605,-0.10049854964017868
1774658131726955300,0.662955322265625,3.9074792861938477,9.013762474060059,-0.12442677468061447
1774658131743744000,0.679743896484375,3.9194436073303223,8.992227554321289,-0.1052841991186142
1774658131760532500,0.696532470703125,3.88594388961792,9.020941734313965,-0.12681959569454193
1774658131777321200,0.7133212890625,3.91705060005188,9.004191398620605,-0.1052841991186142
1774658131794110000,0.73010986328125,3.8883368968963623,9.020941734313965,-0.12442677468061447
1774658131810898700,0.746898681640625,3.90987229347229,9.006584167480469,-0.10289137065410614
1774658131827687400,0.7636875,3.8979079723358154,9.018548965454102,-0.12203395366668701
1774658131844476000,0.780475830078125,3.926621913909912,8.999405860900879,-0.10289137065410614
1774658131861264600,0.7972646484375,3.90987229347229,9.028120040893555,-0.11724831163883209
1774658131878053400,0.814053466796875,3.9074792861938477,9.011369705200195,-0.11006984114646912
1774658131894841900,0.830841796875,3.895515203475952,9.023334503173828,-0.12203395366668701
1774658131911630600,0.847630615234375,3.8979079723358154,9.006584167480469,-0.12442677468061447
1774658131928419300,0.86441943359375,3.8979079723358154,9.013762474060059,-0.11006984114646912
1774658131945208000,0.8812080078125,3.90987229347229,9.011369705200195,-0.12921242415905
1774658131961996800,0.897996826171875,3.9122650623321533,9.013762474060059,-0.10767702013254166
1774658131978785300,0.914785400390625,3.900300979614258,9.018548965454102,-0.13639089465141296
1774658131995574000,0.931573974609375,3.90987229347229,9.018548965454102,-0.10767702013254166
1774658132012362800,0.94836279296875,3.9050865173339844,9.023334503173828,-0.13160525262355804
1774658132029151500,0.9651513671875,3.9050865173339844,9.018548965454102,-0.10289137065410614
1774658132045940000,0.98193994140625,3.9122650623321533,9.018548965454102,-0.12203395366668701
1774658132062728700,0.998728759765625,3.893122434616089,9.020941734313965,-0.10767702013254166
1774658132079517400,1.015517333984375,3.8979079723358154,9.030512809753418,-0.12203395366668701
1774658132096306200,1.03230615234375,3.9050865173339844,9.020941734313965,-0.10289137065410614
1774658132113094700,1.0490947265625,3.9146578311920166,9.020941734313965,-0.12921242415905
1774658132129883400,1.06588330078125,3.902693748474121,9.023334503173828,-0.10767702013254166
1774658132146672000,1.082672119140625,3.900300979614258,9.006584167480469,-0.11724831163883209
1774658132163460900,1.0994609375,3.8883368968963623,9.016156196594238,-0.11724831163883209
1774658132180249300,1.116249267578125,3.926621913909912,9.006584167480469,-0.11964113265275955
1774658132197038000,1.1330380859375,3.90987229347229,9.020941734313965,-0.11006984114646912
1774658132213826800,1.149826904296875,3.924229145050049,9.006584167480469,-0.11964113265275955
1774658132230615300,1.166615234375,3.8883368968963623,9.013762474060059,-0.11246266216039658
1774658132247404000,1.183404052734375,3.90987229347229,9.023334503173828,-0.11246266216039658
1774658132264192800,1.20019287109375,3.8979079723358154,9.020941734313965,-0.11485548317432404
1774658132280981500,1.2169814453125,3.902693748474121,9.006584167480469,-0.12921242415905
1774658132297770200,1.233770263671875,3.9122650623321533,9.016156196594238,-0.11724831163883209
1774658132314558700,1.250558837890625,3.9074792861938477,9.011369705200195,-0.11964113265275955
1774658132331347500,1.267347412109375,3.90987229347229,9.004191398620605,-0.11006984114646912
1774658132348136200,1.28413623046875,3.900300979614258,9.016156196594238,-0.11006984114646912
1774658132364924700,1.300924560546875,3.900300979614258,9.011369705200195,-0.11964113265275955
1774658132381713400,1.31771337890625,3.900300979614258,9.023334503173828,-0.11006984114646912
1774658132398502100,1.334502197265625,3.9074792861938477,9.016156196594238,-0.10767702013254166
1774658132415291000,1.351290771484375,3.9074792861938477,9.013762474060059,-0.11006984114646912
1774658132432079400,1.368079345703125,3.9074792861938477,9.006584167480469,-0.12442677468061447
1774658132448868000,1.3848681640625,3.900300979614258,9.006584167480469,-0.11724831163883209
1774658132465656800,1.40165673828125,3.893122434616089,9.023334503173828,-0.12203395366668701
1774658132482445600,1.418445556640625,3.902693748474121,9.006584167480469,-0.11724831163883209
1774658132499234000,1.435234130859375,3.9146578311920166,9.016156196594238,-0.12203395366668701
1774658132516022800,1.452022705078125,3.895515203475952,9.013762474060059,-0.11006984114646912
1774658132532811500,1.4688115234375,3.8883368968963623,9.016156196594238,-0.11724831163883209
1774658132549600300,1.485600341796875,3.9146578311920166,9.013762474060059,-0.11724831163883209
1774658132566388700,1.502388671875,3.8907296657562256,9.011369705200195,-0.11964113265275955
1774658132583177500,1.519177490234375,3.900300979614258,9.013762474060059,-0.1052841991186142
1774658132599966200,1.53596630859375,3.9146578311920166,9.016156196594238,-0.12442677468061447
1774658132616755000,1.5527548828125,3.895515203475952,9.008976936340332,-0.11006984114646912
1774658132633543400,1.56954345703125,3.9050865173339844,9.008976936340332,-0.11964113265275955
1774658132650332200,1.586332275390625,3.9050865173339844,9.004191398620605,-0.12442677468061447
1774658132667121000,1.603120849609375,3.9122650623321533,9.018548965454102,-0.12203395366668701
1774658132683909600,1.61990966796875,3.895515203475952,9.011369705200195,-0.11246266216039658
1774658132700698000,1.636697998046875,3.900300979614258,9.016156196594238,-0.12203395366668701
1774658132717486800,1.65348681640625,3.8907296657562256,9.023334503173828,-0.11724831163883209
1774658132734275600,1.670275634765625,3.91705060005188,9.006584167480469,-0.11006984114646912
1774658132751064300,1.687064208984375,3.9074792861938477,9.004191398620605,-0.11006984114646912
1774658132767852800,1.703852783203125,3.8811583518981934,9.018548965454102,-0.11724831163883209
1774658132784641500,1.7206416015625,3.91705060005188,9.013762474060059,-0.11964113265275955
1774658132801430300,1.73743017578125,3.900300979614258,9.011369705200195,-0.11485548317432404
1774658132818219000,1.754218994140625,3.9194436073303223,9.006584167480469,-0.12203395366668701
1774658132835007500,1.771007568359375,3.9074792861938477,9.023334503173828,-0.12203395366668701
1774658132851796200,1.787796142578125,3.900300979614258,9.013762474060059,-0.11246266216039658
1774658132868585000,1.8045849609375,3.900300979614258,9.020941734313965,-0.11006984114646912
1774658132885373700,1.821373779296875,3.902693748474121,9.004191398620605,-0.11246266216039658
1774658132902162200,1.838162109375,3.900300979614258,9.023334503173828,-0.12681959569454193
1774658132918951000,1.854950927734375,3.9074792861938477,9.006584167480469,-0.1052841991186142
1774658132935739600,1.87173974609375,3.902693748474121,9.011369705200195,-0.11246266216039658
1774658132952528400,1.8885283203125,3.8883368968963623,9.020941734313965,-0.10767702013254166
1774658132969316900,1.90531689453125,3.9146578311920166,9.006584167480469,-0.11246266216039658
1774658132986105600,1.922105712890625,3.895515203475952,9.013762474060059,-0.11964113265275955
1774658133002894300,1.938894287109375,3.90987229347229,9.006584167480469,-0.11724831163883209
1774658133019683000,1.95568310546875,3.902693748474121,9.016156196594238,-0.10767702013254166
1774658133036471600,1.972471435546875,3.9146578311920166,9.004191398620605,-0.13160525262355804
1774658133053260300,1.98926025390625,3.8979079723358154,9.008976936340332,-0.11006984114646912
1774658133070049000,2.006049072265625,3.9050865173339844,9.001798629760742,-0.11485548317432404
1774658133086837800,2.022837646484375,3.91705060005188,9.008976936340332,-0.11964113265275955
1774658133103626200,2.039626220703125,3.900300979614258,9.013762474060059,-0.10767702013254166
1774658133120415000,2.0564150390625,3.9146578311920166,9.018548965454102,-0.11485548317432404
1774658133137203700,2.07320361328125,3.900300979614258,9.011369705200195,-0.11006984114646912
1774658133153992400,2.089992431640625,3.8979079723358154,8.994620323181152,-0.11246266216039658
1774658133170781000,2.106781005859375,3.9050865173339844,9.008976936340332,-0.11485548317432404
1774658133187569700,2.123569580078125,3.895515203475952,9.013762474060059,-0.11964113265275955
1774658133204358400,2.1403583984375,3.893122434616089,9.028120040893555,-0.11485548317432404
1774658133221147100,2.157147216796875,3.9122650623321533,9.008976936340332,-0.11485548317432404
1774658133237935900,2.173935791015625,3.900300979614258,9.013762474060059,-0.11246266216039658
1774658133254724600,2.190724609375,3.91705060005188,9.008976936340332,-0.11724831163883209
1774658133271513000,2.20751318359375,3.9074792861938477,9.013762474060059,-0.11006984114646912
1774658133288301800,2.2243017578125,3.88594388961792,9.020941734313965,-0.11485548317432404
1774658133305090600,2.241090576171875,3.900300979614258,9.020941734313965,-0.10049854964017868
1774658133321879000,2.257879150390625,3.9122650623321533,8.999405860900879,-0.12681959569454193
1774658133338667800,2.274667724609375,3.900300979614258,9.011369705200195,-0.11246266216039658
1774658133355456500,2.29145654296875,3.8883368968963623,9.030512809753418,-0.12921242415905
1774658133372245200,2.308245361328125,3.895515203475952,9.006584167480469,-0.10767702013254166
1774658133389034000,2.325033935546875,3.9074792861938477,9.028120040893555,-0.11006984114646912
1774658133405822700,2.34182275390625,3.9314076900482178,9.011369705200195,-0.11485548317432404
1774658133422611200,2.358611083984375,3.8979079723358154,9.032905578613281,-0.11246266216039658
1774658133439400000,2.37539990234375,3.8907296657562256,8.997013092041016,-0.10049854964017868
1774658133456188700,2.392188720703125,3.91705060005188,9.006584167480469,-0.11485548317432404
1774658133472977400,2.408977294921875,3.8907296657562256,9.018548965454102,-0.11964113265275955
1774658133489766000,2.425765869140625,3.900300979614258,9.013762474060059,-0.11724831163883209
1774658133506554600,2.4425546875,3.9122650623321533,9.011369705200195,-0.11724831163883209
1774658133523343400,2.45934326171875,3.900300979614258,9.006584167480469,-0.10767702013254166
1774658133540132000,2.476132080078125,3.900300979614258,9.004191398620605,-0.11724831163883209
1774658133556920800,2.4929208984375,3.9122650623321533,9.020941734313965,-0.10767702013254166
1774658133573709300,2.509709228515625,3.8979079723358154,9.016156196594238,-0.13160525262355804
1774658133590498000,2.526498046875,3.91705060005188,9.016156196594238,-0.08853443711996078
1774658133607286800,2.543286865234375,3.94815731048584,8.999405860900879,-0.14835500717163086
1774658133624075500,2.560075439453125,3.9385859966278076,9.016156196594238,-0.09092725813388824
1774658133640864000,2.576864013671875,3.895515203475952,9.018548965454102,-0.1459621787071228
1774658133657652700,2.59365283203125,3.8979079723358154,9.001798629760742,-0.10767702013254166
1774658133674441500,2.61044140625,3.8907296657562256,9.008976936340332,-0.12203395366668701
1774658133691230200,2.627230224609375,3.924229145050049,9.006584167480469,-0.10767702013254166
1774658133708019000,2.64401904296875,3.87876558303833,9.018548965454102,-0.11006984114646912
1774658133724807700,2.6608076171875,3.90987229347229,9.013762474060059,-0.12681959569454193
1774658133741596200,2.67759619140625,3.924229145050049,8.999405860900879,-0.1052841991186142
1774658133758385000,2.694385009765625,3.9122650623321533,9.013762474060059,-0.11964113265275955
1774658133775173600,2.711173583984375,3.8763725757598877,9.025727272033691,-0.10767702013254166
1774658133791962400,2.72796240234375,3.933800458908081,9.001798629760742,-0.13160525262355804
1774658133808750800,2.744750732421875,3.895515203475952,9.025727272033691,-0.10289137065410614
1774658133825539600,2.76153955078125,3.9074792861938477,9.008976936340332,-0.12203395366668701
1774658133842328300,2.778328369140625,3.9074792861938477,9.011369705200195,-0.11006984114646912
1774658133859117000,2.795116943359375,3.90987229347229,9.016156196594238,-0.12442677468061447
1774658133875905800,2.81190576171875,3.893122434616089,9.023334503173828,-0.10049854964017868
1774658133892694300,2.8286943359375,3.924229145050049,8.997013092041016,-0.14356936514377594
1774658133909483000,2.84548291015625,3.90987229347229,9.008976936340332,-0.1052841991186142
1774658133926271700,2.862271728515625,3.9194436073303223,9.013762474060059,-0.12921242415905
1774658133943060500,2.879060546875,3.895515203475952,9.030512809753418,-0.11006984114646912
1774658133959849200,2.89584912109375,3.926621913909912,9.011369705200195,-0.12681959569454193
1774658133976637700,2.9126376953125,3.9074792861938477,9.006584167480469,-0.11246266216039658
1774658133993426400,2.929426513671875,3.90987229347229,9.016156196594238,-0.12681959569454193
1774658134010215200,2.946215087890625,3.8739798069000244,9.020941734313965,-0.11246266216039658
1774658134027004000,2.96300390625,3.8979079723358154,9.016156196594238,-0.12681959569454193
1774658134043792600,2.979792724609375,3.9218363761901855,9.018548965454102,-0.1052841991186142
1774658134060581000,2.9965810546875,3.895515203475952,9.020941734313965,-0.11724831163883209
1774658134077369900,3.013369873046875,3.902693748474121,9.011369705200195,-0.10289137065410614
1774658134094158600,3.03015869140625,3.90987229347229,9.008976936340332,-0.12203395366668701
1774658134110947300,3.046947265625,3.900300979614258,9.008976936340332,-0.11485548317432404
1774658134127736000,3.063736083984375,3.9122650623321533,9.006584167480469,-0.11964113265275955
1774658134144524500,3.080524658203125,3.9050865173339844,9.011369705200195,-0.11485548317432404
1774658134161313300,3.097313232421875,4.041477680206299,9.06401252746582,-0.10289137065410614
1774658134178102000,3.11410205078125,3.6083765029907227,8.918049812316895,-0.16031911969184875
1774658134194890800,3.130890869140625,4.110869407653809,9.008976936340332,-0.16749759018421173
1774658134211679200,3.14767919921875,3.6777684688568115,9.169296264648438,-0.064606212079525
1774658134228468000,3.164468017578125,4.223331928253174,8.944371223449707,-0.1866401731967926
1774658134245256700,3.181256591796875,3.8021950721740723,9.011369705200195,-0.08135596662759781
1774658134262045400,3.19804541015625,3.7806596755981445,9.042476654052734,-0.09092725813388824
1774658134278834200,3.214834228515625,4.022335052490234,8.941978454589844,-0.14117653667926788
1774658134295622700,3.23162255859375,3.8500516414642334,9.059226989746094,-0.12203395366668701
1774658134312411400,3.248411376953125,3.869194269180298,9.018548965454102,-0.09810572862625122
1774658134329200000,3.2652001953125,4.036691665649414,8.963513374328613,-0.11964113265275955
1774658134345988900,3.28198876953125,3.840480327606201,9.035298347473145,-0.1339980661869049
1774658134362777300,3.29877734375,3.926621913909912,8.982656478881836,-0.10767702013254166
1774658134379566000,3.315566162109375,3.94815731048584,8.999405860900879,-0.1339980661869049
1774658134396354800,3.332354736328125,3.8428730964660645,9.047262191772461,-0.08853443711996078
1774658134413143600,3.3491435546875,3.862015724182129,9.056833267211914,-0.12921242415905
1774658134429932300,3.365932373046875,4.019941806793213,8.963513374328613,-0.11724831163883209
1774658134446720800,3.382720703125,3.84765887260437,9.047262191772461,-0.12921242415905
1774658134463509500,3.399509521484375,3.9457645416259766,8.992227554321289,-0.10049854964017868
1774658134480298200,3.41629833984375,3.8668015003204346,9.030512809753418,-0.16749759018421173
1774658134497087000,3.4330869140625,3.900300979614258,8.999405860900879,-0.1052841991186142
1774658134513875700,3.449875732421875,3.9074792861938477,9.004191398620605,-0.15074782073497772
1774658134530664400,3.46666455078125,3.9050865173339844,9.001798629760742,-0.062213387340307236
1774658134547453000,3.483452880859375,3.9361932277679443,9.008976936340332,-0.13639089465141296
1774658134564241700,3.50024169921875,3.9122650623321533,9.001798629760742,-0.06939185410737991
1774658134581030400,3.517030517578125,3.9361932277679443,9.023334503173828,-0.12203395366668701
1774658134597819100,3.533819091796875,3.871587038040161,8.999405860900879,-0.040677983313798904
1774658134614607600,3.550607666015625,3.8979079723358154,9.025727272033691,-0.17228323221206665
1774658134631396400,3.567396240234375,3.94097900390625,9.025727272033691,-0.11006984114646912
1774658134648185000,3.58418505859375,3.895515203475952,9.032905578613281,-0.14117653667926788
1774658134664973800,3.600973876953125,3.9074792861938477,9.016156196594238,-0.10049854964017868
1774658134681762300,3.61776220703125,3.900300979614258,9.018548965454102,-0.14835500717163086
1774658134698551000,3.634551025390625,3.91705060005188,8.987442016601562,-0.11485548317432404
1774658134715339800,3.65133984375,3.88594388961792,9.020941734313965,-0.11724831163883209
1774658134732128500,3.66812841796875,3.90987229347229,8.992227554321289,-0.10289137065410614
1774658134748917200,3.684917236328125,3.933800458908081,9.028120040893555,-0.09571290761232376
1774658134765705700,3.701705810546875,3.926621913909912,9.013762474060059,-0.13878370821475983
1774658134782494500,3.718494384765625,3.8907296657562256,9.008976936340332,-0.09810572862625122
1774658134799283200,3.735283203125,3.8524444103240967,9.030512809753418,-0.1339980661869049
1774658134816072000,3.752072021484375,3.90987229347229,9.011369705200195,-0.11964113265275955
1774658134832860700,3.768860595703125,3.88594388961792,9.001798629760742,-0.15314064919948578
1774658134849649200,3.785649169921875,3.9290146827697754,8.980263710021973,-0.1052841991186142
1774658134866438000,3.80243798828125,3.924229145050049,9.011369705200195,-0.1339980661869049
1774658134883226600,3.8192265625,3.893122434616089,9.020941734313965,-0.11006984114646912
1774658134900015400,3.836015380859375,3.9314076900482178,9.004191398620605,-0.15314064919948578
1774658134916803800,3.852803955078125,3.8835511207580566,9.025727272033691,-0.09571290761232376
1774658134933592600,3.869592529296875,3.9361932277679443,8.997013092041016,-0.062213387340307236
1774658134950381300,3.88638134765625,3.864408493041992,9.028120040893555,-0.11006984114646912
1774658134967170000,3.903170166015625,3.8907296657562256,9.006584167480469,-0.15553347766399384
1774658134983958500,3.91995849609375,3.9672999382019043,9.023334503173828,-0.11246266216039658
1774658135000747300,3.936747314453125,3.9912281036376953,9.001798629760742,-0.11246266216039658
1774658135017536000,3.953535888671875,3.996013879776001,9.025727272033691,-0.08614161610603333
1774658135034324700,3.97032470703125,4.041477680206299,8.97787094116211,-0.16271193325519562
1774658135051113500,3.987113525390625,3.88594388961792,9.073583602905273,-0.13160525262355804
1774658135067902000,4.00390185546875,3.9050865173339844,9.013762474060059,-0.09571290761232376
1774658135084690700,4.020690673828125,3.8261234760284424,9.037691116333008,-0.11006984114646912
1774658135101479400,4.0374794921875,3.87876558303833,9.030512809753418,-0.08614161610603333
1774658135118268200,4.05426806640625,3.9314076900482178,9.011369705200195,-0.11964113265275955
1774658135135057000,4.071056884765625,3.8739798069000244,9.030512809753418,-0.05503492057323456
1774658135151845400,4.087845458984375,3.9290146827697754,9.008976936340332,-0.13160525262355804
1774658135168634000,4.104634033203125,4.027120590209961,8.97787094116211,-0.11485548317432404
1774658135185422800,4.1214228515625,3.955335855484009,8.994620323181152,-0.15553347766399384
1774658135202211600,4.138211669921875,3.9122650623321533,9.001798629760742,-0.1459621787071228
1774658135219000300,4.155000244140625,3.9050865173339844,9.011369705200195,-0.13639089465141296
1774658135235788800,4.171788818359375,3.87876558303833,9.018548965454102,-0.1459621787071228
1774658135252577500,4.18857763671875,3.8811583518981934,9.023334503173828,-0.10049854964017868
1774658135269366300,4.2053662109375,3.87876558303833,9.040083885192871,-0.059820566326379776
1774658135286155000,4.222155029296875,3.9529430866241455,9.023334503173828,-0.05742774158716202
1774658135302943500,4.238943603515625,3.91705060005188,9.008976936340332,-0.08135596662759781
1774658135319732200,4.255732177734375,3.8285162448883057,9.044869422912598,-0.1052841991186142
1774658135336521000,4.27252099609375,3.964907169342041,8.987442016601562,-0.09810572862625122
1774658135353309700,4.289309814453125,3.838087558746338,9.052047729492188,-0.13878370821475983
1774658135370098200,4.30609814453125,3.8356947898864746,9.061619758605957,-0.15074782073497772
1774658135386887000,4.322886962890625,3.955335855484009,9.013762474060059,-0.17706887423992157
1774658135403675600,4.339675537109375,3.8021950721740723,9.052047729492188,-0.12442677468061447
1774658135420464400,4.35646435546875,3.871587038040161,9.018548965454102,-0.09571290761232376
1774658135437252900,4.3732529296875,3.9074792861938477,8.970691680908203,-0.10289137065410614
1774658135454041600,4.39004150390625,3.8811583518981934,9.013762474060059,-0.04307080805301666
1774658135470830300,4.406830322265625,3.964907169342041,8.963513374328613,-0.11246266216039658
1774658135487619000,4.423619140625,3.9361932277679443,8.999405860900879,-0.08853443711996078
1774658135504407800,4.44040771484375,4.000799655914307,8.913264274597168,-0.28953152894973755
1774658135521196300,4.4571962890625,3.955335855484009,9.06401252746582,-0.12681959569454193
1774658135537985000,4.473985107421875,3.799802303314209,9.016156196594238,-0.20578274130821228
1774658135554773800,4.490773681640625,3.7974095344543457,9.06401252746582,-0.13639089465141296
1774658135571562500,4.5075625,3.7232320308685303,9.152546882629395,-0.12203395366668701
1774658135588351000,4.52435107421875,4.132404804229736,8.901300430297852,-0.15553347766399384
1774658135605139700,4.5411396484375,3.8189449310302734,9.028120040893555,-0.1052841991186142
1774658135621928400,4.557928466796875,3.737588882446289,9.037691116333008,-0.19621145725250244
1774658135638717200,4.57471728515625,4.034298896789551,8.930013656616211,-0.031106693670153618
1774658135655505700,4.591505615234375,3.8572301864624023,9.018548965454102,-0.09571290761232376
1774658135672294400,4.60829443359375,3.9768712520599365,8.96829891204834,-0.0933200865983963
1774658135689083100,4.625083251953125,3.926621913909912,8.975478172302246,-0.1459621787071228
1774658135705872000,4.641871826171875,3.8907296657562256,8.894122123718262,-0.10767702013254166
1774658135722660600,4.65866064453125,3.9457645416259766,9.004191398620605,-0.13160525262355804
1774658135739449300,4.675449462890625,3.761517286300659,9.131011009216309,-0.1579262912273407
1774658135756237800,4.69223779296875,3.893122434616089,9.068798065185547,-0.05742774158716202
1774658135773026600,4.709026611328125,3.6131622791290283,8.884550094604492,-0.059820566326379776
1774658135789815300,4.725815185546875,3.8117663860321045,9.06401252746582,-0.1818545162677765
1774658135806604000,4.74260400390625,3.864408493041992,8.920442581176758,-0.0023928226437419653
1774658135823392500,4.759392578125,4.206582069396973,8.944371223449707,-0.16510476171970367
1774658135840181200,4.77618115234375,4.541577339172363,8.86062240600586,-0.2105683982372284
1774658135856970000,4.792969970703125,4.232903480529785,8.906085968017578,0.059820566326379776
1774658135873758700,4.8097587890625,3.570091485977173,8.671588897705078,-0.13160525262355804
1774658135890547500,4.82654736328125,4.0558342933654785,9.221938133239746,0.1866401731967926
1774658135907336000,4.8433359375,2.8115665912628174,9.346364974975586,-0.15074782073497772
1774658135924124700,4.860124755859375,4.505684852600098,9.176474571228027,-0.3517449200153351
1774658135940913400,4.876913330078125,3.6681971549987793,8.951549530029297,0.2225325107574463
1774658135957702100,4.8937021484375,3.122633457183838,9.233902931213379,-0.1052841991186142
1774658135974491000,4.910490966796875,4.12761926651001,8.781659126281738,-0.014356935396790504
1774658135991279400,4.927279296875,4.005585193634033,8.920442581176758,-0.13639089465141296
1774658136008068000,4.944068115234375,4.012763500213623,9.080761909484863,0.02632104977965355
1774658136024856800,4.96085693359375,4.359723091125488,8.85344409942627,-0.07417750358581543
1774658136041645600,4.9776455078125,3.9984066486358643,9.1716890335083,-0.2560320198535919
1774658136058434000,4.99443408203125,3.799802303314209,8.997013092041016,-0.2273181527853012
1774658136075223000,5.01122314453125,4.118047714233398,8.858229637145996,-0.13878370821475983
1774658136092011500,5.028011474609375,3.7543387413024902,8.975478172302246,0.12203395366668701
1774658136108800300,5.04480029296875,3.517449378967285,9.164510726928711,-0.2847459018230438
1774658136125589000,5.061589111328125,4.098905086517334,8.85344409942627,-0.1339980661869049
1774658136142377700,5.078377685546875,4.240081787109375,9.013762474060059,-0.13160525262355804
1774658136159166500,5.09516650390625,3.8045880794525146,9.233902931213379,-0.15074782073497772
1774658136175955000,5.111954833984375,3.8189449310302734,8.930013656616211,0.14356936514377594
1774658136192743700,5.12874365234375,4.309473514556885,8.827122688293457,-0.5096712112426758
1774658136209532400,5.145532470703125,3.6370904445648193,8.934800148010254,0.24646073579788208
1774658136226321200,5.162321044921875,3.8117663860321045,9.123832702636719,-0.47617170214653015
1774658136243110000,5.17910986328125,4.29033088684082,8.740981101989746,0.11724831163883209
1774658136259898400,5.1958984375,3.6394832134246826,9.06401252746582,-0.48574298620224
1774658136276687000,5.21268701171875,4.120440483093262,8.898907661437988,0.20099709928035736
1774658136293475800,5.229475830078125,4.18983268737793,9.023334503173828,-0.32303106784820557
1774658136310264600,5.2462646484375,3.8045880794525146,9.09990406036377,0.1052841991186142
1774658136327053300,5.26305322265625,4.18983268737793,8.94676399230957,-0.2967100143432617
1774658136343842000,5.279842041015625,4.106083869934082,8.994620323181152,0.062213387340307236
1774658136360630800,5.296630859375,3.8045880794525146,9.032905578613281,-0.20578274130821228
1774658136377419300,5.313419189453125,3.6083765029907227,9.087940216064453,-0.059820566326379776
1774658136394208000,5.3302080078125,4.082155227661133,8.918049812316895,-0.2105683982372284
1774658136410996700,5.346996826171875,4.094119548797607,8.96829891204834,0.08853443711996078
1774658136427785500,5.363785400390625,3.85483717918396,9.114261627197266,-0.2273181527853012
1774658136444574200,5.38057421875,4.089334011077881,8.93240737915039,-0.04546362906694412
1774658136461362700,5.39736279296875,3.680161237716675,9.116654396057129,-0.16271193325519562
1774658136478151400,5.4141513671875,4.342973232269287,8.82951545715332,-0.15553347766399384
1774658136494940200,5.430940185546875,3.9792640209198,8.918049812316895,0.004785645287483931
1774658136511729000,5.44772900390625,3.735196113586426,9.087940216064453,-0.22971096634864807
1774658136528517600,5.464517578125,4.074976921081543,8.93958568572998,-0.07657032459974289
1774658136545306400,5.481306396484375,3.9122650623321533,9.06401252746582,-0.24406790733337402
1774658136562094800,5.4980947265625,3.84765887260437,8.994620323181152,0.09810572862625122
1774658136578883600,5.514883544921875,4.139583110809326,8.93240737915039,-0.30628129839897156
1774658136595672300,5.53167236328125,3.9601213932037354,8.980263710021973,0.059820566326379776
1774658136612461000,5.5484609375,3.9385859966278076,9.011369705200195,-0.25363919138908386
1774658136629249800,5.565249755859375,4.058227062225342,8.956335067749023,0.08135596662759781
1774658136646038300,5.582038330078125,3.902693748474121,9.047262191772461,-0.26560330390930176
1774658136662827000,5.598826904296875,3.9433717727661133,8.982656478881836,-0.0023928226437419653
1774658136679615700,5.61561572265625,4.036691665649414,8.963513374328613,-0.18903298676013947
1774658136696404500,5.632404541015625,3.924229145050049,8.999405860900879,-0.07178468257188797
1774658136713193200,5.649193115234375,3.996013879776001,8.982656478881836,-0.20338992774486542
1774658136729982000,5.66598193359375,4.039084434509277,8.951549530029297,-0.10767702013254166
1774658136746770700,5.682770751953125,3.9625144004821777,8.9850492477417,-0.0933200865983963
1774658136763559200,5.69955908203125,3.964907169342041,8.9850492477417,-0.12681959569454193
1774658136780348000,5.716347900390625,4.000799655914307,8.963513374328613,-0.12681959569454193
1774658136797136600,5.73313671875,4.00319242477417,8.965906143188477,-0.10289137065410614
1774658136813925400,5.74992529296875,3.981656789779663,9.006584167480469,-0.04307080805301666
1774658136830714000,5.766714111328125,3.94815731048584,8.989834785461426,-0.1339980661869049
1774658136847502600,5.783502685546875,3.9601213932037354,8.999405860900879,-0.11006984114646912
1774658136864291300,5.800291259765625,4.101297855377197,8.941978454589844,-0.15314064919948578
1774658136881080000,5.817080078125,3.9792640209198,8.97787094116211,-0.04546362906694412
1774658136897868800,5.833868896484375,3.9768712520599365,9.023334503173828,-0.1746760457754135
1774658136914657500,5.850657470703125,4.06540584564209,8.951549530029297,-0.11006984114646912
1774658136931446300,5.8674462890625,3.950550079345703,9.020941734313965,-0.19142581522464752
1774658136948234800,5.88423486328125,3.9792640209198,8.95394229888916,0.014356935396790504
1774658136965023500,5.9010234375,3.996013879776001,8.958727836608887,-0.1866401731967926
1774658136981812200,5.917812255859375,3.9385859966278076,8.97787094116211,-0.07178468257188797
1774658136998601000,5.93460107421875,3.9314076900482178,8.992227554321289,-0.16749759018421173
1774658137015389700,5.9513896484375,4.005585193634033,8.949156761169434,-0.040677983313798904
1774658137032178400,5.968178466796875,4.005585193634033,8.965906143188477,-0.18424734473228455
1774658137048967000,5.984966796875,3.9768712520599365,8.9850492477417,-0.0933200865983963
1774658137065755600,6.001755615234375,3.9792640209198,8.989834785461426,-0.17228323221206665
1774658137082544400,6.01854443359375,3.9744784832000732,8.9850492477417,-0.08614161610603333
1774658137099333000,6.0353330078125,4.01037073135376,8.999405860900879,-0.15074782073497772
1774658137116121900,6.052121826171875,3.972085475921631,8.987442016601562,-0.1052841991186142
1774658137132910600,6.06891064453125,4.012763500213623,8.982656478881836,-0.09810572862625122
1774658137149699000,6.085698974609375,3.902693748474121,9.020941734313965,-0.10289137065410614
1774658137174882300,6.11088232421875,3.9194436073303223,8.989834785461426,-0.10767702013254166
1774658137191670800,6.1276708984375,3.9529430866241455,8.96829891204834,-0.08614161610603333
1774658137208459500,6.14445947265625,4.029513359069824,8.918049812316895,-0.13639089465141296
1774658137225248300,6.161248291015625,3.94097900390625,8.987442016601562,-0.12442677468061447
1774658137242037000,6.178037109375,3.9936211109161377,8.9850492477417,-0.1579262912273407
1774658137258825700,6.19482568359375,4.043870449066162,8.973084449768066,-0.16510476171970367
1774658137275614200,6.2116142578125,3.8907296657562256,9.008976936340332,-0.10767702013254166
1774658137292403000,6.22840283203125,3.902693748474121,9.044869422912598,-0.1459621787071228
1774658137309191700,6.245191650390625,3.9146578311920166,9.013762474060059,-0.09092725813388824
1774658137325980400,6.26198046875,3.91705060005188,9.016156196594238,-0.11964113265275955
1774658137342769200,6.27876904296875,4.022335052490234,8.973084449768066,-0.07896314561367035
1774658137359558000,6.295557861328125,3.9696927070617676,8.97787094116211,-0.06939185410737991
1774658137376346400,6.312346435546875,4.012763500213623,8.970691680908203,-0.14117653667926788
1774658137393135000,6.329135009765625,3.9290146827697754,8.989834785461426,-0.12442677468061447
1774658137409923800,6.345923828125,3.933800458908081,8.982656478881836,-0.1698904037475586
1774658137426712600,6.362712646484375,3.996013879776001,8.975478172302246,-0.07417750358581543
1774658137443501300,6.379501220703125,3.9433717727661133,9.035298347473145,-0.18903298676013947
1774658137460289800,6.396289794921875,3.9146578311920166,9.030512809753418,-0.059820566326379776
1774658137477078500,6.41307861328125,3.9864425659179688,8.994620323181152,-0.1986042857170105
1774658137493867300,6.4298671875,3.84765887260437,9.018548965454102,-0.014356935396790504
1774658137510656000,6.446656005859375,3.9385859966278076,8.970691680908203,-0.13878370821475983
1774658137527444700,6.46344482421875,3.933800458908081,8.96112060546875,-0.10049854964017868
1774658137544233200,6.480233154296875,3.902693748474121,8.987442016601562,-0.15314064919948578
1774658137561022000,6.49702197265625,3.9936211109161377,8.94676399230957,-0.09810572862625122
1774658137577810700,6.513810791015625,3.964907169342041,8.9850492477417,-0.13878370821475983
1774658137594599400,6.530599365234375,3.91705060005188,9.023334503173828,-0.11246266216039658
1774658137611388200,6.54738818359375,3.988835334777832,9.044869422912598,-0.12681959569454193
1774658137628177000,6.564177001953125,3.94097900390625,9.004191398620605,-0.08374879509210587
1774658137644965400,6.58096533203125,3.8979079723358154,9.05444049835205,-0.13160525262355804
1774658137661754000,6.597754150390625,3.893122434616089,8.999405860900879,-0.05024927482008934
1774658137678542800,6.61454296875,3.9912281036376953,8.987442016601562,-0.09571290761232376
1774658137695331600,6.63133154296875,3.9218363761901855,8.997013092041016,-0.07657032459974289
1774658137712120300,6.648120361328125,3.950550079345703,8.975478172302246,-0.1052841991186142
1774658137728908800,6.66490869140625,3.94815731048584,8.9850492477417,-0.13878370821475983
1774658137745697500,6.681697509765625,3.957728624343872,8.975478172302246,-0.13160525262355804
1774658137762486300,6.698486328125,3.9385859966278076,8.987442016601562,-0.1052841991186142
1774658137779275000,6.71527490234375,3.957728624343872,9.013762474060059,-0.16510476171970367
1774658137796063700,6.732063720703125,3.9194436073303223,9.030512809753418,-0.09810572862625122
1774658137812852200,6.748852294921875,3.94097900390625,9.035298347473145,-0.1579262912273407
1774658137829641000,6.765640869140625,3.9912281036376953,8.975478172302246,-0.02153540402650833
1774658137846429700,6.7824296875,3.8907296657562256,9.059226989746094,-0.12203395366668701
1774658137863218400,6.799218505859375,3.91705060005188,8.9850492477417,-0.05742774158716202
1774658137880007200,6.816007080078125,3.871587038040161,8.992227554321289,-0.16031911969184875
1774658137896796000,6.8327958984375,3.9768712520599365,8.982656478881836,-0.11246266216039658
1774658137913584400,6.84958447265625,3.90987229347229,8.9850492477417,-0.08614161610603333
1774658137930373000,6.866373046875,3.957728624343872,9.008976936340332,-0.15553347766399384
1774658137947161900,6.883161865234375,3.9529430866241455,9.008976936340332,-0.11006984114646912
1774658137963950600,6.89995068359375,3.864408493041992,9.037691116333008,-0.18903298676013947
1774658137980739000,6.916739013671875,3.895515203475952,9.001798629760742,-0.038285162299871445
1774658137997527800,6.93352783203125,3.9361932277679443,9.013762474060059,-0.09571290761232376
1774658138014316500,6.950316650390625,3.9290146827697754,9.006584167480469,-0.04546362906694412
1774658138031105300,6.967105224609375,4.000799655914307,8.997013092041016,-0.11724831163883209
1774658138047894000,6.98389404296875,3.8883368968963623,9.049654960632324,-0.04785645380616188
1774658138064682500,7.0006826171875,3.8907296657562256,8.980263710021973,-0.10049854964017868
1774658138081471200,7.01747119140625,3.84765887260437,9.08554744720459,-0.10767702013254166
1774658138098260000,7.034260009765625,3.94097900390625,9.013762474060059,-0.038285162299871445
1774658138115048700,7.051048583984375,3.9601213932037354,9.008976936340332,-0.20099709928035736
1774658138131837400,7.06783740234375,4.036691665649414,8.982656478881836,-0.07896314561367035
1774658138148626000,7.0846259765625,3.862015724182129,9.016156196594238,-0.24885354936122894
1774658138165414700,7.10141455078125,3.988835334777832,8.886942863464355,-0.1052841991186142
1774658138182203400,7.118203369140625,3.579662561416626,9.020941734313965,-0.16510476171970367
1774658138198992100,7.1349921875,4.048655986785889,8.819944381713867,-0.040677983313798904
1774658138215780900,7.15178076171875,3.6059837341308594,9.190832138061523,-0.19142581522464752
1774658138232569600,7.168569580078125,4.187439441680908,8.937192916870117,-0.04546362906694412
1774658138249358000,7.185358154296875,4.0079779624938965,9.083154678344727,-0.22971096634864807
1774658138266146800,7.202146728515625,3.783052682876587,9.121439933776855,-0.08135596662759781
1774658138282935600,7.218935546875,3.9864425659179688,8.963513374328613,-0.2105683982372284
1774658138299724300,7.235724365234375,3.689732551574707,9.059226989746094,-0.12921242415905
1774658138316512800,7.2525126953125,3.81655216217041,9.042476654052734,-0.11006984114646912
1774658138333301500,7.269301513671875,4.168296813964844,8.994620323181152,-0.14356936514377594
1774658138350090200,7.28609033203125,4.019941806793213,8.980263710021973,-0.035892341285943985
1774658138366879000,7.30287890625,3.8333017826080322,8.980263710021973,-0.2560320198535919
1774658138383667700,7.319667724609375,3.85483717918396,8.997013092041016,-0.0526420995593071
1774658138400456200,7.336456298828125,3.6681971549987793,9.023334503173828,-0.07657032459974289
1774658138417245000,7.353244873046875,3.87876558303833,8.997013092041016,-0.0933200865983963
1774658138434033700,7.37003369140625,4.206582069396973,8.879764556884766,-0.02632104977965355
1774658138450822400,7.386822509765625,3.7902309894561768,9.133403778076172,-0.18903298676013947
1774658138467611000,7.40361083984375,4.000799655914307,9.035298347473145,-0.13160525262355804
1774658138484399600,7.420399658203125,4.024727821350098,9.05444049835205,-0.04307080805301666
1774658138501188400,7.437188232421875,3.744767427444458,8.992227554321289,-0.11246266216039658
1774658138517977000,7.45397705078125,3.7639100551605225,9.061619758605957,-0.17706887423992157
1774658138534765800,7.470765869140625,4.144368648529053,8.956335067749023,-0.11724831163883209
1774658138551554300,7.48755419921875,3.7112679481506348,9.174081802368164,-0.04307080805301666
1774658138568343000,7.504343017578125,4.328616142272949,8.882157325744629,-0.02871387079358101
1774658138585131800,7.5211318359375,3.8333017826080322,9.013762474060059,-0.15314064919948578
1774658138601920500,7.53792041015625,3.493520975112915,9.066405296325684,-0.1459621787071228
1774658138618709200,7.554709228515625,4.082155227661133,8.870193481445312,-0.13639089465141296
1774658138635497700,7.571497802734375,3.6059837341308594,9.047262191772461,-0.062213387340307236
1774658138652286500,7.588286376953125,4.094119548797607,8.937192916870117,-0.14117653667926788
1774658138669075200,7.6050751953125,4.113262176513672,8.982656478881836,-0.035892341285943985
1774658138685864000,7.621864013671875,3.4576287269592285,9.305686950683594,-0.02871387079358101
1774658138702652700,7.638652587890625,4.596612453460693,8.82233715057373,-0.34217363595962524
1774658138719441200,7.655441162109375,3.7328033447265625,9.05444049835205,0.009571290574967861
1774658138736230000,7.67222998046875,3.649054527282715,9.133403778076172,-0.10767702013254166
1774658138753018600,7.6890185546875,4.208974838256836,8.827122688293457,-0.0526420995593071
1774658138769807400,7.705807373046875,3.6681971549987793,9.19561767578125,-0.2919243574142456
1774658138786596000,7.72259619140625,4.201796531677246,8.918049812316895,-0.059820566326379776
1774658138803384600,7.739384521484375,3.761517286300659,9.090332984924316,-0.25363919138908386
1774658138820173300,7.75617333984375,3.9601213932037354,8.96112060546875,0.09571290761232376
1774658138836962000,7.772962158203125,3.840480327606201,9.023334503173828,-0.19142581522464752
1774658138853750800,7.789750732421875,3.8356947898864746,9.09272575378418,-0.14835500717163086
1774658138870539300,7.806539306640625,4.043870449066162,8.973084449768066,-0.2512463629245758
1774658138887328000,7.823327880859375,3.7663028240203857,9.09272575378418,-0.18424734473228455
1774658138904116700,7.84011669921875,3.9314076900482178,8.95394229888916,-0.1866401731967926
1774658138920905500,7.856905517578125,3.814159393310547,8.96112060546875,-0.17706887423992157
1774658138937694200,7.873694091796875,3.7902309894561768,9.008976936340332,-0.08374879509210587
1774658138954482700,7.890482666015625,4.005585193634033,8.980263710021973,-0.05742774158716202
1774658138971271400,7.907271484375,4.000799655914307,8.944371223449707,0.02871387079358101
1774658138988060200,7.92406005859375,3.9601213932037354,9.073583602905273,0.007178467698395252
1774658139004849000,7.940848876953125,3.955335855484009,9.042476654052734,0.08853443711996078
1774658139021637400,7.957637451171875,3.81655216217041,9.104690551757812,-0.2679961323738098
1774658139038426000,7.974426025390625,3.7806596755981445,9.107083320617676,0.009571290574967861
1774658139055214800,7.99121484375,3.4911282062530518,9.233902931213379,-0.24885354936122894
1774658139072003600,8.008003662109376,4.2592244148254395,8.848658561706543,-0.24646073579788208
1774658139088792300,8.024792236328125,3.9768712520599365,8.910871505737305,-0.20817556977272034
1774658139105580800,8.041580810546876,3.5916268825531006,9.162117958068848,-0.16749759018421173
1774658139122369500,8.05836962890625,4.3070807456970215,8.786444664001465,-0.16510476171970367
1774658139139158300,8.075158203125,3.421736478805542,9.075976371765137,-0.031106693670153618
1774658139155947000,8.091947021484375,3.91705060005188,8.958727836608887,-0.07417750358581543
1774658139172735500,8.108735595703125,3.696911096572876,8.85344409942627,-0.24406790733337402
1774658139189524200,8.125524169921874,4.048655986785889,9.016156196594238,-0.062213387340307236
1774658139206313000,8.14231298828125,4.0319061279296875,9.162117958068848,0.007178467698395252
1774658139223101700,8.159101806640624,4.0558342933654785,9.087940216064453,-0.20099709928035736
1774658139239890400,8.175890380859375,3.933800458908081,9.080761909484863,-0.10767702013254166
1774658139256679000,8.192678955078126,3.87876558303833,8.970691680908203,-0.12681959569454193
1774658139273467600,8.209467529296875,3.82373046875,9.078369140625,-0.22492532432079315
1774658139290256400,8.22625634765625,4.024727821350098,9.004191398620605,-0.09571290761232376
1774658139307045000,8.243045166015625,3.9074792861938477,9.09990406036377,-0.12921242415905
1774658139323833600,8.25983349609375,3.775874137878418,8.69791030883789,0.41874396800994873
1774658139340622300,8.276622314453125,4.113262176513672,9.159725189208984,-0.3326023519039154
1774658139357411000,8.2934111328125,4.48414945602417,8.504091262817383,-0.09571290761232376
1774658139374199800,8.31019970703125,2.431107759475708,9.542576789855957,-0.06699903309345245
1774658139390988500,8.326988525390625,5.13021183013916,8.396414756774902,-0.10049854964017868
1774658139407779600,8.343779541015625,2.933600664138794,9.080761909484863,-0.27038896083831787
1774658139424565800,8.360565673828125,3.78544545173645,8.819944381713867,0
1774658139441354500,8.3773544921875,5.032105922698975,8.702695846557617,-0.15553347766399384
1774658139458143200,8.394143310546875,2.7972097396850586,9.497113227844238,-0.519242525100708
1774658139474931700,8.410931640625,2.912065267562866,8.975478172302246,0.5072783827781677
1774658139491720400,8.427720458984375,3.902693748474121,9.121439933776855,-0.4498506486415863
1774658139508509200,8.44450927734375,4.051048755645752,8.82951545715332,-0.17706887423992157
1774658139525298000,8.4612978515625,2.4095723628997803,9.784252166748047,0.01196411345154047
1774658139542086700,8.478086669921876,4.682754039764404,8.678768157958984,-0.09810572862625122
1774658139558875100,8.494875244140625,4.455435752868652,8.70508861541748,0.009571290574967861
1774658139575663900,8.511663818359375,2.8115665912628174,9.272188186645508,-0.2679961323738098
1774658139592452600,8.52845263671875,4.536791801452637,8.432307243347168,-0.760917603969574
1774658139609241300,8.545241455078125,2.4717857837677,9.600004196166992,0.02632104977965355
1774658139626029800,8.56202978515625,3.8907296657562256,8.657232284545898,-0.10767702013254166
1774658139642818600,8.578818603515625,3.6921253204345703,9.131011009216309,-0.1986042857170105
1774658139659607300,8.595607177734376,3.562912940979004,9.19561767578125,0.24885354936122894
1774658139676396000,8.61239599609375,4.34536600112915,8.922835350036621,-0.4666004180908203
1774658139693184500,8.6291845703125,3.108276605606079,9.32004451751709,0.06939185410737991
1774658139709973200,8.64597314453125,4.4410786628723145,8.784051895141602,-0.36610186100006104
1774658139726762000,8.662761962890626,3.9840497970581055,8.934800148010254,0.10049854964017868
1774658139743550700,8.67955078125,3.1513473987579346,9.315258979797363,-0.06939185410737991
1774658139760339200,8.696339111328125,4.4482574462890625,8.891729354858398,-0.27756741642951965
1774658139777128000,8.7131279296875,3.1561331748962402,9.284152030944824,-0.14117653667926788
1774658139793916700,8.729916748046875,3.720839262008667,9.214759826660156,-0.22013968229293823
1774658139810705400,8.746705322265624,4.398007869720459,8.848658561706543,-0.05503492057323456
1774658139827494100,8.763494140625,3.28773832321167,9.41336441040039,-0.04546362906694412
1774658139844282600,8.78028271484375,2.933600664138794,9.399007797241211,-0.18903298676013947
1774658139861071400,8.7970712890625,3.641875982284546,9.078369140625,-0.05742774158716202
1774658139877860000,8.813860107421876,4.474578380584717,8.62612533569336,-0.24646073579788208
1774658139894648800,8.83064892578125,3.933800458908081,9.068798065185547,-0.1698904037475586
1774658139911437600,8.8474375,3.366701364517212,9.090332984924316,0.10049854964017868
1774658139928226000,8.86422607421875,3.6394832134246826,9.205188751220703,-0.22492532432079315
1774658139945014800,8.881014892578126,5.402993679046631,8.396414756774902,-0.11964113265275955
1774658139961803500,8.897803466796875,2.280359983444214,9.7938232421875,-0.33738797903060913
1774658139978592300,8.91459228515625,2.912065267562866,9.714859962463379,0.2799602448940277
1774658139995380700,8.931380615234374,3.2231321334838867,9.949356079101562,-0.4953143000602722
1774658140012169500,8.94816943359375,4.910071849822998,8.920442581176758,0.19142581522464752
1774658140028958200,8.964958251953124,2.526820659637451,10.334601402282715,-0.20338992774486542
1774658140045747000,8.981746826171875,4.139583110809326,9.705288887023926,-0.064606212079525
1774658140062535400,8.998535400390624,3.6394832134246826,10.059426307678223,-0.10049854964017868
1774658140079324200,9.01532421875,3.7710886001586914,10.00439167022705,-0.26081767678260803
1774658140096113000,9.03211279296875,3.500699520111084,10.164710998535156,0.031106693670153618
1774658140112901600,9.048901611328125,3.9744784832000732,10.193424224853516,-0.1339980661869049
1774658140129690000,9.065690185546876,3.22552490234375,10.250852584838867,0.1339980661869049
1774658140146478800,9.082478759765625,5.843272686004639,9.430113792419434,-0.22971096634864807
1774658140163267600,9.099267578125,6.668796539306641,8.934800148010254,-0.17706887423992157
1774658140180056300,9.116056396484375,6.017949104309082,9.22433090209961,-0.15074782073497772
1774658140196844800,9.1328447265625,5.288137912750244,10.104889869689941,-0.0526420995593071
1774658140213633500,9.149633544921874,4.42193603515625,9.710074424743652,-0.062213387340307236
1774658140230422300,9.16642236328125,2.8689942359924316,10.305887222290039,-0.15074782073497772
1774658140247211000,9.1832109375,2.682354211807251,10.255638122558594,0.05024927482008934
1774658140263999500,9.19999951171875,3.5988051891326904,9.640682220458984,-0.28235307335853577
1774658140280788200,9.216788330078124,4.074976921081543,9.33440113067627,-0.2799602448940277
1774658140297577000,9.233576904296875,4.555934429168701,9.044869422912598,-0.3565305769443512
1774658140314365700,9.25036572265625,4.271188259124756,8.965906143188477,-0.23210379481315613
1774658140331154400,9.267154541015625,4.235296249389648,8.719446182250977,-0.27756741642951965
1774658140347943000,9.28394287109375,4.5583271980285645,8.595019340515137,-0.20099709928035736
1774658140364731600,9.300731689453125,3.895515203475952,8.410771369934082,-0.2727817893028259
1774658140381520400,9.317520263671875,4.855037212371826,7.850851058959961,-0.1698904037475586
1774658140398309000,9.33430908203125,4.1491546630859375,7.542177200317383,0.03349951654672623
1774658140415097600,9.35109765625,2.3401806354522705,8.468199729919434,-0.33499518036842346
1774658140431886300,9.36788623046875,4.405186653137207,6.850651264190674,-0.0023928226437419653
1774658140448675000,9.384675048828125,4.66361141204834,6.051448345184326,-0.08135596662759781
1774658140465463800,9.4014638671875,5.020142078399658,6.489335060119629,-0.3445664644241333
1774658140482252500,9.41825244140625,4.744967460632324,6.135197162628174,0.031106693670153618
1774658140499041000,9.435041015625,5.338387489318848,5.867201328277588,-0.2799602448940277
1774658140515829800,9.451829833984375,5.185246467590332,6.008377552032471,-0.24406790733337402
1774658140532618500,9.468618408203126,4.185046672821045,6.463014125823975,-0.16510476171970367
1774658140549407200,9.4854072265625,5.419743061065674,6.3529438972473145,-0.33020952343940735
1774658140566195700,9.50219580078125,6.305087566375732,5.965306758880615,-0.03349951654672623
1774658140582984400,9.518984375,7.013363361358643,6.16391134262085,-0.39960137009620667
1774658140599773200,9.535773193359375,6.544369697570801,6.530013084411621,-0.014356935396790504
1774658140616562000,9.55256201171875,6.546762943267822,6.821937561035156,-0.4737788736820221
1774658140633350700,9.5693505859375,7.020541667938232,6.7692952156066895,-0.019142581149935722
1774658140650139400,9.586139404296874,7.032505512237549,6.927221775054932,-0.4019941985607147
1774658140666927900,9.602927978515625,7.219145774841309,6.8482584953308105,-0.30628129839897156
1774658140683716600,9.619716552734374,7.786244869232178,6.508477687835693,-0.3278166949748993
1774658140700505300,9.63650537109375,14.672788619995117,1.919043779373169,-1.2658032178878784
1774658140717294000,9.653294189453124,11.37069320678711,6.137589931488037,1.2993026971817017
1774658140734082800,9.670082763671875,8.023134231567383,6.939185619354248,-2.794816732406616
1774658140750871300,9.686871337890626,3.0891339778900146,7.1234331130981445,0.7082754969596863
1774658140767660000,9.703659912109375,12.373286247253418,4.204189300537109,0.3397808074951172
1774658140784448800,9.72044873046875,6.766902446746826,6.7070817947387695,-1.5553346872329712
1774658140801237500,9.737237548828125,7.4464640617370605,5.453242778778076,1.0408778190612793
1774658140818026200,9.754026123046875,6.51326322555542,6.364908218383789,-0.9978070259094238
1774658140834814700,9.770814697265624,9.133403778076172,5.237888813018799,-0.07417750358581543
1774658140851603500,9.787603515625,6.960721015930176,6.008377552032471,-0.0023928226437419653
1774658140868392200,9.80439208984375,7.250252723693848,6.10169792175293,-0.5982056856155396
1774658140885181000,9.821180908203125,8.58784008026123,5.520241737365723,0.2584248483181
1774658140901969700,9.8379697265625,5.407779216766357,7.032505512237549,-0.4498506486415863
1774658140918758100,9.854758056640625,8.898907661437988,5.412564754486084,-0.4618147611618042
1774658140935547000,9.871546875,7.295716285705566,6.269195556640625,-0.28235307335853577
1774658140952335600,9.888335693359375,8.496912956237793,5.840879917144775,-0.44027936458587646
1774658140969124400,9.905124267578126,7.781459331512451,6.16391134262085,-0.11964113265275955
1774658140985913000,9.9219130859375,8.13798999786377,6.013163089752197,-0.6173482537269592
1774658141002701600,9.93870166015625,7.611568927764893,6.209374904632568,-0.02871387079358101
1774658141019490300,9.955490234375,7.858029365539551,6.235695838928223,-0.5359922647476196
1774658141036279000,9.972279052734375,7.712067604064941,6.25723123550415,-0.2225325107574463
1774658141053067800,9.98906787109375,7.812565803527832,6.089733600616455,-0.3086741268634796
1774658141069856500,10.0058564453125,7.341179847717285,6.199803352355957,-0.1818545162677765
1774658141086645000,10.02264501953125,7.429714202880859,6.159125328063965,-0.13160525262355804
1774658141103433700,10.039433837890625,7.817351341247559,5.862415313720703,-0.26560330390930176
1774658141120222500,10.056222412109374,7.527820110321045,5.910272121429443,-0.23449662327766418
1774658141137011200,10.07301123046875,7.628318786621094,5.886343479156494,-0.30628129839897156
1774658141153800000,10.089800048828126,7.542177200317383,5.9437713623046875,-0.24646073579788208
1774658141170588400,10.10658837890625,7.597211837768555,6.0610198974609375,-0.33499518036842346
1774658141187377200,10.123377197265626,7.774280548095703,6.096911907196045,-0.3397808074951172
1774658141204166000,10.140165771484375,7.302894592285156,6.367300987243652,-0.3565305769443512
1774658141220954600,10.15695458984375,7.992027759552002,6.135197162628174,-0.3732803463935852
1774658141237743400,10.173743408203125,8.970691680908203,5.776273727416992,-0.3278166949748993
1774658141254532000,10.190531982421875,6.960721015930176,6.573083877563477,-0.2679961323738098
1774658141271320600,10.207320556640624,8.104490280151367,6.0610198974609375,-0.23688943684101105
1774658141288109300,10.224109375,7.642675399780273,6.183053493499756,-0.20817556977272034
1774658141304898000,10.24089794921875,7.999206066131592,5.979663848876953,-0.2225325107574463
1774658141321686800,10.257686767578125,7.04207706451416,6.305087566375732,-0.07896314561367035
1774658141338475500,10.2744755859375,7.444071292877197,5.996413707733154,-0.33499518036842346
1774658141355264000,10.291263916015625,7.939385414123535,5.7858452796936035,-0.2847459018230438
1774658141372052700,10.308052734375,7.3675007820129395,6.025127410888672,-0.4139583110809326
1774658141388841500,10.324841552734375,7.752745151519775,5.8097734451293945,-0.3278166949748993
1774658141405630200,10.341630126953126,7.267002582550049,6.1088762283325195,-0.380458801984787
1774658141422418700,10.358418701171875,7.733603000640869,5.7858452796936035,-0.3206382393836975
1774658141439207400,10.37520751953125,7.537391185760498,5.826523303985596,-0.3206382393836975
1774658141455996200,10.39199609375,7.310073375701904,5.84566593170166,-0.21296121180057526
1774658141472785000,10.408784912109375,7.496713161468506,5.67338228225708,-0.30149564146995544
1774658141489573600,10.42557373046875,6.884150981903076,5.568098068237305,-0.13639089465141296
1774658141506362400,10.4423623046875,7.0683979988098145,5.419743061065674,-0.29431718587875366
1774658141523150800,10.45915087890625,6.747759819030762,5.426921844482422,-0.12921242415905
1774658141539939600,10.475939697265625,7.211967468261719,5.120640277862549,-0.39960137009620667
1774658141556728300,10.492728271484374,6.654439926147461,5.300102233886719,-0.24885354936122894
1774658141573517000,10.50951708984375,6.893722057342529,5.065605640411377,-0.1986042857170105
1774658141590305800,10.526305908203126,6.7932233810424805,5.20678186416626,-0.09092725813388824
1774658141607094300,10.54309423828125,6.6592254638671875,5.103890895843506,-0.23449662327766418
1774658141623883000,10.559883056640626,6.92482852935791,5.381458282470703,-0.40677985548973083
1774658141640671700,10.576671630859375,6.86261510848999,5.484349727630615,-0.28235307335853577
1774658141657460500,10.59346044921875,7.001399040222168,5.769095420837402,-0.5647061467170715
1774658141674249000,10.6102490234375,7.841279983520508,5.515456199645996,-0.46899324655532837
1774658141691037700,10.62703759765625,7.16650390625,5.735595703125,0.05024927482008934
1774658141707826400,10.643826416015624,7.759923934936523,5.788238048553467,-0.21296121180057526
1774658141724615200,10.660615234375,7.841279983520508,5.8337016105651855,-0.3445664644241333
1774658141741404000,10.67740380859375,5.927021503448486,6.63769006729126,-0.5599204897880554
1774658141758192400,10.6941923828125,7.891529083251953,5.575276851654053,-0.4977070987224579
1774658141774981000,10.710981201171874,7.712067604064941,5.606383323669434,-0.7202396392822266
1774658141791769900,10.727769775390625,6.876972198486328,5.520241737365723,-0.14117653667926788
1774658141808558600,10.74455859375,6.3122663497924805,5.4795637130737305,-0.42831525206565857
1774658141825347300,10.761347412109375,7.200003147125244,5.517848968505859,-0.12921242415905
1774658141842135800,10.7781357421875,7.616354465484619,6.075376510620117,-0.45942193269729614
1774658141858924500,10.794924560546875,7.802994728088379,5.498706340789795,-1.0648061037063599
1774658141875713300,10.81171337890625,7.779066562652588,5.874379634857178,0.10767702013254166
1774658141892502000,10.828501953125,8.001599311828613,6.16391134262085,-0.45942193269729614
1774658141909290800,10.845290771484375,8.80798053741455,5.91505765914917,-0.035892341285943985
1774658141926079200,10.862079345703124,6.884150981903076,6.57547664642334,0.02632104977965355
1774658141942868000,10.878867919921875,7.140182971954346,6.0777692794799805,-0.13639089465141296
1774658141959656700,10.89565673828125,7.872386455535889,6.594619274139404,-0.15314064919948578
1774658141976445400,10.912445556640625,7.6474609375,6.338587284088135,-0.6963114142417908
1774658141993234200,10.929234130859374,7.788637638092041,6.376872539520264,-0.3086741268634796
1774658142010022700,10.946022705078125,7.599604606628418,5.946164131164551,-0.24885354936122894
1774658142026811400,10.962811279296876,8.422736167907715,6.252445697784424,-0.33738797903060913
1774658142043600100,10.97960009765625,7.910671710968018,6.144768714904785,-0.2584248483181
1774658142060388900,10.996388916015626,7.822137355804443,5.886343479156494,-0.11964113265275955
1774658142077177300,11.01317724609375,7.82692289352417,6.254838466644287,-0.5096712112426758
1774658142093966000,11.029966064453125,8.283951759338379,6.56829833984375,-0.3278166949748993
1774658142110754800,11.0467548828125,8.34138011932373,6.278766632080078,-0.5886343717575073
1774658142127543600,11.06354345703125,6.814758777618408,6.269195556640625,-0.03349951654672623
1774658142144332000,11.08033203125,8.02791976928711,5.9676995277404785,-0.5072783827781677
1774658142161120800,11.097120849609375,7.348358154296875,6.149554252624512,0.04546362906694412
1774658142177909500,11.113909423828124,7.518248558044434,6.400800704956055,-0.45224347710609436
1774658142194698200,11.1306982421875,7.482356548309326,5.960521221160889,0.05742774158716202
1774658142211487000,11.147487060546876,7.582854747772217,6.290730953216553,-0.5096712112426758
1774658142228275500,11.164275390625,7.987242221832275,6.10169792175293,-0.20099709928035736
1774658142245064200,11.181064208984376,8.094919204711914,6.276373863220215,-0.3565305769443512
1774658142261853000,11.19785302734375,7.774280548095703,5.874379634857178,-0.009571290574967861
1774658142278641700,11.2146416015625,7.841279983520508,6.235695838928223,-0.23688943684101105
1774658142295430100,11.23143017578125,7.427321434020996,6.161518096923828,-0.08374879509210587
1774658142312219000,11.248218994140625,7.999206066131592,6.345765590667725,-0.4378865361213684
1774658142329007600,11.265007568359374,7.3986077308654785,6.357729911804199,-0.4211367964744568
1774658142345796400,11.28179638671875,8.128418922424316,6.429514408111572,-0.6221339106559753
1774658142362585000,11.298585205078124,7.628318786621094,6.269195556640625,-0.19381862878799438
1774658142379373600,11.31537353515625,7.877171993255615,6.192625045776367,-0.1459621787071228
1774658142396162300,11.332162353515624,7.901100158691406,6.058627128601074,0.24167509377002716
1774658142412951000,11.348950927734375,8.135597229003906,6.563512325286865,-0.2871387302875519
1774658142429739800,11.36573974609375,7.1234331130981445,6.001199245452881,-0.7250252366065979
1774658142446528300,11.3825283203125,8.346165657043457,5.78345251083374,0.18424734473228455
1774658142463317000,11.39931689453125,8.228917121887207,6.714260101318359,-0.7106683254241943
1774658142480105700,11.416105712890625,7.735995769500732,5.883950710296631,0.019142581149935722
1774658142496894500,11.43289453125,8.003992080688477,6.515655994415283,-0.3158525824546814
1774658142513683200,11.44968310546875,7.623532772064209,6.441478729248047,-0.0933200865983963
1774658142530471700,11.4664716796875,7.989634990692139,6.367300987243652,-0.40677985548973083
1774658142547260400,11.483260498046874,7.700103282928467,6.185446739196777,-0.5431707501411438
1774658142564049200,11.500049072265625,7.590033531188965,6.4701924324035645,-0.064606212079525
1774658142580838000,11.516837890625,8.042277336120605,6.39601469039917,-0.3278166949748993
1774658142597626400,11.53362646484375,7.910671710968018,6.178267955780029,-0.02632104977965355
1774658142614415000,11.5504150390625,7.707281589508057,6.113661766052246,-0.09810572862625122
1774658142631203800,11.567203857421875,8.001599311828613,6.343372821807861,-0.26081767678260803
1774658142647992600,11.58399267578125,7.7216386795043945,6.240481376647949,-0.27038896083831787
1774658142664781000,11.600781005859375,8.171489715576172,6.228517532348633,-0.3206382393836975
1774658142681569800,11.61756982421875,7.558926582336426,6.135197162628174,-0.17946170270442963
1774658142698358500,11.634358642578125,7.786244869232178,6.226124286651611,-0.44027936458587646
1774658142715147300,11.651147216796875,7.57806921005249,6.427121639251709,-0.3158525824546814
1774658142731935700,11.667935791015625,7.927421569824219,6.056233882904053,-0.24646073579788208
1774658142748724500,11.684724365234375,7.322037220001221,5.816951751708984,-0.5120640397071838
1774658142765513200,11.70151318359375,7.858029365539551,6.149554252624512,-0.1986042857170105
1774658142782302000,11.718302001953125,7.970492362976074,6.226124286651611,-0.2847459018230438
1774658142799090700,11.735090576171874,7.800601959228516,6.276373863220215,-0.10049854964017868
1774658142815879200,11.751879150390625,8.061419486999512,6.3122663497924805,-0.13878370821475983
1774658142832668000,11.76866796875,7.585247993469238,6.38883638381958,-0.20338992774486542
1774658142849456600,11.78545654296875,7.568498134613037,6.092126369476318,-0.2273181527853012
1774658142866245400,11.802245361328126,7.95134973526001,6.276373863220215,-0.31106695532798767
1774658142883033900,11.819033935546875,7.470392227172852,6.4079790115356445,-0.2919243574142456
1774658142899822600,11.835822509765626,7.944170951843262,6.290730953216553,-0.37806597352027893
1774658142916611300,11.852611328125,7.767102241516113,6.082555294036865,-0.3517449200153351
1774658142933400000,11.869400146484375,7.8388872146606445,6.2428741455078125,-0.2919243574142456
1774658142950188500,11.8861884765625,8.025527000427246,6.147161483764648,-0.2871387302875519
1774658142966977300,11.902977294921875,7.683353424072266,6.001199245452881,-0.19381862878799438
1774658142983766000,11.91976611328125,7.554141044616699,6.269195556640625,-0.3278166949748993
1774658143000554800,11.9365546875,7.793423175811768,6.070590972900391,-0.2512463629245758
1774658143017343200,11.95334326171875,7.8317084312438965,6.309873104095459,-0.059820566326379776
1774658143034132000,11.970132080078125,7.451249599456787,6.254838466644287,-0.07417750358581543
1774658143050920700,11.986920654296876,7.800601959228516,5.962913990020752,-0.34217363595962524
1774658143067709400,12.00370947265625,7.6474609375,6.31944465637207,-0.275174617767334
1774658143084498000,12.020497802734376,7.64028263092041,6.082555294036865,-0.18903298676013947
1774658143101286700,12.03728662109375,7.726424217224121,6.070590972900391,-0.2273181527853012
1774658143118075400,12.054075439453126,7.8819580078125,6.419943332672119,-0.3038884699344635
1774658143134864100,12.070864013671875,7.903493404388428,6.156732559204102,-0.23688943684101105
1774658143151652600,12.087652587890625,7.992027759552002,6.348158359527588,-0.3565305769443512
1774658143168441300,12.10444140625,7.664210796356201,6.149554252624512,-0.38763725757598877
1774658143185230000,12.12122998046875,7.817351341247559,6.281159400939941,-0.4450650215148926
1774658143202018800,12.138018798828124,7.6474609375,6.168696880340576,-0.23449662327766418
1774658143218807300,12.154807373046875,7.76470947265625,6.259624004364014,-0.1866401731967926
1774658143235596000,12.171595947265626,7.712067604064941,6.197410583496094,-0.2727817893028259
1774658143252384800,12.188384765625,7.898707389831543,6.252445697784424,-0.3445664644241333
1774658143269173500,12.205173583984376,7.618747234344482,6.290730953216553,-0.2153540402650833
1774658143285962200,12.221962158203125,7.941778182983398,6.2189459800720215,-0.2273181527853012
1774658143302750700,12.238750732421876,7.69531774520874,6.403193473815918,-0.12203395366668701
1774658143319539500,12.25553955078125,7.877171993255615,6.259624004364014,-0.397208571434021
1774658143336328200,12.272328125,7.781459331512451,6.31944465637207,-0.3086741268634796
1774658143353117000,12.289116943359375,7.939385414123535,6.350551128387451,-0.28953152894973755
1774658143369905400,12.305905517578125,7.932207107543945,6.3840508460998535,-0.19621145725250244
1774658143386694100,12.322694091796874,8.09252643585205,6.45822811126709,-0.2919243574142456
1774658143403483000,12.33948291015625,7.946564197540283,6.403193473815918,-0.25363919138908386
1774658143420271600,12.356271728515624,7.77188777923584,6.340980052947998,-0.3086741268634796
1774658143437060400,12.373060302734375,7.850851058959961,6.338587284088135,-0.2727817893028259
1774658143453849000,12.38984912109375,7.800601959228516,6.273981094360352,-0.23449662327766418
1774658143470637600,12.406637451171875,7.625925540924072,6.3601226806640625,-0.1818545162677765
1774658143487426300,12.42342626953125,7.953742504119873,6.221338748931885,-0.3445664644241333
1774658143504215000,12.440215087890625,7.6474609375,6.288337707519531,-0.2632105052471161
1774658143521003800,12.457003662109376,7.908278942108154,6.2189459800720215,-0.2799602448940277
1774658143537792500,12.47379248046875,8.032705307006836,6.211767673492432,-0.2967100143432617
1774658143554581000,12.4905810546875,7.8819580078125,6.4319071769714355,-0.22013968229293823
1774658143571369700,12.50736962890625,7.960920810699463,6.329015731811523,-0.4043870270252228
1774658143588158500,12.524158447265625,7.848458290100098,6.348158359527588,-0.26560330390930176
1774658143604947200,12.540947265625,7.8077802658081055,6.393621921539307,-0.3086741268634796
1774658143621735700,12.557735595703125,7.824530124664307,6.501298904418945,-0.1339980661869049
1774658143638524400,12.5745244140625,8.085348129272461,6.441478729248047,-0.32303106784820557
1774658143655313200,12.591313232421875,7.867600917816162,6.532405853271484,-0.18903298676013947
1774658143672102000,12.608101806640626,8.047062873840332,6.498906135559082,-0.21296121180057526
1774658143688890600,12.624890625,8.429914474487305,6.455835342407227,-0.31345975399017334
1774658143705679000,12.64167919921875,8.054241180419922,6.565905570983887,-0.275174617767334
1774658143722467800,12.6584677734375,8.161917686462402,6.64486837387085,-0.3158525824546814
1774658143739256600,12.675256591796876,8.360522270202637,6.766902446746826,-0.2991028428077698
1774658143756045300,12.69204541015625,8.166703224182129,6.927221775054932,-0.24406790733337402
1774658143772834000,12.708833984375,8.427521705627441,6.948757171630859,-0.2967100143432617
1774658143789622500,12.72562255859375,8.484949111938477,6.86261510848999,-0.2967100143432617
1774658143806411300,12.742411376953125,8.535198211669922,7.010970115661621,-0.31824541091918945
1774658143823200000,12.759199951171874,8.60459041595459,7.025327205657959,-0.35413774847984314
1774658143839988700,12.77598876953125,8.638090133666992,6.8004021644592285,-0.28953152894973755
1774658143856777500,12.792777587890624,8.537590980529785,7.032505512237549,-0.24167509377002716
1774658143873566000,12.80956591796875,8.575876235961914,6.8004021644592285,-0.2392822653055191
1774658143890354700,12.826354736328126,8.425128936767578,6.446264266967773,-0.3684946894645691
1774658143907143400,12.843143310546875,8.46580696105957,7.109076023101807,-0.3684946894645691
1774658143923932200,12.85993212890625,8.50169849395752,6.967899322509766,-0.1746760457754135
1774658143940721000,12.876720947265625,8.50169849395752,6.903293132781982,-0.28953152894973755
1774658143957509400,12.89350927734375,8.274380683898926,6.867401123046875,-0.22492532432079315
1774658143974298000,12.910298095703125,8.846264839172363,7.231110095977783,-0.06939185410737991
1774658143991086800,12.9270869140625,8.391629219055176,6.865008354187012,-0.20578274130821228
1774658144007875600,12.94387548828125,8.422736167907715,7.276573657989502,-0.2584248483181
1774658144024664000,12.9606640625,8.4562349319458,6.577869415283203,-0.44027936458587646
1774658144041452800,12.977452880859374,8.841479301452637,7.0061845779418945,-0.5407779216766357
1774658144058241500,12.994241455078125,7.800601959228516,6.556334018707275,-0.31345975399017334
1774658144075030300,13.0110302734375,8.673981666564941,6.508477687835693,-0.33738797903060913
1774658144091819000,13.027819091796875,7.76470947265625,6.489335060119629,-0.29431718587875366
1774658144108607500,13.044607421875,8.492127418518066,6.829115867614746,-0.13639089465141296
1774658144125396200,13.061396240234375,8.288737297058105,6.400800704956055,-0.33738797903060913
1774658144142185000,13.07818505859375,7.901100158691406,6.4510498046875,-0.19621145725250244
1774658144158973700,13.0949736328125,8.236095428466797,6.632904529571533,-0.1746760457754135
1774658144175762400,13.111762451171876,8.496912956237793,6.7692952156066895,-0.41156548261642456
1774658144192551000,13.128551025390625,8.422736167907715,6.8482584953308105,-0.23688943684101105
1774658144209339600,13.145339599609375,7.716853141784668,6.3840508460998535,-0.22492532432079315
1774658144226128400,13.16212841796875,8.135597229003906,6.482156753540039,-0.48095735907554626
1774658144242917000,13.178917236328125,8.61894702911377,6.719046115875244,-0.47617170214653015
1774658144259705900,13.195705810546874,8.396414756774902,6.38883638381958,-0.19381862878799438
1774658144276494300,13.212494384765625,7.956135272979736,6.63769006729126,-0.016749758273363113
1774658144293283000,13.229282958984374,8.37009334564209,6.570691108703613,-0.24406790733337402
1774658144310071800,13.24607177734375,8.200202941894531,6.812366008758545,-0.14117653667926788
1774658144326860500,13.262860595703126,7.963313579559326,6.317051887512207,-0.15074782073497772
1774658144343649000,13.27964892578125,7.884350776672363,6.687939167022705,-0.14835500717163086
1774658144360437800,13.296437744140626,7.597211837768555,6.5419769287109375,-0.2991028428077698
1774658144377226500,13.3132265625,8.523234367370605,5.458028316497803,-0.26560330390930176
1774658144394015200,13.33001513671875,6.8171515464782715,6.783652305603027,-0.10049854964017868
1774658144410804000,13.346803955078125,8.50169849395752,6.293123722076416,-0.06939185410737991
1774658144427592400,13.363592529296875,7.932207107543945,6.022734642028809,-0.31824541091918945
1774658144444381200,13.380381103515624,7.156932353973389,5.879165172576904,0.22971096634864807
1774658144461170000,13.397169921875,8.202595710754395,5.742774486541748,-0.4618147611618042
1774658144477958700,13.413958740234374,7.389036178588867,5.9198431968688965,-0.29431718587875366
1774658144494747100,13.4307470703125,7.506284713745117,5.735595703125,-0.576670229434967
1774658144511535900,13.447535888671876,7.554141044616699,5.965306758880615,-0.6029912829399109
1774658144528324600,13.46432470703125,7.384250640869141,5.905486106872559,-0.26081767678260803
1774658144545113300,13.48111328125,6.798008918762207,5.635097503662109,-0.36610186100006104
1774658144561902000,13.497902099609375,6.874579429626465,5.694917678833008,-0.1579262912273407
1774658144578690600,13.514690673828126,7.226324558258057,5.536991596221924,-0.380458801984787
1774658144595479300,13.531479248046875,6.764509677886963,5.163711071014404,0.0023928226437419653
1774658144612268000,13.54826806640625,6.1710896492004395,5.034498691558838,-0.4570291340351105
1774658144629056800,13.565056884765625,6.4701924324035645,4.5391845703125,-0.20338992774486542
1774658144645845200,13.58184521484375,6.26440954208374,4.457828521728516,-0.3565305769443512
1774658144662634000,13.598634033203124,6.173482418060303,4.225724697113037,0.038285162299871445
1774658144679422700,13.615422607421875,5.529813289642334,3.6610186100006104,0.19381862878799438
1774658144696211500,13.63221142578125,5.355136871337891,4.333401679992676,-0.20578274130821228
1774658144713000000,13.649,5.635097503662109,3.8213376998901367,-0.02392822690308094
1774658144729788700,13.66578857421875,5.015356063842773,4.319045066833496,-0.5623133182525635
1774658144746577400,13.682577392578125,5.675775527954102,4.278367042541504,-0.29431718587875366
1774658144763366100,13.6993662109375,5.807380676269531,3.9122650623321533,-0.2273181527853012
1774658144780154600,13.716154541015625,5.848058700561523,4.208974838256836,-0.20578274130821228
1774658144796943400,13.732943359375,5.955735683441162,4.632504463195801,-0.24406790733337402
1774658144813732000,13.749732177734375,5.800201892852783,5.302495002746582,-0.275174617767334
1774658144830520800,13.766520751953125,7.192824840545654,4.974678039550781,-0.26081767678260803
1774658144847309300,13.783309326171874,7.386643409729004,5.340780258178711,-0.2799602448940277
1774658144864098300,13.800098388671875,7.941778182983398,5.517848968505859,-0.22013968229293823
1774658144880886800,13.81688671875,7.898707389831543,6.075376510620117,-0.15553347766399384
1774658144897675500,13.833675537109375,7.850851058959961,6.463014125823975,-0.2991028428077698
1774658144914464300,13.85046435546875,7.719245910644531,6.994220733642578,-0.14356936514377594
1774658144931252700,13.867252685546875,8.492127418518066,6.898507595062256,-0.5575276613235474
1774658144948041500,13.88404150390625,8.927620887756348,6.570691108703613,-0.30628129839897156
1774658144964830200,13.900830322265625,8.15234661102295,6.8865437507629395,-0.380458801984787
1774658144981619000,13.917618896484376,8.4562349319458,6.441478729248047,-0.007178467698395252
1774658144998407700,13.93440771484375,8.415556907653809,6.38883638381958,-0.4570291340351105
1774658145015196200,13.951196044921875,7.88913631439209,6.300302028656006,-0.1698904037475586
1774658145031985000,13.96798486328125,7.987242221832275,6.096911907196045,-0.5814558863639832
1774658145048773600,13.984773681640625,8.044670104980469,5.800201892852783,-0.39960137009620667
1774658145065562400,14.001562255859374,7.29093074798584,5.857629776000977,-0.30628129839897156
1774658145082350800,14.018350830078125,7.389036178588867,5.532206058502197,-0.16271193325519562
1774658145099139600,14.0351396484375,7.121040344238281,5.271388053894043,-0.20338992774486542
1774658145115928300,14.05192822265625,6.410371780395508,5.3934221267700195,-0.2560320198535919
1774658145132717000,14.068717041015624,6.687939167022705,4.828716278076172,-0.30149564146995544
1774658145149505500,14.085505615234375,6.3840508460998535,4.756931304931641,-0.18424734473228455
1774658145166294300,14.102294189453126,6.068198204040527,4.6540398597717285,-0.12681959569454193
1774658145183083000,14.1190830078125,5.795416355133057,4.412364959716797,0.0023928226437419653
1774658145199871500,14.13587158203125,5.757131099700928,4.689932346343994,-0.32542386651039124
1774658145216660200,14.15266015625,6.876972198486328,3.8835511207580566,-0.07657032459974289
1774658145233449000,14.169448974609375,5.828916072845459,4.462614059448242,-0.10767702013254166
1774658145250237700,14.18623779296875,6.302694797515869,4.505684852600098,-0.5335994362831116
1774658145267026400,14.2030263671875,6.065805435180664,4.395615100860596,-0.17946170270442963
1774658145283815000,14.21981494140625,6.3529438972473145,4.651647090911865,0.1818545162677765
1774658145300603600,14.236603759765625,6.278766632080078,5.168497085571289,-0.42352959513664246
1774658145317392400,14.253392333984374,5.986842155456543,5.383851051330566,-0.519242525100708
1774658145334180900,14.270180908203125,6.647261142730713,5.357530117034912,0.1698904037475586
1774658145350969600,14.286969482421876,6.7070817947387695,5.419743061065674,-0.40677985548973083
1774658145367758300,14.30375830078125,7.211967468261719,6.130411624908447,0.06699903309345245
1774658145384547000,14.320547119140626,7.317251682281494,5.391029357910156,-0.31345975399017334
1774658145401335600,14.33733544921875,7.216753005981445,5.7858452796936035,-0.31106695532798767
1774658145418124300,14.354124267578126,7.874779224395752,5.663811206817627,-0.5647061467170715
1774658145434913000,14.3709130859375,7.561319351196289,5.8959150314331055,-0.519242525100708
1774658145451701800,14.38770166015625,8.164310455322266,5.938985824584961,0.09810572862625122
1774658145468490200,14.404490234375,7.657032489776611,6.065805435180664,0.02392822690308094
1774658145485279000,14.421279052734375,7.6977105140686035,6.329015731811523,-0.42831525206565857
1774658145502067700,14.438067626953124,7.542177200317383,6.4701924324035645,-0.5096712112426758
1774658145518856400,14.4548564453125,7.659425258636475,6.398407936096191,-0.2153540402650833
1774658145535645000,14.47164501953125,7.7216386795043945,6.302694797515869,-0.5886343717575073
1774658145552433700,14.48843359375,8.34855842590332,6.537191390991211,-0.6795616149902344
1774658145569222400,14.505222412109376,7.668996810913086,6.553941249847412,0.13878370821475983
1774658145586011100,14.52201123046875,8.2695951461792,6.221338748931885,-0.15314064919948578
1774658145602799600,14.538799560546876,7.044469833374023,5.998806476593018,0.016749758273363113
1774658145619588400,14.55558837890625,9.164510726928711,6.558726787567139,-0.5359922647476196
1774658145636377000,14.572377197265626,8.410771369934082,6.302694797515869,-0.11246266216039658
1774658145653165600,14.58916552734375,8.104490280151367,6.183053493499756,-0.33499518036842346
1774658145669954300,14.605954345703125,8.413164138793945,6.654439926147461,-0.380458801984787
1774658145686743000,14.622742919921874,8.157132148742676,6.809973239898682,0.34695929288864136
1774658145703531800,14.63953173828125,8.128418922424316,6.776473522186279,-0.5575276613235474
1774658145720320300,14.6563203125,8.207381248474121,6.771687984466553,-0.04307080805301666
1774658145737109000,14.67310888671875,7.946564197540283,6.565905570983887,-0.48574298620224
1774658145753897700,14.689897705078126,8.927620887756348,6.690331935882568,-0.2799602448940277
1774658145770686500,14.7066865234375,8.171489715576172,6.831508636474609,-0.46899324655532837
1774658145787475000,14.723474853515626,8.551948547363281,6.295516490936279,-0.3565305769443512
1774658145804263700,14.740263671875,7.738388538360596,6.577869415283203,-0.02871387079358101
1774658145821052400,14.757052490234376,8.776873588562012,6.853044033050537,-0.38763725757598877
1774658145837841200,14.773841064453125,8.264809608459473,6.7070817947387695,-0.11485548317432404
1774658145854629600,14.790629638671875,7.848458290100098,6.44387149810791,-0.4546363055706024
1774658145871418400,14.80741845703125,8.336593627929688,6.63051176071167,-0.33738797903060913
1774658145888207000,14.82420703125,8.3629150390625,6.790830612182617,-0.10289137065410614
1774658145904995600,14.84099560546875,8.394021987915039,6.721438884735107,-0.32542386651039124
1774658145921784300,14.857784423828125,7.975277900695801,6.477370738983154,-0.35892340540885925
1774658145938573000,14.874572998046874,7.989634990692139,6.283552169799805,-0.37088751792907715
1774658145955361800,14.89136181640625,8.171489715576172,6.262016773223877,-0.27756741642951965
1774658145972150300,14.908150390625,8.164310455322266,6.269195556640625,-0.24167509377002716
1774658145988939000,14.92493896484375,8.111668586730957,6.419943332672119,-0.275174617767334
1774658146005727700,14.941727783203126,8.080561637878418,6.273981094360352,-0.27038896083831787
1774658146022516500,14.9585166015625,8.073383331298828,6.625725746154785,-0.22013968229293823
1774658146039305000,14.975304931640625,8.157132148742676,6.530013084411621,-0.31345975399017334
1774658146056093700,14.99209375,7.688138961791992,6.314659118652344,-0.23449662327766418
1774658146072882400,15.00888232421875,7.980063438415527,6.52044153213501,-0.2799602448940277
1774658146089671000,15.0256708984375,7.798209190368652,6.599404811859131,-0.08614161610603333
1774658146106459600,15.042459716796875,8.030312538146973,6.551548480987549,-0.31106695532798767
1774658146123248400,15.059248291015624,8.070990562438965,6.372086524963379,-0.009571290574967861
1774658146140036900,15.076036865234375,7.664210796356201,6.281159400939941,-0.363709032535553
1774658146156825600,15.09282568359375,8.537590980529785,6.50608491897583,-0.42352959513664246
1774658146173614300,15.1096142578125,8.307880401611328,6.5180487632751465,-0.3517449200153351
1774658146190403000,15.126403076171876,8.24566650390625,6.5491557121276855,-0.1866401731967926
1774658146207191600,15.143191650390625,8.161917686462402,6.5419769287109375,-0.20099709928035736
1774658146223980300,15.159980224609376,8.327022552490234,6.628118515014648,-0.4307080805301666
1774658146240769000,15.17676904296875,7.88913631439209,6.647261142730713,-0.15314064919948578
1774658146257557800,15.193557861328125,8.193024635314941,6.666403770446777,-0.42831525206565857
1774658146274346200,15.21034619140625,8.24566650390625,6.620940208435059,-0.19621145725250244
1774658146291135000,15.227135009765625,8.003992080688477,6.563512325286865,-0.19621145725250244
1774658146307923700,15.243923828125,7.9585280418396,6.597012042999268,-0.17228323221206665
1774658146324712200,15.260712158203125,8.398807525634766,6.527620315551758,-0.30628129839897156
1774658146341501000,15.2775009765625,8.111668586730957,6.690331935882568,-0.21296121180057526
1774658146358289700,15.29428955078125,8.372486114501953,6.7310099601745605,-0.1698904037475586
1774658146375078400,15.311078369140626,8.410771369934082,6.936792850494385,-0.25363919138908386
1774658146391867000,15.327866943359375,8.69791030883789,6.8482584953308105,-0.33499518036842346
1774658146408655600,15.344655517578126,8.315058708190918,7.168896675109863,-0.41156548261642456
1774658146425444400,15.3614443359375,8.391629219055176,7.164111137390137,-0.2679961323738098
1774658146442232800,15.37823291015625,8.630910873413086,7.1162543296813965,-0.32542386651039124
1774658146459021600,15.395021484375,8.903693199157715,6.91765022277832,-0.3326023519039154
1774658146475810300,15.411810302734375,8.551948547363281,7.015756130218506,-0.32542386651039124
1774658146492598800,15.428598876953124,8.824729919433594,7.04207706451416,-0.23688943684101105
1774658146509387500,15.445387451171875,8.889336585998535,7.013363361358643,-0.3852444589138031
1774658146526176300,15.46217626953125,8.673981666564941,7.245467185974121,-0.24646073579788208
1774658146542965000,15.478965087890625,8.767302513122559,6.991827964782715,-0.35892340540885925
1774658146559753500,15.49575341796875,8.401200294494629,7.140182971954346,-0.19142581522464752
1774658146576542200,15.512542236328125,8.889336585998535,7.460821151733398,-0.5216353535652161
1774658146593331000,15.5293310546875,8.877371788024902,6.8865437507629395,-0.26081767678260803
1774658146610119400,15.546119384765625,8.599804878234863,7.252645492553711,-0.6221339106559753
1774658146626908200,15.562908203125,8.532805442810059,7.056434154510498,-0.20099709928035736
1774658146643697000,15.57969677734375,8.915657043457031,6.915257453918457,-0.2991028428077698
1774658146660485600,15.596485595703125,8.312665939331055,6.948757171630859,-0.05742774158716202
1774658146677274000,15.613274169921874,9.131011009216309,6.920042991638184,-0.3038884699344635
1774658146694062800,15.630062744140625,8.228917121887207,6.640082836151123,-0.33738797903060913
1774658146710851600,15.6468515625,8.176275253295898,7.018148899078369,-0.17228323221206665
1774658146727640000,15.66364013671875,8.535198211669922,6.527620315551758,-0.48095735907554626
1774658146744428800,15.6804287109375,8.295916557312012,6.372086524963379,-0.3445664644241333
1774658146761217500,15.697217529296875,7.848458290100098,6.654439926147461,-0.3900300860404968
1774658146778006000,15.714006103515626,8.248059272766113,6.532405853271484,-0.4259224236011505
1774658146794794800,15.730794677734375,7.987242221832275,6.853044033050537,-0.1459621787071228
1774658146811583500,15.74758349609375,8.051848411560059,6.759724140167236,-0.1459621787071228
1774658146828372000,15.7643720703125,8.824729919433594,6.6592254638671875,-0.36610186100006104
1774658146845160700,15.78116064453125,8.3629150390625,6.7310099601745605,-0.09571290761232376
1774658146861949400,15.797949462890625,8.21695327758789,6.798008918762207,-0.23688943684101105
1774658146878738200,15.81473828125,8.484949111938477,6.7070817947387695,-0.3900300860404968
1774658146895526700,15.831526611328124,7.611568927764893,6.601797580718994,0.064606212079525
1774658146912315400,15.8483154296875,8.159524917602539,6.704689025878906,-0.21774685382843018
1774658146929104100,15.865104248046874,8.118846893310547,6.819544315338135,-0.12442677468061447
1774658146945892600,15.881892578125,8.169096946716309,6.771687984466553,-0.4163511395454407
1774658146962681300,15.898681396484376,7.898707389831543,6.1710896492004395,-0.24167509377002716
1774658146979470000,15.915469970703125,7.891529083251953,6.2500529289245605,-0.4307080805301666
1774658146996258800,15.9322587890625,7.850851058959961,6.522834300994873,-0.03349951654672623
1774658147013047300,15.94904736328125,7.946564197540283,6.16391134262085,-0.45942193269729614
1774658147029836000,15.9658359375,7.350750923156738,6.032305717468262,-0.05024927482008934
1774658147046624500,15.98262451171875,8.147561073303223,6.254838466644287,-0.31824541091918945
1774658147063413200,15.999413330078125,7.312466144561768,5.6925249099731445,-0.2847459018230438
1774658147080202000,16.016201904296874,7.010970115661621,5.879165172576904,-0.13160525262355804
1774658147096990700,16.03299072265625,7.204789161682129,5.867201328277588,-0.7202396392822266
1774658147113779200,16.049779296875,6.936792850494385,5.694917678833008,-0.08853443711996078
1774658147130568000,16.06656787109375,6.424728870391846,5.4867424964904785,-0.19381862878799438
1774658147147356700,16.083356689453126,6.692724704742432,5.340780258178711,-0.035892341285943985
1774658147164145200,16.100145263671877,6.314659118652344,5.295316696166992,-0.37088751792907715
1774658147180934000,16.116933837890624,6.553941249847412,4.945964336395264,-0.14117653667926788
1774658147197722600,16.13372265625,6.728617191314697,4.931607246398926,-0.34217363595962524
1774658147214511400,16.150511474609374,6.58265495300293,4.534399032592773,-0.5144568681716919
1774658147231299800,16.1672998046875,6.376872539520264,4.900500774383545,0.016749758273363113
1774658147248088600,16.184088623046875,6.26440954208374,4.54636287689209,-0.27038896083831787
1774658147264877300,16.200877197265626,6.63051176071167,4.522434711456299,0.031106693670153618
1774658147281665800,16.217665771484373,6.391229152679443,5.154139995574951,-0.5790630578994751
1774658147298454500,16.23445458984375,6.010770320892334,4.790431022644043,-0.349352091550827
1774658147315243300,16.2512431640625,5.924628734588623,4.350151538848877,-0.4043870270252228
1774658147332031700,16.26803173828125,6.685546398162842,5.31685209274292,-0.22971096634864807
1774658147348820500,16.284820556640625,6.089733600616455,4.7401814460754395,-0.05742774158716202
1774658147365609200,16.301609130859376,6.537191390991211,4.5200419425964355,-0.24167509377002716
1774658147382397700,16.318397705078127,6.125626087188721,4.4650068283081055,-0.2560320198535919
1774658147399186400,16.3351865234375,6.271588325500488,4.843072891235352,-0.26560330390930176
1774658147415975200,16.35197509765625,6.4319071769714355,4.646861553192139,-0.23449662327766418
1774658147432764000,16.368763916015624,6.427121639251709,4.862215518951416,-0.2847459018230438
1774658147449552400,16.385552490234375,6.4510498046875,4.88853645324707,-0.2225325107574463
1774658147466341000,16.402341064453125,6.64486837387085,5.077569484710693,-0.22971096634864807
1774658147483129900,16.4191298828125,6.417550563812256,5.38624382019043,-0.20578274130821228
1774658147499918600,16.435918701171875,7.4225358963012695,5.367101192474365,-0.27756741642951965
1774658147516707000,16.45270703125,6.941578388214111,5.7547383308410645,-0.32542386651039124
1774658147533495800,16.469495849609373,7.35314416885376,5.828916072845459,-0.33499518036842346
1774658147550284500,16.486284423828124,7.652246952056885,6.032305717468262,-0.28953152894973755
1774658147567073000,16.503072998046875,7.853243827819824,6.089733600616455,-0.37088751792907715
1774658147583861800,16.51986181640625,8.23848819732666,6.1950178146362305,-0.2584248483181
1774658147600650500,16.536650390625,8.240880966186523,6.333801746368408,-0.3206382393836975
1774658147617439200,16.553439208984376,8.061419486999512,6.656832695007324,-0.34695929288864136
1774658147634227700,16.570227783203126,8.09252643585205,6.580262184143066,-0.2799602448940277
1774658147651016400,16.587016357421874,8.499305725097656,6.489335060119629,-0.37806597352027893
1774658147667805200,16.60380517578125,8.204988479614258,6.666403770446777,-0.24646073579788208
1774658147684594000,16.620593994140624,8.042277336120605,6.597012042999268,-0.33499518036842346
1774658147701382400,16.63738232421875,8.047062873840332,6.434299945831299,-0.13878370821475983
1774658147718171100,16.654171142578125,7.791030406951904,6.262016773223877,-0.2632105052471161
1774658147734959900,16.6709599609375,7.805387496948242,6.013163089752197,-0.24167509377002716
1774658147751748400,16.687748291015627,7.408178806304932,6.022734642028809,-0.33738797903060913
1774658147768537000,16.704537109375,7.611568927764893,5.800201892852783,-0.22492532432079315
1774658147785325800,16.721325927734377,7.621140003204346,5.733202934265137,-0.11724831163883209
1774658147802114600,16.738114501953124,7.331608772277832,5.819344520568848,-0.3613162338733673
1774658147818903000,16.754903076171875,7.343572616577148,5.737988471984863,-0.28235307335853577
1774658147835691800,16.77169189453125,7.609176158905029,5.525027275085449,-0.37088751792907715
1774658147852480500,16.78848046875,7.286144733428955,5.704489231109619,-0.24406790733337402
1774658147869269200,16.805269287109375,7.283751964569092,5.608776092529297,-0.17946170270442963
1774658147886057700,16.8220576171875,6.991827964782715,5.735595703125,-0.18424734473228455
1774658147902846500,16.838846435546873,7.546962738037109,5.493920803070068,-0.3397808074951172
1774658147919635200,16.85563525390625,7.063612461090088,5.831308841705322,-0.20099709928035736
1774658147936423700,16.872423583984375,7.377072334289551,5.627918720245361,-0.36610186100006104
1774658147953212400,16.88921240234375,7.4464640617370605,5.5968122482299805,-0.23210379481315613
1774658147970001200,16.906001220703125,7.326822757720947,5.6590256690979,-0.36610186100006104
1774658147986790000,16.922789794921876,7.295716285705566,5.781059741973877,-0.04785645380616188
1774658148003578400,16.939578369140627,7.190432071685791,6.003592014312744,-0.33738797903060913
1774658148020367000,16.9563671875,7.539783954620361,5.804987907409668,-0.3278166949748993
1774658148037155800,16.97315576171875,8.070990562438965,5.678168296813965,-0.3445664644241333
1774658148053944600,16.989944580078124,7.467999458312988,5.773880958557129,-0.2799602448940277
1774658148070733000,17.006733154296874,7.3986077308654785,5.4556355476379395,-0.1746760457754135
1774658148087521800,17.023521728515625,6.850651264190674,5.5345988273620605,-0.23210379481315613
1774658148104310500,17.040310546875,7.020541667938232,5.292923450469971,-0.349352091550827
1774658148121099000,17.05709912109375,6.580262184143066,5.32403039932251,-0.33499518036842346
1774658148137887700,17.0738876953125,6.697510719299316,5.06799840927124,-0.2919243574142456
1774658148154676500,17.090676513671873,6.45822811126709,5.221138954162598,-0.16271193325519562
1774658148171465200,17.10746533203125,6.288337707519531,5.249852657318115,0.05742774158716202
1774658148188253700,17.124253662109375,7.22871732711792,4.910071849822998,-0.3756731450557709
1774658148205042400,17.14104248046875,6.424728870391846,4.570291042327881,0.20817556977272034
1774658148221831200,17.1578310546875,6.223731517791748,5.819344520568848,-0.6101697683334351
1774658148238620000,17.174619873046876,8.104490280151367,4.658825874328613,-0.6795616149902344
1774658148255408400,17.191408447265626,7.085147857666016,5.008177757263184,-0.31106695532798767
1774658148272197000,17.208197021484374,6.379265308380127,5.546562671661377,-0.3445664644241333
1774658148288985900,17.22498583984375,6.8554368019104,5.300102233886719,-0.14356936514377594
1774658148305774600,17.241774658203123,7.271788120269775,6.044270038604736,-0.8422735929489136
1774658148322563000,17.25856298828125,7.04925537109375,5.558526992797852,-0.3086741268634796
1774658148339351800,17.275351806640625,7.350750923156738,5.61116886138916,-0.4019941985607147
1774658148356140500,17.292140625,7.767102241516113,5.876772403717041,-0.3924229145050049
1774658148372929000,17.308928955078127,7.10429048538208,5.532206058502197,-0.4307080805301666
1774658148389717800,17.3257177734375,7.2574310302734375,5.670989513397217,-0.009571290574967861
1774658148406506500,17.342506591796877,7.293323516845703,5.565705299377441,-0.46420758962631226
1774658148423295200,17.359295166015624,7.5326056480407715,6.149554252624512,0.27756741642951965
1774658148440083700,17.376083740234375,7.348358154296875,6.1088762283325195,-0.6340979933738708
1774658148456872400,17.39287255859375,7.936992645263672,6.477370738983154,0.09810572862625122
1774658148473661200,17.4096611328125,7.7455668449401855,5.9676995277404785,-0.5264210104942322
1774658148490450000,17.426449951171875,8.372486114501953,6.295516490936279,-0.2225325107574463
1774658148507238400,17.44323828125,7.312466144561768,6.262016773223877,0.0526420995593071
1774658148524027100,17.460027099609373,8.082955360412598,5.781059741973877,-0.6915257573127747
1774658148540816000,17.47681591796875,7.668996810913086,6.812366008758545,-0.20099709928035736
1774658148557604400,17.493604248046875,7.384250640869141,5.690132141113281,-0.08135596662759781
1774658148574393000,17.51039306640625,8.185846328735352,6.702296257019043,-0.3158525824546814
1774658148591181800,17.527181884765625,8.104490280151367,6.111268997192383,-0.397208571434021
1774658148607970300,17.54397021484375,7.735995769500732,5.931807518005371,-0.06699903309345245
1774658148624759000,17.560759033203126,7.944170951843262,6.211767673492432,0.08853443711996078
1774658148641547800,17.5775478515625,8.02074146270752,6.372086524963379,0.040677983313798904
1774658148658336500,17.59433642578125,8.293522834777832,6.209374904632568,-0.4977070987224579
1774658148675125000,17.611125,7.927421569824219,6.673582553863525,-0.2967100143432617
1774658148691913700,17.627913818359374,7.69531774520874,6.415157318115234,-0.6221339106559753
1774658148708702500,17.644702392578125,8.776873588562012,6.3840508460998535,-0.30628129839897156
1774658148725491000,17.661490966796876,7.8077802658081055,6.702296257019043,-0.39481574296951294
1774658148742279700,17.67827978515625,8.10688304901123,6.1328043937683105,-0.08135596662759781
1774658148759068400,17.695068359375,8.47298526763916,6.50608491897583,-0.46420758962631226
1774658148775857200,17.711857177734377,8.559126853942871,6.4701924324035645,-0.3900300860404968
1774658148792645600,17.728645751953124,8.310273170471191,6.63051176071167,-0.4785645306110382
1774658148809434400,17.745434326171875,8.34138011932373,6.774080753326416,-0.1818545162677765
1774658148826223000,17.76222314453125,7.798209190368652,6.664011001586914,-0.16031911969184875
1774658148843011600,17.779011474609376,8.188239097595215,6.929614543914795,-0.37806597352027893
1774658148859800300,17.79580029296875,8.159524917602539,6.759724140167236,-0.004785645287483931
1774658148876589000,17.812589111328126,8.190631866455078,6.6831536293029785,-0.34695929288864136
1774658148893377500,17.82937744140625,8.104490280151367,6.702296257019043,-0.1579262912273407
1774658148910166300,17.846166259765624,8.3629150390625,6.484549522399902,-0.2153540402650833
1774658148926955000,17.862955078125,8.250452041625977,6.57547664642334,-0.04546362906694412
1774658148943743700,17.87974365234375,8.142775535583496,6.147161483764648,-0.46420758962631226
1774658148960532200,17.8965322265625,8.049455642700195,6.594619274139404,-0.17946170270442963
1774658148977321000,17.913321044921876,8.147561073303223,6.3122663497924805,-0.36610186100006104
1774658148994109700,17.930109619140627,8.02074146270752,6.417550563812256,-0.11485548317432404
1774658149010898200,17.946898193359374,8.123632431030273,6.618547439575195,-0.27038896083831787
1774658149027687000,17.96368701171875,7.611568927764893,6.31944465637207,-0.2967100143432617
1774658149044475600,17.9804755859375,8.025527000427246,6.551548480987549,-0.3852444589138031
1774658149061264100,17.99726416015625,7.929814338684082,6.372086524963379,-0.2679961323738098
1774658149078052900,18.014052978515625,7.9489569664001465,6.503692150115967,-0.14117653667926788
1774658149094841600,18.030841552734376,8.0350980758667,6.269195556640625,-0.19381862878799438
1774658149111630300,18.04763037109375,7.774280548095703,6.3122663497924805,-0.16749759018421173
1774658149128418800,18.064418701171874,7.769495010375977,6.489335060119629,-0.019142581149935722
1774658149145207600,18.08120751953125,7.774280548095703,6.300302028656006,-0.16510476171970367
1774658149161996300,18.097996337890624,8.537590980529785,6.599404811859131,-0.19381862878799438
1774658149178784800,18.11478466796875,7.4225358963012695,6.463014125823975,-0.10289137065410614
1774658149195573500,18.131573486328126,8.458627700805664,6.649653911590576,-0.7058826684951782
1774658149212362200,18.1483623046875,8.279166221618652,6.515655994415283,-0.3924229145050049
1774658149229150700,18.165150634765624,8.039883613586426,6.747759819030762,-0.4905286431312561
1774658149245939500,18.181939453125,8.176275253295898,6.573083877563477,-0.24406790733337402
1774658149262728200,18.198728271484374,8.291130065917969,6.585047721862793,-0.4163511395454407
1774658149279517000,18.215516845703124,8.090133666992188,6.654439926147461,-0.15314064919948578
1774658149296305400,18.232305419921875,8.264809608459473,6.64486837387085,-0.2153540402650833
1774658149313094100,18.24909423828125,8.38684368133545,6.809973239898682,-0.23210379481315613
1774658149329883000,18.2658828125,8.209774017333984,6.647261142730713,-0.17706887423992157
1774658149346671400,18.28267138671875,8.595019340515137,6.589833736419678,-0.2967100143432617
1774658149363460000,18.299460205078127,7.968099594116211,6.790830612182617,-0.1866401731967926
1774658149380248800,18.316248779296874,7.987242221832275,6.704689025878906,-0.31106695532798767
1774658149397037300,18.333037353515625,8.401200294494629,6.51326322555542,-0.3397808074951172
1774658149413826000,18.349825927734376,7.960920810699463,6.740581512451172,-0.2632105052471161
1774658149430614800,18.36661474609375,8.12123966217041,6.754938125610352,-0.3086741268634796
1774658149447403300,18.3834033203125,8.57348346710205,6.671189308166504,-0.20338992774486542
1774658149464192000,18.40019189453125,8.336593627929688,6.798008918762207,-0.2105683982372284
1774658149480980700,18.416980712890624,8.532805442810059,6.786045074462891,-0.20817556977272034
1774658149497769200,18.433769287109374,8.595019340515137,6.893722057342529,-0.35413774847984314
1774658149514558000,18.450557861328125,8.449056625366211,6.850651264190674,-0.3613162338733673
1774658149531346700,18.4673466796875,8.169096946716309,7.109076023101807,-0.24646073579788208
1774658149548135200,18.48413525390625,8.805587768554688,7.101897716522217,-0.4785645306110382
1774658149564924000,18.500923828125,8.37727165222168,6.869793891906738,0.035892341285943985
1774658149581712600,18.517712646484377,8.48016357421875,7.04207706451416,-0.3445664644241333
1774658149598501400,18.53450146484375,8.37009334564209,6.594619274139404,-0.12681959569454193
1774658149615289900,18.551289794921875,8.638090133666992,6.872186660766602,-0.349352091550827
1774658149632078600,18.56807861328125,8.023134231567383,6.843472957611084,-0.1459621787071228
1774658149648867300,18.584867431640625,8.537590980529785,6.728617191314697,-0.6532405614852905
1774658149665655800,18.60165576171875,8.260024070739746,6.661618232727051,-0.10767702013254166
1774658149682444500,18.618444580078126,8.116454124450684,6.671189308166504,-0.2727817893028259
1774658149699233300,18.6352333984375,8.207381248474121,6.781259536743164,-0.34695929288864136
1774658149716021800,18.652021728515624,8.475378036499023,6.745367050170898,-0.4163511395454407
1774658149732810500,18.668810546875,8.011170387268066,6.434299945831299,-0.02871387079358101
1774658149749599200,18.68559912109375,8.171489715576172,6.69990348815918,-0.3038884699344635
1774658149766388700,18.702388671875,8.063812255859375,6.723831653594971,-0.059820566326379776
1774658149783176400,18.719176513671876,8.439485549926758,6.57547664642334,-0.4546363055706024
1774658149799965200,18.735965087890627,7.77188777923584,6.424728870391846,-0.26081767678260803
1774658149816753700,18.752753662109374,7.893921852111816,6.149554252624512,-0.20817556977272034
1774658149833542400,18.76954248046875,8.12123966217041,6.427121639251709,-0.5048855543136597
1774658149850331100,18.7863310546875,7.63310432434082,6.439085960388184,-0.2153540402650833
1774658149867119600,18.80311962890625,8.193024635314941,6.104090690612793,-0.29431718587875366
1774658149883908400,18.819908447265625,7.886743545532227,6.314659118652344,-0.2560320198535919
1774658149900697000,18.836697021484376,7.6737823486328125,6.183053493499756,-0.5240281820297241
1774658149917485600,18.853485595703123,8.57348346710205,6.214160442352295,-0.23688943684101105
1774658149934274300,18.8702744140625,7.458428382873535,6.147161483764648,-0.2153540402650833
1774658149951063000,18.88706298828125,7.537391185760498,6.16391134262085,-0.08853443711996078
1774658149967851500,18.9038515625,7.544569969177246,6.116054534912109,-0.26081767678260803
1774658149984640300,18.92064013671875,7.645068168640137,6.03948450088501,-0.35892340540885925
1774658150001429000,18.937428955078126,7.460821151733398,6.1710896492004395,-0.3158525824546814
1774658150018217500,18.954217529296876,7.451249599456787,6.374479293823242,-0.3158525824546814
1774658150035006200,18.971006103515624,7.403393268585205,5.840879917144775,-0.11724831163883209
1774658150051795000,18.987794921875,8.128418922424316,6.26440954208374,-0.5575276613235474
1774658150068583400,19.00458349609375,7.496713161468506,6.156732559204102,-0.2392822653055191
1774658150085372200,19.0213720703125,7.812565803527832,6.0777692794799805,-0.2919243574142456
1774658150102161000,19.038160888671875,8.250452041625977,6.348158359527588,-0.20578274130821228
1774658150118949400,19.054949462890626,7.867600917816162,6.221338748931885,-0.2512463629245758
1774658150135738000,19.071738037109377,7.944170951843262,6.293123722076416,-0.3684946894645691
1774658150152526800,19.08852685546875,7.616354465484619,6.106483459472656,-0.41874396800994873
1774658150169315600,19.105315673828127,7.231110095977783,5.912664890289307,-0.1579262912273407
1774658150186104000,19.12210400390625,8.288737297058105,6.10169792175293,-0.09571290761232376
1774658150202892800,19.138892822265625,7.487142086029053,6.5252275466918945,-0.11724831163883209
1774658150219681300,19.155681396484376,7.1856465339660645,5.917450428009033,-0.21296121180057526
1774658150236470000,19.172469970703126,7.302894592285156,6.2189459800720215,-0.43549370765686035
1774658150253258800,19.1892587890625,8.054241180419922,6.130411624908447,-0.727418065071106
1774658150270047500,19.206047607421876,8.195417404174805,5.974878311157227,-0.11964113265275955
1774658150286836000,19.2228359375,7.29093074798584,6.025127410888672,-0.038285162299871445
1774658150303624700,19.239624755859374,7.628318786621094,5.78345251083374,-0.24646073579788208
1774658150320413400,19.256413330078125,7.489534854888916,5.79780912399292,-0.4737788736820221
1774658150337202000,19.273201904296876,7.36032247543335,6.065805435180664,0.014356935396790504
1774658150353990700,19.28999072265625,7.365108013153076,5.891129493713379,-0.4211367964744568
1774658150370779400,19.306779296875,7.293323516845703,5.986842155456543,-0.12442677468061447
1774658150387568000,19.323568115234377,7.417750358581543,5.9916276931762695,-0.1698904037475586
1774658150404356600,19.340356689453124,7.4464640617370605,6.173482418060303,0.02153540402650833
1774658150421145300,19.357145263671875,7.8317084312438965,5.826523303985596,-0.2632105052471161
1774658150437934000,19.37393408203125,7.795815944671631,6.034698486328125,-0.6317051649093628
1774658150454722600,19.39072265625,7.3986077308654785,5.496313571929932,-0.3206382393836975
1774658150471511300,19.40751123046875,7.642675399780273,5.843272686004639,-0.23210379481315613
1774658150488300000,19.424300048828126,6.702296257019043,5.276174068450928,-0.12203395366668701
1774658150505088800,19.4410888671875,7.221538543701172,5.453242778778076,-0.33738797903060913
1774658150521877200,19.457877197265624,7.195217609405518,5.819344520568848,-0.4785645306110382
1774658150538666000,19.474666015625,7.2430739402771,6.041877269744873,-0.2225325107574463
1774658150555454700,19.491454833984374,7.331608772277832,5.419743061065674,0.12442677468061447
1774658150572243200,19.5082431640625,6.951149940490723,5.704489231109619,-0.31824541091918945
1774658150589032000,19.525031982421876,6.52044153213501,5.434100151062012,-0.4091726839542389
1774658150605820700,19.541820556640626,7.379465103149414,5.015356063842773,-0.363709032535553
1774658150622609200,19.558609130859374,7.6977105140686035,5.082355499267578,-0.12442677468061447
1774658150639398000,19.57539794921875,6.527620315551758,5.410171985626221,-0.23449662327766418
1774658150656186600,19.5921865234375,6.9344000816345215,5.276174068450928,-0.47617170214653015
1774658150672975400,19.608975341796874,7.013363361358643,5.517848968505859,-0.5934200286865234
1774658150689763800,19.625763916015625,7.128218650817871,5.000999450683594,-0.5742774605751038
1774658150706552600,19.642552490234376,7.101897716522217,4.871787071228027,0.09810572862625122
1774658150723341300,19.65934130859375,6.577869415283203,5.450850009918213,-0.15553347766399384
1774658150740129800,19.6761298828125,6.903293132781982,5.087141036987305,-0.12681959569454193
1774658150756918500,19.69291845703125,7.525427341461182,5.13021183013916,-0.3900300860404968
1774658150773707300,19.709707275390624,2.847458839416504,6.338587284088135,-0.3684946894645691
1774658150790496000,19.72649609375,10.202995300292969,3.840480327606201,-0.3445664644241333
1774658150807284500,19.743284423828126,5.525027275085449,6.128018856048584,0.17946170270442963
1774658150824073200,19.7600732421875,8.173882484436035,4.972285270690918,-0.4618147611618042
1774658150840862000,19.776862060546875,7.070790767669678,5.584847927093506,0.05503492057323456
1774658150857650700,19.793650634765626,7.685746192932129,5.570491313934326,-0.8015955686569214
1774658150874439200,19.810439208984373,7.554141044616699,5.747560024261475,-0.040677983313798904
1774658150891228000,19.827227783203124,7.424928665161133,6.0538411140441895,-0.4043870270252228
1774658150908016600,19.8440166015625,7.740781307220459,6.041877269744873,-0.09810572862625122
1774658150924805000,19.86080517578125,7.412964344024658,6.300302028656006,-0.48095735907554626
1774658150941593900,19.87759375,7.444071292877197,6.142375946044922,-0.16271193325519562
1774658150958382600,19.894382568359376,7.568498134613037,6.254838466644287,-0.3565305769443512
1774658150975171000,19.911171142578127,8.073383331298828,6.041877269744873,-0.10049854964017868
1774658150991959800,19.927959716796874,7.735995769500732,6.080162525177002,-0.2560320198535919
1774658151008748500,19.94474853515625,7.8317084312438965,6.027520179748535,-0.2392822653055191
1774658151025537300,19.961537353515624,8.154739379882812,5.927021503448486,-0.27756741642951965
1774658151042325800,19.97832568359375,7.901100158691406,6.017949104309082,-0.2919243574142456
1774658151059114500,19.995114501953125,7.599604606628418,6.144768714904785,-0.16031911969184875
1774658151075903200,20.0119033203125,7.841279983520508,6.013163089752197,-0.4091726839542389
1774658151092692000,20.02869189453125,7.45364236831665,6.192625045776367,-0.2727817893028259
1774658151109480400,20.04548046875,7.740781307220459,6.120840549468994,-0.605384111404419
1774658151126269200,20.062269287109373,7.283751964569092,6.20219612121582,-0.17228323221206665
1774658151143058000,20.079057861328124,8.226524353027344,5.764309883117676,-0.3206382393836975
1774658151159846400,20.095846435546875,6.999006271362305,6.151947021484375,-0.09571290761232376
1774658151176635100,20.11263525390625,7.800601959228516,5.711667537689209,-0.363709032535553
1774658151193424000,20.129423828125,7.511070251464844,5.6685967445373535,-0.23210379481315613
1774658151210212600,20.146212646484376,7.410571575164795,5.625525951385498,-0.2225325107574463
1774658151227001000,20.1630009765625,7.472784996032715,5.551348686218262,-0.22492532432079315
1774658151243789800,20.179789794921874,6.666403770446777,5.67338228225708,-0.16271193325519562
1774658151260578600,20.19657861328125,7.3052873611450195,5.343173027038574,-0.34217363595962524
1774658151277367300,20.2133671875,7.2813591957092285,5.450850009918213,-0.41874396800994873
1774658151294155800,20.23015576171875,6.7621169090271,5.175675392150879,-0.4019941985607147
1774658151310944500,20.246944580078125,7.039684295654297,5.13021183013916,-0.04785645380616188
1774658151327733200,20.263733154296876,6.4941205978393555,5.431707382202148,-0.10049854964017868
1774658151344522000,20.28052197265625,6.879364967346191,5.123033046722412,-0.3397808074951172
1774658151361310500,20.297310546875,6.742974281311035,4.871787071228027,-0.4546363055706024
1774658151378099200,20.31409912109375,6.374479293823242,5.505885124206543,-0.46420758962631226
1774658151394888000,20.330887939453124,7.058826923370361,5.034498691558838,-0.02632104977965355
1774658151411676400,20.347676513671875,6.91765022277832,4.570291042327881,-0.07417750358581543
1774658151428465200,20.364465087890625,6.608976364135742,5.467599868774414,-0.31824541091918945
1774658151445254000,20.38125390625,7.312466144561768,5.134997367858887,0.13160525262355804
1774658151462042600,20.398042724609375,5.675775527954102,5.685346603393555,-0.7441678643226624
1774658151478831000,20.4148310546875,7.932207107543945,5.419743061065674,-0.2392822653055191
1774658151495619800,20.431619873046873,7.0755767822265625,5.553741455078125,-0.23449662327766418
1774658151512408600,20.44840869140625,7.101897716522217,5.3934221267700195,-0.5000999569892883
1774658151529197000,20.465197021484375,7.0683979988098145,5.465207099914551,-0.19381862878799438
1774658151545985800,20.48198583984375,6.872186660766602,5.544169902801514,-0.3565305769443512
1774658151562774500,20.4987744140625,7.776673793792725,5.869594097137451,-0.5838487148284912
1774658151579563000,20.51556298828125,7.176074981689453,5.362315654754639,-0.5120640397071838
1774658151596351700,20.532351806640627,7.278966426849365,5.426921844482422,-0.17706887423992157
1774658151613140500,20.549140380859374,7.824530124664307,5.649454116821289,-0.12442677468061447
1774658151629929200,20.56592919921875,7.343572616577148,5.924628734588623,-0.20817556977272034
1774658151646717700,20.5827177734375,6.891329288482666,6.089733600616455,-0.1459621787071228
1774658151663506400,20.59950634765625,7.0995049476623535,5.974878311157227,-0.2560320198535919
1774658151680295200,20.616295166015625,8.642875671386719,5.86002254486084,-0.4905286431312561
1774658151697084000,20.633083984375,7.903493404388428,5.996413707733154,-0.10767702013254166
1774658151713872400,20.649872314453123,7.676175117492676,6.082555294036865,-0.4163511395454407
1774658151730661000,20.6666611328125,8.054241180419922,5.675775527954102,-0.3852444589138031
1774658151747449900,20.683449951171873,7.223931789398193,5.843272686004639,0.03349951654672623
1774658151764238300,20.70023828125,7.475177764892578,6.415157318115234,-0.2225325107574463
1774658151781027000,20.717027099609375,7.6737823486328125,6.38165807723999,-0.014356935396790504
1774658151797815800,20.73381591796875,7.779066562652588,5.565705299377441,-0.9451649188995361
1774658151814604500,20.7506044921875,8.752944946289062,6.479763507843018,-0.7465606927871704
1774658151831393000,20.76739306640625,8.075776100158691,5.934200286865234,-0.13639089465141296
1774658151848181800,20.784181640625,7.7838521003723145,6.604190349578857,-0.038285162299871445
1774658151864970200,20.80097021484375,7.960920810699463,6.2428741455078125,-0.34217363595962524
1774658151881759000,20.817759033203124,8.13798999786377,6.6113691329956055,0.038285162299871445
1774658151898547700,20.834547607421875,7.716853141784668,6.307480335235596,-0.5264210104942322
1774658151915336400,20.85133642578125,8.434700012207031,6.489335060119629,-0.2967100143432617
1774658151932125000,20.868125,7.7216386795043945,6.613761901855469,-0.5240281820297241
1774658151948913700,20.88491357421875,8.01356315612793,6.393621921539307,-0.42831525206565857
1774658151965702400,20.901702392578127,8.327022552490234,6.283552169799805,-0.16271193325519562
1774658151982491100,20.9184912109375,8.329415321350098,6.491727828979492,-0.2392822653055191
1774658151999279600,20.935279541015625,7.424928665161133,6.333801746368408,-0.07178468257188797
1774658152016068400,20.952068359375,8.161917686462402,6.539584159851074,-0.26560330390930176
1774658152032857000,20.968857177734375,8.181060791015625,6.592226505279541,-0.4378865361213684
1774658152049645600,20.9856455078125,8.295916557312012,6.434299945831299,-0.41874396800994873
1774658152066434300,21.002434326171876,8.50169849395752,6.63051176071167,-0.3206382393836975
1774658152083223000,21.01922314453125,7.901100158691406,6.199803352355957,-0.4211367964744568
1774658152100011500,21.036011474609374,7.977670669555664,6.295516490936279,-0.19621145725250244
1774658152116800300,21.05280029296875,8.197810173034668,6.604190349578857,-0.20338992774486542
1774658152133589000,21.069589111328124,7.5708909034729,6.367300987243652,-0.2512463629245758
1774658152150377700,21.086377685546875,7.793423175811768,6.271588325500488,-0.3278166949748993
1774658152167166200,21.103166259765626,7.886743545532227,6.269195556640625,-0.08374879509210587
1774658152183955000,21.119954833984377,7.905886173248291,6.3361945152282715,-0.09571290761232376
1774658152200743700,21.13674365234375,8.02791976928711,6.2428741455078125,-0.25363919138908386
1774658152217532200,21.1535322265625,7.767102241516113,6.197410583496094,-0.33020952343940735
1774658152234321000,21.17032080078125,7.936992645263672,6.424728870391846,-0.2727817893028259
1774658152251109600,21.187109619140625,7.70249605178833,6.441478729248047,-0.349352091550827
1774658152267898000,21.203898193359375,8.008777618408203,6.26440954208374,-0.45224347710609436
1774658152284686800,21.220686767578126,8.15234661102295,6.534798622131348,-0.37806597352027893
1774658152301475600,21.2374755859375,8.13798999786377,6.262016773223877,-0.3445664644241333
1774658152318264000,21.25426416015625,7.9489569664001465,6.209374904632568,-0.21296121180057526
1774658152335052800,21.271052734375,8.087740898132324,6.565905570983887,-0.33020952343940735
1774658152351841500,21.287841552734374,7.922635555267334,6.355337142944336,-0.09571290761232376
1774658152368630000,21.304630126953125,8.133204460144043,6.553941249847412,-0.4331009089946747
1774658152385418800,21.321418701171876,7.6977105140686035,6.314659118652344,-0.24406790733337402
1774658152402207500,21.33820751953125,8.056633949279785,6.262016773223877,-0.4259224236011505
1774658152418996000,21.354995849609374,7.671389579772949,6.532405853271484,-0.17228323221206665
1774658152435784700,21.37178466796875,8.166703224182129,6.5491557121276855,-0.24646073579788208
1774658152452573400,21.388573486328124,8.051848411560059,6.233303070068359,-0.638883650302887
1774658152469362000,21.40536181640625,7.798209190368652,6.350551128387451,-0.1339980661869049
1774658152486150700,21.422150634765625,8.372486114501953,6.56829833984375,-0.24885354936122894
1774658152502939400,21.438939453125,8.044670104980469,6.26440954208374,-0.28235307335853577
