time,seconds_elapsed,z,y,x
1774658131134408700,0.07040869140625,0.001221729558892548,0,-0.0019853105768561363
1774658131151197200,0.087197265625,-0.000610864779446274,-0.000610864779446274,0.003512472379952669
1774658131167986000,0.10398583984375,0,0,-0.0019853105768561363
1774658131184774700,0.120774658203125,0,0.000610864779446274,-0.0013744457392022014
1774658131201563400,0.1375634765625,-0.001221729558892548,0.001832594396546483,0.002290742937475443
1774658131218351900,0.154351806640625,0.001221729558892548,-0.000610864779446274,-0.0019853105768561363
1774658131235140600,0.171140625,-0.001221729558892548,0.000610864779446274,0.0010690133785828948
1774658131251929300,0.187929443359375,0.001221729558892548,0,0.00045814859913662076
1774658131268718000,0.204718017578125,-0.001221729558892548,0,-0.0007635809597559273
1774658131285506600,0.221506591796875,0.001221729558892548,0,-0.0001527161948615685
1774658131302295300,0.23829541015625,-0.000610864779446274,-0.000610864779446274,0.00045814859913662076
1774658131319084000,0.255083984375,0.001221729558892548,0,0.00045814859913662076
1774658131335872800,0.271872802734375,-0.000610864779446274,-0.000610864779446274,0.0010690133785828948
1774658131352661200,0.2886611328125,0.000610864779446274,-0.000610864779446274,-0.0007635809597559273
1774658131369450000,0.305449951171875,0,0.000610864779446274,-0.0013744457392022014
1774658131386238700,0.32223876953125,0.000610864779446274,0.000610864779446274,-0.0001527161948615685
1774658131403027500,0.33902734375,0,-0.000610864779446274,-0.0001527161948615685
1774658131419816000,0.35581591796875,0,0,0.0010690133785828948
1774658131436604700,0.372604736328125,0.000610864779446274,0,-0.0001527161948615685
1774658131453393400,0.389393310546875,0,0,0.0010690133785828948
1774658131470182100,0.40618212890625,0.001221729558892548,0.000610864779446274,-0.0001527161948615685
1774658131486970600,0.422970703125,-0.001221729558892548,0.001221729558892548,0.00045814859913662076
1774658131503759400,0.43975927734375,0,0,0.00045814859913662076
1774658131520548000,0.456548095703125,-0.001221729558892548,0,0.00045814859913662076
1774658131537336800,0.4733369140625,0,-0.002443459117785096,-0.0007635809597559273
1774658131554125300,0.490125244140625,-0.000610864779446274,0.000610864779446274,-0.0007635809597559273
1774658131570914000,0.5069140625,0.000610864779446274,-0.001221729558892548,0.00045814859913662076
1774658131587702800,0.523702880859375,-0.000610864779446274,0.000610864779446274,-0.0001527161948615685
1774658131604491500,0.540491455078125,0,0.000610864779446274,0.00045814859913662076
1774658131621280000,0.557280029296875,0,0,-0.0001527161948615685
1774658131638068700,0.57406884765625,0,0,-0.0013744457392022014
1774658131654857500,0.590857421875,-0.000610864779446274,0.000610864779446274,0.0010690133785828948
1774658131671646200,0.607646240234375,0.000610864779446274,-0.001221729558892548,0.00045814859913662076
1774658131688434700,0.6244345703125,-0.000610864779446274,0.000610864779446274,0.00045814859913662076
1774658131705223400,0.641223388671875,0,0,0.00045814859913662076
1774658131722012200,0.65801220703125,-0.000610864779446274,0.001221729558892548,-0.0001527161948615685
1774658131738801000,0.67480078125,0.000610864779446274,-0.000610864779446274,-0.0007635809597559273
1774658131755589400,0.69158935546875,-0.000610864779446274,0.000610864779446274,-0.0001527161948615685
1774658131772378000,0.708378173828125,0.000610864779446274,-0.001221729558892548,-0.0013744457392022014
1774658131789166800,0.725166748046875,0,0.000610864779446274,-0.0001527161948615685
1774658131805955600,0.74195556640625,0.001221729558892548,-0.000610864779446274,-0.0001527161948615685
1774658131822744000,0.758744140625,-0.000610864779446274,0.000610864779446274,0.0010690133785828948
1774658131839532800,0.77553271484375,0,0,0.00045814859913662076
1774658131856321500,0.792321533203125,0,0.000610864779446274,-0.0007635809597559273
1774658131873110300,0.8091103515625,0.001221729558892548,0,-0.0001527161948615685
1774658131889898800,0.825898681640625,0,0.000610864779446274,-0.0001527161948615685
1774658131906687500,0.8426875,0,0,-0.0001527161948615685
1774658131923476200,0.859476318359375,0,0.001221729558892548,-0.0001527161948615685
1774658131940265000,0.876264892578125,-0.000610864779446274,0,0.00045814859913662076
1774658131957053400,0.893053466796875,0.000610864779446274,0.000610864779446274,0.00045814859913662076
1774658131973842200,0.90984228515625,-0.000610864779446274,-0.000610864779446274,-0.0007635809597559273
1774658131990631000,0.926630859375,0.000610864779446274,-0.000610864779446274,-0.0001527161948615685
1774658132007419600,0.943419677734375,-0.000610864779446274,0.000610864779446274,-0.0001527161948615685
1774658132024208100,0.9602080078125,0,0.000610864779446274,0.00045814859913662076
1774658132040996900,0.976996826171875,0,-0.000610864779446274,-0.0007635809597559273
1774658132057785600,0.99378564453125,0.000610864779446274,0,0.001679878099821508
1774658132074574300,1.01057421875,0.000610864779446274,0,-0.0001527161948615685
1774658132091362800,1.02736279296875,0.000610864779446274,0,0.0010690133785828948
1774658132108151600,1.044151611328125,0,0,-0.0007635809597559273
1774658132124940300,1.060940185546875,0,0.000610864779446274,-0.0001527161948615685
1774658132141729000,1.07772900390625,0,0,0.00045814859913662076
1774658132158517500,1.094517578125,0,-0.000610864779446274,0.00045814859913662076
1774658132175306200,1.11130615234375,0,-0.001221729558892548,-0.0001527161948615685
1774658132192095000,1.128094970703125,0.000610864779446274,0,-0.0013744457392022014
1774658132208883700,1.1448837890625,0,-0.001221729558892548,-0.0007635809597559273
1774658132225672200,1.161672119140625,0,0.000610864779446274,0.00045814859913662076
1774658132242461000,1.1784609375,0.000610864779446274,0,0.00045814859913662076
1774658132259249700,1.195249755859375,0,-0.000610864779446274,0.0010690133785828948
1774658132276038400,1.212038330078125,0,0,-0.0001527161948615685
1774658132292827000,1.228826904296875,0,0.001221729558892548,0.0010690133785828948
1774658132309615600,1.24561572265625,-0.000610864779446274,-0.000610864779446274,-0.0001527161948615685
1774658132326404400,1.262404296875,0,0,-0.0007635809597559273
1774658132343193000,1.279193115234375,-0.000610864779446274,-0.001221729558892548,-0.0001527161948615685
1774658132359981600,1.295981689453125,0,0.000610864779446274,0.00045814859913662076
1774658132376770300,1.312770263671875,-0.000610864779446274,0,0.00045814859913662076
1774658132393559000,1.32955908203125,0,0.000610864779446274,-0.0007635809597559273
1774658132410347800,1.34634765625,-0.000610864779446274,0,0.00045814859913662076
1774658132427136300,1.36313623046875,0,0,-0.0001527161948615685
1774658132443925000,1.379925048828125,0,-0.000610864779446274,0.00045814859913662076
1774658132460713700,1.396713623046875,-0.000610864779446274,0,0.00045814859913662076
1774658132477502500,1.41350244140625,-0.000610864779446274,0,-0.0007635809597559273
1774658132494291000,1.430291015625,0,0,0.00045814859913662076
1774658132511079700,1.44707958984375,0,0,-0.0001527161948615685
1774658132527868400,1.463868408203125,0,0,0.00045814859913662076
1774658132544657200,1.4806572265625,0,0,-0.0007635809597559273
1774658132561445600,1.497445556640625,0,0,0.0010690133785828948
1774658132578234400,1.514234375,0,0,0.00045814859913662076
1774658132595023000,1.531023193359375,-0.000610864779446274,0,0.00045814859913662076
1774658132611811800,1.547811767578125,0,-0.000610864779446274,0.00045814859913662076
1774658132628600300,1.564600341796875,0.000610864779446274,0,-0.0007635809597559273
1774658132645389000,1.58138916015625,0,-0.000610864779446274,-0.0007635809597559273
1774658132662177800,1.598177734375,0,-0.000610864779446274,-0.0001527161948615685
1774658132678966500,1.614966552734375,0.000610864779446274,0,0.00045814859913662076
1774658132695755000,1.631755126953125,-0.000610864779446274,-0.000610864779446274,-0.0001527161948615685
1774658132712543700,1.648543701171875,0.000610864779446274,-0.000610864779446274,0.0010690133785828948
1774658132729332500,1.66533251953125,0,-0.001221729558892548,-0.0001527161948615685
1774658132746121000,1.682120849609375,-0.000610864779446274,0.000610864779446274,-0.0001527161948615685
1774658132762909700,1.69890966796875,-0.001221729558892548,-0.000610864779446274,0.0010690133785828948
1774658132779698400,1.715698486328125,0,0.000610864779446274,-0.0001527161948615685
1774658132796487200,1.732487060546875,0,0.000610864779446274,-0.0001527161948615685
1774658132813275600,1.749275634765625,-0.000610864779446274,0,-0.0001527161948615685
1774658132830064400,1.766064453125,0,0,0.001679878099821508
1774658132846853000,1.78285302734375,0,0,0.00045814859913662076
1774658132863641900,1.799641845703125,0,0,-0.0001527161948615685
1774658132880430300,1.816430419921875,0.000610864779446274,0,-0.0001527161948615685
1774658132897219000,1.833218994140625,-0.000610864779446274,0.000610864779446274,0.00045814859913662076
1774658132914007800,1.8500078125,-0.000610864779446274,-0.000610864779446274,-0.0001527161948615685
1774658132930796300,1.86679638671875,0,0,0.00045814859913662076
1774658132947585000,1.8835849609375,-0.000610864779446274,-0.000610864779446274,0.0010690133785828948
1774658132964373800,1.900373779296875,0.000610864779446274,-0.000610864779446274,-0.0001527161948615685
1774658132981162500,1.91716259765625,0,0.000610864779446274,0.00045814859913662076
1774658132997951200,1.933951171875,0,-0.001221729558892548,0.00045814859913662076
1774658133014739700,1.95073974609375,0,-0.000610864779446274,0.0010690133785828948
1774658133031528400,1.967528564453125,0.000610864779446274,0,-0.0007635809597559273
1774658133048317200,1.984317138671875,0,-0.000610864779446274,0.00045814859913662076
1774658133065106000,2.00110595703125,0.000610864779446274,-0.000610864779446274,0.0010690133785828948
1774658133081894400,2.017894287109375,0.000610864779446274,0,0.00045814859913662076
1774658133098683100,2.03468310546875,0,0,0.00045814859913662076
1774658133115472000,2.051471923828125,0,0,0.00045814859913662076
1774658133132260600,2.068260498046875,0,0,-0.0001527161948615685
1774658133149049300,2.08504931640625,0.000610864779446274,0,-0.0007635809597559273
1774658133165837800,2.101837890625,0,-0.000610864779446274,-0.0001527161948615685
1774658133182626600,2.11862646484375,0,0,-0.0001527161948615685
1774658133199415300,2.135415283203125,0,0.001221729558892548,-0.0007635809597559273
1774658133216204000,2.1522041015625,-0.000610864779446274,-0.000610864779446274,-0.0013744457392022014
1774658133232992500,2.168992431640625,0.000610864779446274,0,-0.0001527161948615685
1774658133249781200,2.18578125,0,0,0.00045814859913662076
1774658133266570000,2.202570068359375,0,-0.000610864779446274,-0.0001527161948615685
1774658133283358700,2.219358642578125,0,-0.000610864779446274,-0.0007635809597559273
1774658133300147500,2.2361474609375,0,-0.000610864779446274,-0.0007635809597559273
1774658133316936000,2.25293603515625,0,-0.000610864779446274,0.0010690133785828948
1774658133333724700,2.269724609375,0.000610864779446274,0,-0.0001527161948615685
1774658133350513400,2.286513427734375,0,0.000610864779446274,0.0010690133785828948
1774658133367302100,2.30330224609375,0.000610864779446274,0,-0.0007635809597559273
1774658133384090600,2.320090576171875,0,0,0.00045814859913662076
1774658133400879400,2.33687939453125,0,0,-0.0001527161948615685
1774658133417668000,2.353668212890625,-0.000610864779446274,0,0.0010690133785828948
1774658133434456800,2.370456787109375,-0.000610864779446274,0,-0.0001527161948615685
1774658133451245600,2.38724560546875,0.000610864779446274,-0.000610864779446274,-0.0001527161948615685
1774658133468034000,2.404033935546875,-0.000610864779446274,0.001221729558892548,0.0010690133785828948
1774658133484822800,2.42082275390625,0,-0.000610864779446274,0.0010690133785828948
1774658133501611500,2.437611572265625,0,-0.000610864779446274,-0.0007635809597559273
1774658133518400300,2.454400146484375,0,-0.000610864779446274,-0.0007635809597559273
1774658133535188700,2.471188720703125,0,-0.000610864779446274,0.00045814859913662076
1774658133551977500,2.4879775390625,0.000610864779446274,0,-0.0001527161948615685
1774658133568766200,2.50476611328125,0,-0.000610864779446274,0.00045814859913662076
1774658133585555000,2.521554931640625,0,0.000610864779446274,-0.0007635809597559273
1774658133602343700,2.53834375,-0.000610864779446274,0.001221729558892548,-0.0001527161948615685
1774658133619132400,2.55513232421875,0.001221729558892548,-0.000610864779446274,0.00045814859913662076
1774658133635921000,2.5719208984375,-0.001221729558892548,-0.000610864779446274,0.0010690133785828948
1774658133652709600,2.588709716796875,0.001221729558892548,-0.000610864779446274,-0.0007635809597559273
1774658133669498400,2.605498291015625,-0.000610864779446274,-0.000610864779446274,-0.0007635809597559273
1774658133686287000,2.622287109375,0.000610864779446274,0,-0.0007635809597559273
1774658133703075800,2.639075927734375,0,0,0.0010690133785828948
1774658133719864300,2.6558642578125,0,-0.001221729558892548,0.0010690133785828948
1774658133736653000,2.672653076171875,0.000610864779446274,-0.000610864779446274,-0.0001527161948615685
1774658133753441800,2.68944189453125,0,0,-0.0019853105768561363
1774658133770230500,2.70623046875,0,0,0.0010690133785828948
1774658133787019000,2.72301904296875,-0.000610864779446274,0.000610864779446274,0.00045814859913662076
1774658133803807700,2.739807861328125,0,0,0.0010690133785828948
1774658133820596500,2.756596435546875,-0.001221729558892548,-0.000610864779446274,-0.0007635809597559273
1774658133837385200,2.77338525390625,0,-0.001221729558892548,0.0010690133785828948
1774658133854174000,2.790174072265625,-0.000610864779446274,0,-0.0001527161948615685
1774658133870962400,2.80696240234375,0,-0.000610864779446274,0.00045814859913662076
1774658133887751200,2.823751220703125,0,-0.001221729558892548,0.00045814859913662076
1774658133904540000,2.840539794921875,0.001221729558892548,0,0.00045814859913662076
1774658133921328600,2.85732861328125,-0.001221729558892548,0.000610864779446274,-0.0007635809597559273
1774658133938117000,2.8741171875,0,0,-0.0007635809597559273
1774658133954905900,2.89090576171875,-0.000610864779446274,0,-0.0007635809597559273
1774658133971694600,2.907694580078125,0,0,-0.0007635809597559273
1774658133988483300,2.9244833984375,0.000610864779446274,0,-0.0001527161948615685
1774658134005272000,2.94127197265625,0.000610864779446274,0,0.00045814859913662076
1774658134022060800,2.958060791015625,0,0,0.00045814859913662076
1774658134038849300,2.974849365234375,0,0.001221729558892548,0.00045814859913662076
1774658134055638000,2.991637939453125,0.000610864779446274,0.000610864779446274,-0.0007635809597559273
1774658134072426800,3.0084267578125,0,0,0.00045814859913662076
1774658134089215500,3.025215576171875,0,-0.001221729558892548,-0.0001527161948615685
1774658134106004000,3.04200390625,0.000610864779446274,0,-0.0001527161948615685
1774658134122792700,3.058792724609375,-0.000610864779446274,0,-0.0001527161948615685
1774658134139581400,3.07558154296875,0,-0.000610864779446274,0.00045814859913662076
1774658134156370200,3.0923701171875,0.001832594396546483,0.000610864779446274,-0.004428769461810589
1774658134173159000,3.109158935546875,0.001221729558892548,0.001832594396546483,-0.006872228812426329
1774658134189947400,3.125947509765625,-0.001221729558892548,0,-0.009315688163042068
1774658134206736100,3.142736083984375,0.002443459117785096,-0.001832594396546483,0.001679878099821508
1774658134223524900,3.15952490234375,-0.001832594396546483,0.001221729558892548,-0.009926552884280682
1774658134240313600,3.176313720703125,0.001832594396546483,-0.000610864779446274,-0.0001527161948615685
1774658134257102300,3.193102294921875,-0.000610864779446274,-0.001832594396546483,0.007177661173045635
1774658134273890800,3.209890869140625,0,0.001221729558892548,-0.0013744457392022014
1774658134290679600,3.226679443359375,-0.000610864779446274,0,0.007177661173045635
1774658134307468300,3.24346826171875,0.000610864779446274,-0.000610864779446274,0.007177661173045635
1774658134324257000,3.260257080078125,-0.000610864779446274,0,0.0010690133785828948
1774658134341045500,3.27704541015625,0,0,0.002290742937475443
1774658134357834200,3.293834228515625,0,-0.001221729558892548,-0.0025961752980947495
1774658134374623000,3.310623046875,0.000610864779446274,0.000610864779446274,-0.005650499369949102
1774658134391411700,3.32741162109375,0,0.000610864779446274,-0.004428769461810589
1774658134408200400,3.344200439453125,0,0.001221729558892548,-0.006872228812426329
1774658134424989200,3.3609892578125,0,0.000610864779446274,-0.009926552884280682
1774658134441777700,3.377777587890625,-0.000610864779446274,0.001221729558892548,-0.0038179049734026194
1774658134458566400,3.39456640625,0,-0.000610864779446274,-0.0025961752980947495
1774658134475355100,3.411355224609375,0,0.000610864779446274,0.002290742937475443
1774658134492143900,3.428143798828125,0.000610864779446274,-0.001221729558892548,0.003512472379952669
1774658134508932400,3.444932373046875,0,0.000610864779446274,0.00045814859913662076
1774658134525721000,3.46172119140625,0.001221729558892548,-0.001221729558892548,0.0010690133785828948
1774658134542509800,3.478509765625,-0.001221729558892548,0.000610864779446274,-0.0001527161948615685
1774658134559298600,3.495298583984375,0.000610864779446274,0,-0.0013744457392022014
1774658134576087300,3.51208740234375,0,0.001221729558892548,-0.0007635809597559273
1774658134592875800,3.528875732421875,0.001221729558892548,0,-0.0001527161948615685
1774658134609664500,3.54566455078125,-0.001221729558892548,0.000610864779446274,-0.0007635809597559273
1774658134626453200,3.562453369140625,0.000610864779446274,-0.000610864779446274,-0.0025961752980947495
1774658134643242000,3.579241943359375,-0.001221729558892548,0,0.001679878099821508
1774658134660030500,3.596030517578125,0.000610864779446274,0,0.001679878099821508
1774658134676819200,3.612819091796875,-0.000610864779446274,-0.000610864779446274,0.001679878099821508
1774658134693608000,3.62960791015625,0.000610864779446274,-0.000610864779446274,0.002290742937475443
1774658134710396700,3.646396728515625,-0.000610864779446274,0,0.002901607658714056
1774658134727185400,3.663185302734375,0,-0.000610864779446274,0.001679878099821508
1774658134743974000,3.679973876953125,-0.001221729558892548,-0.000610864779446274,0.002290742937475443
1774658134760762600,3.6967626953125,-0.000610864779446274,-0.001221729558892548,0.004123337101191282
1774658134777551400,3.71355126953125,0,0,0.005955931730568409
1774658134794340000,3.730340087890625,-0.000610864779446274,0,0.005955931730568409
1774658134811128600,3.747128662109375,0.000610864779446274,0.000610864779446274,0.002290742937475443
1774658134827917300,3.763917236328125,-0.000610864779446274,0,0.00045814859913662076
1774658134844706000,3.7807060546875,0.001221729558892548,0,-0.0019853105768561363
1774658134861494800,3.797494873046875,-0.001221729558892548,-0.000610864779446274,-0.0001527161948615685
1774658134878283500,3.814283447265625,-0.000610864779446274,-0.000610864779446274,0.001679878099821508
1774658134895072000,3.831072021484375,0.000610864779446274,0,0.003512472379952669
1774658134911860700,3.84786083984375,0,-0.000610864779446274,0.005955931730568409
1774658134928649500,3.8646494140625,0,0.000610864779446274,0.005345067009329796
1774658134945438200,3.881438232421875,0,0,0.004123337101191282
1774658134962227000,3.89822705078125,0,0.001832594396546483,0.00045814859913662076
1774658134979015400,3.915015380859375,0.001832594396546483,0.001832594396546483,-0.0038179049734026194
1774658134995804200,3.93180419921875,0.000610864779446274,0.001832594396546483,-0.009315688163042068
1774658135012593000,3.948593017578125,0.000610864779446274,0.001221729558892548,-0.012980876490473747
1774658135029381600,3.965381591796875,-0.000610864779446274,0.001221729558892548,-0.016035201027989388
1774658135046170000,3.982170166015625,0.000610864779446274,-0.000610864779446274,-0.009315688163042068
1774658135062958800,3.998958740234375,-0.000610864779446274,-0.001221729558892548,-0.0025961752980947495
1774658135079747600,4.01574755859375,0,-0.001832594396546483,0.005345067009329796
1774658135096536300,4.032536376953125,0,-0.002443459117785096,0.012675444595515728
1774658135113325000,4.049324951171875,0.000610864779446274,0,0.012675444595515728
1774658135130113500,4.066113525390625,0.001221729558892548,0,0.01206457894295454
1774658135146902300,4.08290234375,-0.001221729558892548,0,0.007177661173045635
1774658135163691000,4.09969091796875,0.001221729558892548,0,0.004123337101191282
1774658135180479700,4.116479736328125,-0.001221729558892548,0,0.006566796451807022
1774658135197268200,4.133268310546875,0.000610864779446274,-0.001832594396546483,0.007177661173045635
1774658135214057000,4.150056884765625,-0.000610864779446274,-0.001832594396546483,0.006566796451807022
1774658135230845700,4.166845703125,-0.001221729558892548,0,0.005345067009329796
1774658135247634400,4.183634521484375,0,-0.001221729558892548,0.002901607658714056
1774658135264423200,4.200423095703125,0,0,0.007177661173045635
1774658135281211600,4.217211669921875,0.000610864779446274,0.000610864779446274,0.005955931730568409
1774658135298000400,4.23400048828125,0.000610864779446274,0.000610864779446274,0.005955931730568409
1774658135314789000,4.2507890625,-0.000610864779446274,-0.000610864779446274,0.010842849500477314
1774658135331577900,4.267577880859375,0.000610864779446274,-0.001221729558892548,0.005955931730568409
1774658135348366300,4.284366455078125,-0.001221729558892548,-0.002443459117785096,0.0102319847792387
1774658135365155000,4.301155029296875,-0.001221729558892548,-0.003665188793092966,0.017562363296747208
1774658135381943800,4.31794384765625,0,-0.002443459117785096,0.024281874299049377
1774658135398732500,4.334732666015625,0.001832594396546483,-0.001832594396546483,0.03283398225903511
1774658135415521000,4.35152099609375,0.001221729558892548,-0.000610864779446274,0.02916879393160343
1774658135432309800,4.368309814453125,0.001221729558892548,0.000610864779446274,0.019394956529140472
1774658135449098500,4.385098388671875,0.002443459117785096,-0.000610864779446274,0.007788525894284248
1774658135465887200,4.40188720703125,-0.001221729558892548,0,-0.009926552884280682
1774658135482676000,4.418676025390625,-0.000610864779446274,-0.001832594396546483,-0.020922118797898293
1774658135499464400,4.43546435546875,0.001221729558892548,0.001221729558892548,-0.03375028073787689
1774658135516253200,4.452253173828125,-0.000610864779446274,0,-0.0435241162776947
1774658135533042000,4.4690419921875,0.000610864779446274,0.000610864779446274,-0.039858926087617874
1774658135549830700,4.48583056640625,0.000610864779446274,0,-0.02519817277789116
1774658135566619100,4.502619140625,0.000610864779446274,0.0030543238390237093,-0.008704823441803455
1774658135583407900,4.519407958984375,0.001221729558892548,0.001221729558892548,-0.007483093533664942
1774658135600196600,4.536196533203125,0,0.000610864779446274,0.004123337101191282
1774658135616985300,4.5529853515625,0,-0.002443459117785096,0.004123337101191282
1774658135633774000,4.569774169921875,0.003665188793092966,-0.001832594396546483,-0.007483093533664942
1774658135650562600,4.5865625,-0.000610864779446274,0.002443459117785096,-0.005650499369949102
1774658135667351300,4.603351318359375,0.002443459117785096,0.006719512399286032,-0.017867794260382652
1774658135684140000,4.62014013671875,0,0.004276053514331579,-0.02519817277789116
1774658135700928800,4.6369287109375,-0.001832594396546483,-0.001832594396546483,-0.02764163166284561
1774658135717717200,4.65371728515625,-0.0030543238390237093,-0.001221729558892548,-0.03252854943275452
1774658135734506000,4.670506103515625,-0.001221729558892548,-0.001832594396546483,-0.023365577682852745
1774658135751294700,4.687294677734375,0,0,-0.025809036567807198
1774658135768083500,4.70408349609375,0,0.001221729558892548,-0.012980876490473747
1774658135784872200,4.7208720703125,-0.001221729558892548,-0.000610864779446274,0.003512472379952669
1774658135801660700,4.73766064453125,0.004276053514331579,-0.001221729558892548,0.01206457894295454
1774658135818449400,4.754449462890625,-0.004276053514331579,0.001221729558892548,0.009010255336761475
1774658135835238100,4.771238037109375,0.002443459117785096,0,-0.008704823441803455
1774658135852027000,4.78802685546875,0,0.002443459117785096,-0.008093958720564842
1774658135868815600,4.804815673828125,-0.001832594396546483,0.002443459117785096,-0.02153298258781433
1774658135885604000,4.82160400390625,0.002443459117785096,-0.004276053514331579,-0.011759147047996521
1774658135902392800,4.838392822265625,-0.004886918235570192,0,0.0206166859716177
1774658135919181600,4.855181640625,-0.002443459117785096,0,-0.006872228812426329
1774658135935970300,4.87197021484375,0.004886918235570192,-0.003665188793092966,-0.014813470654189587
1774658135952758800,4.8887587890625,-0.0030543238390237093,0.001832594396546483,0.0206166859716177
1774658135969547500,4.905547607421875,-0.001221729558892548,-0.001832594396546483,0.009010255336761475
1774658135986336300,4.922336181640625,0.001221729558892548,-0.001221729558892548,0.01695149764418602
1774658136003125000,4.939125,0.001832594396546483,-0.0030543238390237093,0.01695149764418602
1774658136019913700,4.955913818359375,0.000610864779446274,0.001832594396546483,-0.0032070400193333626
1774658136036702500,4.972702392578125,-0.001221729558892548,0.0030543238390237093,-0.0032070400193333626
1774658136053491000,4.989490966796875,0.000610864779446274,0.004276053514331579,-0.008093958720564842
1774658136070279700,5.00627978515625,0.002443459117785096,0.001832594396546483,-0.02458730712532997
1774658136087068400,5.023068359375,0.0030543238390237093,-0.001221729558892548,-0.02214384824037552
1774658136103857200,5.039857177734375,-0.006719512399286032,-0.000610864779446274,-0.017256930470466614
1774658136120646000,5.05664599609375,0.004276053514331579,-0.001221729558892548,-0.030085090547800064
1774658136137434400,5.073434326171875,-0.003665188793092966,0.001832594396546483,-0.017256930470466614
1774658136154223000,5.09022314453125,0.0030543238390237093,0,0.002290742937475443
1774658136171011800,5.10701171875,0.001832594396546483,0.001221729558892548,0.006566796451807022
1774658136187800600,5.123800537109375,-0.006108647678047419,0.006108647678047419,-0.014813470654189587
1774658136204589300,5.14058935546875,0.009773836471140385,-0.0054977829568088055,-0.0007635809597559273
1774658136221378000,5.1573779296875,-0.009162971749901772,0.004276053514331579,-0.005039634648710489
1774658136238166800,5.174166748046875,0.007941242307424545,-0.001221729558892548,-0.02214384824037552
1774658136254955300,5.190955322265625,-0.009162971749901772,0.003665188793092966,-0.005039634648710489
1774658136271744000,5.207743896484375,0.012217295356094837,-0.004276053514331579,-0.014202605932950974
1774658136288532700,5.22453271484375,-0.009773836471140385,0.007330377586185932,-0.019700389355421066
1774658136305321500,5.241321533203125,0.008552107028663158,-0.001832594396546483,-0.0062613640911877155
1774658136322110200,5.258110107421875,-0.006719512399286032,0.004276053514331579,-0.011148282326757908
1774658136338898700,5.274898681640625,0.007330377586185932,-0.002443459117785096,0.00045814859913662076
1774658136355687400,5.2916875,-0.006719512399286032,0.000610864779446274,0.006566796451807022
1774658136372476200,5.30847607421875,0.002443459117785096,-0.001221729558892548,0.008399390615522861
1774658136389265000,5.325264892578125,-0.002443459117785096,0,-0.007483093533664942
1774658136406053600,5.3420537109375,0.006108647678047419,0.000610864779446274,-0.0038179049734026194
1774658136422842400,5.35884228515625,-0.004276053514331579,0.002443459117785096,0.007788525894284248
1774658136439630800,5.375630859375,0.002443459117785096,0.000610864779446274,-0.005039634648710489
1774658136456419600,5.392419677734375,-0.002443459117785096,0.002443459117785096,-0.0007635809597559273
1774658136473208300,5.409208251953125,0.0030543238390237093,0.000610864779446274,-0.02458730712532997
1774658136489997000,5.4259970703125,0,0,-0.01908952370285988
1774658136506785800,5.442785888671875,-0.002443459117785096,0,-0.009315688163042068
1774658136523574500,5.459574462890625,0.000610864779446274,0.001221729558892548,-0.023365577682852745
1774658136540363000,5.476363037109375,-0.001221729558892548,0.000610864779446274,-0.0154243353754282
1774658136557151700,5.49315185546875,0.004276053514331579,0.001221729558892548,-0.01359174121171236
1774658136573940500,5.5099404296875,-0.004276053514331579,0.004276053514331579,-0.019700389355421066
1774658136590729200,5.526729248046875,0.004886918235570192,-0.001832594396546483,-0.014813470654189587
1774658136607518000,5.54351806640625,-0.004886918235570192,0.001221729558892548,-0.012980876490473747
1774658136624306700,5.560306640625,0.0054977829568088055,-0.001832594396546483,-0.016646064817905426
1774658136641095200,5.57709521484375,-0.006719512399286032,0.001832594396546483,-0.008093958720564842
1774658136657884000,5.5938837890625,0.0054977829568088055,-0.001832594396546483,-0.006872228812426329
1774658136674672600,5.610672607421875,-0.0030543238390237093,0.002443459117785096,-0.005039634648710489
1774658136691461400,5.62746142578125,0.0030543238390237093,0.001832594396546483,-0.0001527161948615685
1774658136708250000,5.64425,-0.0030543238390237093,0.001832594396546483,-0.0007635809597559273
1774658136725038600,5.66103857421875,0.0030543238390237093,-0.000610864779446274,-0.0025961752980947495
1774658136741827300,5.677827392578125,0,-0.000610864779446274,-0.0007635809597559273
1774658136758616000,5.694615966796875,0.000610864779446274,0.000610864779446274,-0.005039634648710489
1774658136775404800,5.71140478515625,-0.000610864779446274,0,-0.009315688163042068
1774658136792193500,5.728193603515625,0.001221729558892548,0,-0.011759147047996521
1774658136808982000,5.74498193359375,0.000610864779446274,-0.000610864779446274,-0.014202605932950974
1774658136825770800,5.761770751953125,-0.001221729558892548,0.000610864779446274,-0.012370011769235134
1774658136842559500,5.7785595703125,0,0.001832594396546483,-0.009315688163042068
1774658136859348200,5.79534814453125,0.000610864779446274,0.001221729558892548,-0.010537417605519295
1774658136876137000,5.812136962890625,0,0,-0.0025961752980947495
1774658136892925700,5.82892578125,-0.0030543238390237093,0.000610864779446274,0.002901607658714056
1774658136909714400,5.84571435546875,-0.000610864779446274,-0.000610864779446274,0.003512472379952669
1774658136926503000,5.8625029296875,-0.002443459117785096,-0.001221729558892548,0.01206457894295454
1774658136943291600,5.879291748046875,0.001221729558892548,-0.002443459117785096,0.015729768201708794
1774658136960080400,5.896080322265625,-0.0030543238390237093,-0.000610864779446274,0.019394956529140472
1774658136976869000,5.912869140625,0.001832594396546483,-0.001221729558892548,0.02000582218170166
1774658136993657900,5.929657958984375,-0.001832594396546483,0,0.013897174037992954
1774658137010446300,5.9464462890625,0.001832594396546483,-0.002443459117785096,0.005345067009329796
1774658137027235000,5.963235107421875,-0.002443459117785096,0,0.0010690133785828948
1774658137044023800,5.98002392578125,0.001221729558892548,-0.002443459117785096,0.00045814859913662076
1774658137060812500,5.9968125,-0.002443459117785096,0,0.0010690133785828948
1774658137077601300,6.013601318359375,0.001221729558892548,-0.001832594396546483,0.004123337101191282
1774658137094390000,6.03039013671875,-0.001832594396546483,-0.001221729558892548,0.008399390615522861
1774658137111178500,6.047178466796875,0.000610864779446274,-0.0030543238390237093,0.018784092739224434
1774658137127967200,6.06396728515625,-0.000610864779446274,-0.001221729558892548,0.02672533318400383
1774658137144756000,6.080755859375,0,-0.000610864779446274,0.03405570983886719
1774658137161544700,6.097544677734375,-0.000610864779446274,0.000610864779446274,0.02916879393160343
1774658137178333400,6.11433349609375,0,0.000610864779446274,0.02000582218170166
1774658137195122000,6.131121826171875,-0.001832594396546483,0.001832594396546483,0.004734201822429895
1774658137211910700,6.14791064453125,-0.001221729558892548,0.002443459117785096,-0.008704823441803455
1774658137228699400,6.164699462890625,-0.001832594396546483,0.0030543238390237093,-0.023365577682852745
1774658137245488000,6.181488037109375,-0.002443459117785096,0.001221729558892548,-0.02153298258781433
1774658137262276900,6.19827685546875,-0.000610864779446274,-0.001221729558892548,-0.020311253145337105
1774658137279065600,6.215065673828125,-0.001221729558892548,0.000610864779446274,-0.009926552884280682
1774658137295854300,6.231854248046875,-0.000610864779446274,-0.001832594396546483,0.002901607658714056
1774658137312642800,6.248642822265625,0.000610864779446274,0,0.010842849500477314
1774658137329431600,6.265431640625,0.000610864779446274,-0.001221729558892548,0.02306014485657215
1774658137346220300,6.28222021484375,0.0030543238390237093,-0.001832594396546483,0.027947064489126205
1774658137363009000,6.299009033203125,-0.001221729558892548,-0.001832594396546483,0.030390523374080658
1774658137379797500,6.315797607421875,0.002443459117785096,-0.002443459117785096,0.025503603741526604
1774658137396586200,6.332586181640625,-0.001832594396546483,-0.001832594396546483,0.013897174037992954
1774658137413375000,6.349375,0.001832594396546483,-0.0030543238390237093,0.0010690133785828948
1774658137430163700,6.366163818359375,-0.0030543238390237093,-0.001221729558892548,-0.0007635809597559273
1774658137446952400,6.382952392578125,0,-0.002443459117785096,0.0010690133785828948
1774658137463741000,6.399740966796875,-0.0030543238390237093,-0.000610864779446274,0.013897174037992954
1774658137480530000,6.416530029296875,0.000610864779446274,-0.001221729558892548,0.024892739951610565
1774658137497318400,6.433318359375,0.000610864779446274,-0.001221729558892548,0.02306014485657215
1774658137514107100,6.450107177734375,0.000610864779446274,-0.001221729558892548,0.02611446939408779
1774658137530896000,6.466895751953125,0.001221729558892548,-0.002443459117785096,0.016340631991624832
1774658137547684600,6.4836845703125,0.001832594396546483,-0.001221729558892548,0.004123337101191282
1774658137564473300,6.500473388671875,0.001221729558892548,-0.001832594396546483,-0.008093958720564842
1774658137581261800,6.51726171875,0.001221729558892548,-0.003665188793092966,-0.01847865991294384
1774658137598050600,6.534050537109375,-0.001832594396546483,-0.002443459117785096,-0.02214384824037552
1774658137614839300,6.55083935546875,-0.000610864779446274,-0.002443459117785096,-0.014813470654189587
1774658137631628000,6.5676279296875,-0.001832594396546483,0,-0.0007635809597559273
1774658137648416800,6.584416748046875,0.000610864779446274,-0.000610864779446274,0.013286309316754341
1774658137665205200,6.601205322265625,0,-0.001221729558892548,0.027947064489126205
1774658137681994000,6.617993896484375,0.000610864779446274,-0.001221729558892548,0.028557928279042244
1774658137698782700,6.63478271484375,-0.000610864779446274,-0.000610864779446274,0.021227551624178886
1774658137715571500,6.651571533203125,-0.000610864779446274,0,0.013897174037992954
1774658137732360000,6.66835986328125,0,-0.000610864779446274,0.00045814859913662076
1774658137749148700,6.685148681640625,0.002443459117785096,-0.001221729558892548,-0.009315688163042068
1774658137765937400,6.7019375,-0.002443459117785096,-0.000610864779446274,-0.01908952370285988
1774658137782726100,6.71872607421875,-0.000610864779446274,-0.000610864779446274,-0.017256930470466614
1774658137799515000,6.735514892578125,-0.0030543238390237093,0,-0.005039634648710489
1774658137816303600,6.7523037109375,-0.000610864779446274,-0.001221729558892548,0.009010255336761475
1774658137833092000,6.769092041015625,-0.001221729558892548,-0.000610864779446274,0.02000582218170166
1774658137849880800,6.785880859375,-0.001221729558892548,0.002443459117785096,0.027336198836565018
1774658137866669600,6.802669677734375,0,0.001832594396546483,0.024281874299049377
1774658137883458300,6.819458251953125,-0.002443459117785096,0.002443459117785096,0.016340631991624832
1774658137900247000,6.8362470703125,0.0030543238390237093,-0.001832594396546483,0.005955931730568409
1774658137917035500,6.853035400390625,-0.002443459117785096,0,-0.004428769461810589
1774658137933824300,6.86982421875,0.001221729558892548,-0.001221729558892548,-0.005039634648710489
1774658137950613000,6.886613037109375,-0.004276053514331579,0.000610864779446274,-0.005039634648710489
1774658137967401700,6.903401611328125,0.001832594396546483,-0.001221729558892548,-0.004428769461810589
1774658137984190500,6.9201904296875,0,-0.002443459117785096,0.001679878099821508
1774658138000979000,6.93697900390625,0,-0.001221729558892548,0.004123337101191282
1774658138017767700,6.953767578125,-0.001832594396546483,-0.001832594396546483,0.009621120058000088
1774658138034556400,6.970556396484375,-0.000610864779446274,-0.001832594396546483,0.019394956529140472
1774658138051345200,6.98734521484375,-0.001221729558892548,-0.0030543238390237093,0.028557928279042244
1774658138068134000,7.0041337890625,-0.001221729558892548,0.001221729558892548,0.031612250953912735
1774658138084922600,7.020922607421875,0.003665188793092966,-0.001832594396546483,0.024892739951610565
1774658138101711000,7.037711181640625,-0.007330377586185932,0,0.021838415414094925
1774658138118499800,7.054499755859375,-0.004276053514331579,0,0.027336198836565018
1774658138135288600,7.07128857421875,-0.006108647678047419,0.003665188793092966,0.03894263133406639
1774658138152077300,7.088077392578125,-0.001832594396546483,0.002443459117785096,0.03711003437638283
1774658138168865800,7.10486572265625,0.004886918235570192,0.0030543238390237093,0.009621120058000088
1774658138185654500,7.121654541015625,0.003665188793092966,0.001832594396546483,-0.03252854943275452
1774658138202443300,7.138443359375,0.003665188793092966,-0.001832594396546483,-0.052687086164951324
1774658138219232000,7.15523193359375,0,-0.004276053514331579,-0.06979130208492279
1774658138236020700,7.172020751953125,0.001832594396546483,-0.003665188793092966,-0.0435241162776947
1774658138252809200,7.188809326171875,-0.002443459117785096,0,-0.029474224895238876
1774658138269598000,7.205597900390625,0.0054977829568088055,0.001221729558892548,0.009010255336761475
1774658138286386700,7.22238671875,0,0.002443459117785096,0.02306014485657215
1774658138303175400,7.239175537109375,0.003665188793092966,-0.001221729558892548,0.015729768201708794
1774658138319964200,7.255964111328125,-0.002443459117785096,-0.002443459117785096,0.016340631991624832
1774658138336752600,7.272752685546875,0.001221729558892548,0,0.02672533318400383
1774658138353541400,7.289541259765625,-0.008552107028663158,0,0.03588830679655075
1774658138370330000,7.306330078125,-0.001832594396546483,-0.002443459117785096,0.03955349326133728
1774658138387118800,7.323118896484375,0.003665188793092966,-0.0030543238390237093,0.013286309316754341
1774658138403907600,7.339907470703125,-0.001221729558892548,0.0030543238390237093,-0.012370011769235134
1774658138420696000,7.356696044921875,0.004276053514331579,-0.001221729558892548,-0.02458730712532997
1774658138437484800,7.37348486328125,-0.004276053514331579,0,-0.020311253145337105
1774658138454273500,7.3902734375,0,-0.001832594396546483,-0.006872228812426329
1774658138471062300,7.407062255859375,0.001221729558892548,-0.004886918235570192,0.013897174037992954
1774658138487851000,7.42385107421875,-0.001221729558892548,-0.002443459117785096,0.019394956529140472
1774658138504639500,7.440639404296875,-0.004886918235570192,0.001221729558892548,0.007788525894284248
1774658138521428200,7.45742822265625,0.001221729558892548,-0.001832594396546483,0.015729768201708794
1774658138538217000,7.474217041015625,-0.001832594396546483,0.000610864779446274,0.0102319847792387
1774658138555005700,7.491005615234375,-0.000610864779446274,0.0030543238390237093,0.01511890348047018
1774658138571794400,7.50779443359375,-0.0054977829568088055,0.004886918235570192,0.024281874299049377
1774658138588583000,7.5245830078125,-0.008552107028663158,0.006719512399286032,0.010842849500477314
1774658138605371600,7.54137158203125,-0.001221729558892548,0.002443459117785096,0.004734201822429895
1774658138622160400,7.558160400390625,0.000610864779446274,0.001832594396546483,-0.016035201027989388
1774658138638949000,7.57494921875,0.0054977829568088055,0.001832594396546483,-0.06001746281981468
1774658138655737600,7.591737548828125,0.0054977829568088055,-0.0030543238390237093,-0.039858926087617874
1774658138672526300,7.6085263671875,0.0054977829568088055,-0.003665188793092966,-0.06123919412493706
1774658138689315000,7.625315185546875,-0.009162971749901772,-0.001832594396546483,-0.016646064817905426
1774658138706103800,7.642103759765625,0.009773836471140385,-0.007941242307424545,0.027947064489126205
1774658138722892500,7.658892578125,0.001832594396546483,0.002443459117785096,0.018784092739224434
1774658138739681000,7.675680908203125,0.007941242307424545,-0.003665188793092966,0.041386090219020844
1774658138756469800,7.6924697265625,-0.006108647678047419,0.001221729558892548,0.02000582218170166
1774658138773258500,7.709258544921875,0.0030543238390237093,-0.003665188793092966,0.014508038759231567
1774658138790047200,7.726047119140625,-0.001221729558892548,-0.000610864779446274,0.024281874299049377
1774658138806835700,7.742835693359375,0.0030543238390237093,-0.0030543238390237093,0.007788525894284248
1774658138823624400,7.75962451171875,-0.000610864779446274,-0.001221729558892548,0.005955931730568409
1774658138840413200,7.7764130859375,-0.007941242307424545,0.004886918235570192,-0.012370011769235134
1774658138857202000,7.793201904296875,-0.003665188793092966,0.003665188793092966,-0.009315688163042068
1774658138873990400,7.809990478515625,-0.007941242307424545,0.006719512399286032,-0.008093958720564842
1774658138890779400,7.826779296875,-0.000610864779446274,0.004886918235570192,-0.004428769461810589
1774658138907567900,7.84356787109375,-0.000610864779446274,0.002443459117785096,0.005345067009329796
1774658138924356600,7.860356689453125,0.006108647678047419,-0.000610864779446274,-0.008704823441803455
1774658138941145300,7.877145263671875,0.0030543238390237093,-0.004276053514331579,-0.017256930470466614
1774658138957934000,7.89393408203125,0.0030543238390237093,-0.0054977829568088055,-0.019700389355421066
1774658138974722600,7.91072265625,-0.000610864779446274,-0.003665188793092966,-0.012980876490473747
1774658138991511300,7.92751123046875,0.0054977829568088055,-0.007330377586185932,0.009621120058000088
1774658139008300000,7.944300048828125,-0.003665188793092966,-0.004276053514331579,0.03527744114398956
1774658139025088800,7.9610888671875,0.000610864779446274,-0.0030543238390237093,0.04505127668380737
1774658139041877200,7.977877197265625,0.001221729558892548,0.001221729558892548,0.044440411031246185
1774658139058666000,7.994666015625,-0.006108647678047419,0.002443459117785096,0.04505127668380737
1774658139075454700,8.011454833984375,0.001832594396546483,0.003665188793092966,0.04993819445371628
1774658139092243500,8.028243408203124,-0.002443459117785096,0.007941242307424545,0.018173227086663246
1774658139109032200,8.0450322265625,-0.001832594396546483,0.003665188793092966,0.025503603741526604
1774658139125820700,8.061820556640624,-0.002443459117785096,-0.000610864779446274,-0.004428769461810589
1774658139142609400,8.078609375,-0.0030543238390237093,0,-0.05024362727999687
1774658139159398100,8.095398193359374,0.001832594396546483,-0.002443459117785096,-0.07406735420227051
1774658139176187000,8.112186767578125,-0.000610864779446274,0.0030543238390237093,-0.09544762223958969
1774658139192975400,8.128975341796876,0.004886918235570192,0.004276053514331579,-0.0795651376247406
1774658139209764000,8.14576416015625,-0.001221729558892548,0.003665188793092966,-0.027030766010284424
1774658139226552800,8.162552734375,-0.000610864779446274,-0.003665188793092966,0.03283398225903511
1774658139243341600,8.179341552734375,0.001221729558892548,-0.007941242307424545,0.0743727833032608
1774658139260130000,8.196130126953125,-0.002443459117785096,-0.004886918235570192,0.09453132748603821
1774658139276918800,8.212918701171875,-0.0054977829568088055,-0.004886918235570192,0.11468986421823502
1774658139293707500,8.22970751953125,0.001832594396546483,-0.0054977829568088055,0.10613775253295898
1774658139310496300,8.246496337890624,-0.006108647678047419,-0.0030543238390237093,0.12996147572994232
1774658139327285000,8.263284912109375,0.006719512399286032,-0.0030543238390237093,0.10735948383808136
1774658139344073500,8.280073486328124,0.0030543238390237093,-0.004886918235570192,0.08170316368341446
1774658139360862200,8.2968623046875,0.000610864779446274,0.004886918235570192,-0.027030766010284424
1774658139377651000,8.31365087890625,-0.002443459117785096,0.004886918235570192,-0.0844520553946495
1774658139394439700,8.330439697265625,0.007941242307424545,0,-0.08689551800489426
1774658139411228200,8.347228271484376,-0.015271619893610477,0.01649334840476513,-0.15592323243618011
1774658139428017000,8.364016845703125,0.01588248461484909,-0.0030543238390237093,-0.07651081681251526
1774658139444805600,8.3808056640625,-0.010995565913617611,0.002443459117785096,-0.08689551800489426
1774658139461594400,8.397594482421875,0.004886918235570192,0.003665188793092966,-0.10399972647428513
1774658139478383000,8.414383056640625,-0.007941242307424545,0.006719512399286032,-0.05329795181751251
1774658139495171800,8.431171875,-0.004886918235570192,0.002443459117785096,0.031001387163996696
1774658139511960300,8.447960205078125,0.007330377586185932,0.004886918235570192,0.031612250953912735
1774658139528749000,8.4647490234375,-0.001221729558892548,-0.000610864779446274,0.08170316368341446
1774658139545537800,8.481537841796875,0.004276053514331579,-0.011606430634856224,0.15012001991271973
1774658139562326500,8.498326416015624,-0.008552107028663158,-0.001832594396546483,0.08720094710588455
1774658139579115000,8.515114990234375,-0.01649334840476513,-0.006719512399286032,0.1305723488330841
1774658139595903700,8.53190380859375,-0.004886918235570192,-0.017715077847242355,0.12935061752796173
1774658139612692500,8.5486923828125,-0.004276053514331579,-0.000610864779446274,0.021838415414094925
1774658139629481200,8.565481201171876,0.001832594396546483,0.000610864779446274,0.028557928279042244
1774658139646269700,8.582269775390625,0,0.007941242307424545,-0.04169152304530144
1774658139663058400,8.599058349609376,-0.004276053514331579,0.008552107028663158,-0.005650499369949102
1774658139679847200,8.61584716796875,0,0.004886918235570192,-0.03497200831770897
1774658139696636000,8.632635986328125,-0.002443459117785096,0.002443459117785096,-0.04718930274248123
1774658139713424400,8.64942431640625,-0.0030543238390237093,-0.006719512399286032,-0.0001527161948615685
1774658139730213000,8.666213134765625,-0.0054977829568088055,-0.004886918235570192,-0.006872228812426329
1774658139747001900,8.683001953125,-0.012217295356094837,-0.001221729558892548,0.040775224566459656
1774658139763790600,8.69979052734375,0.000610864779446274,-0.001832594396546483,0.04932733252644539
1774658139780579000,8.7165791015625,-0.003665188793092966,0.007941242307424545,0.003512472379952669
1774658139797367800,8.733367919921875,0.004276053514331579,-0.000610864779446274,0.04627300798892975
1774658139814156500,8.750156494140626,-0.009162971749901772,0.003665188793092966,0.021838415414094925
1774658139830945300,8.7669453125,-0.006108647678047419,0.007330377586185932,0.01695149764418602
1774658139847734000,8.783734130859376,-0.001221729558892548,0.001221729558892548,0.04566214233636856
1774658139864522500,8.8005224609375,0.004276053514331579,-0.002443459117785096,0.057268574833869934
1774658139881311200,8.817311279296876,-0.003665188793092966,0.0054977829568088055,0.06520981341600418
1774658139898100000,8.834099853515625,0.008552107028663158,0.004886918235570192,0.07315105944871902
1774658139914888700,8.850888671875,-0.009773836471140385,0.011606430634856224,0.054214250296354294
1774658139931677200,8.86767724609375,0.001221729558892548,-0.000610864779446274,0.10858121514320374
1774658139948466000,8.8844658203125,-0.007941242307424545,0.009162971749901772,0.09208786487579346
1774658139965254700,8.901254638671874,0.007330377586185932,0.011606430634856224,-0.004428769461810589
1774658139982043400,8.91804345703125,0.001832594396546483,0.000610864779446274,0.027947064489126205
1774658139998831900,8.934831787109376,0.001832594396546483,0.000610864779446274,-0.17852523922920227
1774658140015620600,8.95162060546875,0.007941242307424545,0.0030543238390237093,-0.19501857459545135
1774658140032409300,8.968409423828126,-0.006719512399286032,0.012217295356094837,-0.24694208800792694
1774658140049198000,8.985197998046875,0.015271619893610477,-0.001832594396546483,-0.2658788859844208
1774658140065986600,9.001986572265626,-0.017715077847242355,0.010995565913617611,-0.3520108163356781
1774658140082775300,9.018775390625,0.01893680728971958,-0.003665188793092966,-0.3874409794807434
1774658140099564000,9.03556396484375,-0.01649334840476513,0.014660755172371864,-0.4332558512687683
1774658140116352800,9.052352783203125,0.003665188793092966,0.009773836471140385,-0.41065385937690735
1774658140133141200,9.069141357421875,-0.02000582218170166,0.024434590712189674,-0.5022835731506348
1774658140149930000,9.085929931640624,-0.007941242307424545,0.015271619893610477,-0.41126471757888794
1774658140166718700,9.10271875,-0.021380268037319183,0.017715077847242355,-0.25549420714378357
1774658140183507500,9.119507568359374,-0.010384701192378998,0.006719512399286032,-0.07773254066705704
1774658140200296200,9.136296142578125,-0.008552107028663158,-0.001221729558892548,-0.011148282326757908
1774658140217084700,9.153084716796876,-0.010384701192378998,-0.003665188793092966,-0.06123919412493706
1774658140233873400,9.169873291015625,-0.014660755172371864,0,-0.24205516278743744
1774658140250662100,9.186662109375,-0.01954767294228077,0,-0.4247037470340729
1774658140267451000,9.203450927734375,-0.02916879393160343,0.009773836471140385,-0.5664243698120117
1774658140284239400,9.2202392578125,-0.01893680728971958,0.01282816007733345,-0.6085740327835083
1774658140301028000,9.237028076171875,-0.018325943499803543,0.01893680728971958,-0.5951350331306458
1774658140317816800,9.25381689453125,-0.007941242307424545,0.020158538594841957,-0.5835285782814026
1774658140334605600,9.27060546875,-0.01588248461484909,0.023823726922273636,-0.6006327867507935
1774658140351394000,9.28739404296875,-0.002443459117785096,0.017715077847242355,-0.6165152788162231
1774658140368182800,9.304182861328124,-0.008552107028663158,0.021380268037319183,-0.6776017546653748
1774658140384971500,9.320971435546875,0.007330377586185932,0.011606430634856224,-0.7228057384490967
1774658140401760300,9.33776025390625,-0.009773836471140385,0.01954767294228077,-0.7777835726737976
1774658140418549000,9.354549072265625,-0.009773836471140385,0.01588248461484909,-1.0050252676010132
1774658140435337500,9.37133740234375,-0.009162971749901772,0.01282816007733345,-1.149800181388855
1774658140452126200,9.388126220703125,-0.020769402384757996,0.018325943499803543,-1.1681262254714966
1774658140468915000,9.4049150390625,-0.018325943499803543,0.018325943499803543,-1.226769208908081
1774658140485703700,9.42170361328125,-0.020769402384757996,0.020769402384757996,-1.1479676961898804
1774658140502492400,9.438492431640626,-0.0256563201546669,0.024434590712189674,-1.1033744812011719
1774658140519281000,9.455281005859375,-0.013439024798572063,0.024434590712189674,-1.1284199953079224
1774658140536069600,9.472069580078125,-0.031612250953912735,0.033597562462091446,-1.1815651655197144
1774658140552858400,9.4888583984375,-0.01649334840476513,0.028099779039621353,-1.2310452461242676
1774658140569647000,9.505647216796875,-0.03481929376721382,0.03481929376721382,-1.2273800373077393
1774658140586435800,9.522435791015624,-0.027488915249705315,0.029932374134659767,-1.1937824487686157
1774658140603224300,9.539224365234375,-0.03649916872382164,0.02932151034474373,-1.177899956703186
1774658140620013000,9.556012939453124,-0.029932374134659767,0.024434590712189674,-1.2005020380020142
1774658140636801800,9.5728017578125,-0.028099779039621353,0.023823726922273636,-1.2096649408340454
1774658140653590500,9.589590576171876,-0.037720900028944016,0.027488915249705315,-1.246316909790039
1774658140670379000,9.60637890625,-0.024434590712189674,0.0256563201546669,-1.3183989524841309
1774658140687167700,9.623167724609376,-0.03283398225903511,0.026878049597144127,-1.336724877357483
1774658140703956500,9.63995654296875,0.03298669680953026,0.06352993845939636,-1.1320852041244507
1774658140720745200,9.6567451171875,0.015271619893610477,-0.07941242307424545,1.1366666555404663
1774658140737534000,9.673533935546875,-0.04016435891389847,0.04886918142437935,-0.39416050910949707
1774658140754322400,9.690322509765625,0.08124501258134842,-0.017104214057326317,-0.2585485279560089
1774658140771111200,9.707111083984374,-0.04199695214629173,-0.0030543238390237093,0.268627792596817
1774658140787900000,9.72389990234375,0.0256563201546669,0.003665188793092966,-0.19379685819149017
1774658140804688600,9.740688720703124,0.009162971749901772,-0.0030543238390237093,0.011453714221715927
1774658140821477400,9.757477294921875,-0.0256563201546669,-0.000610864779446274,0.03588830679655075
1774658140838266000,9.77426611328125,0.02626718580722809,-0.01893680728971958,0.02916879393160343
1774658140855054600,9.7910546875,-0.033597562462091446,0.011606430634856224,0.007788525894284248
1774658140871843300,9.80784326171875,0.014049889519810677,-0.007941242307424545,0.031612250953912735
1774658140888632000,9.824632080078125,-0.022449281066656113,0.008552107028663158,0.10980294644832611
1774658140905420800,9.8414208984375,-0.006719512399286032,0.004276053514331579,0.03283398225903511
1774658140922209500,9.85820947265625,0.0030543238390237093,0.004276053514331579,-0.04718930274248123
1774658140938998000,9.874998046875,-0.010384701192378998,0.009162971749901772,0.021227551624178886
1774658140955786800,9.891786865234375,0.008552107028663158,0.001221729558892548,-0.019700389355421066
1774658140972575500,9.908575439453125,-0.007330377586185932,0.0030543238390237093,0.01206457894295454
1774658140989364200,9.9253642578125,0.003665188793092966,-0.003665188793092966,-0.0013744457392022014
1774658141006153000,9.942153076171875,-0.004276053514331579,0.000610864779446274,0.002290742937475443
1774658141022941400,9.95894140625,-0.004276053514331579,-0.001221729558892548,0.004734201822429895
1774658141039730200,9.975730224609375,-0.000610864779446274,-0.003665188793092966,-0.0001527161948615685
1774658141056519000,9.992518798828126,-0.001221729558892548,-0.001832594396546483,0.0010690133785828948
1774658141073307600,10.0093076171875,0.004276053514331579,-0.004886918235570192,-0.005650499369949102
1774658141090096400,10.026096435546876,0,-0.000610864779446274,-0.0038179049734026194
1774658141106885000,10.042885009765625,0.003665188793092966,-0.001832594396546483,0.007788525894284248
1774658141123673600,10.059673583984376,-0.000610864779446274,0.002443459117785096,-0.012370011769235134
1774658141140462300,10.07646240234375,0.001221729558892548,0.003665188793092966,-0.011759147047996521
1774658141157251000,10.0932509765625,0,0.004886918235570192,-0.011148282326757908
1774658141174039800,10.110039794921875,-0.004886918235570192,0.006719512399286032,-0.016035201027989388
1774658141190828500,10.12682861328125,-0.002443459117785096,0.006719512399286032,-0.02458730712532997
1774658141207617000,10.143616943359374,-0.004276053514331579,0.0054977829568088055,-0.045967575162649155
1774658141224405800,10.16040576171875,0,0.001221729558892548,-0.05757400393486023
1774658141241194500,10.177194580078124,-0.001221729558892548,-0.001832594396546483,0.006566796451807022
1774658141257983200,10.193983154296875,-0.002443459117785096,0,-0.0154243353754282
1774658141274772000,10.21077197265625,0.001832594396546483,-0.006108647678047419,0.017562363296747208
1774658141291560400,10.227560546875,0,-0.0030543238390237093,0.003512472379952669
1774658141308349200,10.24434912109375,0.006719512399286032,-0.003665188793092966,0.013897174037992954
1774658141325138000,10.261137939453125,0,0.000610864779446274,0.003512472379952669
1774658141341926700,10.2779267578125,0.003665188793092966,-0.001221729558892548,-0.0032070400193333626
1774658141358715400,10.29471533203125,0.000610864779446274,0.000610864779446274,-0.0001527161948615685
1774658141375504000,10.31150390625,0.001221729558892548,0.001221729558892548,-0.006872228812426329
1774658141392292600,10.328292724609375,0.0030543238390237093,0.001832594396546483,0.0010690133785828948
1774658141409081300,10.345081298828125,0.000610864779446274,0.002443459117785096,-0.004428769461810589
1774658141425870000,10.3618701171875,0,-0.001221729558892548,-0.0032070400193333626
1774658141442658800,10.378658935546875,0.001221729558892548,-0.001221729558892548,-0.011759147047996521
1774658141459447300,10.395447265625,0.000610864779446274,-0.002443459117785096,0.001679878099821508
1774658141476236000,10.412236083984375,0.001832594396546483,-0.003665188793092966,0.007788525894284248
1774658141493024800,10.429024658203126,-0.000610864779446274,-0.000610864779446274,-0.009315688163042068
1774658141509813500,10.4458134765625,0.000610864779446274,-0.001221729558892548,-0.010537417605519295
1774658141526602000,10.46260205078125,-0.004886918235570192,0.001221729558892548,0.012675444595515728
1774658141543390700,10.479390625,-0.006108647678047419,0.004886918235570192,-0.0013744457392022014
1774658141560179500,10.496179443359376,0.0030543238390237093,0.004886918235570192,-0.007483093533664942
1774658141576968200,10.51296826171875,0.0030543238390237093,0.0030543238390237093,0.007788525894284248
1774658141593757000,10.5297568359375,0.001221729558892548,0.007330377586185932,-0.0062613640911877155
1774658141610545400,10.54654541015625,-0.018325943499803543,0.008552107028663158,0.02306014485657215
1774658141627334100,10.563334228515625,-0.015271619893610477,0.010384701192378998,0.021227551624178886
1774658141644123000,10.580122802734374,-0.0256563201546669,0.012217295356094837,0.004734201822429895
1774658141660911600,10.59691162109375,-0.008552107028663158,0.006108647678047419,-0.008704823441803455
1774658141677700400,10.613700439453124,0.011606430634856224,-0.008552107028663158,0.011453714221715927
1774658141694489000,10.630489013671875,-0.001832594396546483,-0.007941242307424545,-0.005039634648710489
1774658141711277600,10.647277587890626,-0.006719512399286032,-0.006108647678047419,0.040775224566459656
1774658141728066300,10.66406640625,-0.006108647678047419,-0.003665188793092966,0.060322895646095276
1774658141744855000,10.68085498046875,0.0030543238390237093,0.004276053514331579,-0.049632761627435684
1774658141761643500,10.6976435546875,0.0256563201546669,-0.014049889519810677,0.031001387163996696
1774658141778432300,10.714432373046876,0.02871064469218254,-0.017715077847242355,-0.03558287397027016
1774658141795221000,10.731220947265625,0.036651886999607086,-0.02260199747979641,0.021838415414094925
1774658141812009700,10.748009765625,0.001832594396546483,-0.004886918235570192,0.041386090219020844
1774658141828798500,10.764798583984375,0.014049889519810677,-0.007941242307424545,0.007788525894284248
1774658141845587200,10.781587158203125,-0.014049889519810677,0.0054977829568088055,-0.011148282326757908
1774658141862375700,10.798375732421874,0.021991131827235222,-0.009162971749901772,-0.020311253145337105
1774658141879164400,10.815164306640625,0.002443459117785096,-0.010384701192378998,-0.016035201027989388
1774658141895953200,10.831953125,0.014049889519810677,-0.020769402384757996,-0.007483093533664942
1774658141912742000,10.848741943359375,0.004886918235570192,-0.021380268037319183,0.02611446939408779
1774658141929530400,10.8655302734375,-0.000610864779446274,-0.008552107028663158,-0.03741546720266342
1774658141946319000,10.882319091796875,-0.000610864779446274,-0.003665188793092966,0.001679878099821508
1774658141963107800,10.89910791015625,-0.009162971749901772,0.007941242307424545,-0.019700389355421066
1774658141979896600,10.915896484375,0.006719512399286032,0.004276053514331579,-0.004428769461810589
1774658141996685300,10.932685302734376,0.008552107028663158,0.0030543238390237093,-0.005650499369949102
1774658142013473800,10.949473876953125,0.010995565913617611,0.004886918235570192,-0.0001527161948615685
1774658142030262500,10.966262451171875,0.002443459117785096,0.0030543238390237093,0.019394956529140472
1774658142047051300,10.98305126953125,-0.001832594396546483,0.000610864779446274,0.02916879393160343
1774658142063840000,10.999840087890625,-0.014660755172371864,0.004886918235570192,0.01206457894295454
1774658142080628500,11.01662841796875,-0.01588248461484909,0.004886918235570192,-0.004428769461810589
1774658142097417200,11.033417236328125,-0.009773836471140385,-0.004276053514331579,0.005345067009329796
1774658142114206000,11.0502060546875,-0.0030543238390237093,-0.007941242307424545,0.009010255336761475
1774658142130994700,11.06699462890625,0,-0.004276053514331579,-0.0019853105768561363
1774658142147783400,11.083783447265626,-0.001221729558892548,-0.004276053514331579,0.014508038759231567
1774658142164572200,11.100572265625,-0.0054977829568088055,0.006719512399286032,-0.006872228812426329
1774658142181360600,11.117360595703126,-0.0054977829568088055,0.006719512399286032,0.007177661173045635
1774658142198149400,11.1341494140625,-0.010384701192378998,0.017104214057326317,-0.006872228812426329
1774658142214938000,11.150938232421876,-0.004886918235570192,0.015271619893610477,-0.01359174121171236
1774658142231726600,11.1677265625,0.003665188793092966,0.008552107028663158,-0.009315688163042068
1774658142248515300,11.184515380859375,0.008552107028663158,-0.006108647678047419,0.001679878099821508
1774658142265304000,11.201303955078124,0.001221729558892548,-0.009162971749901772,0.001679878099821508
1774658142282092800,11.2180927734375,-0.006108647678047419,-0.006719512399286032,0.006566796451807022
1774658142298881500,11.234881591796874,-0.017104214057326317,-0.000610864779446274,0.0010690133785828948
1774658142315670000,11.251669921875,-0.008552107028663158,-0.001221729558892548,0.002901607658714056
1774658142332458800,11.268458740234376,-0.010384701192378998,0.0030543238390237093,-0.006872228812426329
1774658142349247500,11.28524755859375,0.0054977829568088055,-0.007941242307424545,0.007177661173045635
1774658142366036200,11.3020361328125,0.010384701192378998,-0.009162971749901772,0.0010690133785828948
1774658142382825000,11.318824951171875,0.015271619893610477,-0.008552107028663158,0.03283398225903511
1774658142399613400,11.335613525390626,0.001832594396546483,0,0.057268574833869934
1774658142416402200,11.352402099609375,0.001221729558892548,0.0030543238390237093,0.051159925758838654
1774658142433191000,11.36919091796875,0.001221729558892548,0.004276053514331579,-0.0007635809597559273
1774658142449979600,11.385979736328125,0.010384701192378998,-0.006719512399286032,0.002290742937475443
1774658142466768100,11.40276806640625,0.007330377586185932,-0.007941242307424545,-0.0038179049734026194
1774658142483556900,11.419556884765624,0.017715077847242355,-0.017715077847242355,0.013897174037992954
1774658142500345600,11.436345703125,-0.004276053514331579,-0.010995565913617611,-0.0019853105768561363
1774658142517134300,11.45313427734375,0.001832594396546483,-0.007330377586185932,-0.011759147047996521
1774658142533922800,11.4699228515625,-0.006719512399286032,0,-0.005650499369949102
1774658142550711600,11.486711669921876,0.010384701192378998,-0.003665188793092966,-0.006872228812426329
1774658142567500300,11.503500244140625,0.002443459117785096,0.001832594396546483,-0.004428769461810589
1774658142584289000,11.5202890625,0.002443459117785096,0.002443459117785096,0.004123337101191282
1774658142601077800,11.537077880859375,-0.002443459117785096,0.002443459117785096,0.005345067009329796
1774658142617866200,11.5538662109375,-0.009162971749901772,0.007330377586185932,0.004734201822429895
1774658142634655000,11.570655029296875,-0.001221729558892548,0.006108647678047419,0.004123337101191282
1774658142651443700,11.587443603515625,-0.006719512399286032,0.006108647678047419,-0.0032070400193333626
1774658142668232200,11.604232177734374,-0.004886918235570192,-0.001221729558892548,0.005955931730568409
1774658142685021000,11.62102099609375,-0.004886918235570192,-0.002443459117785096,-0.0013744457392022014
1774658142701809700,11.6378095703125,-0.0054977829568088055,-0.003665188793092966,0.01511890348047018
1774658142718598400,11.654598388671875,-0.006719512399286032,0.001221729558892548,0.0102319847792387
1774658142735387100,11.67138720703125,-0.007941242307424545,0.006108647678047419,-0.0032070400193333626
1774658142752175600,11.688175537109375,-0.004276053514331579,0.007330377586185932,-0.004428769461810589
1774658142768964400,11.70496435546875,-0.001221729558892548,0.001221729558892548,0.0010690133785828948
1774658142785753000,11.721753173828125,0,-0.001221729558892548,-0.0025961752980947495
1774658142802541800,11.738541748046876,0.0054977829568088055,-0.0054977829568088055,0.002290742937475443
1774658142819330300,11.755330322265625,0.002443459117785096,-0.004276053514331579,0.011453714221715927
1774658142836119000,11.772119140625,-0.004886918235570192,0.001832594396546483,-0.0062613640911877155
1774658142852907800,11.78890771484375,-0.004276053514331579,0.001832594396546483,0.005955931730568409
1774658142869696500,11.805696533203125,0.001832594396546483,-0.000610864779446274,-0.0025961752980947495
1774658142886485000,11.822485107421874,0.001832594396546483,-0.000610864779446274,-0.004428769461810589
1774658142903273700,11.839273681640625,0.006108647678047419,-0.004886918235570192,0.005345067009329796
1774658142920062500,11.8560625,0.003665188793092966,-0.006108647678047419,-0.0007635809597559273
1774658142936851200,11.872851318359375,0.006108647678047419,-0.006108647678047419,0.001679878099821508
1774658142953639700,11.8896396484375,0.006108647678047419,-0.007941242307424545,0.0102319847792387
1774658142970428400,11.906428466796875,0.003665188793092966,-0.004276053514331579,-0.005039634648710489
1774658142987217200,11.923217041015626,0.001832594396546483,-0.004276053514331579,0.002901607658714056
1774658143004006000,11.940005859375,-0.000610864779446274,-0.004886918235570192,0.003512472379952669
1774658143020794400,11.95679443359375,0.0030543238390237093,-0.001221729558892548,-0.0001527161948615685
1774658143037583000,11.9735830078125,-0.000610864779446274,0.001221729558892548,-0.0007635809597559273
1774658143054371800,11.990371826171875,0.003665188793092966,0,0.002290742937475443
1774658143071160600,12.00716064453125,-0.001221729558892548,0.001832594396546483,-0.005039634648710489
1774658143087949000,12.023948974609375,-0.001221729558892548,0.001221729558892548,0.004123337101191282
1774658143104737800,12.04073779296875,-0.006719512399286032,0.004886918235570192,-0.0032070400193333626
1774658143121526500,12.057526611328125,-0.002443459117785096,0.0030543238390237093,-0.005039634648710489
1774658143138315300,12.074315185546874,-0.0054977829568088055,0.004276053514331579,0.0010690133785828948
1774658143155103700,12.091103759765625,-0.001221729558892548,0.001221729558892548,-0.005039634648710489
1774658143171892500,12.107892578125,0.001221729558892548,-0.001832594396546483,-0.0001527161948615685
1774658143188681200,12.12468115234375,0,-0.0030543238390237093,0.00045814859913662076
1774658143205470000,12.141469970703126,0.001832594396546483,-0.003665188793092966,-0.0038179049734026194
1774658143222258700,12.1582587890625,-0.000610864779446274,-0.000610864779446274,0.00045814859913662076
1774658143239047200,12.175047119140626,-0.000610864779446274,-0.001832594396546483,-0.0019853105768561363
1774658143255836000,12.1918359375,0.0030543238390237093,-0.0030543238390237093,-0.0007635809597559273
1774658143272624600,12.208624755859375,0.000610864779446274,-0.001832594396546483,-0.0013744457392022014
1774658143289413400,12.225413330078124,0.002443459117785096,-0.001221729558892548,-0.0001527161948615685
1774658143306201900,12.242201904296875,-0.001221729558892548,-0.001832594396546483,0.001679878099821508
1774658143322990600,12.258990478515624,-0.0054977829568088055,0.0030543238390237093,-0.0019853105768561363
1774658143339779300,12.275779296875,0,0.004886918235570192,0.003512472379952669
1774658143356568000,12.292568115234374,0,0.003665188793092966,-0.004428769461810589
1774658143373356800,12.309356689453125,-0.002443459117785096,0.004276053514331579,0.001679878099821508
1774658143390145500,12.3261455078125,-0.002443459117785096,-0.001221729558892548,-0.0013744457392022014
1774658143406934000,12.34293408203125,0.000610864779446274,-0.001221729558892548,0.00045814859913662076
1774658143423722800,12.35972265625,-0.000610864779446274,0,-0.0013744457392022014
1774658143440511500,12.376511474609375,0.004276053514331579,-0.002443459117785096,0.001679878099821508
1774658143457300200,12.39330029296875,0.002443459117785096,-0.004276053514331579,-0.0025961752980947495
1774658143474088700,12.410088623046875,-0.002443459117785096,-0.002443459117785096,-0.0007635809597559273
1774658143490877400,12.42687744140625,-0.001221729558892548,-0.002443459117785096,0.00045814859913662076
1774658143507666200,12.443666259765624,0.0030543238390237093,0.001832594396546483,-0.0062613640911877155
1774658143524455000,12.460454833984375,0.000610864779446274,0.0030543238390237093,0.001679878099821508
1774658143541243600,12.47724365234375,-0.000610864779446274,0.001221729558892548,-0.0001527161948615685
1774658143558032100,12.4940322265625,-0.004886918235570192,-0.000610864779446274,-0.0025961752980947495
1774658143574820900,12.51082080078125,0,-0.000610864779446274,0.002901607658714056
1774658143591609600,12.527609619140625,0.002443459117785096,0.001832594396546483,-0.0013744457392022014
1774658143608398300,12.5443984375,0.001221729558892548,0,0.0010690133785828948
1774658143625187000,12.56118701171875,-0.006108647678047419,0.000610864779446274,-0.0007635809597559273
1774658143641975600,12.5779755859375,-0.006108647678047419,0.001832594396546483,-0.004428769461810589
1774658143658764300,12.594764404296875,0.000610864779446274,0.003665188793092966,-0.005039634648710489
1774658143675553000,12.611552978515626,-0.004886918235570192,0.006719512399286032,-0.009926552884280682
1774658143692341800,12.628341796875,-0.0030543238390237093,0.0030543238390237093,-0.005039634648710489
1774658143709130200,12.645130126953125,-0.007330377586185932,-0.001221729558892548,-0.007483093533664942
1774658143725919000,12.6619189453125,-0.004886918235570192,-0.000610864779446274,-0.0001527161948615685
1774658143742707700,12.678707763671875,-0.004276053514331579,0.003665188793092966,-0.009926552884280682
1774658143759496400,12.695496337890624,-0.0054977829568088055,0.006108647678047419,-0.02214384824037552
1774658143776285200,12.71228515625,-0.004886918235570192,0.004886918235570192,-0.012980876490473747
1774658143793074000,12.729073974609374,-0.004886918235570192,0.0030543238390237093,-0.010537417605519295
1774658143809862400,12.7458623046875,-0.004886918235570192,0.001832594396546483,-0.007483093533664942
1774658143826651100,12.762651123046876,0.000610864779446274,0,-0.0001527161948615685
1774658143843439900,12.77943994140625,0,-0.000610864779446274,0.002901607658714056
1774658143860228600,12.796228515625,-0.000610864779446274,-0.003665188793092966,-0.0001527161948615685
1774658143877017300,12.813017333984375,-0.001221729558892548,-0.002443459117785096,0.001679878099821508
1774658143893805800,12.829805908203125,0.0030543238390237093,-0.000610864779446274,0.0010690133785828948
1774658143910594600,12.846594482421875,0.001221729558892548,0.000610864779446274,-0.009926552884280682
1774658143927383300,12.86338330078125,0.002443459117785096,0.000610864779446274,-0.0007635809597559273
1774658143944172000,12.880172119140624,0.000610864779446274,0.003665188793092966,-0.01359174121171236
1774658143960960500,12.89696044921875,0.001221729558892548,0.004276053514331579,-0.009926552884280682
1774658143977749200,12.913749267578124,0.002443459117785096,-0.001221729558892548,0.00045814859913662076
1774658143994538000,12.9305380859375,0.001221729558892548,-0.000610864779446274,-0.0013744457392022014
1774658144011326700,12.94732666015625,-0.000610864779446274,0.000610864779446274,-0.008093958720564842
1774658144028115500,12.964115478515625,0.004276053514331579,0,0.005955931730568409
1774658144044904000,12.980904052734376,0.002443459117785096,-0.002443459117785096,0.0010690133785828948
1774658144061692700,12.997692626953125,-0.002443459117785096,-0.004276053514331579,0.002901607658714056
1774658144078481400,13.0144814453125,0.000610864779446274,-0.004886918235570192,0.014508038759231567
1774658144095270100,13.031270263671875,-0.001221729558892548,0.001832594396546483,-0.0038179049734026194
1774658144112059000,13.048058837890625,0.002443459117785096,0.001832594396546483,0.005345067009329796
1774658144128847400,13.064847412109375,-0.002443459117785096,0.0054977829568088055,-0.006872228812426329
1774658144145636000,13.081635986328125,-0.002443459117785096,0.0030543238390237093,-0.0019853105768561363
1774658144162424800,13.0984248046875,-0.0054977829568088055,0.004276053514331579,-0.0007635809597559273
1774658144179213600,13.115213623046875,0.002443459117785096,0.002443459117785096,0.002290742937475443
1774658144196002300,13.132002197265624,0.0030543238390237093,0.001832594396546483,0.006566796451807022
1774658144212790800,13.148790771484375,-0.003665188793092966,0.004276053514331579,0.003512472379952669
1774658144229579500,13.16557958984375,-0.007941242307424545,0.006108647678047419,-0.009315688163042068
1774658144246368300,13.1823681640625,0.001832594396546483,0.0030543238390237093,0.007788525894284248
1774658144263157000,13.199156982421876,0.006719512399286032,0.002443459117785096,-0.0038179049734026194
1774658144279945500,13.215945556640625,0,-0.002443459117785096,-0.009315688163042068
1774658144296734200,13.232734130859376,-0.0030543238390237093,-0.001832594396546483,-0.017867794260382652
1774658144313523000,13.24952294921875,0.001832594396546483,-0.001221729558892548,-0.009926552884280682
1774658144330311700,13.266311767578125,0.004886918235570192,0.0030543238390237093,-0.007483093533664942
1774658144347100400,13.283100341796874,0.006108647678047419,0.000610864779446274,-0.02458730712532997
1774658144363889000,13.299888916015625,0.009773836471140385,-0.006719512399286032,-0.019700389355421066
1774658144380677600,13.316677734375,0.0054977829568088055,0,-0.007483093533664942
1774658144397466400,13.33346630859375,0.009162971749901772,0,-0.010537417605519295
1774658144414255000,13.350255126953124,0.003665188793092966,0.000610864779446274,0.018784092739224434
1774658144431043600,13.367043701171875,0.001221729558892548,0.006108647678047419,-0.01847865991294384
1774658144447832300,13.383832275390626,-0.003665188793092966,0.000610864779446274,0.003512472379952669
1774658144464621000,13.40062109375,-0.002443459117785096,-0.0054977829568088055,0.005345067009329796
1774658144481409800,13.417409912109376,0.004276053514331579,-0.009162971749901772,-0.008704823441803455
1774658144498198500,13.434198486328125,-0.001832594396546483,-0.003665188793092966,0.007177661173045635
1774658144514987000,13.450987060546876,0.004886918235570192,-0.003665188793092966,-0.0032070400193333626
1774658144531775700,13.467775634765625,0.002443459117785096,-0.003665188793092966,0.001679878099821508
1774658144548564500,13.484564453125,0.015271619893610477,-0.001832594396546483,-0.006872228812426329
1774658144565353200,13.501353271484374,0.013439024798572063,-0.0030543238390237093,0.001679878099821508
1774658144582142000,13.518141845703125,0.013439024798572063,-0.001221729558892548,-0.0013744457392022014
1774658144598930400,13.534930419921874,0.001832594396546483,0.007330377586185932,-0.011759147047996521
1774658144615719200,13.55171923828125,0.004886918235570192,0.002443459117785096,-0.011148282326757908
1774658144632508000,13.5685078125,0.010995565913617611,-0.004276053514331579,-0.006872228812426329
1774658144649296400,13.58529638671875,0.01649334840476513,-0.014660755172371864,-0.006872228812426329
1774658144666085000,13.602085205078126,0.010384701192378998,-0.01282816007733345,-0.012980876490473747
1774658144682873900,13.618873779296875,-0.000610864779446274,-0.007941242307424545,0.021838415414094925
1774658144699662600,13.63566259765625,-0.010995565913617611,0.000610864779446274,0.014508038759231567
1774658144716451300,13.652451416015625,-0.011606430634856224,0.010384701192378998,0.013897174037992954
1774658144733239800,13.66923974609375,0.004886918235570192,0.002443459117785096,-0.009926552884280682
1774658144750028500,13.686028564453125,0.010384701192378998,-0.001221729558892548,0.004123337101191282
1774658144766817300,13.7028173828125,0.000610864779446274,0.003665188793092966,0.009010255336761475
1774658144783606000,13.71960595703125,-0.012217295356094837,0.008552107028663158,0.021838415414094925
1774658144800394800,13.736394775390625,-0.017104214057326317,0.015271619893610477,0.019394956529140472
1774658144817183200,13.753183349609374,-0.013439024798572063,0.017104214057326317,-0.023365577682852745
1774658144833972000,13.769971923828125,-0.004276053514331579,0.012217295356094837,-0.006872228812426329
1774658144850760700,13.7867607421875,-0.021380268037319183,0.013439024798572063,-0.02519817277789116
1774658144867549400,13.803549560546875,-0.003665188793092966,0.002443459117785096,-0.02764163166284561
1774658144884338000,13.820337890625,-0.021991131827235222,0.003665188793092966,-0.016035201027989388
1774658144901126700,13.837126708984375,-0.007330377586185932,-0.001832594396546483,-0.02825249545276165
1774658144917915400,13.853915283203126,-0.01893680728971958,0.0054977829568088055,-0.03191768378019333
1774658144934704000,13.8707041015625,0.003665188793092966,-0.000610864779446274,-0.04780016839504242
1774658144951492600,13.88749267578125,0.008552107028663158,-0.000610864779446274,-0.02764163166284561
1774658144968281300,13.90428125,0.020158538594841957,-0.008552107028663158,-0.005650499369949102
1774658144985070000,13.921070068359375,0.007330377586185932,-0.006108647678047419,-0.0025961752980947495
1774658145001858800,13.93785888671875,0.009773836471140385,-0.004276053514331579,-0.0001527161948615685
1774658145018647300,13.954647216796875,0.008552107028663158,-0.001832594396546483,-0.011759147047996521
1774658145035436000,13.97143603515625,0.009162971749901772,-0.006108647678047419,0.005955931730568409
1774658145052224800,13.988224853515625,0.017715077847242355,-0.01588248461484909,-0.014813470654189587
1774658145069013500,14.005013427734376,0.01588248461484909,-0.01893680728971958,-0.030085090547800064
1774658145085802000,14.021802001953125,0.01588248461484909,-0.01893680728971958,-0.030695954337716103
1774658145102590700,14.0385908203125,0.008552107028663158,-0.010995565913617611,-0.020311253145337105
1774658145119379500,14.05537939453125,0.011606430634856224,-0.01588248461484909,0.04199695214629173
1774658145136168200,14.072168212890626,0.012217295356094837,-0.010384701192378998,0.0206166859716177
1774658145152956700,14.088956787109375,0.011606430634856224,-0.008552107028663158,0.04505127668380737
1774658145169745400,14.105745361328125,0.010384701192378998,-0.001221729558892548,0.02977965772151947
1774658145186534100,14.1225341796875,0.001221729558892548,0.001832594396546483,0.06643154472112656
1774658145203323000,14.139322998046875,-0.0030543238390237093,0.000610864779446274,0.0694858655333519
1774658145220111400,14.156111328125,-0.001832594396546483,0.004276053514331579,0.03527744114398956
1774658145236900000,14.172900146484375,-0.014049889519810677,0.008552107028663158,0.04505127668380737
1774658145253688800,14.189688720703124,-0.007330377586185932,0.006108647678047419,0.013286309316754341
1774658145270477600,14.2064775390625,-0.010384701192378998,0.007330377586185932,0.005345067009329796
1774658145287266000,14.22326611328125,-0.01893680728971958,0.011606430634856224,0.011453714221715927
1774658145304054800,14.2400546875,-0.0256563201546669,0.017715077847242355,-0.0019853105768561363
1774658145320843500,14.256843505859376,-0.011606430634856224,0.014660755172371864,-0.03375028073787689
1774658145337632300,14.27363232421875,-0.008552107028663158,0.011606430634856224,0.002290742937475443
1774658145354420700,14.290420654296875,0.001832594396546483,0.000610864779446274,-0.0025961752980947495
1774658145371209500,14.30720947265625,-0.008552107028663158,0.004276053514331579,0.002290742937475443
1774658145387998200,14.323998291015625,-0.017104214057326317,0.015271619893610477,-0.009315688163042068
1774658145404787000,14.340786865234374,-0.007941242307424545,0.007941242307424545,-0.0019853105768561363
1774658145421575400,14.357575439453125,-0.011606430634856224,0.0054977829568088055,-0.005650499369949102
1774658145438364200,14.3743642578125,0.001221729558892548,-0.007330377586185932,-0.0013744457392022014
1774658145455153000,14.39115283203125,-0.003665188793092966,-0.007941242307424545,0.009621120058000088
1774658145471941600,14.407941650390624,-0.003665188793092966,-0.0054977829568088055,0.004734201822429895
1774658145488730000,14.424730224609375,-0.006108647678047419,-0.000610864779446274,-0.008704823441803455
1774658145505518800,14.441518798828126,-0.002443459117785096,-0.000610864779446274,-0.012980876490473747
1774658145522307600,14.4583076171875,0.009162971749901772,-0.004276053514331579,-0.016646064817905426
1774658145539096300,14.475096435546876,0.008552107028663158,-0.009162971749901772,0.006566796451807022
1774658145555884800,14.491884765625,0.029932374134659767,-0.023212861269712448,0.02977965772151947
1774658145572673500,14.508673583984375,0.01649334840476513,-0.012217295356094837,0.012675444595515728
1774658145589462300,14.525462158203124,0.004276053514331579,-0.007330377586185932,-0.0019853105768561363
1774658145606251000,14.5422509765625,0.001221729558892548,-0.002443459117785096,-0.027030766010284424
1774658145623039500,14.55903955078125,-0.006719512399286032,-0.006719512399286032,-0.008704823441803455
1774658145639828200,14.575828125,0.0054977829568088055,-0.011606430634856224,-0.0062613640911877155
1774658145656617000,14.592616943359374,-0.001221729558892548,-0.011606430634856224,0.002901607658714056
1774658145673405700,14.60940576171875,0.0054977829568088055,-0.01282816007733345,0.005955931730568409
1774658145690194200,14.626194091796876,-0.009162971749901772,0.002443459117785096,-0.0025961752980947495
1774658145706983000,14.64298291015625,0.001832594396546483,0.003665188793092966,0.006566796451807022
1774658145723771400,14.659771484375,-0.004276053514331579,0.014660755172371864,-0.0007635809597559273
1774658145740560100,14.67656005859375,-0.007941242307424545,0.01588248461484909,0.005955931730568409
1774658145757348900,14.693348876953126,-0.001832594396546483,0.010384701192378998,0.0010690133785828948
1774658145774137600,14.7101376953125,-0.002443459117785096,0.006719512399286032,0.0102319847792387
1774658145790926000,14.726926025390625,0.001221729558892548,0.000610864779446274,0.02977965772151947
1774658145807714800,14.74371484375,-0.014660755172371864,0.007941242307424545,-0.008704823441803455
1774658145824503600,14.760503662109375,-0.01893680728971958,0.001832594396546483,0.007788525894284248
1774658145841292300,14.777292236328124,-0.018325943499803543,0.001832594396546483,-0.0001527161948615685
1774658145858080800,14.794080810546875,-0.007330377586185932,-0.0030543238390237093,0.002290742937475443
1774658145874869500,14.810869384765626,-0.001221729558892548,-0.001832594396546483,0.00045814859913662076
1774658145891658200,14.827658203125,0.002443459117785096,-0.000610864779446274,-0.0025961752980947495
1774658145908447000,14.844447021484376,0.003665188793092966,-0.0030543238390237093,0.01206457894295454
1774658145925235500,14.8612353515625,0.001221729558892548,0.0030543238390237093,0.016340631991624832
1774658145942024200,14.878024169921876,0.006108647678047419,0.003665188793092966,0.006566796451807022
1774658145958813000,14.89481298828125,0.007941242307424545,0.004276053514331579,0.005345067009329796
1774658145975601400,14.911601318359375,0.006108647678047419,0,0.005955931730568409
1774658145992390100,14.92839013671875,-0.001221729558892548,-0.0054977829568088055,0.002901607658714056
1774658146009179000,14.945178955078125,-0.001221729558892548,-0.0054977829568088055,0.004123337101191282
1774658146025967600,14.961967529296874,0,-0.007330377586185932,0.001679878099821508
1774658146042756000,14.978756103515625,0.003665188793092966,-0.007330377586185932,0.003512472379952669
1774658146059544800,14.995544921875,0,-0.006719512399286032,0.0010690133785828948
1774658146076333600,15.01233349609375,0.002443459117785096,-0.006719512399286032,0.002290742937475443
1774658146093122300,15.029122314453126,0.006108647678047419,-0.003665188793092966,0.004123337101191282
1774658146109910800,15.045910888671875,0.007941242307424545,-0.001832594396546483,0.004123337101191282
1774658146126699500,15.062699462890626,0.002443459117785096,0.007330377586185932,-0.0025961752980947495
1774658146143488300,15.07948828125,-0.001832594396546483,0.0054977829568088055,-0.0032070400193333626
1774658146160276700,15.09627685546875,-0.000610864779446274,0.002443459117785096,0.003512472379952669
1774658146177065500,15.1130654296875,0.004276053514331579,-0.001221729558892548,-0.0032070400193333626
1774658146193854200,15.129854248046875,0.003665188793092966,-0.000610864779446274,-0.0001527161948615685
1774658146210642700,15.146642578125,-0.0054977829568088055,-0.001221729558892548,0.004123337101191282
1774658146227431400,15.163431396484375,-0.003665188793092966,-0.003665188793092966,0.001679878099821508
1774658146244220200,15.18022021484375,-0.007941242307424545,0.000610864779446274,-0.004428769461810589
1774658146261009000,15.1970087890625,0.004276053514331579,-0.000610864779446274,0.007788525894284248
1774658146277797400,15.21379736328125,0.001221729558892548,0.0030543238390237093,-0.0038179049734026194
1774658146294586000,15.230586181640625,0.001832594396546483,0.001221729558892548,-0.0001527161948615685
1774658146311374800,15.247374755859376,-0.004276053514331579,0,-0.0032070400193333626
1774658146328163300,15.264163330078125,-0.003665188793092966,0.004276053514331579,-0.0007635809597559273
1774658146344952000,15.2809521484375,0,0.0054977829568088055,-0.0038179049734026194
1774658146361740800,15.29774072265625,-0.006719512399286032,0.007330377586185932,-0.011759147047996521
1774658146378529500,15.314529541015625,-0.009773836471140385,0.001832594396546483,-0.010537417605519295
1774658146395318000,15.331318115234374,-0.010995565913617611,0.002443459117785096,-0.009315688163042068
1774658146412106800,15.348106689453125,-0.004886918235570192,0.000610864779446274,-0.010537417605519295
1774658146428895500,15.3648955078125,-0.0054977829568088055,0.000610864779446274,-0.0062613640911877155
1774658146445684200,15.381684326171875,-0.004886918235570192,0.001832594396546483,0.0010690133785828948
1774658146462472700,15.39847265625,-0.0030543238390237093,0.001832594396546483,0.00045814859913662076
1774658146479261400,15.415261474609375,-0.000610864779446274,0.002443459117785096,-0.0019853105768561363
1774658146496050200,15.43205029296875,-0.001832594396546483,0.001832594396546483,0.002290742937475443
1774658146512838700,15.448838623046875,-0.002443459117785096,0.002443459117785096,-0.006872228812426329
1774658146529627400,15.46562744140625,0.000610864779446274,0.000610864779446274,-0.006872228812426329
1774658146546416000,15.482416015625,0.004886918235570192,0.000610864779446274,0.002901607658714056
1774658146563204900,15.499204833984376,0.000610864779446274,0.001832594396546483,-0.014813470654189587
1774658146579993300,15.515993408203125,-0.001832594396546483,0.000610864779446274,-0.020311253145337105
1774658146596782000,15.532781982421875,0.003665188793092966,-0.000610864779446274,0.003512472379952669
1774658146613570600,15.549570556640624,0.006108647678047419,-0.0030543238390237093,-0.014202605932950974
1774658146630359300,15.566359375,0.011606430634856224,-0.009162971749901772,0.013286309316754341
1774658146647148000,15.58314794921875,0.007941242307424545,-0.0054977829568088055,-0.0001527161948615685
1774658146663936800,15.599936767578125,0.0030543238390237093,-0.0030543238390237093,-0.0001527161948615685
1774658146680725200,15.616725341796876,-0.000610864779446274,-0.002443459117785096,0.007788525894284248
1774658146697514000,15.633513916015625,0.004886918235570192,-0.000610864779446274,-0.006872228812426329
1774658146714302700,15.650302734375,0.006719512399286032,-0.0054977829568088055,0.002901607658714056
1774658146731091200,15.66709130859375,-0.001832594396546483,-0.0030543238390237093,0.009621120058000088
1774658146747880000,15.6838798828125,-0.004886918235570192,0.004886918235570192,-0.0062613640911877155
1774658146764668700,15.700668701171875,-0.001221729558892548,0.007330377586185932,-0.005039634648710489
1774658146781457400,15.71745751953125,0,0.001832594396546483,0.006566796451807022
1774658146798246000,15.734245849609374,-0.0030543238390237093,0.004276053514331579,-0.009926552884280682
1774658146815034600,15.75103466796875,-0.007941242307424545,0.006719512399286032,-0.0013744457392022014
1774658146831823400,15.7678232421875,-0.006719512399286032,0.007941242307424545,-0.009926552884280682
1774658146848611800,15.78461181640625,-0.002443459117785096,0.007941242307424545,-0.009926552884280682
1774658146865400600,15.801400634765624,-0.000610864779446274,0.000610864779446274,0.004123337101191282
1774658146882189300,15.818189208984375,0.000610864779446274,0,0.002290742937475443
1774658146898977800,15.834977783203126,-0.004276053514331579,0.002443459117785096,0.001679878099821508
1774658146915766500,15.8517666015625,-0.004276053514331579,0.004886918235570192,0.010842849500477314
1774658146932555300,15.86855517578125,-0.001221729558892548,0.004276053514331579,-0.0001527161948615685
1774658146949343700,15.88534375,0.006108647678047419,0.001832594396546483,-0.0001527161948615685
1774658146966132500,15.902132568359375,-0.001832594396546483,0.0030543238390237093,0.00045814859913662076
1774658146982921200,15.918921142578125,0.001832594396546483,0.001221729558892548,-0.005650499369949102
1774658146999710000,15.9357099609375,0.006108647678047419,-0.003665188793092966,0.002290742937475443
1774658147016498400,15.95249853515625,0.0030543238390237093,-0.001832594396546483,0.001679878099821508
1774658147033287200,15.969287109375,0.006108647678047419,0.001832594396546483,-0.014813470654189587
1774658147050076000,15.986075927734374,0.007330377586185932,-0.001832594396546483,-0.009315688163042068
1774658147066864400,16.002864501953123,0.008552107028663158,0.001221729558892548,-0.0019853105768561363
1774658147083653000,16.019653076171874,0.006108647678047419,-0.0030543238390237093,-0.008704823441803455
1774658147100441900,16.03644189453125,0.009773836471140385,-0.007330377586185932,0.001679878099821508
1774658147117230600,16.053230712890624,0.01282816007733345,-0.003665188793092966,-0.007483093533664942
1774658147134019000,16.07001904296875,0.007941242307424545,-0.002443459117785096,0.004123337101191282
1774658147150807800,16.086807861328126,0.007941242307424545,-0.003665188793092966,0.002901607658714056
1774658147167596500,16.103596435546876,-0.002443459117785096,0.001221729558892548,-0.0025961752980947495
1774658147184385000,16.120385009765624,-0.001832594396546483,0.001832594396546483,0.004734201822429895
1774658147201173800,16.137173828125,-0.000610864779446274,-0.000610864779446274,0.00045814859913662076
1774658147217962500,16.15396240234375,0.002443459117785096,-0.001832594396546483,0.005345067009329796
1774658147234751000,16.1707509765625,-0.004276053514331579,0.000610864779446274,-0.0007635809597559273
1774658147251539700,16.187539794921875,-0.000610864779446274,0.001832594396546483,0.006566796451807022
1774658147268328400,16.204328369140626,-0.009162971749901772,0.009773836471140385,-0.0032070400193333626
1774658147285117000,16.221116943359377,0,0.006108647678047419,-0.006872228812426329
1774658147301905700,16.23790576171875,0,0.0054977829568088055,-0.0038179049734026194
1774658147318694400,16.2546943359375,0.004886918235570192,0.006108647678047419,-0.008704823441803455
1774658147335483100,16.271483154296874,0.003665188793092966,0,-0.005650499369949102
1774658147352271600,16.288271728515625,-0.002443459117785096,0.0054977829568088055,-0.005039634648710489
1774658147369060400,16.305060302734375,0.001221729558892548,0.001832594396546483,-0.0013744457392022014
1774658147385849000,16.32184912109375,0.001221729558892548,0.001832594396546483,-0.014813470654189587
1774658147402637600,16.338637451171873,0,-0.004886918235570192,-0.0019853105768561363
1774658147419426300,16.35542626953125,-0.004886918235570192,-0.001832594396546483,0.002901607658714056
1774658147436215000,16.372215087890623,-0.007330377586185932,0.004276053514331579,-0.012980876490473747
1774658147453003500,16.38900341796875,-0.002443459117785096,0.003665188793092966,-0.006872228812426329
1774658147469792300,16.405792236328125,-0.002443459117785096,0.000610864779446274,-0.0038179049734026194
1774658147486581000,16.4225810546875,-0.003665188793092966,0.001832594396546483,-0.0032070400193333626
1774658147503369700,16.43936962890625,-0.004886918235570192,0.001221729558892548,0.014508038759231567
1774658147520158200,16.456158203125,-0.0030543238390237093,0.004276053514331579,0.002901607658714056
1774658147536947000,16.472947021484377,0.002443459117785096,0.004276053514331579,0.003512472379952669
1774658147553735700,16.489735595703124,-0.004886918235570192,0.0054977829568088055,0.00045814859913662076
1774658147570524400,16.5065244140625,0.000610864779446274,-0.000610864779446274,-0.0038179049734026194
1774658147587313000,16.52331298828125,-0.001832594396546483,-0.0054977829568088055,-0.0019853105768561363
1774658147604101600,16.5401015625,0.000610864779446274,-0.008552107028663158,-0.006872228812426329
1774658147620890400,16.556890380859375,0.004886918235570192,-0.007941242307424545,-0.03436114266514778
1774658147637678800,16.573678955078126,-0.001832594396546483,-0.006108647678047419,-0.045967575162649155
1774658147654467600,16.590467529296873,0.009773836471140385,-0.008552107028663158,-0.03436114266514778
1774658147671256300,16.60725634765625,0.010384701192378998,-0.006108647678047419,-0.023976443335413933
1774658147688045000,16.624045166015627,0.015271619893610477,-0.007330377586185932,-0.023365577682852745
1774658147704833500,16.64083349609375,0.012217295356094837,-0.0054977829568088055,-0.017256930470466614
1774658147721622300,16.657622314453125,0.009162971749901772,-0.004886918235570192,-0.012980876490473747
1774658147738411000,16.674410888671876,0.009162971749901772,-0.006108647678047419,-0.008704823441803455
1774658147755199700,16.69119970703125,0.009162971749901772,-0.008552107028663158,-0.0013744457392022014
1774658147771988200,16.70798828125,0.009162971749901772,-0.010384701192378998,-0.0007635809597559273
1774658147788777000,16.72477685546875,-0.004276053514331579,-0.001832594396546483,0.012675444595515728
1774658147805565700,16.741565673828124,-0.002443459117785096,-0.001221729558892548,0.009621120058000088
1774658147822354400,16.7583544921875,0,-0.004886918235570192,0.010842849500477314
1774658147839143000,16.775142822265625,0.003665188793092966,-0.006108647678047419,0.018784092739224434
1774658147855931600,16.791931640625,0.0054977829568088055,-0.006108647678047419,0.022449281066656113
1774658147872720400,16.808720458984375,0.0030543238390237093,-0.001221729558892548,0.007177661173045635
1774658147889509000,16.825509033203126,-0.0030543238390237093,0.006719512399286032,-0.0019853105768561363
1774658147906297600,16.842297607421877,0.002443459117785096,0.0030543238390237093,0.002290742937475443
1774658147923086300,16.85908642578125,-0.001832594396546483,0.004886918235570192,-0.01908952370285988
1774658147939875000,16.875875,-0.000610864779446274,0.001832594396546483,-0.005650499369949102
1774658147956663600,16.89266357421875,0,0,0.003512472379952669
1774658147973452300,16.909452392578125,-0.004276053514331579,0.000610864779446274,0.01206457894295454
1774658147990241000,16.926240966796875,-0.0054977829568088055,0.003665188793092966,0.017562363296747208
1774658148007029800,16.94302978515625,-0.017715077847242355,0.008552107028663158,0.001679878099821508
1774658148023818200,16.959818359375,-0.008552107028663158,0.006719512399286032,-0.012980876490473747
1774658148040607000,16.97660693359375,-0.001832594396546483,0.001221729558892548,0.016340631991624832
1774658148057395700,16.993395751953123,0.006108647678047419,-0.003665188793092966,0.00045814859913662076
1774658148074184400,17.010184326171874,0.0030543238390237093,-0.003665188793092966,-0.006872228812426329
1774658148090973000,17.026972900390625,0.000610864779446274,0.000610864779446274,0.007788525894284248
1774658148107761700,17.04376171875,0,0,0.003512472379952669
1774658148124550400,17.06055029296875,-0.000610864779446274,0.003665188793092966,-0.0001527161948615685
1774658148141339100,17.077339111328126,-0.004886918235570192,0.006108647678047419,-0.012980876490473747
1774658148158127600,17.094127685546876,0.003665188793092966,0.001832594396546483,0.005345067009329796
1774658148174916400,17.110916259765624,-0.017715077847242355,0.009162971749901772,0.022449281066656113
1774658148191704800,17.127704833984374,-0.01954767294228077,0.01282816007733345,0.02367101050913334
1774658148208493600,17.14449365234375,-0.01649334840476513,0.012217295356094837,0.046883873641490936
1774658148225282300,17.1612822265625,-0.0030543238390237093,-0.003665188793092966,0.018784092739224434
1774658148242071000,17.178071044921875,0.001832594396546483,-0.006719512399286032,0.03527744114398956
1774658148258859500,17.194859619140626,0.001221729558892548,-0.004276053514331579,0.03955349326133728
1774658148275648300,17.211648193359373,-0.002443459117785096,0,0.008399390615522861
1774658148292437000,17.22843701171875,-0.006719512399286032,0.007330377586185932,0.003512472379952669
1774658148309225700,17.245225830078127,0.0030543238390237093,0.001832594396546483,-0.0062613640911877155
1774658148326014200,17.26201416015625,0.002443459117785096,0.0054977829568088055,-0.012980876490473747
1774658148342803000,17.278802978515625,0.009162971749901772,-0.000610864779446274,-0.02519817277789116
1774658148359591700,17.295591796875,0.01649334840476513,-0.011606430634856224,-0.0013744457392022014
1774658148376380200,17.312380126953126,0.014660755172371864,-0.013439024798572063,0.0010690133785828948
1774658148393169000,17.3291689453125,0.010995565913617611,-0.01649334840476513,0.007788525894284248
1774658148409957600,17.34595751953125,0.006108647678047419,-0.018325943499803543,0.002901607658714056
1774658148426746400,17.362746337890623,0.002443459117785096,-0.01282816007733345,-0.005039634648710489
1774658148443534800,17.379534912109374,0.002443459117785096,-0.017715077847242355,-0.0038179049734026194
1774658148460323600,17.396323486328125,0.01649334840476513,-0.010384701192378998,-0.06612611562013626
1774658148477112300,17.4131123046875,0.012217295356094837,-0.015271619893610477,-0.004428769461810589
1774658148493901000,17.429901123046875,0.027488915249705315,-0.018325943499803543,-0.0062613640911877155
1774658148510689500,17.446689453125,0.0030543238390237093,-0.004886918235570192,0.027336198836565018
1774658148527478300,17.463478271484377,0.015271619893610477,-0.012217295356094837,0.041386090219020844
1774658148544267000,17.48026708984375,-0.001221729558892548,-0.002443459117785096,0.010842849500477314
1774658148561055700,17.4970556640625,-0.002443459117785096,0.006719512399286032,0.013897174037992954
1774658148577844200,17.51384423828125,-0.0054977829568088055,0.004276053514331579,-0.005650499369949102
1774658148594633000,17.530633056640625,-0.001221729558892548,-0.000610864779446274,0.006566796451807022
1774658148611421400,17.54742138671875,-0.010995565913617611,0,-0.005650499369949102
1774658148628210200,17.564210205078126,-0.017104214057326317,0,0.0010690133785828948
1774658148644999000,17.5809990234375,-0.033597562462091446,0.011606430634856224,0.04016435891389847
1774658148661787600,17.59778759765625,-0.023212861269712448,0.014660755172371864,0.022449281066656113
1774658148678576000,17.614576171875,-0.021991131827235222,0.017715077847242355,0.01206457894295454
1774658148695364900,17.63136474609375,-0.015271619893610477,0.015271619893610477,-0.0001527161948615685
1774658148712153600,17.648153564453125,-0.000610864779446274,0.011606430634856224,-0.0001527161948615685
1774658148728942000,17.664942138671876,-0.0054977829568088055,0.013439024798572063,-0.014202605932950974
1774658148745730800,17.681730712890626,-0.002443459117785096,0.014660755172371864,0.007788525894284248
1774658148762519600,17.69851953125,-0.01893680728971958,0.01649334840476513,-0.006872228812426329
1774658148779308300,17.715308349609376,0.001221729558892548,0.001832594396546483,-0.0032070400193333626
1774658148796096800,17.7320966796875,-0.0054977829568088055,-0.004886918235570192,0.0010690133785828948
1774658148812885500,17.748885498046874,0.011606430634856224,-0.015271619893610477,0.005955931730568409
1774658148829674200,17.76567431640625,-0.012217295356094837,-0.004886918235570192,-0.004428769461810589
1774658148846462700,17.782462646484376,0.0030543238390237093,-0.011606430634856224,0.004123337101191282
1774658148863251500,17.79925146484375,0.0030543238390237093,-0.010384701192378998,0.007788525894284248
1774658148880040200,17.816040283203126,0.015271619893610477,-0.01588248461484909,0.01206457894295454
1774658148896829000,17.832828857421877,0.017715077847242355,-0.014049889519810677,0.01511890348047018
1774658148913617400,17.849617431640624,0.017104214057326317,-0.010384701192378998,0.0102319847792387
1774658148930406100,17.86640625,0.004886918235570192,-0.006719512399286032,0.03405570983886719
1774658148947195000,17.88319482421875,0.011606430634856224,-0.0054977829568088055,0.005955931730568409
1774658148963983400,17.8999833984375,0.004886918235570192,-0.0030543238390237093,-0.004428769461810589
1774658148980772000,17.916772216796875,0.009773836471140385,-0.004886918235570192,-0.005039634648710489
1774658148997560800,17.933560791015626,0.003665188793092966,-0.006719512399286032,-0.0013744457392022014
1774658149014349300,17.950349365234374,-0.004276053514331579,-0.003665188793092966,-0.0019853105768561363
1774658149031138000,17.967137939453124,-0.006719512399286032,0.000610864779446274,-0.0019853105768561363
1774658149047926800,17.9839267578125,-0.002443459117785096,0.000610864779446274,0.007177661173045635
1774658149064715500,18.000715576171874,0,0.0054977829568088055,0.007177661173045635
1774658149081504000,18.01750390625,-0.006108647678047419,0.007330377586185932,0.011453714221715927
1774658149098292700,18.034292724609376,-0.003665188793092966,0.006719512399286032,0.013286309316754341
1774658149115081500,18.05108154296875,-0.004886918235570192,0.006108647678047419,0.028557928279042244
1774658149131870000,18.067869873046874,-0.004276053514331579,0.010384701192378998,-0.0007635809597559273
1774658149148658700,18.08465869140625,-0.01282816007733345,0.009773836471140385,0.011453714221715927
1774658149165447400,18.101447509765624,-0.007941242307424545,0.007941242307424545,-0.0025961752980947495
1774658149182236200,18.118236083984375,-0.021991131827235222,0.01282816007733345,-0.012980876490473747
1774658149199024600,18.135024658203125,-0.004276053514331579,0.000610864779446274,0.004734201822429895
1774658149215813400,18.1518134765625,-0.003665188793092966,0.000610864779446274,-0.0019853105768561363
1774658149232601900,18.168601806640623,-0.000610864779446274,-0.001832594396546483,-0.0025961752980947495
1774658149249390600,18.185390625,0,-0.002443459117785096,0.002290742937475443
1774658149266179300,18.202179443359373,0.006108647678047419,-0.002443459117785096,-0.0007635809597559273
1774658149282968000,18.218968017578124,0.006108647678047419,-0.000610864779446274,-0.0001527161948615685
1774658149299756500,18.235756591796875,0.002443459117785096,-0.001221729558892548,-0.0001527161948615685
1774658149316545300,18.252545166015626,0.008552107028663158,-0.006719512399286032,-0.0062613640911877155
1774658149333334000,18.269333984375,0.0054977829568088055,-0.0054977829568088055,0.0010690133785828948
1774658149350122500,18.28612255859375,0.007941242307424545,-0.007330377586185932,0.001679878099821508
1774658149366911200,18.3029111328125,0.0030543238390237093,-0.004886918235570192,-0.011148282326757908
1774658149383700000,18.319699951171874,-0.001221729558892548,-0.006108647678047419,0.002901607658714056
1774658149400488700,18.33648876953125,0.001832594396546483,-0.001832594396546483,0.002290742937475443
1774658149417277200,18.353277099609375,-0.002443459117785096,0.0054977829568088055,-0.005650499369949102
1774658149434066000,18.37006591796875,-0.001832594396546483,0.0054977829568088055,-0.007483093533664942
1774658149450854700,18.386854736328125,-0.003665188793092966,0.007941242307424545,-0.006872228812426329
1774658149467643100,18.40364306640625,-0.0054977829568088055,0.006108647678047419,-0.010537417605519295
1774658149484432000,18.420431884765627,-0.007330377586185932,0.004276053514331579,0.00045814859913662076
1774658149501220400,18.437220458984374,-0.007941242307424545,0.0030543238390237093,-0.0013744457392022014
1774658149518009000,18.454009033203125,-0.003665188793092966,0.003665188793092966,-0.0001527161948615685
1774658149534797800,18.4707978515625,-0.007330377586185932,0.002443459117785096,-0.005650499369949102
1774658149551586600,18.487586669921875,-0.003665188793092966,0.001221729558892548,-0.0007635809597559273
1774658149568375000,18.504375,0,0.0030543238390237093,-0.005650499369949102
1774658149585163800,18.521163818359376,0.0054977829568088055,-0.002443459117785096,0.002901607658714056
1774658149601952500,18.537952392578124,0.002443459117785096,-0.001832594396546483,0.009621120058000088
1774658149618741000,18.554740966796874,0.002443459117785096,-0.0030543238390237093,0.001679878099821508
1774658149635529700,18.57152978515625,-0.001832594396546483,0.001221729558892548,-0.004428769461810589
1774658149652318500,18.588318359375,0.001832594396546483,0.000610864779446274,0.00045814859913662076
1774658149669107000,18.60510693359375,0.004276053514331579,-0.000610864779446274,-0.0013744457392022014
1774658149685895700,18.621895751953126,0.0054977829568088055,-0.001832594396546483,-0.0007635809597559273
1774658149702684400,18.638684326171877,0.004276053514331579,-0.002443459117785096,-0.0019853105768561363
1774658149719473000,18.655472900390624,0.001221729558892548,-0.000610864779446274,-0.0007635809597559273
1774658149736261600,18.67226171875,-0.001832594396546483,0.001832594396546483,-0.0001527161948615685
1774658149753050400,18.68905029296875,-0.002443459117785096,0.001221729558892548,-0.009315688163042068
1774658149769838800,18.7058388671875,-0.001221729558892548,0.000610864779446274,0.0010690133785828948
1774658149786627600,18.722627685546875,0.004276053514331579,-0.001221729558892548,-0.0025961752980947495
1774658149803416300,18.739416259765626,0.008552107028663158,-0.002443459117785096,0.006566796451807022
1774658149820204800,18.756204833984373,0,-0.001832594396546483,0.017562363296747208
1774658149836993500,18.77299365234375,0,-0.004276053514331579,-0.0032070400193333626
1774658149853782300,18.7897822265625,0.003665188793092966,0.001221729558892548,0.010842849500477314
1774658149870571000,18.806571044921874,0.001221729558892548,0.001832594396546483,0.002901607658714056
1774658149887359500,18.823359375,0,0.0054977829568088055,-0.010537417605519295
1774658149904148200,18.840148193359376,-0.000610864779446274,-0.001221729558892548,0.002901607658714056
1774658149920936700,18.856936767578127,0.004276053514331579,-0.003665188793092966,0.005345067009329796
1774658149937725400,18.873725341796874,0.0054977829568088055,-0.001221729558892548,-0.0007635809597559273
1774658149954514200,18.89051416015625,0.004886918235570192,-0.001221729558892548,0.004734201822429895
1774658149971302700,18.907302734375,0.002443459117785096,0.001221729558892548,-0.004428769461810589
1774658149988091400,18.92409130859375,0.001832594396546483,0.001221729558892548,0.001679878099821508
1774658150004880100,18.940880126953125,0.004886918235570192,0.002443459117785096,-0.007483093533664942
1774658150021668900,18.9576689453125,0.0030543238390237093,0.002443459117785096,-0.014813470654189587
1774658150038457300,18.974457275390623,-0.003665188793092966,0.004886918235570192,-0.006872228812426329
1774658150055246000,18.99124609375,0.000610864779446274,0.001221729558892548,-0.0038179049734026194
1774658150072034800,19.008034912109373,0.004886918235570192,-0.004886918235570192,0.002290742937475443
1774658150088823300,19.0248232421875,-0.001832594396546483,-0.0030543238390237093,0.005955931730568409
1774658150105612000,19.041612060546875,-0.006719512399286032,0.000610864779446274,-0.005039634648710489
1774658150122400500,19.058400390625,-0.006108647678047419,0.003665188793092966,-0.017256930470466614
1774658150139189200,19.075189208984376,-0.0030543238390237093,0.001221729558892548,-0.008704823441803455
1774658150155978000,19.09197802734375,0.002443459117785096,0,-0.025809036567807198
1774658150172766700,19.1087666015625,0.0054977829568088055,0.001832594396546483,-0.04535670951008797
1774658150189555200,19.12555517578125,0.0054977829568088055,0,-0.0038179049734026194
1774658150206344000,19.142343994140624,-0.000610864779446274,0.004886918235570192,0.00045814859913662076
1774658150223132700,19.159132568359375,-0.0054977829568088055,0.010995565913617611,-0.0032070400193333626
1774658150239921200,19.175921142578126,-0.007330377586185932,0.01282816007733345,-0.03191768378019333
1774658150256710000,19.1927099609375,0.004276053514331579,0.004276053514331579,-0.04230238497257233
1774658150273498600,19.20949853515625,0.003665188793092966,-0.0030543238390237093,0.012675444595515728
1774658150290287400,19.226287353515627,0.000610864779446274,-0.006108647678047419,-0.0019853105768561363
1774658150307075800,19.243075927734374,-0.006108647678047419,-0.004276053514331579,0.006566796451807022
1774658150323864600,19.259864501953125,-0.009162971749901772,-0.000610864779446274,-0.006872228812426329
1774658150340653000,19.276653076171876,-0.007330377586185932,0.004276053514331579,-0.01847865991294384
1774658150357441800,19.29344189453125,-0.002443459117785096,0.002443459117785096,0.002290742937475443
1774658150374230500,19.31023046875,0.006108647678047419,0,-0.008093958720564842
1774658150391019300,19.327019287109376,-0.002443459117785096,0.013439024798572063,-0.02458730712532997
1774658150407807700,19.343807861328123,-0.000610864779446274,0.010995565913617611,-0.009315688163042068
1774658150424596500,19.360596435546874,0.001221729558892548,0.010384701192378998,-0.0019853105768561363
1774658150441385200,19.37738525390625,0.0054977829568088055,0.001221729558892548,-0.005650499369949102
1774658150458173700,19.394173583984376,0.007330377586185932,-0.002443459117785096,-0.0001527161948615685
1774658150474962400,19.41096240234375,-0.000610864779446274,-0.002443459117785096,-0.004428769461810589
1774658150491751200,19.427751220703126,-0.000610864779446274,-0.003665188793092966,0.00045814859913662076
1774658150508540000,19.444539794921877,0.004276053514331579,-0.01282816007733345,0.014508038759231567
1774658150525328400,19.461328369140624,-0.002443459117785096,-0.0030543238390237093,-0.012980876490473747
1774658150542117000,19.4781171875,-0.006108647678047419,0,0.0010690133785828948
1774658150558905900,19.49490576171875,-0.0030543238390237093,0.007330377586185932,-0.014202605932950974
1774658150575694300,19.5116943359375,0.007330377586185932,0.0030543238390237093,-0.029474224895238876
1774658150592483000,19.528483154296875,0.01282816007733345,-0.002443459117785096,-0.036193739622831345
1774658150609271800,19.545271728515626,0.017715077847242355,-0.006108647678047419,-0.045967575162649155
1774658150626060500,19.562060546875,0.007941242307424545,-0.0030543238390237093,0.009010255336761475
1774658150642849000,19.57884912109375,-0.003665188793092966,0.009773836471140385,-0.016035201027989388
1774658150659637800,19.5956376953125,-0.004276053514331579,0.008552107028663158,-0.02153298258781433
1774658150676426500,19.612426513671874,0.010384701192378998,-0.0054977829568088055,-0.028863361105322838
1774658150693215200,19.62921533203125,0.021380268037319183,-0.023212861269712448,-0.016646064817905426
1774658150710003700,19.646003662109376,0.009162971749901772,-0.02626718580722809,0.041386090219020844
1774658150726792400,19.66279248046875,-0.0054977829568088055,-0.015271619893610477,0.028557928279042244
1774658150743581200,19.679581298828126,-0.01282816007733345,-0.003665188793092966,0.046883873641490936
1774658150760369700,19.69636962890625,0.0030543238390237093,-0.001221729558892548,0.11407899856567383
1774658150777158400,19.713158447265624,0,0.007330377586185932,-0.05085449293255806
1774658150793947100,19.729947021484374,0.028099779039621353,-0.011606430634856224,0.050549060106277466
1774658150810735600,19.746735595703125,-0.010384701192378998,0.010995565913617611,-0.025809036567807198
1774658150827524400,19.7635244140625,0.009773836471140385,-0.000610864779446274,-0.006872228812426329
1774658150844313000,19.78031298828125,-0.01893680728971958,0.01588248461484909,-0.039858926087617874
1774658150861101800,19.797101806640626,0.014049889519810677,-0.0054977829568088055,-0.0013744457392022014
1774658150877890300,19.813890380859377,0.001221729558892548,0,-0.023365577682852745
1774658150894679000,19.830678955078124,-0.0030543238390237093,-0.0030543238390237093,-0.011148282326757908
1774658150911467800,19.8474677734375,-0.009773836471140385,0.001221729558892548,-0.005039634648710489
1774658150928256300,19.86425634765625,-0.011606430634856224,0.0030543238390237093,-0.017256930470466614
1774658150945045000,19.881044921875,-0.0030543238390237093,0.001221729558892548,-0.0001527161948615685
1774658150961833700,19.897833740234375,-0.003665188793092966,0.0054977829568088055,0.001679878099821508
1774658150978622500,19.91462255859375,-0.002443459117785096,0.002443459117785096,0.022449281066656113
1774658150995411000,19.931410888671873,-0.009773836471140385,0.010995565913617611,-0.0032070400193333626
1774658151012199700,19.94819970703125,0.001221729558892548,0.006108647678047419,0.004123337101191282
1774658151028988400,19.964988525390623,-0.006108647678047419,0.009162971749901772,-0.0013744457392022014
1774658151045777200,19.981777099609374,0.006108647678047419,0.001221729558892548,0.003512472379952669
1774658151062565600,19.998565673828125,-0.009773836471140385,0.007941242307424545,-0.028863361105322838
1774658151079354400,20.015354248046876,-0.0054977829568088055,0.007330377586185932,-0.03802633285522461
1774658151096143000,20.03214306640625,-0.010384701192378998,0.004276053514331579,-0.005039634648710489
1774658151112931800,20.048931884765626,-0.002443459117785096,-0.000610864779446274,-0.03741546720266342
1774658151129720300,20.06572021484375,0,-0.001832594396546483,-0.028863361105322838
1774658151146509000,20.082509033203124,-0.0030543238390237093,0.000610864779446274,0.002901607658714056
1774658151163297800,20.0992978515625,-0.009773836471140385,0.004886918235570192,0.02306014485657215
1774658151180086300,20.116086181640625,-0.0030543238390237093,0,0.021227551624178886
1774658151196875000,20.132875,0.001221729558892548,0.000610864779446274,0.02000582218170166
1774658151213663700,20.149663818359375,0.000610864779446274,-0.000610864779446274,0.044440411031246185
1774658151230452500,20.166452392578126,0.002443459117785096,0.001221729558892548,0.03527744114398956
1774658151247241000,20.183240966796873,-0.009773836471140385,0.009773836471140385,-0.004428769461810589
1774658151264029700,20.20002978515625,-0.002443459117785096,0.0054977829568088055,0.02306014485657215
1774658151280818400,20.216818359375,-0.001832594396546483,0.001832594396546483,0.008399390615522861
1774658151297607000,20.23360693359375,0.009162971749901772,-0.0030543238390237093,0.013286309316754341
1774658151314395600,20.250395751953125,-0.000610864779446274,-0.0030543238390237093,0.017562363296747208
1774658151331184400,20.267184326171876,-0.012217295356094837,0.003665188793092966,0.003512472379952669
1774658151347973000,20.28397314453125,-0.008552107028663158,0.004886918235570192,0.005345067009329796
1774658151364761600,20.30076171875,-0.006719512399286032,0.008552107028663158,-0.005039634648710489
1774658151381550300,20.31755029296875,0.010995565913617611,-0.0030543238390237093,-0.0154243353754282
1774658151398339000,20.334339111328124,0.013439024798572063,-0.006108647678047419,-0.023365577682852745
1774658151415127800,20.3511279296875,-0.001832594396546483,-0.001832594396546483,0.022449281066656113
1774658151431916300,20.367916259765625,-0.006719512399286032,0.002443459117785096,0.004734201822429895
1774658151448705000,20.384705078125,-0.004886918235570192,0.0054977829568088055,0.02367101050913334
1774658151465493800,20.40149365234375,0.000610864779446274,0.0030543238390237093,-0.02214384824037552
1774658151482282200,20.4182822265625,0.017104214057326317,-0.015271619893610477,0.019394956529140472
1774658151499071000,20.435071044921877,-0.000610864779446274,-0.009162971749901772,-0.0007635809597559273
1774658151515859700,20.451859619140624,0.015271619893610477,-0.020769402384757996,0.024892739951610565
1774658151532648400,20.4686484375,-0.003665188793092966,-0.009162971749901772,0.0102319847792387
1774658151549437000,20.48543701171875,-0.001221729558892548,-0.0030543238390237093,0.0010690133785828948
1774658151566225700,20.5022255859375,0.008552107028663158,-0.009773836471140385,0.009010255336761475
1774658151583014400,20.519014404296875,0.018325943499803543,-0.017715077847242355,0.005345067009329796
1774658151599803100,20.53580322265625,0.020158538594841957,-0.01954767294228077,0.0102319847792387
1774658151616591600,20.552591552734373,0.001832594396546483,-0.012217295356094837,0.019394956529140472
1774658151633380400,20.56938037109375,0.010995565913617611,-0.014049889519810677,0.01511890348047018
1774658151650168800,20.5861689453125,0,-0.006108647678047419,-0.01908952370285988
1774658151666957600,20.60295751953125,-0.0054977829568088055,0.002443459117785096,-0.03130681812763214
1774658151683746300,20.619746337890625,0.003665188793092966,-0.001832594396546483,-0.0019853105768561363
1774658151700535000,20.63653515625,0.009773836471140385,-0.004276053514331579,-0.016646064817905426
1774658151717323500,20.653323486328127,0.01282816007733345,-0.01282816007733345,0.010842849500477314
1774658151734112300,20.6701123046875,0.007941242307424545,-0.010995565913617611,0.043829549103975296
1774658151750901000,20.68690087890625,-0.01282816007733345,0.006108647678047419,0.005345067009329796
1774658151767689500,20.703689453125,-0.009162971749901772,0.008552107028663158,-0.0007635809597559273
1774658151784478200,20.720478271484374,-0.027488915249705315,0.0256563201546669,-0.019700389355421066
1774658151801267000,20.737266845703125,-0.01282816007733345,0.01893680728971958,-0.009315688163042068
1774658151818055700,20.7540556640625,-0.004886918235570192,0.006108647678047419,-0.0007635809597559273
1774658151834844200,20.77084423828125,0.001832594396546483,-0.0030543238390237093,0.018784092739224434
