time,seconds_elapsed,z,y,x
1775722359987341600,0.050341552734375,-9.800090495353937,0.3273195814060047,0.1465332536694128
1775722359997354800,0.060354736328125,-9.800137841627,0.3261407103523612,0.14601217067106625
1775722360007367700,0.07036767578125,-9.800387432473897,0.3212413574708625,0.13998048015823586
1775722360017380600,0.080380615234375,-9.800860310682653,0.3104753045130521,0.13088642466641032
1775722360027393800,0.090393798828125,-9.80148399553895,0.29458262925650924,0.1204681074340362
1775722360037406700,0.10040673828125,-9.802151519536972,0.2766589413627051,0.108042414168315
1775722360047420700,0.110420654296875,-9.802727273598313,0.2608904404751025,0.09411833557100034
1775722360057433600,0.12043359375,-9.803111304479836,0.2509997090470977,0.07994751567100174
1775722360067446800,0.13044677734375,-9.80325217425525,0.24937629083003848,0.06665803604964167
1775722360077459700,0.140459716796875,-9.803153390055895,0.2561342041250318,0.054435071414941916
1775722360087472600,0.15047265625,-9.802868727895618,0.2688796125981025,0.04303702243021689
1775722360097485800,0.16048583984375,-9.802502817192673,0.28317979449881236,0.033693798499892
1775722360107498800,0.170498779296875,-9.802188344416022,0.294769365733955,0.024563087092374914
1775722360117512700,0.1805126953125,-9.802007142630218,0.30148146712584417,0.012368697814899497
1775722360127526000,0.19052587890625,-9.801982592710852,0.3025155228813179,-0.0024923199954660956
1775722360137538600,0.20053857421875,-9.802100081610678,0.2981679951963015,-0.017714679077401523
1775722360147551700,0.2105517578125,-9.802310509490967,0.28984456788394597,-0.03292823237131815
1775722360157564700,0.220564697265625,-9.802561853903532,0.27915647553317247,-0.04727196571938693
1775722360167577900,0.230577880859375,-9.802770528218149,0.2690312960284762,-0.06082331571390386
1775722360177590500,0.240590576171875,-9.802884509986638,0.26186301183430477,-0.07255438234554604
1775722360187604700,0.250604736328125,-9.802919581300019,0.257952377729211,-0.08135210350560955
1775722360197617700,0.26061767578125,-9.80289970755577,0.25687946953438223,-0.08690792926815338
1775722360207630600,0.270630615234375,-9.802855868414044,0.25757552550714463,-0.08978497340865432
1775722360217643800,0.280643798828125,-9.802774035349488,0.2597760129597969,-0.09232269345903768
1775722360227656700,0.29065673828125,-9.802624982267618,0.2642544918144122,-0.09535009672250598
1775722360237669600,0.300669677734375,-9.802400525861978,0.271423963318672,-0.09824834804781712
1775722360247683800,0.310683837890625,-9.8020989125669,0.2812620512439869,-0.10067615971663035
1775722360257696500,0.320696533203125,-9.801741185170412,0.292567928433232,-0.1032238257722929
1775722360267709700,0.330709716796875,-9.801405085083841,0.30266326078893613,-0.10603072728603147
1775722360277723000,0.340722900390625,-9.801153740671277,0.309013780593127,-0.11079295498547144
1775722360287735800,0.35073583984375,-9.801009948286413,0.31110856091529127,-0.11745516195418312
1775722360297748700,0.360748779296875,-9.800930453309416,0.3104339495893568,-0.12561723382552153
1775722360307761700,0.37076171875,-9.800898304605484,0.30793146524913606,-0.13398762381845153
1775722360317775600,0.380775634765625,-9.800937467572092,0.3038276466595009,-0.1403516698244959
1775722360327789000,0.3907890625,-9.801027483943104,0.29912902224818244,-0.14408991563790477
1775722360337802200,0.40080224609375,-9.801122176489233,0.2952688214223832,-0.14563174738558007
1775722360347815000,0.41081494140625,-9.801226221385598,0.293462429587543,-0.1422368442502804
1775722360357828000,0.420828125,-9.801308054450153,0.29485046814614907,-0.1334353510973975
1775722360367841000,0.430841064453125,-9.80127882835567,0.300741809473373,-0.12197296817218885
1775722360377855000,0.44085498046875,-9.801085936132074,0.3118807143315673,-0.10876852735262363
1775722360387868200,0.4508681640625,-9.800708919513225,0.32753654862493276,-0.09597572694071568
1775722360397881000,0.460881103515625,-9.800206230688094,0.34475601550582796,-0.08655107865449972
1775722360407894000,0.47089404296875,-9.79972926082611,0.3601229863878339,-0.07745259358272888
1775722360417907000,0.480906982421875,-9.799380301257967,0.37163028616700317,-0.06645511562237516
1775722360427920100,0.490920166015625,-9.799216050606965,0.3780468386784196,-0.053183774445904414
1775722360437933300,0.500933349609375,-9.799235924351215,0.37913251502327616,-0.040284915277059186
1775722360447947000,0.510947021484375,-9.799361596557498,0.3767934045512229,-0.030427213902398942
1775722360457960200,0.520960205078125,-9.79950597346425,0.3734381393065676,-0.024785209977033082
1775722360467973000,0.53097314453125,-9.799625215929746,0.37040585893858224,-0.02298070185531396
1775722360477986000,0.540986083984375,-9.799704710906743,0.36829544265586883,-0.023015375876473263
1775722360487999200,0.550999267578125,-9.79974796552658,0.3670689696008339,-0.024184111411881166
1775722360498012200,0.56101220703125,-9.799742704829573,0.3670844228982925,-0.02598103673205478
1775722360508026000,0.571026123046875,-9.799644505152106,0.36963633587080985,-0.026901877904019784
1775722360518039000,0.5810390625,-9.799398421436548,0.3760570531006902,-0.027421323784417473
1775722360528052000,0.591052001953125,-9.798996270376444,0.3862695272963494,-0.0292010901905247
1775722360538065200,0.601065185546875,-9.79846435545683,0.399352113568224,-0.031619914835283994
1775722360548078000,0.611078125,-9.79786288243234,0.4136991668179631,-0.0334834984837682
1775722360558091300,0.62109130859375,-9.797279529586433,0.42727614901065825,-0.03366431896036956
1775722360568105000,0.63110498046875,-9.796796714505552,0.43834761465582994,-0.03184865012381924
1775722360578118100,0.6411181640625,-9.796443078762293,0.44636250574197617,-0.02905811750628054
1775722360588131000,0.651131103515625,-9.79618705817461,0.4520535204578191,-0.027451753172010648
1775722360598144000,0.66114404296875,-9.796019884914159,0.4557132120091468,-0.02644899217052152
1775722360608157200,0.6711572265625,-9.79594272802472,0.4574666315477341,-0.02483020674609579
1775722360618170000,0.681170166015625,-9.79590707218945,0.45830337463282045,-0.023390451699984258
1775722360628183000,0.69118310546875,-9.795873169919847,0.4590262820798903,-0.023439140546764246
1775722360638197200,0.701197265625,-9.795821147471665,0.46011433304492383,-0.023895142969244623
1775722360648210200,0.711210205078125,-9.795765617892146,0.46129784374106675,-0.023645479057112243
1775722360658223000,0.72122314453125,-9.79571885614097,0.46236211197171356,-0.02225162724565016
1775722360668236000,0.731236083984375,-9.795655727776884,0.4638502681702375,-0.018831623918423426
1775722360678249200,0.741249267578125,-9.795549344792962,0.4662270437715575,-0.015176846004230901
1775722360688262000,0.751261962890625,-9.79540087623298,0.4694360689459368,-0.011852422280766767
1775722360698276000,0.761276123046875,-9.795222597056627,0.47322234601899976,-0.007549092213792028
1775722360708289000,0.7712890625,-9.795064191624522,0.47655390159450467,-0.001652034102656762
1775722360718302000,0.781302001953125,-9.794985865691304,0.4781338642623275,0.005420913087169174
1775722360728315100,0.791315185546875,-9.795018598917126,0.47731235527899113,0.01311861314154812
1775722360738328000,0.801328125,-9.795167067477106,0.4739671730369329,0.020947236966062335
1775722360748341000,0.811341064453125,-9.795417242845893,0.46849067785460496,0.02654548166480381
1775722360758355200,0.821355224609375,-9.795710672834515,0.46213491561971604,0.029456414375174787
1775722360768368000,0.8313681640625,-9.795992996907234,0.45603276281971483,0.030612833851703908
1775722360778381000,0.841381103515625,-9.796225052097439,0.4509949147829786,0.03109724951791577
1775722360788394200,0.851394287109375,-9.796385211095213,0.44744467495549467,0.03186069903792813
1775722360798407200,0.8614072265625,-9.796468797725439,0.44556317205782975,0.03256376927336678
1775722360808420000,0.871420166015625,-9.796502115473151,0.44486952723786233,0.031924169895309024
1775722360818433000,0.88143310546875,-9.796549461746215,0.4439485399354249,0.030229556455428245
1775722360828447000,0.891447021484375,-9.796641231682896,0.441997734661214,0.029086533033300655
1775722360838460200,0.901460205078125,-9.796752875363826,0.4394863363621756,0.029434314424509646
1775722360848473000,0.91147314453125,-9.79687504043877,0.43665988076459616,0.030915883335331452
1775722360858486300,0.921486328125,-9.797012987604736,0.4334251731596887,0.03264728968822164
1775722360868499000,0.9314990234375,-9.797173731124401,0.42966004847250877,0.03413631125313695
1775722360878512000,0.94151220703125,-9.797354932910203,0.4254093322254717,0.035268240175803656
1775722360888526000,0.951526123046875,-9.797539057305455,0.42108708511218423,0.0359814664790756
1775722360898539000,0.9615390625,-9.79771675195992,0.41694271531645205,0.035872576444235166
1775722360908552200,0.97155224609375,-9.797867558607459,0.41341852324567735,0.03553925283664139
1775722360918565000,0.981565185546875,-9.798000829598307,0.41021676806230095,0.03591646125173429
1775722360928578000,0.991578125,-9.798129424414038,0.40710594256538896,0.036233781289309264
1775722360938591000,1.001591064453125,-9.798254512098431,0.403987847077474,0.037302885525277815
1775722360948605200,1.011605224609375,-9.798358556994796,0.4013202353034168,0.038719296228419985
1775722360958618000,1.0216181640625,-9.798432206752896,0.3993955873837694,0.039978534475318156
1775722360968631000,1.031631103515625,-9.798488905376196,0.3978405764941126,0.04145890465960838
1775722360978644200,1.041644287109375,-9.79855203374028,0.39612968092299994,0.04296508057201281
1775722360988657000,1.051656982421875,-9.798625683498383,0.394180227355659,0.04400105885651428
1775722360998670000,1.061670166015625,-9.798711023694276,0.3920298078561201,0.044306695306161416
1775722361008684000,1.07168408203125,-9.798810976937412,0.38958599490057677,0.04371573454253375
1775722361018697000,1.081697021484375,-9.798928465837239,0.38673688907977194,0.04268302136077545
1775722361028710100,1.091710205078125,-9.799062321349977,0.38343368281591683,0.041769495845586056
1775722361038723000,1.10172314453125,-9.799180394771694,0.3804875098288059,0.040960439918446355
1775722361048736000,1.111736083984375,-9.79924527670145,0.3788923130592331,0.04022140788706019
1775722361058749200,1.121749267578125,-9.799218973216414,0.3796179604526609,0.03971267748021055
1775722361068763100,1.13176318359375,-9.799126618757843,0.38210879088770594,0.03871260162615217
1775722361078776000,1.141776123046875,-9.799029588124155,0.3847896274695173,0.03655054420445813
1775722361088789000,1.1517890625,-9.798992178723216,0.38606004926413295,0.033079883835650976
1775722361098802200,1.16180224609375,-9.799049461868405,0.38493992266040294,0.02884911439809948
1775722361108815000,1.171815185546875,-9.79920611373484,0.3812922138078138,0.023624557283381
1775722361118828000,1.181828125,-9.79941011187434,0.3763304632145911,0.018007239133055554
1775722361128842200,1.19184228515625,-9.799619370710849,0.3710661860108375,0.01236468493512948
1775722361138855000,1.20185498046875,-9.799808755803108,0.3661963514847681,0.005796447280872962
1775722361148868000,1.2118681640625,-9.799977682629226,0.36169056449811904,-0.0023534729283681373
1775722361158881300,1.22188134765625,-9.800156546327472,0.35665666198413815,-0.010703061591042205
1775722361168894000,1.23189404296875,-9.800369312295317,0.3504240512048825,-0.018733062339707975
1775722361178907100,1.2419072265625,-9.80060779722631,0.34317108440194277,-0.026518673572980333
1775722361188921000,1.251921142578125,-9.80082991554439,0.3360465662842616,-0.03456821356411092
1775722361198934000,1.26193408203125,-9.80097838410437,0.33075189394224436,-0.04255777841275558
1775722361208947200,1.271947265625,-9.801020469680427,0.3285040054176003,-0.049718527754442764
1775722361218960100,1.281960205078125,-9.800948573487997,0.3296060849079862,-0.05614182510047685
1775722361228973000,1.29197314453125,-9.800797182318568,0.3331406522423029,-0.06143783088305499
1775722361238987300,1.3019873046875,-9.800617149576544,0.3376706238221377,-0.06527452753568068
1775722361249000200,1.312000244140625,-9.800432440659403,0.34250710406787693,-0.06778640989190898
1775722361259013000,1.32201318359375,-9.800243640089034,0.34753669573292134,-0.06951686868001707
1775722361269026000,1.332026123046875,-9.800054254996777,0.3527529690764844,-0.06988737335968762
1775722361279039200,1.342039306640625,-9.799871884167194,0.3579705941269174,-0.06897548724573571
1775722361289052000,1.352052001953125,-9.79969185142517,0.36325339336805046,-0.06688669827294069
1775722361299066000,1.362066162109375,-9.799510649639368,0.3685195337353274,-0.06458343543240334
1775722361309079300,1.372079345703125,-9.799331201419234,0.3735137983586639,-0.06311646815238055
1775722361319092000,1.382092041015625,-9.799161690071225,0.3778771446673199,-0.06342422806045506
1775722361329105400,1.39210546875,-9.799019651252031,0.381289510394074,-0.06495811853026971
1775722361339118300,1.402118408203125,-9.798906254005432,0.3836970099272206,-0.06782856853320263
1775722361349131300,1.41213134765625,-9.798810976937412,0.38550855286121366,-0.07120663469813299
1775722361359145500,1.4221455078125,-9.798705762997269,0.38752361901067195,-0.07464318501807284
1775722361369158100,1.432158203125,-9.798581259834766,0.38994434335157274,-0.07833391559505835
1775722361379171300,1.44217138671875,-9.79844272814691,0.39261385482177136,-0.08221822794880718
1775722361389184300,1.452184326171875,-9.798339267772436,0.3945069750919938,-0.08543766491934657
1775722361399197400,1.462197509765625,-9.798294844108819,0.39484373276568946,-0.088900929716276
1775722361409210400,1.47221044921875,-9.798321147593855,0.3932078386595472,-0.09314993806341662
1775722361419224300,1.482224365234375,-9.798399473527073,0.39016671739798037,-0.0975602196531836
1775722361429237200,1.4922373046875,-9.798477214938401,0.38695462348368015,-0.10242289378610439
1775722361439250200,1.502250244140625,-9.798525145733356,0.38444443076103924,-0.1071914781610947
1775722361449263400,1.512263427734375,-9.798545603999495,0.3827474175848067,-0.11130731598208658
1775722361459276500,1.522276611328125,-9.798552618262171,0.38194545355215664,-0.11343199825217015
1775722361469290200,1.532290283203125,-9.79855554087162,0.38149570049066095,-0.11469387141414918
1775722361479303400,1.542303466796875,-9.798575414615868,0.380797379495576,-0.11532965770019217
1775722361489316400,1.55231640625,-9.798618084713816,0.3799077737120911,-0.11462525402419269
1775722361499329300,1.562329345703125,-9.798658416724205,0.37929742326140403,-0.11320105730681679
1775722361509342500,1.572342529296875,-9.79868413568735,0.3792661878729239,-0.11105954263294116
1775722361519355400,1.58235546875,-9.79868355116546,0.380247709723562,-0.10766767170494422
1775722361529369300,1.592369384765625,-9.798659001246094,0.38209527381900693,-0.10330418839897028
1775722361539382500,1.602382568359375,-9.798605809754132,0.384794047916308,-0.09818407803941517
1775722361549395200,1.612395263671875,-9.79853742069304,0.3878472614744678,-0.09286820764574222
1775722361559408400,1.622408447265625,-9.798445650756358,0.39129922855924815,-0.08791554454127326
1775722361569421300,1.63242138671875,-9.798344528469443,0.39484566899444906,-0.08324498631381429
1775722361579434500,1.6424345703125,-9.798241068094969,0.398183142854087,-0.0793932610554155
1775722361589448400,1.652448486328125,-9.798153974333404,0.40083095394913104,-0.07680776547370478
1775722361599461400,1.66246142578125,-9.798080909097195,0.40295550835505123,-0.07500850663254968
1775722361609474300,1.672474365234375,-9.798022456908225,0.4045947269294411,-0.07377727977058385
1775722361619487200,1.6824873046875,-9.797969849938154,0.4059916611805558,-0.07306862004457507
1775722361629500400,1.69250048828125,-9.797941792887448,0.40682376462314274,-0.07221165158879012
1775722361639514400,1.702514404296875,-9.797962251153587,0.4065709589058533,-0.07082348516602069
1775722361649527300,1.71252734375,-9.798024794995785,0.4052876776296645,-0.06957469068132341
1775722361659540500,1.72254052734375,-9.798117733976245,0.4032130998453125,-0.068489347696607
1775722361669553200,1.73255322265625,-9.798211257478593,0.40111525078322735,-0.06744584825935307
1775722361679566300,1.74256640625,-9.798284907236695,0.3995020434329286,-0.06630663792924024
1775722361689579300,1.752579345703125,-9.798355049863456,0.39803482042457905,-0.06477683454607613
1775722361699593200,1.76259326171875,-9.798432791274786,0.39638193865101784,-0.06309954898362048
1775722361709606400,1.7726064453125,-9.798514039817452,0.3947629956796765,-0.06061667352616787
1775722361719619300,1.782619384765625,-9.798579506269096,0.3935991029994562,-0.057523201022855935
1775722361729632300,1.79263232421875,-9.798621007323264,0.3929706323701888,-0.05467343304834794
1775722361739645200,1.802645263671875,-9.79866601550877,0.3921524478551,-0.052428421467379666
1775722361749659400,1.812659423828125,-9.798732651004194,0.3907894889388233,-0.05003421067406889
1775722361759672300,1.82267236328125,-9.798799871021508,0.3894110401924699,-0.04760970064061693
1775722361769685200,1.832685302734375,-9.798838449466228,0.38863483165558427,-0.045935406186268665
1775722361779698400,1.842698486328125,-9.798860661298036,0.3882045139469206,-0.044904231941048055
1775722361789711400,1.85271142578125,-9.798875274345278,0.387944730499573,-0.043858435515430755
1775722361799725300,1.862725341796875,-9.798877027910947,0.3880033653516322,-0.043032570017385294
1775722361809738500,1.872738525390625,-9.798854816079139,0.38859965074434877,-0.042626911825942804
1775722361819751200,1.882751220703125,-9.79881565311253,0.38959085373878477,-0.042540699413791294
1775722361829764400,1.892764404296875,-9.79877999727726,0.39043355164062227,-0.04312655474403873
1775722361839777300,1.90277734375,-9.79877649014592,0.3904121435264125,-0.04408979658589232
1775722361849790200,1.912790283203125,-9.798826759028435,0.38914376755841074,-0.04410519965100102
1775722361859804400,1.922804443359375,-9.798900993308424,0.3874410918263718,-0.04258163421237841
1775722361869817300,1.9328173828125,-9.798947755059599,0.38641266209408637,-0.041134029219951476
1775722361879830300,1.942830322265625,-9.798960614541173,0.38620621626917273,-0.039997481204383074
1775722361889843200,1.95284326171875,-9.798978150197863,0.3859016438320279,-0.038627859651879405
1775722361899856400,1.9628564453125,-9.799016728642583,0.38511688666250554,-0.036610069539083634
1775722361909870300,1.972870361328125,-9.79905764517486,0.3842904457757249,-0.03421672639545286
1775722361919883300,1.98288330078125,-9.799089209356904,0.38371615301910783,-0.03148189460408175
1775722361929896400,1.992896484375,-9.799127787801623,0.3829635810861364,-0.028495599669136572
1775722361939909400,2.002909423828125,-9.799189747121929,0.38162867922056465,-0.02507249563594814
1775722361949922300,2.01292236328125,-9.799275671839714,0.3796542738750577,-0.021077726911357602
1775722361959935500,2.022935546875,-9.799349321597814,0.37795207306705414,-0.017059876421990337
1775722361969949200,2.03294921875,-9.799368610820174,0.377588135125488,-0.013537703920010243
1775722361979962400,2.04296240234375,-9.799328278809785,0.37874512314088643,-0.01035407576508005
1775722361989975600,2.0529755859375,-9.79926398140192,0.38047092402018606,-0.00748879398596473
1775722361999988200,2.06298828125,-9.799205529212951,0.38201011628620324,-0.005404313007995369
1775722362010001400,2.07300146484375,-9.799163443636894,0.38310909050405023,-0.003513988624702324
1775722362020015400,2.083015380859375,-9.799135971108079,0.3838216592201963,-0.0009401373868960944
1775722362030028300,2.0930283203125,-9.799120773538947,0.3842018907094374,0.00191942418337494
1775722362040041500,2.10304150390625,-9.79911668188572,0.38428858261220156,0.004646525758378266
1775722362050054400,2.113054443359375,-9.799103822404145,0.38457879773043097,0.006928712988612824
1775722362060067300,2.1230673828125,-9.799062321349977,0.38560496244039383,0.008631377875030738
1775722362070081300,2.133081298828125,-9.7989816573292,0.38761272206623104,0.009713467173447133
1775722362080094500,2.143094482421875,-9.79889222548008,0.3898698898758739,0.00999256495932932
1775722362090107400,2.153107421875,-9.79881506859064,0.39179483005646615,0.010206080987490714
1775722362100120300,2.163120361328125,-9.798756031879782,0.393247951474227,0.010904576654155972
1775722362110133500,2.173133544921875,-9.798699333256483,0.39463407207038254,0.011963317043025744
1775722362120146200,2.183146240234375,-9.798626268020271,0.39642402422707523,0.012656549729395191
1775722362130160400,2.193160400390625,-9.798563724178075,0.3979508319355547,0.013130130049405851
1775722362140173300,2.20317333984375,-9.79853742069304,0.3985953038515523,0.01292875198360998
1775722362150186200,2.213186279296875,-9.798533329039811,0.3987381463883444,0.011669116444489917
1775722362160199400,2.223199462890625,-9.798541512346267,0.3986044370060786,0.009313452129857614
1775722362170212400,2.23321240234375,-9.79855729443729,0.39827505892124027,0.00629069022135518
1775722362180226300,2.243226318359375,-9.798580675312875,0.397733974314481,0.002800327354946057
1775722362190239500,2.253239501953125,-9.79859411931634,0.3974064959257841,-0.000015582597596448977
1775722362200252400,2.26325244140625,-9.798584766966105,0.39763698021341115,-0.0019055115349205151
1775722362210265300,2.273265380859375,-9.798542681390046,0.39867414124142375,-0.0031372280195922937
1775722362220278300,2.2832783203125,-9.798466693544388,0.400522143728286,-0.00381155507609219
1775722362230292200,2.293292236328125,-9.7983696629107,0.40289216079525647,-0.004201502814693958
1775722362240305400,2.303305419921875,-9.798268540623784,0.40532424678038803,-0.005033747821176075
1775722362250318300,2.313318359375,-9.798187292081117,0.407285135057196,-0.005648093456146307
1775722362260331500,2.32333154296875,-9.798148713636397,0.40819147277977313,-0.006364669343840796
1775722362270344200,2.33334423828125,-9.798171509990096,0.4076512649558484,-0.006615813968650764
1775722362280358400,2.3433583984375,-9.79825568114221,0.4056279424346983,-0.005845399847489898
1775722362290371300,2.353371337890625,-9.798371416476368,0.40284788326211274,-0.0039128471825999435
1775722362300384300,2.36338427734375,-9.798474876850843,0.4003458373133093,-0.0009630285684248519
1775722362310397400,2.3733974609375,-9.798533913561702,0.39888526324145496,0.002661376969037519
1775722362320410400,2.383410400390625,-9.798540927824378,0.39865499814953653,0.006976339535356964
1775722362330423800,2.393423828125,-9.798500011292099,0.3995561117077246,0.01147730307477177
1775722362340437000,2.40343701171875,-9.798438051971793,0.4009142117857933,0.016393531742546475
1775722362350450000,2.413449951171875,-9.798353296297789,0.4027398928429931,0.021263385676569303
1775722362360462800,2.423462890625,-9.798233469310402,0.40539457207024093,0.025664043204754124
1775722362370475800,2.433475830078125,-9.798077986487746,0.408911238421686,0.02914050540997414
1775722362380489000,2.443489013671875,-9.797903798964619,0.4128559574594721,0.031847768774407446
1775722362390503000,2.4535029296875,-9.797720259091257,0.4170299917411059,0.033877192242781164
1775722362400515800,2.463515869140625,-9.797540226349234,0.42109585294052954,0.03555321286333492
1775722362410529000,2.473529052734375,-9.797384743526578,0.42463575403708964,0.0364222256666515
1775722362420541700,2.483541748046875,-9.797272515323758,0.4272219711380079,0.036311725913325786
1775722362430555000,2.493554931640625,-9.79721230956912,0.4286664708578959,0.03553853588401107
1775722362440568800,2.50356884765625,-9.797198281043768,0.42908433094378556,0.03431298299429472
1775722362450581800,2.513581787109375,-9.79721289409101,0.42881687564663584,0.033501851557788905
1775722362460595000,2.523594970703125,-9.797233936879039,0.4283479429606348,0.03337201919961953
1775722362470608000,2.53360791015625,-9.797205295306444,0.42892271064128723,0.034240331033326216
1775722362480620800,2.543620849609375,-9.797110602760315,0.4309438046727329,0.036040998663567005
1775722362490635000,2.553635009765625,-9.796946352109313,0.4344790661267936,0.038119563069869765
1775722362500647700,2.563647705078125,-9.796772749108076,0.43819943835679437,0.04009268064058851
1775722362510660900,2.573660888671875,-9.79665058403313,0.44082587787024674,0.04110355188329704
1775722362520673800,2.583673828125,-9.796604406803846,0.441833118684031,0.041339977287943475
1775722362530687000,2.59368701171875,-9.796630125766992,0.44125276151280846,0.04148106625906657
1775722362540701000,2.603700927734375,-9.79668857795596,0.4399123797545209,0.04193187876648735
1775722362550713900,2.6137138671875,-9.79674703014493,0.43858409029282625,0.04207353855976834
1775722362560726800,2.623726806640625,-9.796794376417994,0.4375131731256842,0.04221109756666701
1775722362570739700,2.63373974609375,-9.796837046515941,0.43653037263341243,0.04253079907428473
1775722362580753000,2.6437529296875,-9.79687796304822,0.4355565226325765,0.04303425965097267
1775722362590766800,2.653766845703125,-9.796916541492939,0.4346104739541188,0.04380219811643474
1775722362600779800,2.66377978515625,-9.796929985496401,0.43421091670989986,0.04487162201281171
1775722362610793000,2.67379296875,-9.796890822529793,0.4349448570076376,0.04622801875756122
1775722362620805600,2.6838056640625,-9.796785608589648,0.4371450704656541,0.04779247789557557
1775722362630818800,2.69381884765625,-9.79665058403313,0.4399931899057701,0.04926214402276091
1775722362640833000,2.7038330078125,-9.796548877224325,0.44215643235426394,0.05015114701804705
1775722362650845700,2.713845703125,-9.796497439298033,0.4432592790296301,0.05044336686369497
1775722362660859000,2.72385888671875,-9.796465290594101,0.4439463845109567,0.050687728979624806
1775722362670871800,2.733871826171875,-9.79641034553647,0.4451108982456848,0.05104084413307718
1775722362680884700,2.743884765625,-9.796296363767981,0.44760636832322925,0.05112718897596932
1775722362690899000,2.75389892578125,-9.79613035955131,0.4511903277572244,0.051405444228346454
1775722362700911900,2.763911865234375,-9.795971954119205,0.45452601151857525,0.05214170434733387
1775722362710924800,2.7739248046875,-9.795859141394496,0.45676352477967735,0.05383490443155169
1775722362720937700,2.783937744140625,-9.79579250589907,0.4578702073799446,0.056510229154606344
1775722362730951000,2.793950927734375,-9.795733469188212,0.4587784082660451,0.05924031170562375
1775722362740964900,2.80396484375,-9.795662157517672,0.4599935196768492,0.061622859460604376
1775722362750977800,2.813977783203125,-9.795572141146659,0.46160537532027807,0.06376293566264211
1775722362760991000,2.823990966796875,-9.795464004597067,0.46369387203212825,0.0652902867938159
1775722362771004000,2.83400390625,-9.795335409781336,0.4662378208938986,0.0663895943718031
1775722362781016800,2.844016845703125,-9.795172912696003,0.46941944660469886,0.06797482230321038
1775722362791030800,2.85403076171875,-9.794950209856033,0.4737625538429245,0.06991081816735677
1775722362801043700,2.864043701171875,-9.794616447857022,0.4802042042629793,0.07263302793917245
1775722362811057000,2.874056884765625,-9.79413480181992,0.4891329587910324,0.07785979527728631
1775722362821070000,2.884070068359375,-9.79355904775858,0.4992167651057243,0.08582008836567401
1775722362831082800,2.894082763671875,-9.79293945455551,0.509377764842473,0.09618135991487652
1775722362841097000,2.904096923828125,-9.792309339958429,0.5190099183995276,0.10811665758145972
1775722362851109600,2.914109619140625,-9.791681563448906,0.5280352651698514,0.12054957517241127
1775722362861122800,2.924122802734375,-9.79103800484836,0.5368778392517939,0.13314119045641273
1775722362871136000,2.934135986328125,-9.790409643816947,0.5450335270481184,0.14561871437407098
1775722362881149000,2.94414892578125,-9.789879482463002,0.5510870549334212,0.15793014274351297
1775722362891163000,2.954162841796875,-9.789517663413285,0.5536160984870047,0.17099501069560646
1775722362901175800,2.96417578125,-9.789308404576778,0.5528234868045896,0.18495162158934397
1775722362911188700,2.974188720703125,-9.789213712030648,0.5494998222745955,0.19932711548227816
1775722362921202000,2.984201904296875,-9.789213712030648,0.5438907867537811,0.21414861784335223
1775722362931214800,2.99421484375,-9.789337046149372,0.535705069145374,0.22865685300417243
1775722362941228800,3.004228759765625,-9.78964099753201,0.5247475487360731,0.24072880092877894
1775722362951241700,3.01424169921875,-9.790130826875567,0.5108529519615694,0.25051019023079424
1775722362961255000,3.0242548828125,-9.790872000631689,0.49309265620224174,0.25704116290211676
1775722362971267800,3.034267822265625,-9.791966810131072,0.46960236542355266,0.2593128158948384
1775722362981280800,3.04428076171875,-9.79340707206726,0.4395133704995736,0.25766051864316686
1775722362991295000,3.054294921875,-9.795078804671764,0.40351635710820555,0.2529554096921347
1775722363001307600,3.0643076171875,-9.796835292950272,0.36344643172211943,0.24558257936919106
1775722363011320800,3.07432080078125,-9.798584182444214,0.3207644972067326,0.2350322697876021
1775722363021334000,3.084333984375,-9.80027052809596,0.2757493339708075,0.22146774521768092
1775722363031346700,3.0943466796875,-9.80187328711748,0.22744902985068036,0.20476536101344972
1775722363041361000,3.10436083984375,-9.80332933114469,0.17549283357150852,0.18526370147950946
1775722363051374000,3.1143740234375,-9.804545721197128,0.12054893585159443,0.16351163267027585
1775722363061386800,3.12438671875,-9.805429518294334,0.06400819282771554,0.14083597360956482
1775722363071400000,3.13439990234375,-9.805926946422456,0.006651049678813433,0.11889333239798433
1775722363081412900,3.144412841796875,-9.8060152092278,-0.05158680584435351,0.09893805647818371
1775722363091426800,3.1544267578125,-9.80567794009745,-0.11126379650076851,0.08174613519134
1775722363101440000,3.16443994140625,-9.804888835546373,-0.17302711931141093,0.06786505548553541
1775722363111453000,3.174452880859375,-9.80362568374276,-0.23668206455493346,0.0573361083523836
1775722363121465900,3.1844658203125,-9.801919464346765,-0.30042563792997967,0.049989481049776074
1775722363131478800,3.194478759765625,-9.799868961557745,-0.36185382876843214,0.044851140913786364
1775722363141492700,3.20449267578125,-9.79758406549096,-0.4195803703436628,0.04106097311689518
1775722363151506000,3.214505859375,-9.79515946869254,-0.47306543842423704,0.03794003721792251
1775722363161518800,3.224518798828125,-9.792632580563426,-0.5229012632822617,0.03612893952521262
1775722363171532000,3.234531982421875,-9.78997826666236,-0.570478312895447,0.03553897655871697
1775722363181544700,3.244544677734375,-9.787115278446674,-0.6176874425116926,0.03492989789979765
1775722363191559000,3.254558837890625,-9.783934894844888,-0.6661986677024513,0.0343138848933042
1775722363201571800,3.26457177734375,-9.78033482452631,-0.717125502667576,0.03409230086476309
1775722363211584800,3.274584716796875,-9.77626830573976,-0.77056680467166,0.034531233421433716
1775722363221598000,3.284597900390625,-9.771744690835476,-0.8259023959897458,0.03565455662924796
1775722363231611600,3.294611572265625,-9.766817171305417,-0.8822038366653024,0.03721634431956335
1775722363241624800,3.304624755859375,-9.761544199338555,-0.9386855292785912,0.038882647263701074
1775722363251638000,3.314637939453125,-9.756067229232192,-0.9939386299449949,0.04032998739464674
1775722363261650700,3.324650634765625,-9.750562786597014,-1.0465137435737997,0.04148127175504342
1775722363271663900,3.334663818359375,-9.74516063529253,-1.095643100662902,0.04241859827092848
1775722363281678000,3.344677978515625,-9.739892339500784,-1.1415062224976718,0.04301532662163954
1775722363291690800,3.354690673828125,-9.734632811537384,-1.1854927368056027,0.04371784430122934
1775722363301704000,3.364703857421875,-9.729144735515117,-1.2296662981182336,0.045236948193865825
1775722363311716900,3.374716796875,-9.723145787361263,-1.2760944334246218,0.049027800977346485
1775722363321729800,3.384729736328125,-9.716516140088439,-1.3253633451148867,0.05573014359362423
1775722363331743700,3.39474365234375,-9.709410107475518,-1.376046069125831,0.06505164659919682
1775722363341757000,3.4047568359375,-9.702184832397103,-1.4255435288749634,0.07626045662213582
1775722363351769600,3.41476953125,-9.695244219478964,-1.4713161228820681,0.08859707879833877
1775722363361782800,3.42478271484375,-9.688847796440124,-1.5120336254566906,0.10180897227199748
1775722363371795700,3.434795654296875,-9.683099023655057,-1.5474714340627194,0.1153629389152862
1775722363381809700,3.4448095703125,-9.677961076244712,-1.5782175777211784,0.1291717662356328
1775722363391822800,3.45482275390625,-9.673426939946413,-1.6046308067418633,0.14267693443428725
1775722363401835800,3.464835693359375,-9.669438162571192,-1.6273865361683069,0.15478899517357347
1775722363411848700,3.4748486328125,-9.665772625800967,-1.6480901553705334,0.16438752045566216
1775722363421861600,3.484861572265625,-9.661976156127452,-1.6692678218252957,0.17363158801058307
1775722363431875600,3.49487548828125,-9.657592826476693,-1.6933571379430592,0.1839060580591671
1775722363441888800,3.504888671875,-9.652360186520218,-1.7217467816032468,0.19470829657521097
1775722363451901700,3.514901611328125,-9.646196987715363,-1.7546539026878774,0.20604086084198206
1775722363461915000,3.524914794921875,-9.639286769935488,-1.7906636659629642,0.21923116353834046
1775722363471927600,3.534927490234375,-9.632001873624324,-1.8277324367716907,0.2330558734144084
1775722363481941800,3.544941650390625,-9.624785366374253,-1.8636765874646604,0.2461748827065341
1775722363491954700,3.55495458984375,-9.617892099729179,-1.897280750902742,0.25857381582949307
1775722363501967600,3.564967529296875,-9.611355391436815,-1.9285645085692404,0.26995073069464415
1775722363511980800,3.574980712890625,-9.605053076422214,-1.9583714716814458,0.2794941282560117
1775722363521994800,3.584994873046875,-9.598835517081618,-1.9874635645225642,0.28762400575764474
1775722363532007700,3.595007568359375,-9.592792729786037,-2.0157256362803277,0.2925026994436048
1775722363542020900,3.605020751953125,-9.587233926615118,-2.042077344372123,0.29197376193236557
1775722363552033500,3.615033447265625,-9.58245662921071,-2.0651284034833313,0.2866194866239093
1775722363562046700,3.625046630859375,-9.57859820021689,-2.084175926041603,0.27757422957671807
1775722363572061000,3.63506103515625,-9.57539092860818,-2.1003021543256937,0.26646108021428805
1775722363582073600,3.645073486328125,-9.572394669401644,-2.1154905172377823,0.2536637771571986
1775722363592086800,3.655086669921875,-9.569216623887419,-2.131517669061571,0.23896926217665895
1775722363602099700,3.665099609375,-9.565494973015785,-2.1497505142360924,0.22418880421202628
1775722363612112600,3.675112548828125,-9.560912905922532,-2.1712879539139567,0.21174451584368942
1775722363622126800,3.685126953125,-9.555295650562643,-2.1966756392791864,0.2032816800606437
1775722363632139800,3.695139892578125,-9.548926115530728,-2.2245101332746446,0.19988621066976336
1775722363642152700,3.705152587890625,-9.54250864970386,-2.2516795874901114,0.20212659174138678
1775722363652165600,3.71516552734375,-9.536772151878475,-2.2751951953731475,0.2094128762920387
1775722363662178800,3.7251787109375,-9.532008882999419,-2.293960539989173,0.22121088437978176
1775722363672192800,3.73519287109375,-9.52807505068183,-2.3086017904125153,0.23776330218669026
1775722363682205700,3.745205810546875,-9.524577271693945,-2.320853661481291,0.2577798159075901
1775722363692219000,3.755218994140625,-9.521316808593273,-2.331562687022239,0.2805822157536633
1775722363702231600,3.7652314453125,-9.518425178804993,-2.3402760087013244,0.30507629501372574
1775722363712245800,3.775245849609375,-9.516050266367197,-2.346623039640486,0.329444866464287
1775722363722258700,3.7852587890625,-9.514267474603653,-2.350521216122806,0.3523457765150815
1775722363732271600,3.795271728515625,-9.513065113076568,-2.352219690603763,0.3728730893023312
1775722363742284800,3.805284912109375,-9.51240460334122,-2.3519351745739576,0.3910782427523285
1775722363752297700,3.815297607421875,-9.512223401555419,-2.3497797501057387,0.4080772718155756
1775722363762311700,3.825311767578125,-9.51233270714879,-2.346032088010013,0.4266656889621168
1775722363772324900,3.835324951171875,-9.512529691025614,-2.341213435681909,0.4481937032245099
1775722363782337800,3.845337890625,-9.512680497673154,-2.335613862109184,0.4735007976341992
1775722363792350700,3.855350830078125,-9.512622045484184,-2.3293203149229287,0.5046489096896722
1775722363802363600,3.86536376953125,-9.51244376630783,-2.321792988158017,0.5413594781778752
1775722363812377600,3.875377685546875,-9.512178393369913,-2.313066806997359,0.5818698408078402
1775722363822390800,3.885390869140625,-9.511635957056283,-2.3041335589572784,0.6246056974675506
1775722363832403700,3.89540380859375,-9.510506660765408,-2.2966854349084196,0.6677422438826411
1775722363842416600,3.905416748046875,-9.50850993399024,-2.2923661104045805,0.7097052895389497
1775722363852430800,3.915430908203125,-9.50548678677678,-2.2920525144107637,0.7500656492389738
1775722363862443800,3.92544384765625,-9.50149917844534,-2.2956296422451734,0.7886563689179718
1775722363872456700,3.935456787109375,-9.496804298627376,-2.302011744497716,0.8257324462503194
1775722363882469600,3.9454697265625,-9.49194809076786,-2.309404631228,0.8602093008697033
1775722363892482800,3.95548291015625,-9.487319846445322,-2.3168672221936286,0.8906584343429654
1775722363902496800,3.965496826171875,-9.483155127981304,-2.324132537021488,0.9157304778877645
1775722363912509700,3.975509765625,-9.47960415750146,-2.331552019497752,0.9334650181513279
1775722363922523000,3.98552294921875,-9.476862749838828,-2.338936284530163,0.9427823701381682
1775722363932535600,3.99553564453125,-9.474851994538307,-2.345565931802988,0.946509647032991
1775722363942548700,4.005548828125,-9.473434528955817,-2.3507279907412824,0.9478927719544619
1775722363952562700,4.015562744140625,-9.472706799203158,-2.3535955090016127,0.9480520541694015
1775722363962575600,4.02557568359375,-9.472978601881861,-2.3531242382280526,0.9465051169883459
1775722363972588800,4.0355888671875,-9.4742516905576,-2.349302926374227,0.9432450922790914
1775722363982601700,4.045601806640625,-9.476377596670389,-2.3431258451744914,0.9372351843398063
1775722363992615700,4.05561572265625,-9.479282670462132,-2.335559793834388,0.9266855140790343
1775722364002628900,4.06562890625,-9.482640164196491,-2.327704696419835,0.9119846424229443
1775722364012641800,4.075641845703125,-9.48622036077082,-2.320504994174093,0.8928934268534183
1775722364022654700,4.08565478515625,-9.489749703940749,-2.315075954862684,0.8691714827433228
1775722364032667600,4.095667724609375,-9.49286052943766,-2.3119234821811316,0.8432046092506498
1775722364042681600,4.105681640625,-9.494942596408725,-2.311931519357115,0.8194001744888723
1775722364052694800,4.11569482421875,-9.495558097958565,-2.316246021555364,0.7998563197810202
1775722364062707700,4.125707763671875,-9.494835628902912,-2.325197535904497,0.7822662294894457
1775722364072720600,4.135720703125,-9.49308323227763,-2.3381084554038942,0.7648574871141464
1775722364082733600,4.145733642578125,-9.490545238232611,-2.3535290196366607,0.7488913447625934
1775722364092747800,4.155747802734375,-9.487438504388928,-2.3695796984665094,0.7375566616039723
1775722364102760700,4.1657607421875,-9.484297868275641,-2.3841059442080557,0.731103759137541
1775722364112773600,4.175773681640625,-9.481862165561317,-2.3948846739843486,0.7274637951999903
1775722364122786800,4.185786865234375,-9.480638761246205,-2.4003499536529183,0.7253938570581376
1775722364132800800,4.19580078125,-9.48070305865407,-2.400389847271889,0.7244209203727543
1775722364142813700,4.205813720703125,-9.481697330388426,-2.3968382922701537,0.7231663172017783
1775722364152827000,4.215826904296875,-9.482963404801488,-2.3925604688204825,0.7207252807252109
1775722364162839600,4.225839599609375,-9.483874089905619,-2.3898199379406866,0.717825906021893
1775722364172852700,4.235852783203125,-9.484291438534855,-2.38917988647148,0.7144358982574194
1775722364182866700,4.24586669921875,-9.484593051829934,-2.3891893849521875,0.7103866228666156
1775722364192879600,4.255879638671875,-9.48519686294198,-2.3879358777597544,0.7065344044178724
1775722364202892800,4.265892822265625,-9.486303362879157,-2.38434457526952,0.703797380669415
1775722364212905700,4.27590576171875,-9.488129409262537,-2.3777786408826707,0.7013945573113858
1775722364222918700,4.285918701171875,-9.490573295283317,-2.3687762731291353,0.6987872243572026
1775722364232932900,4.295932861328125,-9.49336380278468,-2.3584010095871983,0.6959663947828114
1775722364242945800,4.30594580078125,-9.496389872607589,-2.3474070296250282,0.6918373321540653
1775722364252958700,4.315958740234375,-9.499659688058495,-2.336035156261176,0.6854124136731028
1775722364262971600,4.3259716796875,-9.503094338682294,-2.3245792578756808,0.6766898857742547
1775722364272985600,4.335985595703125,-9.506392211183906,-2.3139400827005505,0.666764484891668
1775722364282998800,4.345998779296875,-9.509169274681806,-2.305454432297498,0.6564820141997187
1775722364293011700,4.35601171875,-9.511217439383268,-2.299827970717847,0.6464643319237977
1775722364303025000,4.36602490234375,-9.512554240944981,-2.2968004395902155,0.6374967432226986
1775722364313037600,4.37603759765625,-9.51341524168849,-2.295344687823951,0.629850173992291
1775722364323051800,4.3860517578125,-9.514102054908872,-2.2940632697112857,0.62411959445104
1775722364333065200,4.396065185546875,-9.51500104957521,-2.2912965814769266,0.6205622672956437
1775722364343078400,4.406078369140625,-9.516450079339743,-2.285819465240091,0.6185372642740606
1775722364353091300,4.41609130859375,-9.51859761276245,-2.277408195247501,0.6165171566233039
1775722364363104300,4.426104248046875,-9.521343696600198,-2.266686017964035,0.613624723117426
1775722364373118500,4.436118408203125,-9.524301377362013,-2.2549733683384954,0.610869469592534
1775722364383131400,4.44613134765625,-9.527190084540843,-2.2433418211251497,0.6086509167602285
1775722364393144300,4.456144287109375,-9.529909280371665,-2.2323460875973105,0.6064970631945877
1775722364403157200,4.4661572265625,-9.532589313235878,-2.221582409259677,0.6039006169605999
1775722364413171200,4.476171142578125,-9.53540437065661,-2.210300552266836,0.6008459786303341
1775722364423184400,4.486184326171875,-9.538560788860917,-2.1978072736576197,0.5965589124282822
1775722364433197300,4.496197265625,-9.54207961063683,-2.184320453966409,0.5897861303577199
1775722364443210200,4.506210205078125,-9.545698385655879,-2.1708792269825934,0.5807824108973145
1775722364453223200,4.51622314453125,-9.54901905451119,-2.1592545479014515,0.5694209858622402
1775722364463237400,4.5262373046875,-9.55173825034201,-2.150726665791869,0.5559279921585694
1775722364473250300,4.536250244140625,-9.553607551345229,-2.146199982147664,0.5410998773936182
1775722364483263200,4.54626318359375,-9.554373275020717,-2.146413478767872,0.5265455015361309
1775722364493276400,4.5562763671875,-9.553793429306149,-2.1525464285649356,0.5118160248400643
1775722364503290400,4.566290283203125,-9.551680967196821,-2.1652929512828587,0.4972752756491303
1775722364513303300,4.57630322265625,-9.547939442580939,-2.1845827581644057,0.4845991512862965
1775722364523316500,4.58631640625,-9.542724922803044,-2.2094813448384403,0.4743195301385596
1775722364533329200,4.5963291015625,-9.53646644693017,-2.2376430249616504,0.46812652071733024
1775722364543342300,4.60634228515625,-9.52977016416192,-2.2663863043650982,0.46621491494234646
1775722364553356300,4.616356201171875,-9.52346668010354,-2.2926818983554837,0.46645241349264976
1775722364563369200,4.626369140625,-9.51822761040628,-2.3141752066306767,0.4672508703939616
1775722364573382400,4.63638232421875,-9.51449602266252,-2.329201218587905,0.4685795251818374
1775722364583395300,4.646395263671875,-9.512546057638525,-2.336805556111783,0.47031259605214
1775722364593408300,4.656408203125,-9.51242739969492,-2.3368013183280825,0.4727213376943022
1775722364603422500,4.66642236328125,-9.514055877679587,-2.3295680060736834,0.47564310689251865
1775722364613435400,4.676435302734375,-9.517529106748103,-2.314739270254224,0.47854942279327656
1775722364623448300,4.6864482421875,-9.523052838605642,-2.290884347414225,0.4834195130476728
1775722364633461200,4.696461181640625,-9.530781387031078,-2.2563690604805946,0.49334370835386215
1775722364643475200,4.70647509765625,-9.540748069772123,-2.210709425328672,0.5072220481133088
1775722364653488400,4.71648828125,-9.552768177911638,-2.154633902363479,0.5220742378735914
1775722364663501300,4.726501220703125,-9.566407996207476,-2.088840849112719,0.5394172580689192
1775722364673514200,4.73651416015625,-9.581114566951989,-2.0147011155381795,0.5600055072631687
1775722364683527200,4.746527099609375,-9.596106384378672,-1.9348731071941554,0.5842909670075401
1775722364693541400,4.756541259765625,-9.610781390941142,-1.8520903406977653,0.6107597256077453
1775722364703554300,4.76655419921875,-9.624980012163519,-1.768423046451807,0.6346870195642114
1775722364713567200,4.776567138671875,-9.638629182809591,-1.6849183954216538,0.6544160946458578
1775722364723580400,4.786580322265625,-9.65153717969954,-1.6026400713160633,0.6706411801945418
1775722364733593300,4.79659326171875,-9.663617493593692,-1.5226542420618234,0.6829394476883113
1775722364743607300,4.806607177734375,-9.67484791266024,-1.446228151115775,0.6900179347071796
1775722364753620500,4.816620361328125,-9.685276952216029,-1.3740319528244436,0.6912524449381977
1775722364763633200,4.826633056640625,-9.694930915746092,-1.307124800851941,0.6856589357800781
1775722364773646300,4.836646240234375,-9.704029583480954,-1.2459952093675732,0.6705853583540767
1775722364783660300,4.846660400390625,-9.712509827056527,-1.190288665845245,0.6486527088135481
1775722364793673200,4.856673095703125,-9.72020447321236,-1.1389239509195088,0.6251902924224734
1775722364803686400,4.866686279296875,-9.727260821464657,-1.089691791043058,0.6027904637616127
1775722364813699300,4.87669921875,-9.734052965822816,-1.0403002028211952,0.579973323004134
1775722364823712300,4.886712158203125,-9.740820560261607,-0.989507369499281,0.5546860292734578
1775722364833726500,4.8967265625,-9.747467743191123,-0.9372287545990198,0.5280681079935282
1775722364843739400,4.906739501953125,-9.753810390216112,-0.8838542342208325,0.5023674111563712
1775722364853752300,4.91675244140625,-9.75970763156116,-0.8299582472518086,0.4792266644677147
1775722364863765200,4.92676513671875,-9.765025611713527,-0.7755749882224947,0.4616771619148552
1775722364873779200,4.936779296875,-9.769705878484249,-0.720413730558008,0.4519178748467937
1775722364883792400,4.94679248046875,-9.773654323849081,-0.6647952306453139,0.45178595556281503
1775722364893805300,4.956805419921875,-9.776890821552277,-0.6098894821118563,0.45915937040764837
1775722364903818500,4.966818603515625,-9.779539874756336,-0.5558179559128359,0.47122328115627166
1775722364913831200,4.9768310546875,-9.781719556882978,-0.5022992778236046,0.48584560768343504
1775722364923845400,4.986845458984375,-9.783602886411547,-0.44928971830029035,0.4996397762907669
1775722364933858300,4.9968583984375,-9.785172912207246,-0.3973625106535852,0.51271699226778
1775722364943871200,5.006871337890625,-9.78622914326191,-0.34743414867389943,0.5285721119929104
1775722364953884400,5.016884521484375,-9.78693641474843,-0.29959380848202855,0.5445215954706073
1775722364963898400,5.0268984375,-9.787508077156543,-0.253298615372926,0.5575879612600431
1775722364973911300,5.036911376953125,-9.787936531701684,-0.20953023732770232,0.5681322246933356
1775722364983924500,5.046924560546875,-9.788322316148877,-0.17132727485727517,0.574265284088254
1775722364993937200,5.056937255859375,-9.788787011051177,-0.14082336072316393,0.5746363458903506
1775722365003950300,5.066950439453125,-9.789404850688577,-0.11748984967507421,0.5693282660774887
1775722365013964300,5.07696435546875,-9.790116213828325,-0.09853405138771049,0.5606235660962761
1775722365023977200,5.086977294921875,-9.790921684992313,-0.08136266143224202,0.5491953229026869
1775722365033990400,5.096990478515625,-9.792074362158775,-0.06392196671583224,0.5306385064708069
1775722365044003300,5.10700341796875,-9.79370810084045,-0.0447771760618547,0.5016537829943001
1775722365054016300,5.117016357421875,-9.795803027293086,-0.02406582792761037,0.46049003448951986
1775722365064030500,5.127030517578125,-9.798097275710106,-0.002754227757474291,0.40946730140186843
1775722365074043400,5.13704345703125,-9.800281049489975,0.018903300915146245,0.35287619359735395
1775722365084056300,5.147056396484375,-9.802084299519658,0.04224847500156611,0.296206577196531
1775722365094069200,5.1570693359375,-9.803376092895865,0.07010590234803966,0.24348613681290296
1775722365104083200,5.167083251953125,-9.804072258466482,0.10539460307327099,0.1985929194562137
1775722365114096400,5.177096435546875,-9.804147077268361,0.14946536159855311,0.16353366183899343
1775722365124109300,5.187109375,-9.803629775395988,0.20117530063223094,0.13694152345429172
1775722365134122500,5.19712255859375,-9.80256594555676,0.2573040881546214,0.11783355767936445
1775722365144135200,5.20713525390625,-9.801098795613646,0.31216402478497474,0.1067918113190215
1775722365154149400,5.2171494140625,-9.79950597346425,0.3592510989241302,0.10491093860901891
1775722365164162300,5.227162353515625,-9.798130593457817,0.3937936391908675,0.10932557671349495
1775722365174175200,5.23717529296875,-9.79711820154488,0.41573702932111917,0.11840263540474698
1775722365184188400,5.2471884765625,-9.796419697886705,0.4280419457513839,0.13164644012032076
1775722365194202400,5.257202392578125,-9.795932206630706,0.43426812678985294,0.1466664424618706
1775722365204215300,5.26721533203125,-9.795527132961153,0.43796098995842037,0.16194021863508967
1775722365214228500,5.277228515625,-9.795157130604982,0.4410995437124744,0.1752634635287337
1775722365224241200,5.2872412109375,-9.794854932788013,0.4436285507334396,0.18547299684863536
1775722365234254300,5.29725439453125,-9.79465911795497,0.4445401126204058,0.19345234169736503
1775722365244268500,5.3072685546875,-9.79458196106553,0.4430619298266247,0.2005988341848366
1775722365254281200,5.31728125,-9.794567932540177,0.4399802208263427,0.20794638393605128
1775722365264294400,5.32729443359375,-9.794633983513712,0.436796037832275,0.21150871606012805
1775722365274307300,5.337307373046875,-9.794795896077156,0.43393323227968067,0.2098916362523101
1775722365284321300,5.3473212890625,-9.794946702724694,0.43132688570618627,0.20823029717765748
1775722365294334500,5.35733447265625,-9.795060099971295,0.42858785266373306,0.20856203161636366
1775722365304347400,5.367347412109375,-9.795166482955217,0.42498358109407125,0.21090959938950835
1775722365314360300,5.3773603515625,-9.795244808888436,0.4203219094259664,0.21654762354278936
1775722365324373200,5.387373291015625,-9.795288063508272,0.4145557836472988,0.22552998968791216
1775722365334387500,5.397387451171875,-9.79532722647488,0.40813828128781166,0.23532394621055572
1775722365344400600,5.407400634765625,-9.795363466832042,0.40169421971496194,0.2447047188224271
1775722365354413800,5.417413818359375,-9.795369312050939,0.3959520958663896,0.2536682706692256
1775722365364426500,5.427426513671875,-9.795334825259447,0.3912356618037447,0.2621623601070605
1775722365374439700,5.437439697265625,-9.795259421935677,0.38737631949447093,0.27058047996554524
1775722365384453600,5.44745361328125,-9.795165898433327,0.3844461477940902,0.27805717252176254
1775722365394466600,5.457466552734375,-9.795036719095707,0.38258068271577356,0.2850759652426466
1775722365404479700,5.467479736328125,-9.794891757667065,0.3818560947682708,0.29097351711494845
1775722365414492700,5.47749267578125,-9.794823368605972,0.38142427922226485,0.2938253628821112
1775722365424506600,5.487506591796875,-9.794846164959669,0.38107433327343315,0.2935135204539634
1775722365434519600,5.49751953125,-9.794926828980445,0.38080092315953223,0.29118034653235225
1775722365444532700,5.50753271484375,-9.79502736674547,0.3800316558200866,0.2887882637640461
1775722365454545700,5.517545654296875,-9.795146609210967,0.3777546873314306,0.2877220593046397
1775722365464558600,5.52755859375,-9.795300338467955,0.3737717551751062,0.2877016010385007
1775722365474572500,5.537572509765625,-9.795464004597067,0.36881581326816226,0.2885261239628307
1775722365484585500,5.54758544921875,-9.795575063756107,0.36456579114086923,0.2901417607322335
1775722365494598700,5.5575986328125,-9.795597860109805,0.36185956438947464,0.2927511029804125
1775722365504611800,5.56761181640625,-9.79558733871579,0.35998054570984095,0.29540327972332014
1775722365514625500,5.57762548828125,-9.795566295927763,0.3578746229391545,0.298657185219042
1775722365524638700,5.587638671875,-9.795523041307925,0.35559721605908123,0.3027552864539437
1775722365534651400,5.5976513671875,-9.795442377287149,0.35353896835502235,0.30773981513455506
1775722365544664600,5.60766455078125,-9.795244808888436,0.35242103370837863,0.3152267002912238
1775722365554677800,5.617677734375,-9.7949011100173,0.35296390841342506,0.32514150671456005
1775722365564691500,5.62769140625,-9.794350490397214,0.35679285558443513,0.3373162574265152
1775722365574704600,5.63770458984375,-9.793489489653705,0.3653038230918348,0.3528543105591088
1775722365584717800,5.6477177734375,-9.79227017699182,0.3779790341392159,0.37276886174287643
1775722365594730500,5.65773046875,-9.790788998523354,0.39303511244114486,0.395423395817168
1775722365604743700,5.66774365234375,-9.789083948171138,0.40924405057262625,0.42040377902314063
1775722365614757600,5.677757568359375,-9.787187174639104,0.42558304482456294,0.4474705765817314
1775722365624770600,5.6877705078125,-9.785115629062055,0.44121319668740033,0.47667891621366143
1775722365634783700,5.69778369140625,-9.782903213709591,0.4553136182323098,0.5078138034613803
1775722365644796700,5.707796630859375,-9.780587337982654,0.46793191146068275,0.5399409531494602
1775722365654810600,5.717810546875,-9.778221777895093,0.4798288681445643,0.5714285993576049
1775722365664823600,5.727823486328125,-9.775835759541392,0.4918811615206301,0.6012253698693588
1775722365674836700,5.737836669921875,-9.7734889041543,0.5044996739447116,0.6283160962928086
1775722365684849700,5.747849609375,-9.771300454199313,0.5168994655841961,0.6518349921114742
1775722365694862600,5.757862548828125,-9.769451611462236,0.5278794170210138,0.6704761258259415
1775722365704876500,5.76787646484375,-9.768037653011083,0.5373456759592518,0.6834368758164345
1775722365714889500,5.777889404296875,-9.767014155182242,0.5462716540083289,0.6909475437074899
1775722365724902700,5.787902587890625,-9.766258368378876,0.555843967136927,0.6939912222523242
1775722365734915800,5.797915771484375,-9.765596689599752,0.5668636660622433,0.6943837287012488
1775722365744929500,5.807929443359375,-9.76504022476077,0.5788665673386305,0.6923080184057354
1775722365754942700,5.817942626953125,-9.76483564209938,0.5891575135979801,0.686484061492607
1775722365764955600,5.82795556640625,-9.765095169818402,0.5948153566965833,0.677864847837761
1775722365774968600,5.837968505859375,-9.765720023718476,0.5950400688305497,0.6685948421239852
1775722365784981800,5.847981689453125,-9.766602651771903,0.5909080470597371,0.6593037205569445
1775722365794995500,5.857995361328125,-9.767612705597282,0.584781307807751,0.649738531288877
1775722365805008600,5.868008544921875,-9.768653739082813,0.5784174353316426,0.6397002446163446
1775722365815021800,5.878021728515625,-9.769745041450857,0.5723182416737079,0.6284269362561404
1775722365825034500,5.888034423828125,-9.77093220540881,0.5654684853767976,0.6160446437407284
1775722365835048700,5.898048583984375,-9.772264915317296,0.555989549620077,0.6034064402354881
1775722365845061600,5.9080615234375,-9.773820328065753,0.5426682957541197,0.5901998987903818
1775722365855074600,5.918074462890625,-9.775586168694495,0.5254067432971671,0.5764048534002155
1775722365865087700,5.928087646484375,-9.777418644818663,0.50597482453119,0.5625483966790139
1775722365875100700,5.9381005859375,-9.779190330666303,0.4862702628362924,0.5489667383112014
1775722365885114600,5.948114501953125,-9.780824653869868,0.4675879568612203,0.5359233880711719
1775722365895127600,5.95812744140625,-9.782318107298016,0.449783091307804,0.5237673420596868
1775722365905140700,5.968140625,-9.78376246088743,0.4312122463505715,0.5122798794921487
1775722365915153700,5.978153564453125,-9.785334824770688,0.40955118029303844,0.49987004138268526
1775722365925166600,5.98816650390625,-9.787076700001954,0.3833811123784631,0.4863462141493335
1775722365935180500,5.9981806640625,-9.788871182203293,0.3529446557236835,0.4730950663775205
1775722365945193500,6.008193359375,-9.79057447898984,0.31977088305950163,0.46128513038996605
1775722365955206700,6.01820654296875,-9.79206559433043,0.28572233685478565,0.4518843379033729
1775722365965219800,6.0282197265625,-9.793260941594838,0.25244130442384627,0.4457517168998718
1775722365975233500,6.038233642578125,-9.794158767217397,0.22018829986639318,0.4431155231773853
1775722365985246700,6.048246826171875,-9.794851425656676,0.1876946732197888,0.4427588186942041
1775722365995259600,6.058259765625,-9.7953658049196,0.15333119758069513,0.4446094149969518
1775722366005272600,6.0682724609375,-9.795636438554524,0.11572838382734917,0.45000309073403477
1775722366015285800,6.07828564453125,-9.795727039447426,0.07475619410560466,0.4566421999549493
1775722366025299500,6.088299560546875,-9.795668587258458,0.03148157037709606,0.4628870491612702
1775722366035312600,6.098312744140625,-9.795417242845893,-0.01298212842195062,0.4690566777069121
1775722366045325600,6.10832568359375,-9.794979435950516,-0.05834455930914264,0.4747130960334092
1775722366055338500,6.11833837890625,-9.794370948663353,-0.10399893833063542,0.47944428927376864
1775722366065352700,6.128352783203125,-9.793585935765504,-0.14923974528228864,0.48351424212642014
1775722366075365600,6.13836572265625,-9.792633749607205,-0.19375674973772838,0.48699686007779086
1775722366085378600,6.148378662109375,-9.791528418713808,-0.23797102665323763,0.4896195367315784
1775722366095391700,6.158391845703125,-9.790252991950512,-0.2823396356139332,0.49153925274778154
1775722366105404700,6.16840478515625,-9.788791687226295,-0.3263570930493995,0.4933921506054699
1775722366115418600,6.178418701171875,-9.787134567669034,-0.36918402552604673,0.4960702107083052
1775722366125431600,6.188431640625,-9.785319042679667,-0.4106395600516349,0.49929012260287997
1775722366135444700,6.19844482421875,-9.783435713151096,-0.45158703545723106,0.5008371328491718
1775722366145457700,6.208457763671875,-9.78150912900269,-0.4933055683005601,0.4991071672514081
1775722366155470600,6.218470703125,-9.779458041691779,-0.5370717178560793,0.4940986914396286
1775722366165484500,6.228484619140625,-9.777202956241368,-0.5834620053701103,0.4860626479675993
1775722366175497500,6.23849755859375,-9.77468308237493,-0.63221829136312,0.4756623230496421
1775722366185510700,6.2485107421875,-9.771900758180022,-0.6818076671794057,0.464198058694601
1775722366195523800,6.25852392578125,-9.768991008213161,-0.7304029173918068,0.4513387963172048
1775722366205537500,6.26853759765625,-9.766077166593075,-0.7773113104958087,0.43577951773349194
1775722366215550700,6.27855078125,-9.763183783239125,-0.8223767060816287,0.4175140123983845
1775722366225563600,6.288563720703125,-9.760338915202022,-0.8653398686911911,0.39668738787099717
1775722366235576600,6.29857666015625,-9.757623226502536,-0.905032339067012,0.37427864525131876
1775722366245589800,6.30858984375,-9.755180509525538,-0.9401266679976135,0.35071240315958857
1775722366255603500,6.318603515625,-9.752980953654646,-0.9709829940322786,0.32701398605555293
1775722366265616600,6.32861669921875,-9.750775552564859,-0.9998246923089027,0.30514134134026244
1775722366275629600,6.338629638671875,-9.748290750011801,-1.0293081225551663,0.2858902407675981
1775722366285642500,6.348642578125,-9.745388014307618,-1.0605061746995896,0.2704027853110805
1775722366295656700,6.35865673828125,-9.742142164254188,-1.0928606303375215,0.2582829613904469
1775722366305669600,6.368669677734375,-9.738790515738724,-1.1245085451412946,0.24863772915611043
1775722366315682600,6.3786826171875,-9.735544081163406,-1.1539117497581988,0.2409446356365457
1775722366325695700,6.38869580078125,-9.73247943289578,-1.1807181428149343,0.23479491736777125
1775722366335708000,6.3987080078125,-9.72954922466278,-1.2058584292903543,0.22839151659887283
1775722366345721900,6.408721923828125,-9.726649411568046,-1.2306545785032212,0.21946053358111528
1775722366355734800,6.41873486328125,-9.723609313219786,-1.256410658789426,0.20794777217553928
1775722366365748000,6.428748046875,-9.720397949957848,-1.283280691666901,0.19348909351117907
1775722366375761000,6.438760986328125,-9.717059745445846,-1.310846305593103,0.17555629072915763
1775722366385773800,6.44877392578125,-9.713618665081261,-1.3387429050393402,0.15417197752008213
1775722366395788000,6.4587880859375,-9.710103934958576,-1.3666652234487235,0.12842661955729126
1775722366405800700,6.46880078125,-9.706558225175737,-1.3941044345162807,0.09789548862269147
1775722366415814000,6.47881396484375,-9.702947633463143,-1.4209785590469837,0.06332745315509382
1775722366425826800,6.488826904296875,-9.699305477568506,-1.4467967447839676,0.025145962730958125
1775722366435840800,6.4988408203125,-9.695770289179682,-1.4704295493058859,-0.01598343141307123
1775722366445854000,6.50885400390625,-9.692428577536344,-1.4912033111348748,-0.05940521081059705
1775722366455867000,6.518866943359375,-9.689237088018656,-1.5092818425305188,-0.10553144512753933
1775722366465879800,6.5288798828125,-9.686088268598914,-1.5252541954271495,-0.15387701316149904
1775722366475892700,6.538892822265625,-9.68279156514108,-1.5405148929230867,-0.20184852371867745
1775722366485907000,6.548906982421875,-9.679146486636995,-1.5568527181312442,-0.2464032663686201
1775722366495919900,6.558919921875,-9.67507412263155,-1.5751133280955254,-0.2869584727873094
1775722366505932800,6.568932861328125,-9.670734632122516,-1.5945793683268128,-0.32340028907041996
1775722366515946000,6.578946044921875,-9.666572251746057,-1.6131011134453117,-0.3545039043970406
1775722366525960000,6.5889599609375,-9.66302537291944,-1.6285368752472102,-0.37972025178335606
1775722366535972900,6.598972900390625,-9.660315529438853,-1.6398361217662691,-0.39952429179735477
1775722366545986000,6.608986083984375,-9.658509356799721,-1.6469572058178483,-0.41365536420885474
1775722366555998700,6.618998779296875,-9.65754197307229,-1.6505692588351666,-0.4217692221574485
1775722366566012000,6.629011962890625,-9.657246789517998,-1.651625051498413,-0.42438006224296987
1775722366576025900,6.63902587890625,-9.657350834414363,-1.6514498410619793,-0.4226972237225622
1775722366586038800,6.649038818359375,-9.657700963026285,-1.6510593804396687,-0.41617282692249863
1775722366596052000,6.659052001953125,-9.658167411494254,-1.6511767232090233,-0.4047197050159797
1775722366606065000,6.66906494140625,-9.65869815737009,-1.651648286243528,-0.38986020873207594
1775722366616077800,6.679077880859375,-9.65927391143143,-1.6522463982671498,-0.3726841791341081
1775722366626092000,6.689092041015625,-9.65996481630504,-1.652556633260101,-0.35288295213170345
1775722366636104700,6.699104736328125,-9.660755674421786,-1.6527201532587408,-0.3296907309841364
1775722366646118000,6.709117919921875,-9.66149684817791,-1.653515979811549,-0.30289230203814804
1775722366656130800,6.719130859375,-9.661876787406205,-1.6562272845968604,-0.2746387241140939
1775722366666144800,6.729144775390625,-9.661592709767818,-1.6623367073878645,-0.2462686984698288
1775722366676158000,6.739157958984375,-9.660556352457403,-1.6721955458402633,-0.218634202292189
1775722366686171000,6.7491708984375,-9.658813892704249,-1.6853182083941995,-0.19338541394099593
1775722366696183800,6.759183837890625,-9.656522566896676,-1.7008407716967164,-0.17058206424685193
1775722366706196700,6.76919677734375,-9.65377531401515,-1.718307454804331,-0.14975299203405157
1775722366716211000,6.7792109375,-9.650724694272876,-1.7369148323796688,-0.13046390667171218
1775722366726224000,6.789223876953125,-9.647442019340396,-1.7562987472854554,-0.11250569545379839
1775722366736236800,6.79923681640625,-9.643895725035668,-1.7765853101193905,-0.09699787306268699
1775722366746250000,6.80925,-9.640032035344838,-1.7980565526932477,-0.08460674878684803
1775722366756262700,6.8192626953125,-9.635768532681464,-1.8212331378802655,-0.07385029934102204
1775722366766276900,6.82927685546875,-9.631106386089325,-1.8460954841971395,-0.0640626766610425
1775722366776290000,6.8392900390625,-9.626047933655977,-1.8725206959165632,-0.057021982635604214
1775722366786302700,6.849302734375,-9.620624739563464,-1.9002673654980957,-0.05430466366803739
1775722366796316000,6.85931591796875,-9.614929158270359,-1.9288472710333764,-0.05543588705451693
1775722366806329900,6.869329833984375,-9.609011458659172,-1.9580049764566123,-0.05920235431541223
1775722366816342800,6.8793427734375,-9.602937107181548,-1.987433315514773,-0.06396592915514483
1775722366826356000,6.88935595703125,-9.596816578474641,-2.016615278596431,-0.06896165508320555
1775722366836369000,6.899368896484375,-9.590981296449899,-2.0439907767780126,-0.07459558758325874
1775722366846381800,6.9093818359375,-9.58575742432177,-2.0681930517509577,-0.07885759240929037
1775722366856396000,6.91939599609375,-9.581173019140959,-2.089257759350538,-0.08064969999045134
1775722366866408700,6.92940869140625,-9.57695569370687,-2.108492182783037,-0.08102439678804949
1775722366876422000,6.939421875,-9.57285118099749,-2.1270767640046775,-0.0803023204580415
1775722366886434800,6.949434814453125,-9.568799859780073,-2.145273953343928,-0.07910089964587241
1775722366896448800,6.95944873046875,-9.564978840187191,-2.162267758242786,-0.07849716159906238
1775722366906462000,6.9694619140625,-9.561594458445906,-2.177174527734518,-0.07879134050635621
1775722366916475000,6.979474853515625,-9.558654313340783,-2.1900370780475438,-0.07903301290827802
1775722366926487800,6.98948779296875,-9.556022795793414,-2.201532577791065,-0.07791478600068949
1775722366936500700,6.999500732421875,-9.553563127681612,-2.2122310819379982,-0.07646185637917369
1775722366946515000,7.009514892578125,-9.551270048308371,-2.222125868486613,-0.07603455717808101
1775722366956527900,7.01952783203125,-9.549261631095408,-2.2307230164401233,-0.07657858266059775
1775722366966540800,7.029540771484375,-9.54773076826632,-2.237233567377925,-0.0774803949051071
1775722366976554000,7.039553955078125,-9.546841710472107,-2.2409784529946744,-0.07883228443809784
1775722366986566700,7.049566650390625,-9.546671614602207,-2.241621865464747,-0.08110773682310246
1775722366996580900,7.059580810546875,-9.54719242360592,-2.239287431167811,-0.08421352081871591
1775722367006594000,7.069593994140625,-9.548226442828774,-2.2347607475236058,-0.08717761305500753
1775722367016606700,7.079606689453125,-9.549505376723408,-2.229236431144178,-0.0885144694156479
1775722367026620000,7.089619873046875,-9.550773789224028,-2.223835887274891,-0.08753924030847847
1775722367036633900,7.0996337890625,-9.55196095318198,-2.218852253643423,-0.08436407173792831
1775722367046646800,7.109646728515625,-9.553041734156013,-2.214417924457788,-0.07829159255698323
1775722367056660000,7.119659912109375,-9.553913256293535,-2.210924383253604,-0.0702975341963116
1775722367066673000,7.1296728515625,-9.554547462543844,-2.208432858698815,-0.06190753532061353
1775722367076685800,7.139685791015625,-9.554955458822846,-2.2068593257717786,-0.054609377669077364
1775722367086700000,7.149699951171875,-9.555212063932418,-2.205870606995374,-0.04938210800746456
1775722367096712700,7.159712646484375,-9.555335982573032,-2.205390276132524,-0.04677364710869733
1775722367106726000,7.169725830078125,-9.55530149578154,-2.2055435669980943,-0.04661277115829289
1775722367116738800,7.17973876953125,-9.555319615960121,-2.2054352843180296,-0.048065641414304264
1775722367126752000,7.189751953125,-9.555635257780551,-2.203997214338928,-0.05109462014692835
1775722367136766000,7.199765869140625,-9.556313303172589,-2.200932419940829,-0.05615319587786216
1775722367146779000,7.20977880859375,-9.55729763803482,-2.196471933400631,-0.06289557824358344
1775722367156791800,7.219791748046875,-9.558446808069943,-2.1912205887436866,-0.0709366814832203
1775722367166804700,7.2298046875,-9.55970353013277,-2.185378584717214,-0.0810548649915494
1775722367176819000,7.23981884765625,-9.561104044580459,-2.178730671135336,-0.09386162086357362
1775722367186832000,7.249831787109375,-9.562735445174575,-2.1708606684125957,-0.10883155525200999
1775722367196844800,7.2598447265625,-9.56466261384487,-2.1615901512421667,-0.12305163025436922
1775722367206858000,7.26985791015625,-9.566926467123627,-2.1507881867207583,-0.13568021654789336
1775722367216871000,7.279870849609375,-9.569592471462487,-2.138096901321411,-0.14772397955763153
1775722367226884900,7.289884765625,-9.572783960980177,-2.1229630450755357,-0.15880168314734472
1775722367236898000,7.29989794921875,-9.576607318660617,-2.1048886053331195,-0.16857552846372126
1775722367246910700,7.30991064453125,-9.580953823432326,-2.084192584915459,-0.17847778593273833
1775722367256924000,7.319923828125,-9.585637597334385,-2.0616503521092233,-0.18850387071082367
1775722367266936800,7.329936767578125,-9.59042073995769,-2.038503139147162,-0.196761393180117
1775722367276950800,7.33995068359375,-9.59510334481597,-2.0157588078975675,-0.20271924213860182
1775722367286964000,7.3499638671875,-9.599602994322776,-1.9938025582857428,-0.20678322190819307
1775722367296977000,7.359976806640625,-9.603949499094485,-1.9724964431457221,-0.209262909894716
1775722367306989800,7.36998974609375,-9.608273792034387,-1.9511103946372865,-0.211248768215999
1775722367317004000,7.380004150390625,-9.61272551074624,-1.9287793203637003,-0.2137699755229987
1775722367327016700,7.3900166015625,-9.617246203041075,-1.905593967348337,-0.21833300912221892
1775722367337030000,7.40002978515625,-9.62169499914348,-1.882303692653775,-0.22428313143197445
1775722367347042800,7.410042724609375,-9.625876084220408,-1.8600725716233253,-0.23026890957700089
1775722367357056000,7.420055908203125,-9.629583122044801,-1.8400953669995068,-0.23572452636808156
1775722367367070000,7.430070068359375,-9.632601593083143,-1.8236888604693113,-0.23985804597623644
1775722367377083000,7.440082763671875,-9.634702949276566,-1.811968027537316,-0.24424791496563703
1775722367387095800,7.450095703125,-9.635695467445254,-1.8057719493761657,-0.2508845217022113
1775722367397108700,7.460108642578125,-9.635695467445254,-1.8046533206097781,-0.25881557042980563
1775722367407123000,7.470123046875,-9.635000470918417,-1.8074366677179932,-0.2651757713777944
1775722367417135900,7.480135986328125,-9.634051791891455,-1.8124666247092187,-0.26531896097445856
1775722367427148800,7.490148681640625,-9.632908467075229,-1.8187516963280737,-0.2638169223810546
1775722367437162000,7.500161865234375,-9.631670449712871,-1.825420506567508,-0.26295939223626624
1775722367447175000,7.5101748046875,-9.630431263306736,-1.8319396792031823,-0.2630202373117208
1775722367457188900,7.52018896484375,-9.629166357937455,-1.838348669462651,-0.2646071046443656
1775722367467202000,7.5302021484375,-9.62774012452662,-1.8449654572539032,-0.270375915570464
1775722367477214700,7.540214599609375,-9.625858548563718,-1.85293965100348,-0.28257203786401075
1775722367487228000,7.550227783203125,-9.623525721701979,-1.8629620094545185,-0.29582283857595176
1775722367497240800,7.56024072265625,-9.621016953751445,-1.8738753253959117,-0.3082254432270303
1775722367507254800,7.5702548828125,-9.618613399741053,-1.884071871370077,-0.3208285023536533
1775722367517268000,7.58026806640625,-9.616546530339122,-1.8924305343925951,-0.3333494726873934
1775722367527281000,7.590281005859375,-9.614976504543423,-1.8980188559189437,-0.3466135164733976
1775722367537293800,7.6002939453125,-9.613964697152376,-1.9002999525934456,-0.3618452436031773
1775722367547306800,7.610306640625,-9.61378875606358,-1.8984800436899065,-0.3758035532636568
1775722367557321000,7.620321044921875,-9.614743864831327,-1.8915435224249957,-0.38619985959362235
1775722367567334000,7.630333984375,-9.617057986992597,-1.8783809662520885,-0.39276725528519596
1775722367577346800,7.640346923828125,-9.620830491268634,-1.8583603608779609,-0.3956010539390146
1775722367587360000,7.650360107421875,-9.626080082359909,-1.8314578870356082,-0.3933616044491529
1775722367597374000,7.6603740234375,-9.632670566666127,-1.7983524668999016,-0.38467528037484733
1775722367607387000,7.670386962890625,-9.640099255362152,-1.7610539789885282,-0.3708911582374945
1775722367617399800,7.68039990234375,-9.647988547307252,-1.7209575309216976,-0.35357020374350245
1775722367627412700,7.690412841796875,-9.656163670456408,-1.6783944004803895,-0.33448052254393695
1775722367637426000,7.700426025390625,-9.66451765730381,-1.633321186914295,-0.31582576216291636
1775722367647440000,7.71043994140625,-9.673050507849455,-1.5852547828815877,-0.2990689626240171
1775722367657452800,7.720452880859375,-9.681798462450503,-1.5338886066511273,-0.28345921422839165
1775722367667466000,7.730466064453125,-9.690723527184128,-1.4793515452995896,-0.2679174895676784
1775722367677479000,7.74047900390625,-9.699715227413177,-1.4219683007366954,-0.25282518917489794
1775722367687491800,7.750491943359375,-9.708651982584595,-1.3623792166925965,-0.23744397057183086
1775722367697506000,7.760506103515625,-9.717312258902192,-1.302217301196605,-0.220124459116254
1775722367707518700,7.770518798828125,-9.725463416653872,-1.2428327998138964,-0.2027618574376218
1775722367717532000,7.780531982421875,-9.733026545384526,-1.1847218254983425,-0.18710890922108664
1775722367727544800,7.790544921875,-9.740070618677139,-1.1278582208953798,-0.171307802971825
1775722367737558800,7.800558837890625,-9.746603819838166,-1.0726340540625154,-0.1534580570970662
1775722367747572000,7.810572021484375,-9.752629655998945,-1.0191733897708355,-0.13371887161335907
1775722367757585000,7.8205849609375,-9.758172677078843,-0.9673183340448885,-0.11289906955240293
1775722367767597800,7.830597900390625,-9.763294257876277,-0.9166262576837092,-0.09090700884168036
1775722367777610800,7.84061083984375,-9.768096105200051,-0.8661372296139598,-0.06701827506362461
1775722367787625000,7.850625,-9.772644270023703,-0.8149532780826091,-0.04071299536286387
1775722367797638000,7.860637939453125,-9.776932322606443,-0.7627790003396571,-0.012075098862918092
1775722367807650800,7.87065087890625,-9.780849203789234,-0.7106507536955178,0.01866248360481695
1775722367817664000,7.8806640625,-9.784282685369252,-0.6601061229810118,0.049505396460415796
1775722367827676700,7.8906767578125,-9.78719535794556,-0.6124195485787466,0.07831764944684691
1775722367837691000,7.90069091796875,-9.78960475717485,-0.5684457841545343,0.10439312527999281
1775722367847703800,7.910703857421875,-9.791606744647025,-0.527786989497207,0.12751210766141302
1775722367857716700,7.920716796875,-9.793345697268842,-0.48834067590218033,0.1492750540576875
1775722367867730000,7.93072998046875,-9.794940857505798,-0.4479733384720981,0.1698121758528985
1775722367877743900,7.940743896484375,-9.796489840513468,-0.4048020130045712,0.1879137045316398
1775722367887756800,7.9507568359375,-9.797999660554527,-0.35760987105574454,0.2042134079528041
1775722367897770000,7.96077001953125,-9.799367441776393,-0.30713918236028404,0.22010546215483917
1775722367907783000,7.970782958984375,-9.800483294063806,-0.2560522066636942,0.23525683579109608
1775722367917795800,7.9807958984375,-9.801325590106844,-0.20747756084790453,0.24770534367682412
1775722367927810000,7.99081005859375,-9.801914203649758,-0.16299239456914363,0.2574766499762423
1775722367937822700,8.00082275390625,-9.802317523753642,-0.12200599365895613,0.2647057427132502
1775722367947836000,8.0108359375,-9.80263901079297,-0.08211906015696004,0.2681483757141046
1775722367957848800,8.020848876953124,-9.802947053828834,-0.040705866935756056,0.2663838319933042
1775722367967862000,8.030862060546875,-9.80319781371951,0.00432685593139031,0.26014762275116515
1775722367977876000,8.0408759765625,-9.803277893218398,0.05370435055417474,0.25147006650520487
1775722367987889000,8.050888916015625,-9.803115980654955,0.10694200604520737,0.24055934437969698
1775722367997901800,8.06090185546875,-9.802673497584461,0.1624128776481375,0.2271565314438194
1775722368007914800,8.070914794921874,-9.801977916535735,0.21735716809369623,0.2106504187303595
1775722368017928000,8.080927978515625,-9.801080090913176,0.26896875218627975,0.19200537602575496
1775722368027942000,8.09094189453125,-9.800060684737563,0.31535777932498604,0.17246384113915264
1775722368037954800,8.100954833984375,-9.798984579938649,0.35583117094542827,0.15386545058786869
1775722368047968000,8.110968017578125,-9.797932440537213,0.3906166896551847,0.1353412212513387
1775722368057980700,8.120980712890624,-9.796984346032142,0.4197157602263614,0.11539474969250149
1775722368067995000,8.130994873046875,-9.796155493992567,0.4433430848555639,0.09574343428849243
1775722368078008000,8.141008056640626,-9.7953658049196,0.46391062005534767,0.07733136008954607
1775722368088020700,8.151020751953125,-9.794552150449157,0.4834344548884779,0.058509723275597204
1775722368098034000,8.161033935546875,-9.793653740304707,0.5031279837327077,0.03984349621906876
1775722368108046800,8.171046875,-9.792602185425162,0.5242201638611034,0.02284557226751931
1775722368118060800,8.181060791015625,-9.791323251530528,0.5480167075773701,0.007288648896029917
1775722368128074000,8.191073974609376,-9.789700618764758,0.5762794734548777,-0.007181016382403322
1775722368138087000,8.2010869140625,-9.787703307467698,0.6089084717178717,-0.021864029867283533
1775722368148099800,8.211099853515625,-9.785362297299503,0.6446190693832934,-0.03917167050526477
1775722368158112800,8.22111279296875,-9.782797999769448,0.68097669624798,-0.05932720453778747
1775722368168126700,8.231126708984375,-9.780199215447903,0.7151786794487387,-0.08124919112040661
1775722368178140000,8.241139892578126,-9.777798584046959,0.7445389947719872,-0.10343358693229965
1775722368188152800,8.25115283203125,-9.775756849086283,0.7674759990494698,-0.1262449281366542
1775722368198166000,8.261166015625,-9.77412252588272,0.7840714522805065,-0.14883089048676193
1775722368208178700,8.2711787109375,-9.772934192880987,0.7946515176795422,-0.16931456506168469
1775722368218193000,8.28119287109375,-9.7721626239866,0.7998770703081041,-0.18820375525308772
1775722368228205800,8.291205810546876,-9.771775085973738,0.8004354348432272,-0.20518281924054024
1775722368238218800,8.30121875,-9.77173416944146,0.7971067288119346,-0.2195713004792109
1775722368248232000,8.31123193359375,-9.77196096393466,0.7907990069698542,-0.23194756511263548
1775722368258244900,8.321244873046876,-9.772348501947521,0.7822783583186567,-0.24418031135583296
1775722368268258800,8.3312587890625,-9.772801506412028,0.772327384603396,-0.2573747970369644
1775722368278272000,8.34127197265625,-9.773226453825831,0.7619151500519364,-0.2718642361657694
1775722368288284700,8.35128466796875,-9.773552617040275,0.7523665465924888,-0.286354259816464
1775722368298297900,8.3612978515625,-9.773791101971268,0.7440718156516551,-0.2995867759530432
1775722368308312000,8.37131201171875,-9.773999776285887,0.7358706812784075,-0.3127423361295834
1775722368318324700,8.38132470703125,-9.774232415997982,0.7270644936840981,-0.32579076440352944
1775722368328338000,8.391337890625,-9.77447674614787,0.7183867547750472,-0.33750348709430544
1775722368338350600,8.4013505859375,-9.774687174028157,0.7111569496519863,-0.3465960538819432
1775722368348363500,8.411363525390625,-9.774799402230977,0.706559246598184,-0.3527792725615203
1775722368358377500,8.42137744140625,-9.77477660587728,0.7048148871488868,-0.35688049733527005
1775722368368390700,8.431390625,-9.774602418354153,0.7056815869808196,-0.3599213263358921
1775722368378403300,8.4414033203125,-9.774280346792935,0.7093334605518729,-0.3614904022835195
1775722368388416500,8.45141650390625,-9.773868843382596,0.7156625905081629,-0.36013518828228114
1775722368398429400,8.461429443359375,-9.773452663797139,0.7233007572364062,-0.3561507217559963
1775722368408443400,8.471443359375,-9.77313468388915,0.7299260205950587,-0.35132940254677086
1775722368418456600,8.48145654296875,-9.77304291395247,0.7336807700186967,-0.34601964223347603
1775722368428469500,8.491469482421875,-9.77319196703434,0.7341030140187591,-0.34086748363468794
1775722368438482400,8.501482421875,-9.77354501825571,0.7323932144261897,-0.3343636912312358
1775722368448495600,8.51149560546875,-9.77397113471329,0.7300801882434635,-0.32688721787072716
1775722368458509600,8.521509521484376,-9.77432886210978,0.7282347795724868,-0.32023605288583784
1775722368468522500,8.5315224609375,-9.774593066003918,0.727209674308449,-0.3144499802976847
1775722368478535400,8.541535400390625,-9.774766084483264,0.7272432112518697,-0.3089490082612261
1775722368488548600,8.551548583984374,-9.774785958227515,0.7293965898934751,-0.30318852677205577
1775722368498561500,8.5615615234375,-9.774584882697463,0.7345216047570109,-0.29723981096809726
1775722368508575500,8.571575439453126,-9.774154090064764,0.7420871446404605,-0.2925890442864969
1775722368518588400,8.58158837890625,-9.773535665905476,0.7510442119475453,-0.29037569735227153
1775722368528601300,8.591601318359375,-9.772767019620538,0.7608264780323952,-0.2907777570808306
1775722368538614500,8.601614501953126,-9.771868609476089,0.7716142678979784,-0.29253813608316703
1775722368548628500,8.61162841796875,-9.770845696169138,0.7835501318201422,-0.2949701307367533
1775722368558641400,8.621641357421876,-9.769774267545342,0.796063722565025,-0.29694586952282115
1775722368568654600,8.631654541015624,-9.76871452935934,0.8084858356341719,-0.29824124309560285
1775722368578667500,8.64166748046875,-9.767692785096168,0.8203997069202363,-0.29916853227466345
1775722368588680400,8.651680419921876,-9.766733000153302,0.8315086184989661,-0.29983592840852213
1775722368598694700,8.661694580078125,-9.765879013672471,0.8411855245131998,-0.30066483524702486
1775722368608707300,8.671707275390625,-9.765160051748156,0.8492282534543424,-0.3013993783329613
1775722368618720500,8.681720458984374,-9.764604755952954,0.8557949915587901,-0.30082382520101963
1775722368628733400,8.6917333984375,-9.764134800353645,0.8618818371918052,-0.2986971519032493
1775722368638746600,8.70174658203125,-9.763672443538903,0.8682318638056516,-0.29540192801645027
1775722368648760600,8.711760498046875,-9.763236974731088,0.8745432389095426,-0.2911446358981542
1775722368658773500,8.7217734375,-9.762946467351913,0.8796323056768626,-0.28550138758048416
1775722368668786400,8.731786376953124,-9.762892691338061,0.8826162899237125,-0.2780189594032243
1775722368678799600,8.741799560546875,-9.763015440934895,0.8837562537390738,-0.2699821487462148
1775722368688812500,8.7518125,-9.763179691585897,0.8841334895536302,-0.2626975994949229
1775722368698826500,8.761826416015625,-9.763314131620525,0.8845750227760523,-0.2561391908274032
1775722368708839400,8.77183935546875,-9.763403563469648,0.8851313414845615,-0.2507427751439623
1775722368718852600,8.7818525390625,-9.763498840537666,0.8852803945664316,-0.24649010440185665
1775722368728865500,8.791865478515625,-9.763671274495124,0.8841456914480775,-0.24370606317389756
1775722368738878500,8.80187841796875,-9.764006790059804,0.8808823788031935,-0.24208313814718274
1775722368748892700,8.811892578125,-9.764532275238633,0.8754111077852547,-0.24073742262665182
1775722368758905300,8.8219052734375,-9.765205059933662,0.86832560650371,-0.2390884315769188
1775722368768918500,8.83191845703125,-9.765922852814198,0.8607406312674284,-0.2371952199751511
1775722368778931700,8.841931640625,-9.766634800475835,0.8532233144398779,-0.23503880912624298
1775722368788944400,8.8519443359375,-9.767342656484246,0.8458457714091986,-0.23225741651309653
1775722368798958600,8.86195849609375,-9.768040575620532,0.8385978461075574,-0.2291646746621467
1775722368808971500,8.871971435546875,-9.768691148483752,0.8318301055382936,-0.22609056444643064
1775722368818984400,8.881984375,-9.769247613322735,0.8257639373671263,-0.22426687441691756
1775722368828997600,8.89199755859375,-9.769746795016527,0.8200222519099711,-0.22359262841716407
1775722368839011300,8.90201123046875,-9.770220257747173,0.8143664911706,-0.22358146770233286
1775722368849024500,8.9120244140625,-9.770646374204754,0.8091490487832576,-0.2238886156890541
1775722368859037400,8.922037353515625,-9.770940388715267,0.8051515766449272,-0.22546971086803821
1775722368869050600,8.932050537109374,-9.771068399009108,0.8027879893187433,-0.22832864396311342
1775722368879063600,8.9420634765625,-9.771097040581703,0.8014069102238863,-0.2319372811806388
1775722368889077500,8.952077392578126,-9.771138541635871,0.8000123871255665,-0.23499138978794215
1775722368899090400,8.96209033203125,-9.77127064358294,0.7979705060344189,-0.23643747867671772
1775722368909103400,8.972103271484375,-9.771465873894094,0.7954024821773171,-0.2370156256245449
1775722368919116500,8.982116455078126,-9.77171663378477,0.7924459704592823,-0.23656797318859024
1775722368929129700,8.992129638671875,-9.771965640109777,0.7896823509648442,-0.23552281151721252
1775722368939143400,9.002143310546876,-9.772155609723924,0.7875980920366943,-0.23463262121183795
1775722368949156600,9.012156494140624,-9.772282450973988,0.7860924367140978,-0.23438087494047358
1775722368959169500,9.02216943359375,-9.772402277961373,0.7844561407491565,-0.2348738826218061
1775722368969182500,9.032182373046876,-9.772559514349698,0.781855675927177,-0.23698672832362352
1775722368979195600,9.042195556640625,-9.772828978940844,0.7771976940535008,-0.24117663602782413
1775722368989209300,9.052209228515625,-9.773248665657638,0.7698747307542712,-0.2475678531685844
1775722368999222500,9.062222412109374,-9.77378642579615,0.7601302393965422,-0.25628393306033687
1775722369009235700,9.072235595703125,-9.7744013428241,0.7482481514882295,-0.26755797207290305
1775722369019248400,9.082248291015626,-9.775084064391255,0.7343852650262415,-0.2807052393451333
1775722369029261600,9.092261474609375,-9.775854464241862,0.7179390110075473,-0.2960020676003769
1775722369039275500,9.102275634765626,-9.776740014904737,0.6984409682027996,-0.31292587600294497
1775722369049288400,9.112288330078124,-9.777769357952476,0.6755085670351981,-0.3306057269372046
1775722369059301600,9.122301513671875,-9.778885210239887,0.6493187715068459,-0.349529367387481
1775722369069314600,9.132314453125,-9.780050162366033,0.6201285520534962,-0.3693834205556661
1775722369079327500,9.142327392578125,-9.78120926927328,0.5885033970708027,-0.38986930535398423
1775722369089341400,9.152341552734375,-9.782290050247312,0.5554697635296731,-0.4106633793186396
1775722369099354600,9.162354736328124,-9.783254511365294,0.521943779894337,-0.4311467798989266
1775722369109367600,9.172367431640625,-9.784095053842663,0.48850993152186273,-0.4508006708525121
1775722369119380500,9.18238037109375,-9.78482745977044,0.45550165161769834,-0.4690949638906866
1775722369129393700,9.1923935546875,-9.785490307593346,0.4229223742479458,-0.485485140340589
1775722369139407400,9.202407470703125,-9.786081843745707,0.39037809512633825,-0.5005959445044398
1775722369149420500,9.212420654296874,-9.786565827870369,0.3570759833747521,-0.5157665890967473
1775722369159433700,9.222433837890625,-9.78697265510559,0.32258206802271305,-0.5305594133526087
1775722369169446400,9.2324462890625,-9.787304663538933,0.28700105155371125,-0.5446875631546602
1775722369179459600,9.24245947265625,-9.787558930560946,0.2509734420946799,-0.5577479741273448
1775722369189473500,9.2524736328125,-9.787721427646279,0.21514338276805356,-0.5697454320436344
1775722369199486500,9.262486572265624,-9.78781261306107,0.17958918124074116,-0.5803914753509685
1775722369209499600,9.272499755859375,-9.787897953256964,0.14399452897203155,-0.5888134128680452
1775722369219512600,9.2825126953125,-9.787959328055381,0.10751728518251329,-0.5955437075037509
1775722369229525500,9.292525390625,-9.788008427894114,0.06926894463382195,-0.6003969927538186
1775722369239539700,9.302539794921875,-9.788044083729385,0.02883885101570049,-0.6031125718554482
1775722369249552400,9.312552490234374,-9.78803590042293,-0.01384392146661412,-0.6037794382663443
1775722369259565600,9.322565673828125,-9.787917827001213,-0.05872178142396733,-0.6029928179332986
1775722369269578500,9.33257861328125,-9.787598093527555,-0.10573904172992334,-0.6017731764778494
1775722369279592400,9.342592529296875,-9.787038121557234,-0.15509760446501894,-0.6001761530773714
1775722369289605600,9.352605712890625,-9.786256031268834,-0.2063604847177863,-0.5974899827333167
1775722369299618600,9.36261865234375,-9.78527695710361,-0.25848705086149276,-0.5932349556373432
1775722369309631500,9.372631591796875,-9.784168119078874,-0.3102120869996026,-0.5866895891144871
1775722369319644400,9.38264453125,-9.782987384861707,-0.3604455694057047,-0.5776037077959627
1775722369329658600,9.39265869140625,-9.781781516203283,-0.408787867770344,-0.5657109523631632
1775722369339671600,9.402671630859375,-9.780525378662347,-0.4550410483686253,-0.5519498457752168
1775722369349684700,9.412684814453126,-9.779102067860961,-0.5001555437931791,-0.5379527384743095
1775722369359698000,9.422697998046875,-9.777458392307162,-0.5446660819752142,-0.5244285824473947
1775722369369710600,9.432710693359375,-9.775606626960634,-0.5884226599847897,-0.5115219007316977
1775722369379724800,9.442724853515625,-9.773566645565628,-0.6305849910728633,-0.5001446205403656
1775722369389737700,9.45273779296875,-9.771459444153308,-0.6704528910808265,-0.4893419618992135
1775722369399750700,9.462750732421876,-9.769371531963348,-0.707927831537649,-0.4781195800086483
1775722369409763800,9.472763916015625,-9.767348501703143,-0.7422556330751627,-0.46727114599701014
1775722369419776800,9.48277685546875,-9.765460495999456,-0.7727578849751502,-0.45718193285483866
1775722369429790700,9.492790771484374,-9.763639125791192,-0.7997976483963429,-0.44950372637715186
1775722369439803600,9.5028037109375,-9.761696175029874,-0.8243497597202658,-0.4473490690939128
1775722369449816600,9.512816650390626,-9.75957786770165,-0.8475565208498388,-0.4501916355760768
1775722369459829800,9.522829833984375,-9.757157947078346,-0.8710679640144109,-0.457702961054258
1775722369469842700,9.5328427734375,-9.754396665671468,-0.8963255932591855,-0.467686996788904
1775722369479856600,9.542856689453124,-9.751301622265578,-0.9238864579450339,-0.47846751666348425
1775722369489869800,9.552869873046875,-9.747924839308858,-0.9524424711480736,-0.49111803166102613
1775722369499882800,9.5628828125,-9.744437581714987,-0.9793869575012475,-0.5070661999644711
1775722369509895700,9.572895751953125,-9.74114847704172,-1.002283702833578,-0.525200151341781
1775722369519908600,9.58290869140625,-9.738363230237365,-1.0196273440834134,-0.5431656508170067
1775722369529922800,9.5929228515625,-9.736258951434493,-1.031060226919502,-0.5590662171190605
1775722369539935700,9.602935791015625,-9.73486486672759,-1.0369316762361676,-0.5723358138630167
1775722369549948700,9.61294873046875,-9.734009711202978,-1.0387143949344753,-0.5835289696590975
1775722369559961900,9.6229619140625,-9.733309453979134,-1.0392340348944067,-0.5941937541995197
1775722369569974800,9.632974853515625,-9.732299400153755,-1.0419451935492456,-0.6058732322078197
1775722369579988700,9.64298876953125,-9.730787242025137,-1.0493257322546095,-0.6173175862859934
1775722369590002000,9.653001953125,-9.728826755607127,-1.0616684964772314,-0.6270383314419538
1775722369600014600,9.6630146484375,-9.726572839200497,-1.0776756284262985,-0.6346521674465387
1775722369610027800,9.67302783203125,-9.724397833248972,-1.0946254480529576,-0.6389571711640805
1775722369620040700,9.683040771484375,-9.722764679089188,-1.109511174756661,-0.638138767453283
1775722369630054700,9.6930546875,-9.722024089854955,-1.1195612979974596,-0.6318336759597063
1775722369640067800,9.70306787109375,-9.722215813034772,-1.123597202450037,-0.621641952291131
1775722369650080800,9.713080810546876,-9.72292717617452,-1.1231885485839097,-0.6111603057652711
1775722369660093700,9.72309375,-9.72380746614039,-1.1208361402388662,-0.6013943697607145
1775722369670106600,9.733106689453125,-9.724714644113183,-1.1179755631759762,-0.5919798044770955
1775722369680120800,9.743120849609374,-9.72565280174613,-1.1158805636581033,-0.5804030927235261
1775722369690133800,9.7531337890625,-9.726610248601435,-1.1148870956413448,-0.5660925355592742
1775722369700146700,9.763146728515625,-9.727408120980858,-1.1154613153327255,-0.5510499743260443
1775722369710160000,9.773159912109374,-9.727997903567552,-1.118033723104,-0.5352073122236878
1775722369720172500,9.783172607421875,-9.728369074967503,-1.12308326157853,-0.5175886168921366
1775722369730186800,9.793186767578124,-9.728584763544797,-1.1306262243039906,-0.49669966771826146
1775722369740199700,9.80319970703125,-9.728707513141632,-1.140117179292068,-0.4719776431875303
1775722369750212600,9.813212646484375,-9.728830262738466,-1.1499010528121143,-0.44494686679039147
1775722369760225800,9.823225830078124,-9.7290833607167,-1.1584744545638561,-0.4162465132132172
1775722369770238700,9.83323876953125,-9.72956851388514,-1.1652088773854077,-0.3849293282011524
1775722369780252700,9.843252685546876,-9.730375738614796,-1.1695669995296747,-0.3496936180384829
1775722369790265900,9.853265869140625,-9.731540106219052,-1.1707890156053007,-0.31106442951262
1775722369800278800,9.86327880859375,-9.732992058593034,-1.1685318112630396,-0.2716269202785566
1775722369810291700,9.873291748046874,-9.73462229014337,-1.1633256939873098,-0.2327717227107845
1775722369820304600,9.8833046875,-9.73618822428584,-1.1571664407052098,-0.19490454979967325
1775722369830318600,9.893318603515626,-9.737557759073376,-1.151039116931334,-0.15956521486574782
1775722369840331800,9.903331787109375,-9.738715112414955,-1.1451192253630607,-0.1285257508165203
1775722369850344700,9.9133447265625,-9.7397497161597,-1.1389784575857222,-0.10193820640854537
1775722369860358000,9.92335791015625,-9.740773798510432,-1.1319699670631438,-0.07972175322426482
1775722369870370600,9.93337060546875,-9.741708449012041,-1.1249179296597838,-0.06376170268678107
1775722369880384800,9.943384765625,-9.742357852831482,-1.1197693877901882,-0.05443113959191832
1775722369890397700,9.953397705078125,-9.74249053930044,-1.1187957935176789,-0.05054205973150674
1775722369900410600,9.96341064453125,-9.741998956391214,-1.123045486851409,-0.05104970329296775
1775722369910423800,9.973423828125,-9.740937464639543,-1.1319877949807793,-0.05591841444103047
1775722369920436700,9.983436767578125,-9.739348734143375,-1.1450629651311783,-0.0656069652272854
1775722369930450700,9.99345068359375,-9.737218736377358,-1.162235779858753,-0.07850303421742283
1775722369940463900,10.0034638671875,-9.734572605782747,-1.1832728687990457,-0.09135409502205438
1775722369950476500,10.0134765625,-9.731505619427562,-1.2072429424513131,-0.10364946730583906
1775722369960489700,10.02348974609375,-9.728120653164385,-1.2330213076345622,-0.11708391748899594
1775722369970502700,10.033502685546875,-9.72451356858313,-1.2596700989767908,-0.13211936399484983
1775722369980516600,10.0435166015625,-9.720793086755275,-1.2865098828464745,-0.1464706276288256
1775722369990529800,10.05352978515625,-9.717045716920495,-1.3131950606763363,-0.15789196615759282
1775722370000542700,10.063542724609375,-9.713404730069637,-1.3388923965126276,-0.16587931164968758
1775722370010555600,10.0735556640625,-9.709888830903171,-1.3635688648685813,-0.17065149448756128
1775722370020568600,10.083568603515625,-9.706424369662999,-1.3878070879377424,-0.17233780360668896
1775722370030582800,10.093582763671876,-9.702897949102521,-1.4121940718278287,-0.17280920224441215
1775722370040595700,10.103595703125,-9.699307815656065,-1.4366398001678287,-0.17284348810650407
1775722370050608600,10.113608642578125,-9.695761521351336,-1.4604570213459431,-0.17222005897853523
1775722370060621800,10.123621826171876,-9.692428577536344,-1.48260046409294,-0.17061655103834344
1775722370070634500,10.133634521484375,-9.689464467033742,-1.5022947601221501,-0.166658899453748
1775722370080648700,10.143648681640625,-9.686868605321646,-1.519459391543269,-0.1618597555437125
1775722370090662000,10.153661865234374,-9.684555652204155,-1.5344968016773461,-0.15837887289170174
1775722370100674600,10.163674560546875,-9.68242331635058,-1.5480711535215377,-0.1566351892958395
1775722370110687700,10.173687744140626,-9.68040788487494,-1.5606440732382236,-0.1564356664020568
1775722370120701000,10.183700927734375,-9.678487145945429,-1.5723989545702934,-0.15758414231743662
1775722370130714600,10.193714599609375,-9.676808399078249,-1.5825931624568998,-0.15862070055725053
1775722370140727800,10.203727783203124,-9.675510760483146,-1.590585914776474,-0.15783170560402796
1775722370150740700,10.21374072265625,-9.67458780041933,-1.5964610904201864,-0.1550561764760874
1775722370160753700,10.223753662109376,-9.673923199030757,-1.600732484129071,-0.15248064516596496
1775722370170766800,10.233766845703125,-9.673436292296648,-1.6037280126832425,-0.15188295326745135
1775722370180780500,10.243780517578125,-9.67305810663402,-1.605836090878397,-0.15369793026754633
1775722370190793700,10.253793701171874,-9.672782796823977,-1.607128761037439,-0.15746301842210814
1775722370200806700,10.263806640625,-9.672680505493283,-1.6072443502411244,-0.16248099271459504
1775722370210819800,10.27381982421875,-9.672918990424275,-1.6053176199622452,-0.1672556232378818
1775722370220832800,10.283832763671874,-9.673616909560561,-1.6007367219127713,-0.17078522213613614
1775722370230846700,10.2938466796875,-9.674697690534591,-1.5938136446513234,-0.17425551032889633
1775722370240859600,10.303859619140624,-9.675887777101993,-1.5860542626962064,-0.17892394053135066
1775722370250872600,10.31387255859375,-9.676953360506891,-1.5789485223442314,-0.18406269165929406
1775722370260885800,10.3238857421875,-9.677747725754976,-1.5733660460367798,-0.19002004742743447
1775722370270899000,10.33389892578125,-9.678314711987971,-1.5689917764753103,-0.19715695010265336
1775722370280912600,10.34391259765625,-9.678734398704767,-1.5655075876213609,-0.204143703717459
1775722370290925800,10.35392578125,-9.679167529425024,-1.5621696753703056,-0.209111116866488
1775722370300938500,10.3639384765625,-9.679759065577388,-1.558157517119497,-0.211651832591556
1775722370310951700,10.37395166015625,-9.680552846303582,-1.553066039199382,-0.21277226972253993
1775722370320964900,10.38396484375,-9.681513800290226,-1.5469593928873537,-0.2135321481791325
1775722370330978600,10.393978515625,-9.682558925428985,-1.5404089483305812,-0.21349965241532773
1775722370340992500,10.403992431640624,-9.683546767422555,-1.5343386885061858,-0.21239158157557247
1775722370351005400,10.41400537109375,-9.68435866832733,-1.5295267581798135,-0.21006797919990494
1775722370361018400,10.424018310546876,-9.684940267607569,-1.526214711022377,-0.2073275213853456
1775722370371031300,10.43403125,-9.685327221098541,-1.524028891415894,-0.20531523171486332
1775722370381045200,10.444045166015625,-9.685587917861342,-1.522520240418613,-0.20421899744337424
1775722370391058400,10.454058349609374,-9.685817050442099,-1.5211691180706024,-0.20341922536781057
1775722370401071400,10.4640712890625,-9.686055535373091,-1.5198179957225917,-0.20214337847940622
1775722370411084300,10.474084228515625,-9.686289344128966,-1.518614757412672,-0.19996893878346308
1775722370421097200,10.48409716796875,-9.686469961392879,-1.5179530786335467,-0.1962151574742049
1775722370431111400,10.494111328125,-9.68657985150814,-1.5179979406885802,-0.1903555812584236
1775722370441124400,10.504124267578124,-9.686615507343411,-1.5185979524083435,-0.1836566681416705
1775722370451137300,10.51413720703125,-9.686549456369876,-1.5196687965102493,-0.17820231172591447
1775722370461150500,10.524150390625,-9.686394558069109,-1.5211080355331301,-0.1742694657890126
1775722370471163400,10.534163330078124,-9.686176531404255,-1.5227664702646433,-0.17190476421797646
1775722370481177300,10.54417724609375,-9.685986561790108,-1.5241295753113924,-0.17053493716949597
1775722370491190500,10.5541904296875,-9.685958504739403,-1.5244196442991493,-0.1695152022003196
1775722370501203200,10.564203125,-9.686201665845513,-1.5229592163577674,-0.16874715870358048
1775722370511216400,10.57421630859375,-9.686788525822758,-1.5193117997661232,-0.16792855406338347
1775722370521229300,10.584229248046874,-9.687709732320904,-1.5135034057483077,-0.16724988761683926
1775722370531243300,10.5942431640625,-9.688885205841064,-1.5060076431654392,-0.16682187146311625
1775722370541256400,10.60425634765625,-9.690247726365923,-1.497278101003915,-0.16624191615069284
1775722370551269400,10.614269287109375,-9.691778589195012,-1.4874622249104081,-0.16511892173644155
1775722370561282300,10.6242822265625,-9.693494745463132,-1.4764271822854875,-0.16343748972183092
1775722370571295500,10.63429541015625,-9.695374567860364,-1.4642711728066204,-0.16126405467288568
1775722370581309400,10.644309326171875,-9.697352589935063,-1.4513650756128131,-0.15898030938357113
1775722370591322400,10.654322265625,-9.699406015333533,-1.4378662732228635,-0.15634144877996295
1775722370601335300,10.664335205078125,-9.701546534493565,-1.4237354565396905,-0.152818224823568
1775722370611348500,10.674348388671875,-9.703750182017684,-1.4091396526932716,-0.14811590148466638
1775722370621361400,10.684361328125,-9.705999422249198,-1.3942081871517003,-0.1419188004102092
1775722370631374300,10.694374267578125,-9.708283149272203,-1.3789938130155206,-0.13415072369198314
1775722370641388500,10.704388427734376,-9.71054641802907,-1.363861271943897,-0.12473900795257649
1775722370651401200,10.714401123046875,-9.712699212148785,-1.3494281113132833,-0.11358331635636276
1775722370661414400,10.724414306640625,-9.714624042731524,-1.3365516786053775,-0.10046738493731244
1775722370671427600,10.734427490234374,-9.716273563504219,-1.32555302246809,-0.08556836036061867
1775722370681440300,10.744440185546875,-9.717681092214583,-1.3161037877298891,-0.07024558024678844
1775722370691454500,10.754454345703126,-9.718982822462916,-1.307206926177442,-0.0545030083848862
1775722370701467400,10.76446728515625,-9.720324300199746,-1.2977682128332555,-0.038405905730579976
1775722370711480300,10.774480224609375,-9.721740596738456,-1.2875025471456347,-0.021857177718100137
1775722370721493500,10.784493408203126,-9.723203655028342,-1.2765803172454238,-0.005706559915668913
1775722370731506400,10.79450634765625,-9.724618782523274,-1.2657422584973275,0.00866839626279252
1775722370741520400,10.804520263671876,-9.725895962852238,-1.255710547696054,0.022891845394927075
1775722370751533300,10.814533203125,-9.726977328348159,-1.2469254759550095,0.0383802324332064
1775722370761546500,10.82454638671875,-9.72781319465041,-1.239822365951538,0.05357503421923611
1775722370771559400,10.834559326171876,-9.728401808193325,-1.234660160882771,0.06479324682475998
1775722370781572400,10.844572265625,-9.728865918573737,-1.2306303208447993,0.07140900713612791
1775722370791586300,10.85458642578125,-9.729238843539356,-1.2274627967245877,0.0750664427982876
1775722370801599500,10.864599609375,-9.72949369508326,-1.2253314107190816,0.0768135924262926
1775722370811612400,10.8746123046875,-9.72956851388514,-1.224650808043778,0.07815919834896921
1775722370821625300,10.884625244140626,-9.729462130901217,-1.225297946840897,0.0812390715851914
1775722370831638300,10.89463818359375,-9.729128368902206,-1.2276184256777167,0.08603158482504077
1775722370841652500,10.904652587890626,-9.72850409952402,-1.2320049701988696,0.09360317998994142
1775722370851665400,10.91466552734375,-9.727599259638787,-1.238162323784828,0.10560219054250046
1775722370861678300,10.92467822265625,-9.726461780041456,-1.2455585715159774,0.12212524525760672
1775722370871691500,10.93469140625,-9.725153620052337,-1.2538209345571696,0.14038080458743496
1775722370881704400,10.944704345703125,-9.723676533237098,-1.2633667615376412,0.15622825246276334
1775722370891718400,10.954718505859375,-9.721962130534648,-1.2749471630856395,0.16835202190615237
1775722370901731600,10.964731689453124,-9.720005151247978,-1.2887186449371277,0.176317155566439
1775722370911744300,10.974744140625,-9.717789228764175,-1.3049590011201797,0.17898880419479682
1775722370921757400,10.98475732421875,-9.715234868106245,-1.3242140289492905,0.17623415345810353
1775722370931770400,10.994770263671874,-9.71237304893434,-1.3460235635668039,0.16857567459419368
1775722370941784300,11.004784423828125,-9.709272160309553,-1.369519736097008,0.15757957574017345
1775722370951797500,11.014797607421874,-9.706075994616747,-1.3932915106981991,0.14563872511563822
1775722370961810400,11.024810546875,-9.702950556072592,-1.4161023313127457,0.13336203926601448
1775722370971823400,11.0348232421875,-9.700071785765886,-1.436874193445593,0.11992413675044662
1775722370981836300,11.044836181640624,-9.697530869111418,-1.4550374805152415,0.10557578659276477
1775722370991849500,11.054849365234375,-9.695396195170282,-1.4701782048933207,0.09081765919094904
1775722371001863400,11.064863525390624,-9.69375836483538,-1.4817852021872997,0.07578439094244968
1775722371011876400,11.07487646484375,-9.692556587830186,-1.4903325196497141,0.06032461807730142
1775722371021889500,11.0848896484375,-9.691669868123531,-1.496660553627461,0.04383324170866981
1775722371031902200,11.094902099609374,-9.69105495109558,-1.5010517743237315,0.026205541086755692
1775722371041915400,11.104915283203125,-9.69081295903325,-1.5028203914314509,0.008014009736734442
1775722371051929600,11.1149296875,-9.691045014223455,-1.5013015113011001,-0.010916182610270334
1775722371061942300,11.1249423828125,-9.691753454753757,-1.4964618161849677,-0.029937014666083266
1775722371071955500,11.13495556640625,-9.692955231758951,-1.4881984302304685,-0.0476686231870437
1775722371081968400,11.144968505859374,-9.694732762825488,-1.4760136330485343,-0.06260406621741131
1775722371091981300,11.154981201171875,-9.69713397874832,-1.4596167711295187,-0.07414452848066576
1775722371101995500,11.16499560546875,-9.70013783673942,-1.439015297127515,-0.0833358246687334
1775722371112008400,11.175008544921875,-9.703724463054538,-1.4141609879866242,-0.09090257926173508
1775722371122021400,11.185021484375,-9.70785878638029,-1.3850636344484983,-0.09728723879754543
1775722371132034300,11.195034423828124,-9.712397598853707,-1.3525252005457877,-0.10196535014379769
1775722371142047500,11.205047607421875,-9.71707435849309,-1.3182315935388207,-0.10541333517320453
1775722371152061400,11.2150615234375,-9.721678637418151,-1.283710022994876,-0.10694741287268697
1775722371162074400,11.225074462890625,-9.726097622904181,-1.2499350330345331,-0.10523916591638699
1775722371172087600,11.235087646484375,-9.730270524674653,-1.217456366495043,-0.10009807670088484
1775722371182100200,11.245100341796874,-9.734214293864369,-1.1862024194449186,-0.09153995471666566
1775722371192113400,11.255113525390625,-9.7378850913316,-1.1565892984043806,-0.07922570420247502
1775722371202127400,11.26512744140625,-9.74128116351068,-1.1285543134007603,-0.06473120987263974
1775722371212140300,11.275140380859375,-9.74435808673799,-1.102440359587595,-0.04990072962066624
1775722371222153500,11.285153564453125,-9.747084881353377,-1.07868889712207,-0.033951926562981675
1775722371232166400,11.29516650390625,-9.749458624747396,-1.0574455450199545,-0.01578291072215652
1775722371242179300,11.305179443359375,-9.751522571539878,-1.038351114580035,0.0037002787192206596
1775722371252192500,11.315192626953126,-9.753395379674433,-1.0203342502437531,0.024037229737499728
1775722371262206200,11.325206298828125,-9.75517407978475,-1.0024451770056038,0.04547471617222763
1775722371272219400,11.335219482421875,-9.756921215713023,-0.9841142052188515,0.06625191206731833
1775722371282232300,11.345232421875,-9.758707514607906,-0.9647167001791298,0.08565475086928345
1775722371292245500,11.35524560546875,-9.760611302402616,-0.9432073906172066,0.10587892512464896
1775722371302258400,11.365258544921875,-9.762669988498091,-0.9189160491213202,0.1274630626216065
1775722371312272400,11.3752724609375,-9.764858438453079,-0.8919978662531822,0.14919449963476508
1775722371322285300,11.385285400390625,-9.76713105956018,-0.8630226047247648,0.16950208699041977
1775722371332298200,11.39529833984375,-9.769408356842398,-0.8331577739454805,0.1867814125660807
1775722371342310700,11.405310546875,-9.771610250800848,-0.8034262141570448,0.2013128459393978
1775722371352323800,11.41532373046875,-9.773747847351432,-0.7734975974265486,0.2143336372877471
1775722371362337800,11.425337890625,-9.775947987744212,-0.7418618845172226,0.2255354147817008
1775722371372350700,11.435350830078125,-9.778241651639341,-0.7076580746855586,0.235784987851046
1775722371382364000,11.445364013671876,-9.78057506302297,-0.6706271516691893,0.2469746730484068
1775722371392376600,11.45537646484375,-9.78287281857133,-0.6306742767915129,0.26083631740137936
1775722371402389800,11.4653896484375,-9.785076466095447,-0.5882311925332993,0.2768518518526107
1775722371412403700,11.47540380859375,-9.787145089063047,-0.5439969505419955,0.2936692955375649
1775722371422416600,11.485416748046875,-9.788945416483282,-0.49824634917099025,0.3141324753137305
1775722371432429800,11.495429931640626,-9.79023720985949,-0.4517801468765363,0.34283220783639695
1775722371442442800,11.50544287109375,-9.790787829479575,-0.40690424598082897,0.38116299793757497
1775722371452455700,11.51545556640625,-9.79049907566607,-0.36504119010027497,0.42807997620683164
1775722371462468600,11.525468505859376,-9.789351074674725,-0.3263372193051502,0.48217565046641975
1775722371472482600,11.535482666015625,-9.787448455923796,-0.28850681647416204,0.5412928792150691
1775722371482495700,11.545495849609376,-9.784975343808531,-0.2476623630516231,0.6027440673366189
1775722371492508700,11.5555087890625,-9.781906603887677,-0.20101234688917174,0.6665439740087836
1775722371502521900,11.56552197265625,-9.778270877733826,-0.1479915901184082,0.7306853145297616
1775722371512534500,11.575534423828126,-9.774492528238891,-0.09049336827318183,0.7883464261859655
1775722371522548700,11.585548828125,-9.770919930449127,-0.030556256242701783,0.8358079961933195
1775722371532561700,11.595561767578126,-9.767692200574277,0.029955803848232605,0.8727418155107647
1775722371542574600,11.60557470703125,-9.76492741203606,0.08882883259444498,0.8992713643874972
1775722371552587800,11.615587890625,-9.762713243117927,0.14387028153785503,0.9160345023356378
1775722371562600700,11.6256005859375,-9.761192317160964,0.19422882422888652,0.9229231658708303
1775722371572614700,11.63561474609375,-9.760324302154778,0.2408906404269859,0.9210996037054806
1775722371582627800,11.6456279296875,-9.759786542016267,0.2852919826135039,0.9140907478567212
1775722371592640500,11.655640625,-9.759338798248768,0.32792675351891665,0.9045170099560171
1775722371602653700,11.66565380859375,-9.758854229602218,0.3688524189515039,0.8939204318135976
1775722371612666600,11.67566650390625,-9.75812065463066,0.40889026869889344,0.8844603834204375
1775722371622680600,11.6856806640625,-9.757064423575997,0.4492581541182473,0.8764928386073559
1775722371632693800,11.69569384765625,-9.756001762780546,0.4890623047076165,0.8669650587402283
1775722371642706700,11.705706787109374,-9.755234870061278,0.5258752375917509,0.8539493636921047
1775722371652719600,11.7157197265625,-9.754701201575994,0.5591432644106448,0.8387803630676121
1775722371662732500,11.725732666015626,-9.754368608620762,0.5892868755986914,0.8218406264435499
1775722371672745700,11.735745849609375,-9.754250535199045,0.6170624424811453,0.8026303876042366
1775722371682759700,11.745759765625,-9.754230076932906,0.6433158047650009,0.7820026831824332
1775722371692772600,11.755772705078124,-9.754156427174806,0.6683012660048901,0.7616988769527524
1775722371702785800,11.765785888671875,-9.754050628712772,0.690841526049748,0.7427072493001818
1775722371712798700,11.775798828125,-9.75401906453073,0.7088643817353993,0.7259511986799537
1775722371722811600,11.785811767578124,-9.754377376449108,0.7198169337086379,0.7101889083374291
1775722371732825900,11.795825927734375,-9.755369310095906,0.7224625528465956,0.6936843482602387
1775722371742838500,11.805838623046874,-9.757057993835211,0.7171261602547019,0.6752282887890935
1775722371752851700,11.815851806640625,-9.759505971509217,0.7041396182358265,0.6531552078645676
1775722371762865000,11.825864990234376,-9.762437348785996,0.6849708073854446,0.6292967778932302
1775722371772877600,11.835877685546874,-9.765520117232203,0.6620557957440615,0.6055461191453039
1775722371782891800,11.845891845703125,-9.76854794062078,0.6377541520498693,0.5823476509200408
1775722371792904700,11.85590478515625,-9.771335525512695,0.6143044490098953,0.5603665225952863
1775722371802917600,11.865917724609375,-9.773792271015047,0.5929946806080639,0.5401208032283932
1775722371812930800,11.875930908203125,-9.775864985635875,0.5742834407994524,0.5225406498089432
1775722371822943700,11.88594384765625,-9.7775185980618,0.5578846791842952,0.5091929097948595
1775722371832956700,11.895956787109375,-9.778797531956434,0.5432095995565877,0.5004224511010572
1775722371842970600,11.905970703125,-9.779726921761036,0.5301883880831301,0.49621572012621906
1775722371852983800,11.91598388671875,-9.780341838788985,0.5183881697719916,0.49655507161580026
1775722371862996700,11.925996826171875,-9.780751588633656,0.5069975551750511,0.5002308009864762
1775722371873009700,11.936009765625,-9.781001179480553,0.4954989136263728,0.5068327200021594
1775722371883022800,11.94602294921875,-9.78111691481471,0.4837085956547409,0.5159130118301138
1775722371893036500,11.95603662109375,-9.781164261087774,0.471637561045587,0.5260879304943606
1775722371903049700,11.9660498046875,-9.78111633029282,0.4597214247372001,0.5373993789078667
1775722371913063000,11.97606298828125,-9.78094798798859,0.4487937149442732,0.5495724856520071
1775722371923075600,11.98607568359375,-9.780692551922797,0.4397865614177659,0.5612748696118592
1775722371933088800,11.9960888671875,-9.780375156536698,0.4333921842055395,0.571679870704934
1775722371943102700,12.006102783203126,-9.780006323224306,0.42975236639846115,0.5806703288249672
1775722371953115600,12.01611572265625,-9.77960826381743,0.42826402753684667,0.588414768939279
1775722371963128800,12.02612890625,-9.779278593471645,0.4274879651304334,0.5944338830983266
1775722371973141800,12.036141845703124,-9.77906524298191,0.42636484285201875,0.5987297171287238
1775722371983154700,12.04615478515625,-9.778960613563656,0.4244350438332185,0.6018086861826479
1775722371993167600,12.056167724609375,-9.778994515833258,0.42194158304966983,0.6030055678170174
1775722372003181600,12.066181640625,-9.779133047521114,0.4198419438892975,0.6022210663758218
1775722372013194800,12.07619482421875,-9.779224817457795,0.4192087240196764,0.6011752471173182
1775722372023207700,12.086207763671876,-9.779172210487722,0.4208623364455998,0.6008760815076529
1775722372033220900,12.096220947265625,-9.778933725556731,0.4252812488663941,0.6016477965325117
1775722372043233500,12.106233642578125,-9.778513454318047,0.4323195134727284,0.6034548459544777
1775722372053247700,12.116247802734375,-9.778065710550546,0.4409118391206488,0.6044963178314269
1775722372063260700,12.1262607421875,-9.777755329427123,0.44924891136586664,0.6033726475637405
1775722372073273600,12.136273681640626,-9.777640178614854,0.4555940060762688,0.6004742957737297
1775722372083286800,12.146286865234375,-9.777672327318786,0.45929958259593695,0.5971223184647039
1775722372093299700,12.1562998046875,-9.777752406817674,0.46096039194762706,0.5945221093710512
1775722372103312600,12.166312744140624,-9.777792154306173,0.46203865217100826,0.5930333686506375
1775722372113326800,12.176326904296875,-9.777736624726652,0.46362705387361347,0.5927033695112913
1775722372123339800,12.18633984375,-9.777677003493904,0.4656652086377144,0.592091886549443
1775722372133352700,12.196352783203125,-9.77768635584414,0.46713882485423236,0.5907768949607387
1775722372143365600,12.20636572265625,-9.777783970999717,0.466955029252544,0.5893017443742603
1775722372153378800,12.21637890625,-9.778016026189922,0.464785137867555,0.5871666685743258
1775722372163392800,12.226392822265625,-9.778372000020742,0.46113465253598984,0.584108632710576
1775722372173405700,12.23640576171875,-9.778853646057843,0.4568913889430463,0.5793583694435656
1775722372183418600,12.246418701171875,-9.779406603765487,0.4525471857262775,0.5734075712803751
1775722372193431600,12.256431640625,-9.779969498345256,0.44866384148690847,0.5668140912994742
1775722372203444700,12.26644482421875,-9.780563957107066,0.4456598373653367,0.5588735440911725
1775722372213458000,12.2764580078125,-9.781271813115477,0.44344851799141616,0.5481401147613302
1775722372223471600,12.2864716796875,-9.782057410535216,0.44260194763205946,0.5346378052400425
1775722372233484800,12.29648486328125,-9.782856451958418,0.44348223759792743,0.519058908640407
1775722372243497700,12.306497802734375,-9.78359704119265,0.44583102921377865,0.5028433946376666
1775722372253510700,12.3165107421875,-9.784321848335862,0.4482421089434996,0.48631961840335275
1775722372263523800,12.32652392578125,-9.78510686123371,0.4483149915166199,0.4701918922819197
1775722372273537500,12.33653759765625,-9.785963185802101,0.4449017124744132,0.45538496643546966
1775722372283550700,12.34655078125,-9.786891406562924,0.43810328450594094,0.44182106292005624
1775722372293563600,12.356563720703125,-9.787896199691295,0.4285781715199351,0.42870884869489817
1775722372303576800,12.366576904296876,-9.788928465348482,0.4173015752241015,0.41607532136477526
1775722372313589800,12.37658984375,-9.78994144178331,0.4047731157036498,0.40445846026390786
1775722372323603700,12.386603759765626,-9.790911163598299,0.3912923969596624,0.3941267801353708
1775722372333616600,12.39661669921875,-9.791814249917865,0.3766496486989781,0.38586229820232837
1775722372343630300,12.40663037109375,-9.792693955361843,0.3601187120715156,0.3792675395797938
1775722372353643500,12.4166435546875,-9.793610485684871,0.34105153496470303,0.37318365308884527
1775722372363656200,12.42665625,-9.794557411146164,0.31936054869294167,0.36747071880213916
1775722372373669400,12.43666943359375,-9.795471018859743,0.2955972313928418,0.3629818098850548
1775722372383683300,12.446683349609375,-9.796361830219626,0.2702948496908881,0.35864250203911213
1775722372393696300,12.4566962890625,-9.797245042794943,0.24362835829518734,0.3535738204726949
1775722372403709400,12.46670947265625,-9.798079740053415,0.21561766748260705,0.34861280053183435
1775722372413722400,12.476722412109375,-9.798839618510007,0.18645188835076987,0.3440423142785206
1775722372423735300,12.4867353515625,-9.799510065117477,0.15642909053079784,0.3398816509351134
1775722372433748200,12.496748291015624,-9.800091664397716,0.12526211851122787,0.33599490916226055
1775722372443762200,12.50676220703125,-9.800565127128362,0.09267976326839998,0.3327397432912141
1775722372453775400,12.516775390625,-9.800915255740284,0.0585427852949826,0.33017617641352115
1775722372463788300,12.526788330078125,-9.801135620492696,0.02283548469834495,0.3280256838487461
1775722372473801500,12.536801513671875,-9.801211023816466,-0.014354541294806403,0.32625235403329134
1775722372483814100,12.546814208984374,-9.80112743718624,-0.05234283010973595,0.32487310156933963
1775722372493828400,12.556828369140625,-9.800897135561705,-0.08964929126501082,0.3236781196311116
1775722372503841300,12.56684130859375,-9.80053180938065,-0.1251393689143937,0.3229597422286868
1775722372513854200,12.576854248046875,-9.800012169420718,-0.15857346388204022,0.3240373448649421
1775722372523867400,12.586867431640625,-9.799331785941124,-0.19038610426085067,0.32747312799990175
1775722372533880300,12.59688037109375,-9.798487736332415,-0.2214103159420192,0.33317144923936576
