time,seconds_elapsed,z,y,x
1775722359987341600,0.050341552734375,-0.10875703394412994,0.03762848302721977,0.0055428678169846535
1775722359997354800,0.060354736328125,-0.13897591829299927,-0.03368724510073662,0.026116320863366127
1775722360007367700,0.07036767578125,-0.15655900537967682,-0.07732980698347092,0.08151628077030182
1775722360017380600,0.080380615234375,-0.16074442863464355,-0.09492771327495575,0.14231199026107788
1775722360027393800,0.090393798828125,-0.1671290397644043,-0.1102234348654747,0.18197546899318695
1775722360037406700,0.10040673828125,-0.16691012680530548,-0.1327119618654251,0.18146014213562012
1775722360047420700,0.110420654296875,-0.1580791473388672,-0.14082349836826324,0.13783176243305206
1775722360057433600,0.12043359375,-0.13791848719120026,-0.13733822107315063,0.06251171976327896
1775722360067446800,0.13044677734375,-0.11727648228406906,-0.12663023173809052,-0.026137562468647957
1775722360077459700,0.140459716796875,-0.09675522893667221,-0.11860000342130661,-0.10542972385883331
1775722360087472600,0.15047265625,-0.08407586067914963,-0.10379967093467712,-0.14794768393039703
1775722360097485800,0.16048583984375,-0.07086364924907684,-0.08521640300750732,-0.13778932392597198
1775722360107498800,0.170498779296875,-0.06794745475053787,-0.10258779674768448,-0.09408369660377502
1775722360117512700,0.1805126953125,-0.06686966866254807,-0.14097300171852112,-0.03980102017521858
1775722360127526000,0.19052587890625,-0.06126869097352028,-0.15309728682041168,0.01839350536465645
1775722360137538600,0.20053857421875,-0.062331292778253555,-0.15389490127563477,0.06845667213201523
1775722360147551700,0.2105517578125,-0.0697396993637085,-0.14838021993637085,0.10081436485052109
1775722360157564700,0.220564697265625,-0.08080406486988068,-0.1392088234424591,0.1123298779129982
1775722360167577900,0.230577880859375,-0.08303216844797134,-0.12987442314624786,0.0899176076054573
1775722360177590500,0.240590576171875,-0.06786546856164932,-0.10300764441490173,0.0552336610853672
1775722360187604700,0.250604736328125,-0.05115310475230217,-0.07451622188091278,0.023263785988092422
1775722360197617700,0.26061767578125,-0.032772235572338104,-0.03710867092013359,0.001070600003004074
1775722360207630600,0.270630615234375,-0.015343398787081242,-0.024058222770690918,-0.015010128729045391
1775722360217643800,0.280643798828125,0.0006779117975383997,-0.027591971680521965,-0.03157525509595871
1775722360227656700,0.29065673828125,0.0237895380705595,-0.03265414014458656,-0.05812450125813484
1775722360237669600,0.300669677734375,0.04476938769221306,-0.026953110471367836,-0.08682885766029358
1775722360247683800,0.310683837890625,0.05642125755548477,-0.027016211301088333,-0.11083750426769257
1775722360257696500,0.320696533203125,0.0641859695315361,-0.02716667950153351,-0.11440027505159378
1775722360267709700,0.330709716796875,0.06424576044082642,-0.038592629134655,-0.08600582182407379
1775722360277723000,0.340722900390625,0.06093038618564606,-0.06136345490813255,-0.04003486782312393
1775722360287735800,0.35073583984375,0.05694537237286568,-0.07722248136997223,-0.002520665992051363
1775722360297748700,0.360748779296875,0.050731685012578964,-0.09025412797927856,0.016907094046473503
1775722360307761700,0.37076171875,0.05076039582490921,-0.08057733625173569,0.035946644842624664
1775722360317775600,0.380775634765625,0.04011440649628639,-0.05123302340507507,0.04724537208676338
1775722360327789000,0.3907890625,0.01609562337398529,-0.03028912842273712,0.045641615986824036
1775722360337802200,0.40080224609375,-0.0036623673513531685,0.0036685727536678314,0.031438179314136505
1775722360347815000,0.41081494140625,-0.021769801154732704,0.06691747158765793,0.004839360248297453
1775722360357828000,0.420828125,-0.04288201406598091,0.10908836126327515,-0.034651320427656174
1775722360367841000,0.430841064453125,-0.05576087161898613,0.12461350858211517,-0.08681244403123856
1775722360377855000,0.44085498046875,-0.05827862396836281,0.14517924189567566,-0.1408490389585495
1775722360387868200,0.4508681640625,-0.04683811590075493,0.113137386739254,-0.17429177463054657
1775722360397881000,0.460881103515625,-0.028266558423638344,0.08653054386377335,-0.17178787291049957
1775722360407894000,0.47089404296875,-0.01519553828984499,0.10259325057268143,-0.13948741555213928
1775722360417907000,0.480906982421875,-0.02605937235057354,0.1257433146238327,-0.09413564950227737
1775722360427920100,0.490920166015625,-0.04737609624862671,0.14295044541358948,-0.03713897988200188
1775722360437933300,0.500933349609375,-0.05189068615436554,0.11998947709798813,0.011205114424228668
1775722360447947000,0.510947021484375,-0.0402403399348259,0.08273959159851074,0.03325280547142029
1775722360457960200,0.520960205078125,-0.016629021614789963,0.03573986142873764,0.034254152327775955
1775722360467973000,0.53097314453125,0.013063977472484112,0.004943097475916147,0.02664223685860634
1775722360477986000,0.540986083984375,0.03841833397746086,-0.006742054596543312,0.01625031605362892
1775722360487999200,0.550999267578125,0.048978161066770554,-0.019757550209760666,0.008445007726550102
1775722360498012200,0.56101220703125,0.04931984469294548,-0.017877623438835144,-0.009006952866911888
1775722360508026000,0.571026123046875,0.038085564970970154,-0.0051852804608643055,-0.04412101209163666
1775722360518039000,0.5810390625,0.025617174804210663,-0.011410153470933437,-0.08518189936876297
1775722360528052000,0.591052001953125,0.01961410418152809,-0.026580991223454475,-0.12039310485124588
1775722360538065200,0.601065185546875,0.019448189064860344,-0.022383317351341248,-0.1436544805765152
1775722360548078000,0.611078125,0.013791532255709171,-0.01280174870043993,-0.14558516442775726
1775722360558091300,0.62109130859375,-0.0018196508754044771,0.008447879925370216,-0.12831243872642517
1775722360568105000,0.63110498046875,-0.01717212423682213,0.029071273282170296,-0.09536369144916534
1775722360578118100,0.6411181640625,-0.027250057086348534,0.023671980947256088,-0.06817708164453506
1775722360588131000,0.651131103515625,-0.034464411437511444,0.012441822327673435,-0.04789695516228676
1775722360598144000,0.66114404296875,-0.04393408074975014,0.014569954015314579,-0.02757011540234089
1775722360608157200,0.6711572265625,-0.0436912402510643,0.02172146737575531,-0.010969788767397404
1775722360618170000,0.681170166015625,-0.0344945453107357,0.009489301592111588,-0.006374770775437355
1775722360628183000,0.69118310546875,-0.021960057318210602,-0.005776142235845327,-0.0087213646620512
1775722360638197200,0.701197265625,-0.018069710582494736,-0.0003001504810526967,-0.013230628333985806
1775722360648210200,0.711210205078125,-0.0313677154481411,0.007761630229651928,-0.011302456259727478
1775722360658223000,0.72122314453125,-0.05124501511454582,0.026840249076485634,-0.012843094766139984
1775722360668236000,0.731236083984375,-0.07524552941322327,0.04473220929503441,-0.018968522548675537
1775722360678249200,0.741249267578125,-0.0945422574877739,0.037020228803157806,-0.02794923260807991
1775722360688262000,0.751261962890625,-0.09627222269773483,0.041668716818094254,-0.0377424992620945
1775722360698276000,0.761276123046875,-0.09231556951999664,0.05627269297838211,-0.03821733966469765
1775722360708289000,0.7712890625,-0.08453118801116943,0.07297909259796143,-0.02772231213748455
1775722360718302000,0.781302001953125,-0.07579761743545532,0.07879996299743652,-0.004963735584169626
1775722360728315100,0.791315185546875,-0.06628485023975372,0.08575812727212906,0.02112649939954281
1775722360738328000,0.801328125,-0.051872618496418,0.07386870682239532,0.04682094231247902
1775722360748341000,0.811341064453125,-0.04478619247674942,0.04398290812969208,0.06335753947496414
1775722360758355200,0.821355224609375,-0.04287004843354225,0.021290645003318787,0.06564279645681381
1775722360768368000,0.8313681640625,-0.03764144703745842,0.0075891511514782906,0.058801110833883286
1775722360778381000,0.841381103515625,-0.02362416312098503,0.007620576769113541,0.04512418061494827
1775722360788394200,0.851394287109375,-0.012457816861569881,0.009887521155178547,0.02855721116065979
1775722360798407200,0.8614072265625,-0.01076218206435442,0.0041689155623316765,0.011413377709686756
1775722360808420000,0.871420166015625,-0.01745443604886532,-0.014962950721383095,0.005774417892098427
1775722360818433000,0.88143310546875,-0.029220813885331154,-0.0163097120821476,0.014117036014795303
1775722360828447000,0.891447021484375,-0.041868045926094055,-0.0021202329080551863,0.024384191259741783
1775722360838460200,0.901460205078125,-0.049024760723114014,0.013019038364291191,0.027161335572600365
1775722360848473000,0.91147314453125,-0.054252706468105316,0.019977299496531487,0.03125876560807228
1775722360858486300,0.921486328125,-0.055096130818128586,0.018992463126778603,0.03582954779267311
1775722360868499000,0.9314990234375,-0.045061010867357254,0.014681415632367134,0.04262480139732361
1775722360878512000,0.94151220703125,-0.03269622474908829,0.01218630000948906,0.0436762198805809
1775722360888526000,0.951526123046875,-0.02628060057759285,0.005353271495550871,0.04544612765312195
1775722360898539000,0.9615390625,-0.030886802822351456,-0.003684165421873331,0.03938610479235649
1775722360908552200,0.97155224609375,-0.03879033401608467,0.0030620438046753407,0.033890433609485626
1775722360918565000,0.981565185546875,-0.0397418811917305,0.003516645170748234,0.031901851296424866
1775722360928578000,0.991578125,-0.03627067431807518,0.007106461096554995,0.03237025812268257
1775722360938591000,1.001591064453125,-0.026270773261785507,0.016723135486245155,0.031257592141628265
1775722360948605200,1.011605224609375,-0.011901544407010078,0.013021969236433506,0.023031998425722122
1775722360958618000,1.0216181640625,0.0009828282054513693,0.012567101046442986,0.01645665243268013
1775722360968631000,1.031631103515625,0.006232144311070442,0.014531574212014675,0.015873730182647705
1775722360978644200,1.041644287109375,0.0031724388245493174,0.01353688258677721,0.018572047352790833
1775722360988657000,1.051656982421875,-0.00623994879424572,0.0069332607090473175,0.021468231454491615
1775722360998670000,1.061670166015625,-0.014270178973674774,0.00009479618165642023,0.023518064990639687
1775722361008684000,1.07168408203125,-0.016960423439741135,-0.009168742224574089,0.0271901898086071
1775722361018697000,1.081697021484375,-0.015816863626241684,-0.010219093412160873,0.031789734959602356
1775722361028710100,1.091710205078125,-0.009415874257683754,-0.009300819598138332,0.03399421274662018
1775722361038723000,1.10172314453125,-0.003068230114877224,-0.008301069028675556,0.025978630408644676
1775722361048736000,1.111736083984375,0.00022749253548681736,-0.005431980825960636,0.004610670730471611
1775722361058749200,1.121749267578125,-0.0028399364091455936,-0.006285257637500763,-0.018102897331118584
1775722361068763100,1.13176318359375,-0.004591309931129217,-0.014133580960333347,-0.02883211150765419
1775722361078776000,1.141776123046875,-0.0018586404621601105,-0.030641449615359306,-0.02269778773188591
1775722361088789000,1.1517890625,0.005144836381077766,-0.03937259316444397,-0.0024145282804965973
1775722361098802200,1.16180224609375,0.011289015412330627,-0.04923374578356743,0.025285808369517326
1775722361108815000,1.171815185546875,0.01897268556058407,-0.05752205103635788,0.047508642077445984
1775722361118828000,1.181828125,0.030911369249224663,-0.057540424168109894,0.05318330600857735
1775722361128842200,1.19184228515625,0.04121077433228493,-0.06079957261681557,0.052315473556518555
1775722361138855000,1.20185498046875,0.059616148471832275,-0.0788818970322609,0.0462794192135334
1775722361148868000,1.2118681640625,0.07802244275808334,-0.08877457678318024,0.04643457010388374
1775722361158881300,1.22188134765625,0.09434682130813599,-0.08772555738687515,0.056793998926877975
1775722361168894000,1.23189404296875,0.10917507857084274,-0.08335306495428085,0.07062584161758423
1775722361178907100,1.2419072265625,0.11557358503341675,-0.08376505970954895,0.07557746022939682
1775722361188921000,1.251921142578125,0.12026392668485641,-0.08853042870759964,0.0667363628745079
1775722361198934000,1.26193408203125,0.12415587157011032,-0.0808623880147934,0.040003810077905655
1775722361208947200,1.271947265625,0.13103996217250824,-0.0739152655005455,0.006158388685435057
1775722361218960100,1.281960205078125,0.13329166173934937,-0.06548769026994705,-0.025371842086315155
1775722361228973000,1.29197314453125,0.13547560572624207,-0.05049901455640793,-0.04335253685712814
1775722361238987300,1.3019873046875,0.13398370146751404,-0.03660077601671219,-0.04653288424015045
1775722361249000200,1.312000244140625,0.12806709110736847,-0.025323806330561638,-0.049678247421979904
1775722361259013000,1.32201318359375,0.11222527176141739,-0.017196105793118477,-0.051354438066482544
1775722361269026000,1.332026123046875,0.0945354551076889,0.0008743522921577096,-0.05198931321501732
1775722361279039200,1.342039306640625,0.07939644902944565,0.01353555265814066,-0.0527682863175869
1775722361289052000,1.352052001953125,0.06315569579601288,0.0220843143761158,-0.0523592047393322
1775722361299066000,1.362066162109375,0.054775793105363846,0.018163608387112617,-0.051551204174757004
1775722361309079300,1.372079345703125,0.044653117656707764,0.004125287756323814,-0.047583092004060745
1775722361319092000,1.382092041015625,0.03559224307537079,-0.01170241180807352,-0.04095714911818504
1775722361329105400,1.39210546875,0.022251548245549202,-0.02469639666378498,-0.029428992420434952
1775722361339118300,1.402118408203125,0.011281190440058708,-0.034225188195705414,-0.019625630229711533
1775722361349131300,1.41213134765625,-0.0043289498426020145,-0.03468932956457138,-0.018054628744721413
1775722361359145500,1.4221455078125,-0.01036820001900196,-0.03437960147857666,-0.022110624238848686
1775722361369158100,1.432158203125,-0.004889382049441338,-0.04166677966713905,-0.026935916393995285
1775722361379171300,1.44217138671875,0.0014603929594159126,-0.03634338825941086,-0.025122568011283875
1775722361389184300,1.452184326171875,0.011258961632847786,-0.030661532655358315,-0.01209704764187336
1775722361399197400,1.462197509765625,0.023699119687080383,-0.04126624017953873,0.005508311092853546
1775722361409210400,1.47221044921875,0.029726263135671616,-0.04568539187312126,0.026651790365576744
1775722361419224300,1.482224365234375,0.030813630670309067,-0.04886733740568161,0.03475312516093254
1775722361429237200,1.4922373046875,0.02361578308045864,-0.050913866609334946,0.03027435578405857
1775722361439250200,1.502250244140625,0.01836243085563183,-0.048736732453107834,0.021201498806476593
1775722361449263400,1.512263427734375,0.014195035211741924,-0.03287150338292122,0.012359625659883022
1775722361459276500,1.522276611328125,0.002416140167042613,-0.015070666559040546,0.005323288030922413
1775722361469290200,1.532290283203125,-0.005916952155530453,-0.01152554526925087,0.004353963769972324
1775722361479303400,1.542303466796875,-0.01056150533258915,-0.00030218588653951883,0.009374288842082024
1775722361489316400,1.55231640625,-0.01811058446764946,0.013582706451416016,0.007925063371658325
1775722361499329300,1.562329345703125,-0.03241628408432007,0.016663450747728348,0.0030485494062304497
1775722361509342500,1.572342529296875,-0.04739687219262123,0.030610565096139908,-0.005572836846113205
1775722361519355400,1.58235546875,-0.061977945268154144,0.04108744114637375,-0.015725338831543922
1775722361529369300,1.592369384765625,-0.0710185170173645,0.05162618309259415,-0.025249136611819267
1775722361539382500,1.602382568359375,-0.07414186745882034,0.058348268270492554,-0.029522178694605827
1775722361549395200,1.612395263671875,-0.06565622240304947,0.05450338125228882,-0.03299817815423012
1775722361559408400,1.622408447265625,-0.045899830758571625,0.050757378339767456,-0.036661889404058456
1775722361569421300,1.63242138671875,-0.03456735983490944,0.04657192528247833,-0.036970485001802444
1775722361579434500,1.6424345703125,-0.03487176075577736,0.033528562635183334,-0.030400199815630913
1775722361589448400,1.652448486328125,-0.03439982607960701,0.02382528781890869,-0.023069314658641815
1775722361599461400,1.66246142578125,-0.029387760907411575,0.017178038135170937,-0.019216787070035934
1775722361609474300,1.672474365234375,-0.028822535648941994,0.010263359174132347,-0.015651192516088486
1775722361619487200,1.6824873046875,-0.02782970853149891,0.005749301053583622,-0.013339301571249962
1775722361629500400,1.69250048828125,-0.021281732246279716,0.013633416034281254,-0.0037394489627331495
1775722361639514400,1.702514404296875,-0.010719369165599346,0.01444940734654665,0.007588839158415794
1775722361649527300,1.71252734375,0.002583550289273262,0.011666171252727509,0.01968980021774769
1775722361659540500,1.72254052734375,0.007320514414459467,0.010872549377381802,0.021768130362033844
1775722361669553200,1.73255322265625,0.004361886531114578,0.008955980651080608,0.018293902277946472
1775722361679566300,1.74256640625,-0.0004954528994858265,0.015489513985812664,0.014723403379321098
1775722361689579300,1.752579345703125,-0.004657871089875698,0.014976263046264648,0.0151901226490736
1775722361699593200,1.76259326171875,-0.004563595168292522,0.020118027925491333,0.017183499410748482
1775722361709606400,1.7726064453125,0.00025902059860527515,0.029735293239355087,0.01494045089930296
1775722361719619300,1.782619384765625,0.010512989945709705,0.030885513871908188,0.007715295068919659
1775722361729632300,1.79263232421875,0.01907859556376934,0.026269739493727684,0.007316797971725464
1775722361739645200,1.802645263671875,0.013695282861590385,0.020063241943717003,0.010806870646774769
1775722361749659400,1.812659423828125,0.0026988242752850056,0.026985863223671913,0.01590735651552677
1775722361759672300,1.82267236328125,0.0011677728034555912,0.021411867812275887,0.010738160461187363
1775722361769685200,1.832685302734375,0.005177141632884741,0.013194999657571316,0.004975612740963697
1775722361779698400,1.842698486328125,0.011793764308094978,0.009479090571403503,0.0043463073670864105
1775722361789711400,1.85271142578125,0.017333507537841797,0.009902766905725002,0.0007402989431284368
1775722361799725300,1.862725341796875,0.027871103957295418,0.004937036894261837,-0.0028818664140999317
1775722361809738500,1.872738525390625,0.03665189445018768,0.0009100871393457055,-0.007843690924346447
1775722361819751200,1.882751220703125,0.038175489753484726,-0.0025315159000456333,-0.010411510244011879
1775722361829764400,1.892764404296875,0.03687027469277382,-0.011580404825508595,-0.005426871590316296
1775722361839777300,1.90277734375,0.031784702092409134,-0.00893482007086277,0.007277738302946091
1775722361849790200,1.912790283203125,0.02416369691491127,0.008579238317906857,0.018061254173517227
1775722361859804400,1.922804443359375,0.015089508146047592,0.017486445605754852,0.015543501824140549
1775722361869817300,1.9328173828125,0.013104347512125969,0.010391644202172756,0.00591568648815155
1775722361879830300,1.942830322265625,0.012919258326292038,0.011355975642800331,0.0008112055948004127
1775722361889843200,1.95284326171875,0.01214255765080452,0.015886640176177025,0.006662281230092049
1775722361899856400,1.9628564453125,0.004356006626039743,0.02284548059105873,0.00937950424849987
1775722361909870300,1.972870361328125,-0.007830966264009476,0.02697308361530304,0.0069283973425626755
1775722361919883300,1.98288330078125,-0.014871564693748951,0.030060220509767532,0.0052972109988331795
1775722361929896400,1.992896484375,-0.015064070001244545,0.03292112797498703,0.00895368680357933
1775722361939909400,2.002909423828125,-0.013882691971957684,0.03887329250574112,0.01887769065797329
1775722361949922300,2.01292236328125,-0.014458241872489452,0.04436618834733963,0.021130235865712166
1775722361959935500,2.022935546875,-0.012146085500717163,0.0384124256670475,0.012556455098092556
1775722361969949200,2.03294921875,-0.012677427381277084,0.03444124385714531,-0.005170298740267754
1775722361979962400,2.04296240234375,-0.01656111516058445,0.032242804765701294,-0.01591908372938633
1775722361989975600,2.0529755859375,-0.018019195646047592,0.027974024415016174,-0.018784111365675926
1775722361999988200,2.06298828125,-0.012767442502081394,0.018336310982704163,-0.012843664735555649
1775722362010001400,2.07300146484375,-0.0039430586621165276,0.022661298513412476,-0.0090654157102108
1775722362020015400,2.083015380859375,0.0018202881328761578,0.02811119146645069,-0.006423826329410076
1775722362030028300,2.0930283203125,0.0049909669905900955,0.02866162359714508,-0.0013906750828027725
1775722362040041500,2.10304150390625,0.006341989152133465,0.02565651200711727,0.0001387783559039235
1775722362050054400,2.113054443359375,0.009766936302185059,0.020274167880415916,-0.004704556427896023
1775722362060067300,2.1230673828125,0.012152861803770065,0.015418426133692265,-0.015811536461114883
1775722362070081300,2.133081298828125,0.01581864058971405,0.0061766463331878185,-0.023231567814946175
1775722362080094500,2.143094482421875,0.011913915164768696,0.0002519114641472697,-0.021959377452731133
1775722362090107400,2.153107421875,0.003271467052400112,0.003513613250106573,-0.01549382321536541
1775722362100120300,2.163120361328125,-0.0013898636680096388,0.010417591780424118,-0.013679677620530128
1775722362110133500,2.173133544921875,-0.00045355968177318573,0.00852082297205925,-0.015595197677612305
1775722362120146200,2.183146240234375,0.000167755875736475,0.0053711021319031715,-0.019648529589176178
1775722362130160400,2.193160400390625,0.00129076954908669,0.0026191305369138718,-0.011269626207649708
1775722362140173300,2.20317333984375,0.0012319136876612902,-0.0074920933693647385,-0.0024095550179481506
1775722362150186200,2.213186279296875,0.004489840939640999,-0.018355123698711395,-0.00024531513918191195
1775722362160199400,2.223199462890625,0.0075032077729702,-0.028466880321502686,0.001694265054538846
1775722362170212400,2.23321240234375,0.014727032743394375,-0.03355325385928154,0.005370758939534426
1775722362180226300,2.243226318359375,0.018677564337849617,-0.035993240773677826,0.004851975478231907
1775722362190239500,2.253239501953125,0.01834040880203247,-0.023224979639053345,0.0010812054388225079
1775722362200252400,2.26325244140625,0.015491626225411892,-0.015956414863467216,-0.005859791301190853
1775722362210265300,2.273265380859375,0.010395441204309464,-0.009922602213919163,-0.015840807929635048
1775722362220278300,2.2832783203125,0.004886959213763475,-0.005501755513250828,-0.021896304562687874
1775722362230292200,2.293292236328125,0.00019002403132617474,-0.0067259944044053555,-0.02491242252290249
1775722362240305400,2.303305419921875,-0.001460869563743472,-0.008595533668994904,-0.023254336789250374
1775722362250318300,2.313318359375,0.00514770345762372,-0.0072443378157913685,-0.015015007928013802
1775722362260331500,2.32333154296875,0.01383067388087511,-0.008432107977569103,-0.002090419875457883
1775722362270344200,2.33334423828125,0.02319975756108761,0.0022820723243057728,0.014943867921829224
1775722362280358400,2.3433583984375,0.01935734786093235,0.014417298138141632,0.027059119194746017
1775722362290371300,2.353371337890625,0.005267975386232138,0.024454781785607338,0.029055360704660416
1775722362300384300,2.36338427734375,-0.013813840225338936,0.03553113713860512,0.02233327552676201
1775722362310397400,2.3733974609375,-0.023657701909542084,0.04162822663784027,0.008747690357267857
1775722362320410400,2.383410400390625,-0.031846657395362854,0.04644108936190605,-0.005251482129096985
1775722362330423800,2.393423828125,-0.03123994544148445,0.0468343123793602,-0.012252178974449635
1775722362340437000,2.40343701171875,-0.024300547316670418,0.05251483619213104,-0.01556355319917202
1775722362350450000,2.413449951171875,-0.020641423761844635,0.04908805713057518,-0.022090917453169823
1775722362360462800,2.423462890625,-0.020084556192159653,0.04221390560269356,-0.03110385499894619
1775722362370475800,2.433475830078125,-0.02188977226614952,0.03483813256025314,-0.03859330341219902
1775722362380489000,2.443489013671875,-0.01672057807445526,0.02531253919005394,-0.04160214215517044
1775722362390503000,2.4535029296875,-0.005866044666618109,0.02011159062385559,-0.042343586683273315
1775722362400515800,2.463515869140625,0.0033074798993766308,0.016057461500167847,-0.03874938562512398
1775722362410529000,2.473529052734375,0.008398665115237236,0.003136538900434971,-0.03335597366094589
1775722362420541700,2.483541748046875,0.012190474197268486,-0.005188502836972475,-0.018824970349669456
1775722362430555000,2.493554931640625,0.017545334994792938,-0.012060394510626793,-0.009452044032514095
1775722362440568800,2.50356884765625,0.021784022450447083,-0.012757077813148499,0.0010647791204974055
1775722362450581800,2.513581787109375,0.017280224710702896,-0.005448976065963507,0.0062791407108306885
1775722362460595000,2.523594970703125,0.014362200163304806,0.0023937667720019817,0.002030333736911416
1775722362470608000,2.53360791015625,0.0038398662582039833,0.013502627611160278,-0.0133734792470932
1775722362480620800,2.543620849609375,-0.0032020641956478357,0.021226858720183372,-0.02871142327785492
1775722362490635000,2.553635009765625,-0.009579164907336235,0.022074485197663307,-0.040281131863594055
1775722362500647700,2.563647705078125,-0.015938792377710342,0.016591036692261696,-0.03555881604552269
1775722362510660900,2.573660888671875,-0.0196787528693676,0.006629465613514185,-0.018338723108172417
1775722362520673800,2.583673828125,-0.012236814945936203,-0.0003022095188498497,-0.0012446914333850145
1775722362530687000,2.59368701171875,-0.007983522489666939,0.005763264372944832,0.011444782838225365
1775722362540701000,2.603700927734375,-0.004403435159474611,0.004313173238188028,0.01460169441998005
1775722362550713900,2.6137138671875,-0.00020572100766003132,0.00111513736192137,0.012787528336048126
1775722362560726800,2.623726806640625,0.000515729421749711,0.002541526220738888,0.011344361118972301
1775722362570739700,2.63373974609375,0.0019307080656290054,0.004171522334218025,0.009879045188426971
1775722362580753000,2.6437529296875,0.00002308562397956848,0.006158772855997086,0.00879114493727684
1775722362590766800,2.653766845703125,-0.007969427853822708,0.010432646609842777,0.008186161518096924
1775722362600779800,2.66377978515625,-0.012384949252009392,0.012214567512273788,-0.0005854918854311109
1775722362610793000,2.67379296875,-0.01602966897189617,0.015959521755576134,-0.015372250229120255
1775722362620805600,2.6838056640625,-0.017747407779097557,0.017107076942920685,-0.02797938883304596
1775722362630818800,2.69381884765625,-0.019391460344195366,0.012542935088276863,-0.0263100303709507
1775722362640833000,2.7038330078125,-0.017155470326542854,0.005679703783243895,-0.016372710466384888
1775722362650845700,2.713845703125,-0.013457465916872025,0.0028417599387466908,-0.006809765473008156
1775722362660859000,2.72385888671875,-0.01698828488588333,0.004656171891838312,-0.007636143825948238
1775722362670871800,2.733871826171875,-0.02697794698178768,0.004602027125656605,-0.017238523811101913
1775722362680884700,2.743884765625,-0.028577974066138268,0.0021966602653265,-0.03181853145360947
1775722362690899000,2.75389892578125,-0.025511691346764565,0.006324517074972391,-0.03685133159160614
1775722362700911900,2.763911865234375,-0.026881355792284012,0.011560291983187199,-0.03005095012485981
1775722362710924800,2.7739248046875,-0.029339022934436798,0.025500386953353882,-0.014782402664422989
1775722362720937700,2.783937744140625,-0.033420052379369736,0.029606183990836143,-0.00910587515681982
1775722362730951000,2.793950927734375,-0.03483833000063896,0.028169313445687294,-0.008888138458132744
1775722362740964900,2.80396484375,-0.038704708218574524,0.025040363892912865,-0.01416093111038208
1775722362750977800,2.813977783203125,-0.03888070210814476,0.02157333679497242,-0.017802316695451736
1775722362760991000,2.823990966796875,-0.03599356859922409,0.012830445542931557,-0.023465795442461967
1775722362771004000,2.83400390625,-0.0361890010535717,0.01485351100564003,-0.02864384837448597
1775722362781016800,2.844016845703125,-0.02985626831650734,0.020953748375177383,-0.03711669519543648
1775722362791030800,2.85403076171875,-0.016332430765032768,0.020989323034882545,-0.05294707417488098
1775722362801043700,2.864043701171875,-0.00022190436720848083,0.03832729905843735,-0.08084715157747269
1775722362811057000,2.874056884765625,0.015159939415752888,0.06809676438570023,-0.09886179119348526
1775722362821070000,2.884070068359375,0.022809071466326714,0.0933227613568306,-0.10443685203790665
1775722362831082800,2.894082763671875,0.021786438301205635,0.11396060138940811,-0.10248371213674545
1775722362841097000,2.904096923828125,0.026363346725702286,0.12488328665494919,-0.09477412700653076
1775722362851109600,2.914109619140625,0.03707732632756233,0.12583433091640472,-0.0918780267238617
1775722362861122800,2.924122802734375,0.059955745935440063,0.12522739171981812,-0.08953498303890228
1775722362871136000,2.934135986328125,0.08244866132736206,0.12068552523851395,-0.07650506496429443
1775722362881149000,2.94414892578125,0.09598684310913086,0.12287730723619461,-0.04680975526571274
1775722362891163000,2.954162841796875,0.09425541758537292,0.13246047496795654,-0.00885134469717741
1775722362901175800,2.96417578125,0.08325576037168503,0.14061640202999115,0.02047538571059704
1775722362911188700,2.974188720703125,0.0674653947353363,0.1449553370475769,0.04302453622221947
1775722362921202000,2.984201904296875,0.04636623337864876,0.1501501053571701,0.07022979110479355
1775722362931214800,2.99421484375,0.03218051418662071,0.13721603155136108,0.09626206010580063
1775722362941228800,3.004228759765625,0.02656763792037964,0.10869065672159195,0.12518826127052307
1775722362951241700,3.01424169921875,0.03142658993601799,0.08730834722518921,0.1571163684129715
1775722362961255000,3.0242548828125,0.04046402871608734,0.04169665649533272,0.20606446266174316
1775722362971267800,3.034267822265625,0.055010952055454254,-0.00013316143304109573,0.2719000279903412
1775722362981280800,3.04428076171875,0.05860248953104019,-0.03821929544210434,0.3383493423461914
1775722362991295000,3.054294921875,0.05442022159695625,-0.0629519447684288,0.39040645956993103
1775722363001307600,3.0643076171875,0.052975721657276154,-0.09362383931875229,0.42179152369499207
1775722363011320800,3.07432080078125,0.055247705429792404,-0.12595899403095245,0.44461214542388916
1775722363021334000,3.084333984375,0.05638807266950607,-0.15594646334648132,0.4717377722263336
1775722363031346700,3.0943466796875,0.0497485026717186,-0.18730026483535767,0.5095914602279663
1775722363041361000,3.10436083984375,0.03196417912840843,-0.21189242601394653,0.5450876951217651
1775722363051374000,3.1143740234375,0.012330802157521248,-0.22892805933952332,0.5705275535583496
1775722363061386800,3.12438671875,-0.007974470034241676,-0.23094354569911957,0.5795588493347168
1775722363071400000,3.13439990234375,-0.027813049033284187,-0.21407006680965424,0.5874805450439453
1775722363081412900,3.144412841796875,-0.040676917880773544,-0.19139085710048676,0.5986535549163818
1775722363091426800,3.1544267578125,-0.04846486076712608,-0.15792113542556763,0.6171774864196777
1775722363101440000,3.16443994140625,-0.06174125149846077,-0.12608784437179565,0.6415979266166687
1775722363111453000,3.174452880859375,-0.0755409449338913,-0.09143692255020142,0.6538292169570923
1775722363121465900,3.1844658203125,-0.0914248377084732,-0.064299575984478,0.6420884132385254
1775722363131478800,3.194478759765625,-0.10548686236143112,-0.04748065397143364,0.6095174551010132
1775722363141492700,3.20449267578125,-0.1218237578868866,-0.04097215458750725,0.5667667984962463
1775722363151506000,3.214505859375,-0.13624705374240875,-0.033883459866046906,0.5243600606918335
1775722363161518800,3.224518798828125,-0.14686506986618042,-0.01760542020201683,0.4939505159854889
1775722363171532000,3.234531982421875,-0.1503438800573349,-0.012910504825413227,0.48037365078926086
1775722363181544700,3.244544677734375,-0.14565697312355042,-0.016843726858496666,0.4858746826648712
1775722363191559000,3.254558837890625,-0.13389618694782257,-0.01416405476629734,0.5064459443092346
1775722363201571800,3.26457177734375,-0.11549589037895203,-0.008377538062632084,0.5339180827140808
1775722363211584800,3.274584716796875,-0.09037326276302338,0.00217190058901906,0.5579717755317688
1775722363221598000,3.284597900390625,-0.06321568042039871,0.009235667996108532,0.5714620351791382
1775722363231611600,3.294611572265625,-0.03705182299017906,0.013104221783578396,0.5782952904701233
1775722363241624800,3.304624755859375,-0.01658756099641323,0.01442701369524002,0.5742843151092529
1775722363251638000,3.314637939453125,-0.0003355985973030329,0.01282452791929245,0.5537540316581726
1775722363261650700,3.324650634765625,0.017973367124795914,0.013094838708639145,0.5208764672279358
1775722363271663900,3.334663818359375,0.042575813829898834,0.011876209639012814,0.48463091254234314
1775722363281678000,3.344677978515625,0.06513305753469467,0.014032571576535702,0.45702990889549255
1775722363291690800,3.354690673828125,0.08833391964435577,0.019908489659428596,0.4479976296424866
1775722363301704000,3.364703857421875,0.10534831881523132,0.03839375823736191,0.46212196350097656
1775722363311716900,3.374716796875,0.11260130256414413,0.06829455494880676,0.4921332597732544
1775722363321729800,3.384729736328125,0.12048878520727158,0.09951771795749664,0.5176836252212524
1775722363331743700,3.39474365234375,0.13213296234607697,0.12544161081314087,0.5188726782798767
1775722363341757000,3.4047568359375,0.14443783462047577,0.14353299140930176,0.4927827715873718
1775722363351769600,3.41476953125,0.15268877148628235,0.15474003553390503,0.44493141770362854
1775722363361782800,3.42478271484375,0.15381716191768646,0.16212737560272217,0.38973182439804077
1775722363371795700,3.434795654296875,0.15049080550670624,0.1661771535873413,0.3378838300704956
1775722363381809700,3.4448095703125,0.13679923117160797,0.16500216722488403,0.2922915816307068
1775722363391822800,3.45482275390625,0.11909347027540207,0.15601159632205963,0.2510267198085785
1775722363401835800,3.464835693359375,0.090248242020607,0.12761591374874115,0.2182445377111435
1775722363411848700,3.4748486328125,0.05756731703877449,0.10090850293636322,0.21088537573814392
1775722363421861600,3.484861572265625,0.029318640008568764,0.1057802215218544,0.22817622125148773
1775722363431875600,3.49487548828125,0.012868786230683327,0.11240281164646149,0.2697305977344513
1775722363441888800,3.504888671875,0.005379177629947662,0.1122259795665741,0.3179681599140167
1775722363451901700,3.514901611328125,-0.014838475733995438,0.12366186082363129,0.36142802238464355
1775722363461915000,3.524914794921875,-0.03652513027191162,0.1375744789838791,0.3834291994571686
1775722363471927600,3.534927490234375,-0.05239812284708023,0.1307256817817688,0.3823882043361664
1775722363481941800,3.544941650390625,-0.06965859979391098,0.11873161792755127,0.3637290298938751
1775722363491954700,3.55495458984375,-0.08118302375078201,0.10978135466575623,0.3379896879196167
1775722363501967600,3.564967529296875,-0.07806365936994553,0.09299412369728088,0.3174758851528168
1775722363511980800,3.574980712890625,-0.057825151830911636,0.07942641526460648,0.30756595730781555
1775722363521994800,3.584994873046875,-0.023319639265537262,0.06977565586566925,0.3000659644603729
1775722363532007700,3.595007568359375,0.019869130104780197,0.027073131874203682,0.28723055124282837
1775722363542020900,3.605020751953125,0.05789267644286156,-0.020646987482905388,0.2580835819244385
1775722363552033500,3.615033447265625,0.07910577952861786,-0.06025099754333496,0.2166224867105484
1775722363562046700,3.625046630859375,0.07707059383392334,-0.09102169424295425,0.17777495086193085
1775722363572061000,3.63506103515625,0.0646972805261612,-0.1097000390291214,0.15742281079292297
1775722363582073600,3.645073486328125,0.05098865553736687,-0.13148470222949982,0.1575184166431427
1775722363592086800,3.655086669921875,0.051381271332502365,-0.14784789085388184,0.17621612548828125
1775722363602099700,3.665099609375,0.03504703938961029,-0.13784797489643097,0.205521821975708
1775722363612112600,3.675112548828125,-0.003557487390935421,-0.1132306158542633,0.24562542140483856
1775722363622126800,3.685126953125,-0.058498501777648926,-0.07696928083896637,0.2831166386604309
1775722363632139800,3.695139892578125,-0.11656911671161652,-0.03343182057142258,0.297988623380661
1775722363642152700,3.705152587890625,-0.1684648096561432,0.012598522007465363,0.2730574607849121
1775722363652165600,3.71516552734375,-0.20765994489192963,0.050389230251312256,0.2261507362127304
1775722363662178800,3.7251787109375,-0.23359033465385437,0.09340114891529083,0.17785723507404327
1775722363672192800,3.73519287109375,-0.2508060336112976,0.1345098465681076,0.14373677968978882
1775722363682205700,3.745205810546875,-0.2635681927204132,0.15994542837142944,0.12807978689670563
1775722363692219000,3.755218994140625,-0.2599155008792877,0.18797770142555237,0.11038321256637573
1775722363702231600,3.7652314453125,-0.2361539900302887,0.202480748295784,0.08704913407564163
1775722363712245800,3.775245849609375,-0.19824586808681488,0.2006179541349411,0.060598161071538925
1775722363722258700,3.7852587890625,-0.15520626306533813,0.19199596345424652,0.0342019721865654
1775722363732271600,3.795271728515625,-0.116982601583004,0.17359989881515503,0.010930681601166725
1775722363742284800,3.805284912109375,-0.08853951096534729,0.15979859232902527,-0.009952230378985405
1775722363752297700,3.815297607421875,-0.07174494117498398,0.163228839635849,-0.028351102024316788
1775722363762311700,3.825311767578125,-0.06477624922990799,0.19317662715911865,-0.04299262911081314
1775722363772324900,3.835324951171875,-0.066810242831707,0.22639784216880798,-0.05094736069440842
1775722363782337800,3.845337890625,-0.07338825613260269,0.27538591623306274,-0.059052955359220505
1775722363792350700,3.855350830078125,-0.06947172433137894,0.34305840730667114,-0.06790302693843842
1775722363802363600,3.86536376953125,-0.051044777035713196,0.3968963325023651,-0.08337599039077759
1775722363812377600,3.875377685546875,-0.020136114209890366,0.43382155895233154,-0.09408669173717499
1775722363822390800,3.885390869140625,0.00979914702475071,0.4590163826942444,-0.08968927711248398
1775722363832403700,3.89540380859375,0.02831057272851467,0.4564582407474518,-0.06671635061502457
1775722363842416600,3.905416748046875,0.02932070940732956,0.4388933777809143,-0.02854207344353199
1775722363852430800,3.915430908203125,0.015033237636089325,0.41824871301651,0.01806713081896305
1775722363862443800,3.92544384765625,-0.009445739910006523,0.3957005441188812,0.05697537958621979
1775722363872456700,3.935456787109375,-0.03404964134097099,0.37171003222465515,0.0777997300028801
1775722363882469600,3.9454697265625,-0.058138467371463776,0.33069950342178345,0.0851316750049591
1775722363892482800,3.95548291015625,-0.06874849647283554,0.2769627571105957,0.08357212692499161
1775722363902496800,3.965496826171875,-0.05540207028388977,0.21843740344047546,0.08268982172012329
1775722363912509700,3.975509765625,-0.020953334867954254,0.13498927652835846,0.08229701966047287
1775722363922523000,3.98552294921875,0.00960830319672823,0.0623270608484745,0.07429502159357071
1775722363932535600,3.99553564453125,0.026648230850696564,0.029180148616433144,0.06027112528681755
1775722363942548700,4.005548828125,0.03914272040128708,0.016618818044662476,0.04090967774391174
1775722363952562700,4.015562744140625,0.05192824453115463,0.0066147781908512115,0.008290527388453484
1775722363962575600,4.02557568359375,0.06370528042316437,-0.009982841089367867,-0.03047497756779194
1775722363972588800,4.0355888671875,0.07099009305238724,-0.02745158039033413,-0.06198284029960632
1775722363982601700,4.045601806640625,0.07889222353696823,-0.06783974915742874,-0.08160793781280518
1775722363992615700,4.05561572265625,0.09484989941120148,-0.11115133762359619,-0.09215594083070755
1775722364002628900,4.06562890625,0.11964632570743561,-0.14666777849197388,-0.09199535101652145
1775722364012641800,4.075641845703125,0.14020447432994843,-0.19394810497760773,-0.08088797330856323
1775722364022654700,4.08565478515625,0.1521812379360199,-0.2309202402830124,-0.05963701009750366
1775722364032667600,4.095667724609375,0.14785508811473846,-0.23675140738487244,-0.030285168439149857
1775722364042681600,4.105681640625,0.1316060721874237,-0.19385160505771637,0.010533900931477547
1775722364052694800,4.11569482421875,0.11372199654579163,-0.16124553978443146,0.0617419071495533
1775722364062707700,4.125707763671875,0.10246987640857697,-0.157247856259346,0.11038774251937866
1775722364072720600,4.135720703125,0.09273462742567062,-0.15978755056858063,0.14573486149311066
1775722364082733600,4.145733642578125,0.07422006875276566,-0.12986373901367188,0.16468803584575653
1775722364092747800,4.155747802734375,0.05568121001124382,-0.07560484111309052,0.1618955135345459
1775722364102760700,4.1657607421875,0.04393240809440613,-0.038415659219026566,0.1352527141571045
1775722364112773600,4.175773681640625,0.03763957321643829,-0.020317187532782555,0.08646788448095322
1775722364122786800,4.185786865234375,0.03419184684753418,-0.006443448830395937,0.026456210762262344
1775722364132800800,4.19580078125,0.04392571002244949,0.0022621075622737408,-0.025573961436748505
1775722364142813700,4.205813720703125,0.06523233652114868,-0.002924398984760046,-0.05173925682902336
1775722364152827000,4.215826904296875,0.09232302755117416,-0.006819135509431362,-0.04515212029218674
1775722364162839600,4.225839599609375,0.11475323885679245,-0.0035525017883628607,-0.023949626833200455
1775722364172852700,4.235852783203125,0.12962579727172852,-0.007238753605633974,-0.007400370202958584
1775722364182866700,4.24586669921875,0.1458154171705246,-0.008149022236466408,-0.01282416470348835
1775722364192879600,4.255879638671875,0.16205741465091705,0.005895724520087242,-0.034074243158102036
1775722364202892800,4.265892822265625,0.1674433797597885,0.01629403606057167,-0.06484547257423401
1775722364212905700,4.27590576171875,0.15839609503746033,0.01217014342546463,-0.09418122470378876
1775722364222918700,4.285918701171875,0.13842877745628357,0.005798264406621456,-0.11430326849222183
1775722364232932900,4.295932861328125,0.12458551675081253,-0.0033487118780612946,-0.12175142019987106
1775722364242945800,4.30594580078125,0.11581333726644516,-0.02635895647108555,-0.1252060830593109
1775722364252958700,4.315958740234375,0.11029630899429321,-0.05480467528104782,-0.12792092561721802
1775722364262971600,4.3259716796875,0.0928153246641159,-0.07802450656890869,-0.12515629827976227
1775722364272985600,4.335985595703125,0.06857726722955704,-0.09086091071367264,-0.1071910634636879
1775722364282998800,4.345998779296875,0.05805324763059616,-0.09405297785997391,-0.07847712934017181
1775722364293011700,4.35601171875,0.06624797731637955,-0.0852975845336914,-0.04795614257454872
1775722364303025000,4.36602490234375,0.07753098756074905,-0.06857293844223022,-0.02610783651471138
1775722364313037600,4.37603759765625,0.07569454610347748,-0.05519580841064453,-0.015899503603577614
1775722364323051800,4.3860517578125,0.05847907066345215,-0.03358771651983261,-0.02195766195654869
1775722364333065200,4.396065185546875,0.037016019225120544,-0.018746130168437958,-0.044977884739637375
1775722364343078400,4.406078369140625,0.033471882343292236,-0.01009591668844223,-0.07510063797235489
1775722364353091300,4.41609130859375,0.04631083831191063,-0.014765878207981586,-0.10521286725997925
1775722364363104300,4.426104248046875,0.06956849247217178,-0.015512362122535706,-0.12557005882263184
1775722364373118500,4.436118408203125,0.09177612513303757,-0.0044955844059586525,-0.13072308897972107
1775722364383131400,4.44613134765625,0.10883419960737228,0.004857436753809452,-0.12496747076511383
1775722364393144300,4.456144287109375,0.11463972926139832,0.0020347186364233494,-0.11914374679327011
1775722364403157200,4.4661572265625,0.11971651017665863,-0.001631122431717813,-0.12179572880268097
1775722364413171200,4.476171142578125,0.13847026228904724,-0.003675767220556736,-0.1315845102071762
1775722364423184400,4.486184326171875,0.18312348425388336,-0.01494706328958273,-0.14837148785591125
1775722364433197300,4.496197265625,0.2543748617172241,-0.02460690401494503,-0.15877437591552734
1775722364443210200,4.506210205078125,0.3363954424858093,-0.03074948489665985,-0.15531094372272491
1775722364453223200,4.51622314453125,0.415096253156662,-0.035439226776361465,-0.13277944922447205
1775722364463237400,4.5262373046875,0.48077672719955444,-0.0425189733505249,-0.09833864867687225
1775722364473250300,4.536250244140625,0.5404487252235413,-0.03293035924434662,-0.0541425384581089
1775722364483263200,4.54626318359375,0.5843117833137512,-0.018943171948194504,-0.0016415107529610395
1775722364493276400,4.5562763671875,0.6059104800224304,-0.02342066913843155,0.06672535091638565
1775722364503290400,4.566290283203125,0.6052740216255188,-0.003918341360986233,0.1363971084356308
1775722364513303300,4.57630322265625,0.564780056476593,0.006586814299225807,0.2063405066728592
1775722364523316500,4.58631640625,0.5021020770072937,0.02652536891400814,0.2581634819507599
1775722364533329200,4.5963291015625,0.43778055906295776,0.06373949348926544,0.2824137210845947
1775722364543342300,4.60634228515625,0.38851848244667053,0.08811487257480621,0.27496886253356934
1775722364553356300,4.616356201171875,0.3454905152320862,0.08983725309371948,0.23810380697250366
1775722364563369200,4.626369140625,0.2954134941101074,0.08267015218734741,0.18025675415992737
1775722364573382400,4.63638232421875,0.22690877318382263,0.07099881023168564,0.10893706232309341
1775722364583395300,4.646395263671875,0.14604879915714264,0.05626300722360611,0.031446270644664764
1775722364593408300,4.656408203125,0.0715879574418068,0.047711119055747986,-0.04108211770653725
1775722364603422500,4.66642236328125,0.0018253875896334648,0.02932731993496418,-0.1136026531457901
1775722364613435400,4.676435302734375,-0.065809465944767,0.017790677025914192,-0.19680018723011017
1775722364623448300,4.6864482421875,-0.1377132087945938,0.04099426418542862,-0.29693904519081116
1775722364633461200,4.696461181640625,-0.20438958704471588,0.08518987149000168,-0.40925395488739014
1775722364643475200,4.70647509765625,-0.2704775333404541,0.08872628211975098,-0.5193870663642883
1775722364653488400,4.71648828125,-0.32578420639038086,0.08896145224571228,-0.6214615106582642
1775722364663501300,4.726501220703125,-0.3456282317638397,0.12317641079425812,-0.7144073843955994
1775722364673514200,4.73651416015625,-0.33752986788749695,0.16085711121559143,-0.7888747453689575
1775722364683527200,4.746527099609375,-0.31816843152046204,0.20691993832588196,-0.8314086198806763
1775722364693541400,4.756541259765625,-0.2919470965862274,0.21361929178237915,-0.8498329520225525
1775722364703554300,4.76655419921875,-0.2528233826160431,0.1794341653585434,-0.8529086709022522
1775722364713567200,4.776567138671875,-0.20411957800388336,0.14898781478405,-0.8469399213790894
1775722364723580400,4.786580322265625,-0.1546420305967331,0.12374529987573624,-0.831416666507721
1775722364733593300,4.79659326171875,-0.117611825466156,0.08413179218769073,-0.8010669946670532
1775722364743607300,4.806607177734375,-0.08890614658594131,0.029111411422491074,-0.7616426348686218
1775722364753620500,4.816620361328125,-0.07005225867033005,-0.02664090134203434,-0.7139810919761658
1775722364763633200,4.826633056640625,-0.056921809911727905,-0.11195739358663559,-0.6561316251754761
1775722364773646300,4.836646240234375,-0.05539766326546669,-0.20850449800491333,-0.5958020687103271
1775722364783660300,4.846660400390625,-0.051812250167131424,-0.24917709827423096,-0.5444642901420593
1775722364793673200,4.856673095703125,-0.04976075142621994,-0.24143867194652557,-0.5082075595855713
1775722364803686400,4.866686279296875,-0.030883202329277992,-0.22913220524787903,-0.5005671977996826
1775722364813699300,4.87669921875,0.005024057812988758,-0.24570277333259583,-0.5130671262741089
1775722364823712300,4.886712158203125,0.059797558933496475,-0.2653273642063141,-0.5316874384880066
1775722364833726500,4.8967265625,0.12405730038881302,-0.25847920775413513,-0.5479974746704102
1775722364843739400,4.906739501953125,0.1753191500902176,-0.23961976170539856,-0.55951988697052
1775722364853752300,4.91675244140625,0.21447038650512695,-0.19764651358127594,-0.5639152526855469
1775722364863765200,4.92676513671875,0.2406519204378128,-0.12241540849208832,-0.5718957185745239
1775722364873779200,4.936779296875,0.24281267821788788,-0.03665320947766304,-0.5790535807609558
1775722364883792400,4.94679248046875,0.2168005108833313,0.06088187173008919,-0.5764266848564148
1775722364893805300,4.956805419921875,0.1919831782579422,0.11337185651063919,-0.5646620988845825
1775722364903818500,4.966818603515625,0.1813928484916687,0.15344762802124023,-0.5584470629692078
1775722364913831200,4.9768310546875,0.17065151035785675,0.15927894413471222,-0.552099883556366
1775722364923845400,4.986845458984375,0.15176808834075928,0.13691718876361847,-0.5451237559318542
1775722364933858300,4.9968583984375,0.12376263737678528,0.14927801489830017,-0.5286710858345032
1775722364943871200,5.006871337890625,0.09435387700796127,0.1758451759815216,-0.5026599764823914
1775722364953884400,5.016884521484375,0.07049889117479324,0.15129508078098297,-0.4834817945957184
1775722364963898400,5.0268984375,0.05134649574756622,0.1218586340546608,-0.4668676555156708
1775722364973911300,5.036911376953125,0.022201044484972954,0.0910855233669281,-0.42580267786979675
1775722364983924500,5.046924560546875,-0.01614847406744957,0.030984636396169662,-0.35195428133010864
1775722364993937200,5.056937255859375,-0.04695442318916321,-0.026633620262145996,-0.26805582642555237
1775722365003950300,5.066950439453125,-0.07088106125593185,-0.07965342700481415,-0.20647718012332916
1775722365013964300,5.07696435546875,-0.08200591802597046,-0.09842942655086517,-0.1744059920310974
1775722365023977200,5.086977294921875,-0.07088722288608551,-0.14455857872962952,-0.16962428390979767
1775722365033990400,5.096990478515625,-0.05587673932313919,-0.2369372844696045,-0.18194150924682617
1775722365044003300,5.10700341796875,-0.04894719272851944,-0.35896599292755127,-0.20273999869823456
1775722365054016300,5.117016357421875,-0.05623957887291908,-0.4770749807357788,-0.21348734200000763
1775722365064030500,5.127030517578125,-0.06012513116002083,-0.5573658347129822,-0.2173617035150528
1775722365074043400,5.13704345703125,-0.059321701526641846,-0.5868255496025085,-0.22151699662208557
1775722365084056300,5.147056396484375,-0.06399980932474136,-0.5625655055046082,-0.2527220547199249
1775722365094069200,5.1570693359375,-0.06920439749956131,-0.5055163502693176,-0.3147263526916504
1775722365104083200,5.167083251953125,-0.06403306871652603,-0.40493229031562805,-0.4031909704208374
1775722365114096400,5.177096435546875,-0.050537265837192535,-0.3101028800010681,-0.4921679198741913
1775722365124109300,5.187109375,-0.03412873297929764,-0.2317207306623459,-0.5563141703605652
1775722365134122500,5.19712255859375,-0.007355259265750647,-0.15659482777118683,-0.5787783265113831
1775722365144135200,5.20713525390625,0.024058856070041656,-0.06495625525712967,-0.5314033627510071
1775722365154149400,5.2171494140625,0.05212542787194252,0.017325157299637794,-0.421322226524353
1775722365164162300,5.227162353515625,0.07289302349090576,0.06502103805541992,-0.28445175290107727
1775722365174175200,5.23717529296875,0.07759237289428711,0.11497841030359268,-0.16826963424682617
1775722365184188400,5.2471884765625,0.05314348638057709,0.1471203714609146,-0.08835829794406891
1775722365194202400,5.257202392578125,0.004911651834845543,0.1572628617286682,-0.04463411495089531
1775722365204215300,5.26721533203125,-0.0398680716753006,0.15135329961776733,-0.029881801456212997
1775722365214228500,5.277228515625,-0.07225358486175537,0.12293992936611176,-0.028534909710288048
1775722365224241200,5.2872412109375,-0.08023641258478165,0.09353090822696686,-0.017993053421378136
1775722365234254300,5.29725439453125,-0.08014106750488281,0.07731838524341583,0.0038379430770874023
1775722365244268500,5.3072685546875,-0.09015055745840073,0.07914211601018906,0.028048474341630936
1775722365254281200,5.31728125,-0.11413385719060898,0.0742718055844307,0.037142835557460785
1775722365264294400,5.32729443359375,-0.15317927300930023,0.008311964571475983,0.03391668200492859
1775722365274307300,5.337307373046875,-0.19565781950950623,-0.016721511259675026,0.031340137124061584
1775722365284321300,5.3473212890625,-0.2346227914094925,0.001990125048905611,0.0313182957470417
1775722365294334500,5.35733447265625,-0.26920661330223083,0.024999581277370453,0.03692907094955444
1775722365304347400,5.367347412109375,-0.29614874720573425,0.0511518232524395,0.0475177988409996
1775722365314360300,5.3773603515625,-0.30696776509284973,0.09070590883493423,0.06070621684193611
1775722365324373200,5.387373291015625,-0.30456000566482544,0.11390870064496994,0.06986989080905914
1775722365334387500,5.397387451171875,-0.2950454652309418,0.10962152481079102,0.07376710325479507
1775722365344400600,5.407400634765625,-0.28671857714653015,0.10585394501686096,0.07051591575145721
1775722365354413800,5.417413818359375,-0.27389276027679443,0.09838873893022537,0.060372889041900635
1775722365364426500,5.427426513671875,-0.2619892358779907,0.09845399111509323,0.05101161450147629
1775722365374439700,5.437439697265625,-0.24670308828353882,0.09123481065034866,0.04084649309515953
1775722365384453600,5.44745361328125,-0.21653559803962708,0.07898906618356705,0.03140265867114067
1775722365394466600,5.457466552734375,-0.17004729807376862,0.07635579258203506,0.017462214455008507
1775722365404479700,5.467479736328125,-0.1184602752327919,0.052513036876916885,0.006573614664375782
1775722365414492700,5.47749267578125,-0.07375602424144745,0.012870894744992256,0.007388060912489891
1775722365424506600,5.487506591796875,-0.04298719763755798,-0.014133292250335217,0.0036591030657291412
1775722365434519600,5.49751953125,-0.029920855537056923,-0.027585411444306374,0.005788266658782959
1775722365444532700,5.50753271484375,-0.026924001052975655,-0.017714405432343483,0.014678963460028172
1775722365454545700,5.517545654296875,-0.026536161080002785,-0.005169301759451628,0.03349810093641281
1775722365464558600,5.52755859375,-0.022043142467737198,0.005595461465418339,0.0479942187666893
1775722365474572500,5.537572509765625,-0.009756527841091156,0.011984555050730705,0.0501994751393795
1775722365484585500,5.54758544921875,0.006332693621516228,0.022139454260468483,0.03462690860033035
1775722365494598700,5.5575986328125,0.016759386286139488,0.02792046219110489,0.020143650472164154
1775722365504611800,5.56761181640625,0.03495463356375694,0.026281820610165596,0.01850181072950363
1775722365514625500,5.57762548828125,0.05898294597864151,0.03767288103699684,0.021829767152667046
1775722365524638700,5.587638671875,0.08395194262266159,0.0402044802904129,0.021048927679657936
1775722365534651400,5.5976513671875,0.11269357055425644,0.057785339653491974,0.013171297498047352
1775722365544664600,5.60766455078125,0.13738001883029938,0.08428405225276947,0.001615575049072504
1775722365554677800,5.617677734375,0.1588958501815796,0.1062791645526886,-0.024405764415860176
1775722365564691500,5.62769140625,0.17791640758514404,0.13096585869789124,-0.0667140781879425
1775722365574704600,5.63770458984375,0.19715525209903717,0.17470085620880127,-0.11839263141155243
1775722365584717800,5.6477177734375,0.21803443133831024,0.20975790917873383,-0.15272583067417145
1775722365594730500,5.65773046875,0.2504536509513855,0.23453398048877716,-0.17076373100280762
1775722365604743700,5.66774365234375,0.2903672456741333,0.25341126322746277,-0.18030662834644318
1775722365614757600,5.677757568359375,0.3288358747959137,0.2725110650062561,-0.17917323112487793
1775722365624770600,5.6877705078125,0.35407546162605286,0.2924421727657318,-0.17115527391433716
1775722365634783700,5.69778369140625,0.3702133595943451,0.3093922436237335,-0.1545219123363495
1775722365644796700,5.707796630859375,0.3790489137172699,0.3075733184814453,-0.14469484984874725
1775722365654810600,5.717810546875,0.3856712281703949,0.29695767164230347,-0.1433657854795456
1775722365664823600,5.727823486328125,0.38662809133529663,0.27312132716178894,-0.14942793548107147
1775722365674836700,5.737836669921875,0.38493362069129944,0.240644633769989,-0.1544850766658783
1775722365684849700,5.747849609375,0.37777984142303467,0.1987467110157013,-0.14573925733566284
1775722365694862600,5.757862548828125,0.37293365597724915,0.14120899140834808,-0.1282515674829483
1775722365704876500,5.76787646484375,0.35883381962776184,0.08499950915575027,-0.11644017696380615
1775722365714889500,5.777889404296875,0.33428776264190674,0.031545642763376236,-0.11589692533016205
1775722365724902700,5.787902587890625,0.2922729551792145,-0.0022453435231000185,-0.12562119960784912
1775722365734915800,5.797915771484375,0.24322441220283508,-0.020307334139943123,-0.13737453520298004
1775722365744929500,5.807929443359375,0.20178084075450897,-0.050510507076978683,-0.13481071591377258
1775722365754942700,5.817942626953125,0.1751045137643814,-0.08892960101366043,-0.09897443652153015
1775722365764955600,5.82795556640625,0.15217283368110657,-0.1035466268658638,-0.03946850076317787
1775722365774968600,5.837968505859375,0.12703895568847656,-0.10351434350013733,0.014244550839066505
1775722365784981800,5.847981689453125,0.09358911961317062,-0.10107675194740295,0.050533317029476166
1775722365794995500,5.857995361328125,0.06102228909730911,-0.10344558209180832,0.0627078041434288
1775722365805008600,5.868008544921875,0.0327104851603508,-0.10958763211965561,0.061275023967027664
1775722365815021800,5.878021728515625,0.009433416649699211,-0.12312667071819305,0.06257542222738266
1775722365825034500,5.888034423828125,-0.005203849170356989,-0.1273760050535202,0.07970806956291199
1775722365835048700,5.898048583984375,-0.00740456860512495,-0.13078813254833221,0.11504840850830078
1775722365845061600,5.9080615234375,-0.002255080733448267,-0.13891662657260895,0.1580643206834793
1775722365855074600,5.918074462890625,-0.0018685846589505672,-0.1428287774324417,0.19159339368343353
1775722365865087700,5.928087646484375,-0.005675307009369135,-0.13916826248168945,0.2039579153060913
1775722365875100700,5.9381005859375,-0.01531072799116373,-0.13630397617816925,0.19828176498413086
1775722365885114600,5.948114501953125,-0.028985794633626938,-0.12603110074996948,0.18623201549053192
1775722365895127600,5.95812744140625,-0.03514460474252701,-0.11794472485780716,0.18464665114879608
1775722365905140700,5.968140625,-0.038320690393447876,-0.11780251562595367,0.20219050347805023
1775722365915153700,5.978153564453125,-0.040193263441324234,-0.1313244104385376,0.2448459267616272
1775722365925166600,5.98816650390625,-0.037615589797496796,-0.13869310915470123,0.2919122576713562
1775722365935180500,5.9981806640625,-0.0359046645462513,-0.12787140905857086,0.3318435251712799
1775722365945193500,6.008193359375,-0.04302489385008812,-0.10912115126848221,0.3482283651828766
1775722365955206700,6.01820654296875,-0.05399073287844658,-0.07940185070037842,0.34806838631629944
1775722365965219800,6.0282197265625,-0.05856231600046158,-0.041646748781204224,0.33537814021110535
1775722365975233500,6.038233642578125,-0.0583040677011013,-0.01025529857724905,0.32899460196495056
1775722365985246700,6.048246826171875,-0.05544756352901459,0.005235776305198669,0.3393292725086212
1775722365995259600,6.058259765625,-0.05905478820204735,0.03840989992022514,0.36875393986701965
1775722366005272600,6.0682724609375,-0.06937693059444427,0.0686303898692131,0.4040730595588684
1775722366015285800,6.07828564453125,-0.07427629083395004,0.0656120553612709,0.4354226887226105
1775722366025299500,6.088299560546875,-0.07001789659261703,0.0646064430475235,0.4503965675830841
1775722366035312600,6.098312744140625,-0.05995631217956543,0.06205437332391739,0.46148765087127686
1775722366045325600,6.10832568359375,-0.043621812015771866,0.05177216976881027,0.46770986914634705
1775722366055338500,6.11833837890625,-0.026303395628929138,0.04331593215465546,0.4656390845775604
1775722366065352700,6.128352783203125,-0.006911322008818388,0.03833422437310219,0.4569036662578583
1775722366075365600,6.13836572265625,0.009806870482861996,0.031767863780260086,0.4509095251560211
1775722366085378600,6.148378662109375,0.021861936897039413,0.022909391671419144,0.45096999406814575
1775722366095391700,6.158391845703125,0.033130571246147156,0.01845391094684601,0.4511249363422394
1775722366105404700,6.16840478515625,0.04704585671424866,0.02407025173306465,0.44173383712768555
1775722366115418600,6.178418701171875,0.05831577256321907,0.03604130819439888,0.4259328842163086
1775722366125431600,6.188431640625,0.06832153350114822,0.03144575655460358,0.41430363059043884
1775722366135444700,6.19844482421875,0.07288877665996552,0.0034111537970602512,0.4156357944011688
1775722366145457700,6.208457763671875,0.0768001601099968,-0.030749745666980743,0.43067970871925354
1775722366155470600,6.218470703125,0.07944626361131668,-0.06223756819963455,0.4550039768218994
1775722366165484500,6.228484619140625,0.07369090616703033,-0.09249240905046463,0.4833618700504303
1775722366175497500,6.23849755859375,0.05937866121530533,-0.1098557859659195,0.5034260153770447
1775722366185510700,6.2485107421875,0.05071992799639702,-0.11846578866243362,0.5020358562469482
1775722366195523800,6.25852392578125,0.047377027571201324,-0.14088398218154907,0.4863634705543518
1775722366205537500,6.26853759765625,0.040104467421770096,-0.17098727822303772,0.46877703070640564
1775722366215550700,6.27855078125,0.022119667381048203,-0.1976747214794159,0.44973140954971313
1775722366225563600,6.288563720703125,-0.008199889212846756,-0.2252962291240692,0.42666950821876526
1775722366235576600,6.29857666015625,-0.036390405148267746,-0.237977996468544,0.3859165906906128
1775722366245589800,6.30858984375,-0.05868558958172798,-0.25279608368873596,0.3373112380504608
1775722366255603500,6.318603515625,-0.07254687696695328,-0.24320878088474274,0.30269235372543335
1775722366265616600,6.32861669921875,-0.08645310997962952,-0.22123050689697266,0.2979431450366974
1775722366275629600,6.338629638671875,-0.10309771448373795,-0.18996970355510712,0.31362366676330566
1775722366285642500,6.348642578125,-0.12813648581504822,-0.15296615660190582,0.33148467540740967
1775722366295656700,6.35865673828125,-0.15283221006393433,-0.12650854885578156,0.3354935348033905
1775722366305669600,6.368669677734375,-0.16493788361549377,-0.10698650777339935,0.31912896037101746
1775722366315682600,6.3786826171875,-0.163568913936615,-0.08957881480455399,0.2916439473628998
1775722366325695700,6.38869580078125,-0.1409647911787033,-0.0752805694937706,0.2678358256816864
1775722366335708000,6.3987080078125,-0.11149480938911438,-0.09075506776571274,0.25623321533203125
1775722366345721900,6.408721923828125,-0.0897892490029335,-0.11780080199241638,0.2606591284275055
1775722366355734800,6.41873486328125,-0.08483726531267166,-0.14178206026554108,0.2731096148490906
1775722366365748000,6.428748046875,-0.08650440722703934,-0.1785363405942917,0.28299179673194885
1775722366375761000,6.438760986328125,-0.0831204280257225,-0.21119333803653717,0.287103533744812
1775722366385773800,6.44877392578125,-0.07171996682882309,-0.2506603002548218,0.2884766459465027
1775722366395788000,6.4587880859375,-0.04762378707528114,-0.2955489158630371,0.2862676680088043
1775722366405800700,6.46880078125,-0.02094636857509613,-0.3402330279350281,0.27933359146118164
1775722366415814000,6.47881396484375,0.0029311678372323513,-0.3747696578502655,0.2722792327404022
1775722366425826800,6.488826904296875,0.02435949444770813,-0.40566286444664,0.2577085494995117
1775722366435840800,6.4988408203125,0.04801680147647858,-0.42868298292160034,0.22980354726314545
1775722366445854000,6.50885400390625,0.07197432965040207,-0.44861167669296265,0.20013299584388733
1775722366455867000,6.518866943359375,0.08705292642116547,-0.4761888384819031,0.17510293424129486
1775722366465879800,6.5288798828125,0.09525492787361145,-0.4887504577636719,0.1593998670578003
1775722366475892700,6.538892822265625,0.08437024056911469,-0.46762144565582275,0.16158032417297363
1775722366485907000,6.548906982421875,0.05482592433691025,-0.42937737703323364,0.1792256236076355
1775722366495919900,6.558919921875,0.021475549787282944,-0.3954847753047943,0.19832998514175415
1775722366505932800,6.568932861328125,-0.0031230049207806587,-0.35247260332107544,0.2014370858669281
1775722366515946000,6.578946044921875,-0.01969013549387455,-0.293410986661911,0.17901550233364105
1775722366525960000,6.5889599609375,-0.03245227038860321,-0.23817384243011475,0.13835382461547852
1775722366535972900,6.598972900390625,-0.049228161573410034,-0.18454837799072266,0.09449197351932526
1775722366545986000,6.608986083984375,-0.06380577385425568,-0.12696070969104767,0.052240923047065735
1775722366555998700,6.618998779296875,-0.07568373531103134,-0.06647633761167526,0.0189236868172884
1775722366566012000,6.629011962890625,-0.08059060573577881,-0.017009183764457703,-0.0011528206523507833
1775722366576025900,6.63902587890625,-0.07612431794404984,0.02856311947107315,-0.008598696440458298
1775722366586038800,6.649038818359375,-0.07019452005624771,0.08239811658859253,-0.003561061341315508
1775722366596052000,6.659052001953125,-0.06505593657493591,0.1293184608221054,0.0004305188776925206
1775722366606065000,6.66906494140625,-0.06411664187908173,0.1546935886144638,0.003858273383229971
1775722366616077800,6.679077880859375,-0.06701653450727463,0.17829473316669464,0.001917339162901044
1775722366626092000,6.689092041015625,-0.06631319969892502,0.20840975642204285,-0.0006917598657310009
1775722366636104700,6.699104736328125,-0.05960852652788162,0.2519514262676239,0.0015917473938316107
1775722366646118000,6.709117919921875,-0.04224950820207596,0.28179505467414856,0.014139230363070965
1775722366656130800,6.719130859375,-0.019307583570480347,0.29027417302131653,0.042415738105773926
1775722366666144800,6.729144775390625,0.011212240904569626,0.29449743032455444,0.0841703787446022
1775722366676158000,6.739157958984375,0.04632759094238281,0.2846967875957489,0.12232713401317596
1775722366686171000,6.7491708984375,0.07675154507160187,0.2603483200073242,0.15056197345256805
1775722366696183800,6.759183837890625,0.09684760123491287,0.2421804517507553,0.173190176486969
1775722366706196700,6.76919677734375,0.10247725993394852,0.22490452229976654,0.190877303481102
1775722366716211000,6.7792109375,0.09635397046804428,0.21084053814411163,0.1972610503435135
1775722366726224000,6.789223876953125,0.07993558049201965,0.19073127210140228,0.20522841811180115
1775722366736236800,6.79923681640625,0.04969604313373566,0.1524743288755417,0.21638137102127075
1775722366746250000,6.80925,0.009270056150853634,0.11747001111507416,0.23075631260871887
1775722366756262700,6.8192626953125,-0.028786515817046165,0.10196508467197418,0.2492908537387848
1775722366766276900,6.82927685546875,-0.05846584588289261,0.08176741003990173,0.26579657196998596
1775722366776290000,6.8392900390625,-0.07393291592597961,0.03645387664437294,0.28225916624069214
1775722366786302700,6.849302734375,-0.08413282036781311,-0.009922942146658897,0.29348519444465637
1775722366796316000,6.85931591796875,-0.09440968185663223,-0.04796142503619194,0.29903969168663025
1775722366806329900,6.869329833984375,-0.11025282740592957,-0.07040468603372574,0.304065078496933
1775722366816342800,6.8793427734375,-0.13773788511753082,-0.07845623791217804,0.30582112073898315
1775722366826356000,6.88935595703125,-0.17941582202911377,-0.09433613717556,0.29715704917907715
1775722366836369000,6.899368896484375,-0.22254635393619537,-0.1044052466750145,0.2690986096858978
1775722366846381800,6.9093818359375,-0.24766609072685242,-0.08531943708658218,0.23177467286586761
1775722366856396000,6.91939599609375,-0.25109878182411194,-0.06397458165884018,0.2049567699432373
1775722366866408700,6.92940869140625,-0.23310112953186035,-0.050168752670288086,0.19433128833770752
1775722366876422000,6.939421875,-0.2070978879928589,-0.03239684924483299,0.19079497456550598
1775722366886434800,6.949434814453125,-0.17992591857910156,-0.029409313574433327,0.18425798416137695
1775722366896448800,6.95944873046875,-0.16416215896606445,-0.03654970973730087,0.16633149981498718
1775722366906462000,6.9694619140625,-0.1557106226682663,-0.04056815430521965,0.14286664128303528
1775722366916475000,6.979474853515625,-0.14526361227035522,-0.029612859711050987,0.12429351359605789
1775722366926487800,6.98948779296875,-0.12532931566238403,-0.01307862438261509,0.114580437541008
1775722366936500700,6.999500732421875,-0.09055081009864807,-0.00699601462110877,0.10795290023088455
1775722366946515000,7.009514892578125,-0.04831227660179138,-0.013374552130699158,0.09791837632656097
1775722366956527900,7.01952783203125,-0.009937764145433903,-0.010462538339197636,0.0815945416688919
1775722366966540800,7.029540771484375,0.020536787807941437,-0.0062531461007893085,0.05428276211023331
1775722366976554000,7.039553955078125,0.043847765773534775,-0.0063625224865973,0.02441614307463169
1775722366986566700,7.049566650390625,0.05926480516791344,-0.015538711100816727,-0.008976167999207973
1775722366996580900,7.059580810546875,0.06109635904431343,-0.02046053297817707,-0.036914143711328506
1775722367006594000,7.069593994140625,0.051986753940582275,-0.014914233237504959,-0.05322067812085152
1775722367016606700,7.079606689453125,0.03159027546644211,0.006737107876688242,-0.057147108018398285
1775722367026620000,7.089619873046875,0.007975227199494839,0.0204265546053648,-0.053185656666755676
1775722367036633900,7.0996337890625,-0.0133400559425354,0.045166414231061935,-0.048888515681028366
1775722367046646800,7.109646728515625,-0.023186562582850456,0.07206114381551743,-0.04181542620062828
1775722367056660000,7.119659912109375,-0.031421955674886703,0.0807899534702301,-0.03045669198036194
1775722367066673000,7.1296728515625,-0.0383637472987175,0.07616963237524033,-0.01975557953119278
1775722367076685800,7.139685791015625,-0.044542960822582245,0.05508023500442505,-0.012210152111947536
1775722367086700000,7.149699951171875,-0.05211725831031799,0.03065718151628971,-0.008416745811700821
1775722367096712700,7.159712646484375,-0.061815835535526276,-0.0017610392533242702,0.00019287923350930214
1775722367106726000,7.169725830078125,-0.07148443907499313,-0.024488188326358795,0.0033745577093213797
1775722367116738800,7.17973876953125,-0.07840163260698318,-0.0410778634250164,-0.006746898405253887
1775722367126752000,7.189751953125,-0.08421797305345535,-0.059803348034620285,-0.022766344249248505
1775722367136766000,7.199765869140625,-0.08620776236057281,-0.08468031883239746,-0.03946506232023239
1775722367146779000,7.20977880859375,-0.08313607424497604,-0.09496518224477768,-0.0526232086122036
1775722367156791800,7.219791748046875,-0.06800102442502975,-0.10910135507583618,-0.056688275188207626
1775722367166804700,7.2298046875,-0.046535149216651917,-0.1303829401731491,-0.0642646998167038
1775722367176819000,7.23981884765625,-0.030809160321950912,-0.15637998282909393,-0.07531950622797012
1775722367186832000,7.249831787109375,-0.02567698433995247,-0.16447386145591736,-0.0883287787437439
1775722367196844800,7.2598447265625,-0.03968914598226547,-0.14757229387760162,-0.10386386513710022
1775722367206858000,7.26985791015625,-0.06084289774298668,-0.14183691143989563,-0.12221517413854599
1775722367216871000,7.279870849609375,-0.07656843960285187,-0.1398213803768158,-0.14487534761428833
1775722367226884900,7.289884765625,-0.08430492132902145,-0.12547838687896729,-0.1736966073513031
1775722367236898000,7.29989794921875,-0.08192991465330124,-0.11728384345769882,-0.20448115468025208
1775722367246910700,7.30991064453125,-0.06744790822267532,-0.12165169417858124,-0.22802908718585968
1775722367256924000,7.319923828125,-0.04843079298734665,-0.10956127196550369,-0.24209138751029968
1775722367266936800,7.329936767578125,-0.034492067992687225,-0.08137304335832596,-0.24062612652778625
1775722367276950800,7.33995068359375,-0.02724548615515232,-0.05865239351987839,-0.234463170170784
1775722367286964000,7.3499638671875,-0.013680408708751202,-0.03573775663971901,-0.22381079196929932
1775722367296977000,7.359976806640625,0.018188554793596268,-0.017574669793248177,-0.21934226155281067
1775722367306989800,7.36998974609375,0.06716222316026688,-0.008279170840978622,-0.22461611032485962
1775722367317004000,7.380004150390625,0.11734750866889954,-0.010100677609443665,-0.2350260317325592
1775722367327016700,7.3900166015625,0.15716096758842468,-0.027854906395077705,-0.23932330310344696
1775722367337030000,7.40002978515625,0.18094989657402039,-0.026852166280150414,-0.23470057547092438
1775722367347042800,7.410042724609375,0.190351665019989,-0.02424040250480175,-0.21713675558567047
1775722367357056000,7.420055908203125,0.18739941716194153,-0.012967665679752827,-0.18583010137081146
1775722367367070000,7.430070068359375,0.19168630242347717,-0.0027286112308502197,-0.14323656260967255
1775722367377083000,7.440082763671875,0.20633691549301147,-0.01665434241294861,-0.0879826545715332
1775722367387095800,7.450095703125,0.23531876504421234,-0.03491856902837753,-0.029469013214111328
1775722367397108700,7.460108642578125,0.2602585554122925,-0.03338295966386795,0.018664631992578506
1775722367407123000,7.470123046875,0.26377633213996887,0.012300372123718262,0.05112669989466667
1775722367417135900,7.480135986328125,0.22862683236598969,0.06304856389760971,0.066134974360466
1775722367427148800,7.490148681640625,0.19502386450767517,0.046538833528757095,0.0740211233496666
1775722367437162000,7.500161865234375,0.14671295881271362,0.03406009078025818,0.07178281992673874
1775722367447175000,7.5101748046875,0.08936231583356857,0.009660743176937103,0.07038678973913193
1775722367457188900,7.52018896484375,0.03665511682629585,-0.02158733271062374,0.0673588216304779
1775722367467202000,7.5302021484375,0.005490806419402361,-0.09487032890319824,0.07264252752065659
1775722367477214700,7.540214599609375,-0.0002880454994738102,-0.1441175937652588,0.09415612369775772
1775722367487228000,7.550227783203125,0.0038824649527668953,-0.12822945415973663,0.11119209229946136
1775722367497240800,7.56024072265625,-0.005964781157672405,-0.13122062385082245,0.11190710961818695
1775722367507254800,7.5702548828125,-0.019413745030760765,-0.1335303783416748,0.09740114212036133
1775722367517268000,7.58026806640625,-0.040198665112257004,-0.13824811577796936,0.07254159450531006
1775722367527281000,7.590281005859375,-0.06995176523923874,-0.16267170011997223,0.03919215872883797
1775722367537293800,7.6002939453125,-0.11146287620067596,-0.18279170989990234,-0.000514880521222949
1775722367547306800,7.610306640625,-0.1686774343252182,-0.15973752737045288,-0.049228355288505554
1775722367557321000,7.620321044921875,-0.24284599721431732,-0.13737688958644867,-0.11228818446397781
1775722367567334000,7.630333984375,-0.3266570270061493,-0.1114259883761406,-0.18464840948581696
1775722367577346800,7.640346923828125,-0.4078163802623749,-0.08871936053037643,-0.2600645124912262
1775722367587360000,7.650360107421875,-0.4754635989665985,-0.03226460516452789,-0.3338162302970886
1775722367597374000,7.6603740234375,-0.5225517749786377,0.02113361284136772,-0.3890518248081207
1775722367607387000,7.670386962890625,-0.534714937210083,0.06757035851478577,-0.4237525463104248
1775722367617399800,7.68039990234375,-0.5137739777565002,0.10140709578990936,-0.4462868869304657
1775722367627412700,7.690412841796875,-0.4760066270828247,0.11705822497606277,-0.46796688437461853
1775722367637426000,7.700426025390625,-0.43933674693107605,0.10992760956287384,-0.4935356080532074
1775722367647440000,7.71043994140625,-0.41299009323120117,0.09658437967300415,-0.5270888209342957
1775722367657452800,7.720452880859375,-0.4006352126598358,0.0966644436120987,-0.5587790012359619
1775722367667466000,7.730466064453125,-0.3965909481048584,0.0983923003077507,-0.58732008934021
1775722367677479000,7.74047900390625,-0.3902154862880707,0.09536658972501755,-0.614231526851654
1775722367687491800,7.750491943359375,-0.3678167164325714,0.115748830139637,-0.6278738379478455
1775722367697506000,7.760506103515625,-0.32380619645118713,0.14119243621826172,-0.6228014826774597
1775722367707518700,7.770518798828125,-0.2688382863998413,0.13422401249408722,-0.6092728972434998
1775722367717532000,7.780531982421875,-0.22018460929393768,0.1293002814054489,-0.5950921177864075
1775722367727544800,7.790544921875,-0.20081064105033875,0.14651575684547424,-0.5787272453308105
1775722367737558800,7.800558837890625,-0.21192733943462372,0.17135149240493774,-0.5593042373657227
1775722367747572000,7.810572021484375,-0.2337607443332672,0.1846851408481598,-0.5423648953437805
1775722367757585000,7.8205849609375,-0.25679704546928406,0.19287069141864777,-0.5265324711799622
1775722367767597800,7.830597900390625,-0.2670968174934387,0.20773939788341522,-0.5178897380828857
1775722367777610800,7.84061083984375,-0.2678064703941345,0.23135077953338623,-0.5195585489273071
1775722367787625000,7.850625,-0.2592755854129791,0.26006099581718445,-0.5305089354515076
1775722367797638000,7.860637939453125,-0.24777089059352875,0.2844233512878418,-0.5360563397407532
1775722367807650800,7.87065087890625,-0.2386053502559662,0.30308598279953003,-0.525761604309082
1775722367817664000,7.8806640625,-0.23485006392002106,0.290810227394104,-0.5027510523796082
1775722367827676700,7.8906767578125,-0.22534523904323578,0.26769399642944336,-0.46676695346832275
1775722367837691000,7.90069091796875,-0.21424338221549988,0.23630987107753754,-0.42619311809539795
1775722367847703800,7.910703857421875,-0.19068852066993713,0.21530552208423615,-0.4009823203086853
1775722367857716700,7.920716796875,-0.14767998456954956,0.21134622395038605,-0.40020981431007385
1775722367867730000,7.93072998046875,-0.09803839027881622,0.19419492781162262,-0.42098939418792725
1775722367877743900,7.940743896484375,-0.06620264053344727,0.1689935326576233,-0.45914214849472046
1775722367887756800,7.9507568359375,-0.06488384306430817,0.1590527445077896,-0.4995814263820648
1775722367897770000,7.96077001953125,-0.07225565612316132,0.15941041707992554,-0.523330807685852
1775722367907783000,7.970782958984375,-0.07650633156299591,0.14102742075920105,-0.5114381909370422
1775722367917795800,7.9807958984375,-0.061928920447826385,0.1088208258152008,-0.4739156663417816
1775722367927810000,7.99081005859375,-0.026911545544862747,0.08794856071472168,-0.4317642152309418
1775722367937822700,8.00082275390625,0.0017428980208933353,0.05712331831455231,-0.40547633171081543
1775722367947836000,8.0108359375,0.016359923407435417,0.009972847998142242,-0.4099821448326111
1775722367957848800,8.020848876953124,0.019459906965494156,-0.04453452304005623,-0.4367901086807251
1775722367967862000,8.030862060546875,-0.0012405789457261562,-0.0782805010676384,-0.48041480779647827
1775722367977876000,8.0408759765625,-0.04798145219683647,-0.09943452477455139,-0.524222195148468
1775722367987889000,8.050888916015625,-0.09827178716659546,-0.12280003726482391,-0.5542927384376526
1775722367997901800,8.06090185546875,-0.12407892197370529,-0.14901340007781982,-0.565991222858429
1775722368007914800,8.070914794921874,-0.1164015606045723,-0.18152953684329987,-0.5449378490447998
1775722368017928000,8.080927978515625,-0.0883520320057869,-0.19351203739643097,-0.5007805824279785
1775722368027942000,8.09094189453125,-0.05692646652460098,-0.1953035444021225,-0.4413686692714691
1775722368037954800,8.100954833984375,-0.04029102623462677,-0.18253318965435028,-0.38296815752983093
1775722368047968000,8.110968017578125,-0.03482542186975479,-0.19474218785762787,-0.32586997747421265
1775722368057980700,8.120980712890624,-0.01628982089459896,-0.20680230855941772,-0.2653999626636505
1775722368067995000,8.130994873046875,0.028286170214414597,-0.19280019402503967,-0.2187379002571106
1775722368078008000,8.141008056640626,0.0867934376001358,-0.19192515313625336,-0.20253075659275055
1775722368088020700,8.151020751953125,0.1254739910364151,-0.20118975639343262,-0.19774958491325378
1775722368098034000,8.161033935546875,0.13653646409511566,-0.19035297632217407,-0.20650231838226318
1775722368108046800,8.171046875,0.1253836750984192,-0.17095211148262024,-0.22553406655788422
1775722368118060800,8.181060791015625,0.09973466396331787,-0.15763945877552032,-0.2636946439743042
1775722368128074000,8.191073974609376,0.06487575173377991,-0.1467583179473877,-0.3123077154159546
1775722368138087000,8.2010869140625,0.046386100351810455,-0.1629776805639267,-0.3510022759437561
1775722368148099800,8.211099853515625,0.04868414252996445,-0.1961766481399536,-0.37207505106925964
1775722368158112800,8.22111279296875,0.06990009546279907,-0.22317273914813995,-0.3646111786365509
1775722368168126700,8.231126708984375,0.08945781737565994,-0.23322297632694244,-0.32844436168670654
1775722368178140000,8.241139892578126,0.10186462104320526,-0.23434369266033173,-0.2651345729827881
1775722368188152800,8.25115283203125,0.10402311384677887,-0.245771586894989,-0.19831319153308868
1775722368198166000,8.261166015625,0.0951032042503357,-0.22856567800045013,-0.13637320697307587
1775722368208178700,8.2711787109375,0.08097992837429047,-0.2060193568468094,-0.07686538994312286
1775722368218193000,8.28119287109375,0.06536560505628586,-0.19035187363624573,-0.026822775602340698
1775722368228205800,8.291205810546876,0.058122873306274414,-0.16503587365150452,0.017893562093377113
1775722368238218800,8.30121875,0.059675320982933044,-0.1390487551689148,0.051736075431108475
1775722368248232000,8.31123193359375,0.06964592635631561,-0.12743951380252838,0.07984227687120438
1775722368258244900,8.321244873046876,0.08445803076028824,-0.1350983828306198,0.09839828312397003
1775722368268258800,8.3312587890625,0.0899561271071434,-0.14900700747966766,0.1090615764260292
1775722368278272000,8.34127197265625,0.07688412815332413,-0.157749742269516,0.10743957757949829
1775722368288284700,8.35128466796875,0.041186586022377014,-0.14594846963882446,0.08971091359853745
1775722368298297900,8.3612978515625,-0.010427342727780342,-0.13078361749649048,0.08217472583055496
1775722368308312000,8.37131201171875,-0.05782841518521309,-0.13155139982700348,0.08426397293806076
1775722368318324700,8.38132470703125,-0.07973233610391617,-0.12392877787351608,0.08968237787485123
1775722368328338000,8.391337890625,-0.08037815243005753,-0.10059922188520432,0.08141698688268661
1775722368338350600,8.4013505859375,-0.08362378925085068,-0.07163853198289871,0.058301351964473724
1775722368348363500,8.411363525390625,-0.09396617859601974,-0.04293978214263916,0.028621485456824303
1775722368358377500,8.42137744140625,-0.11144356429576874,-0.02687070332467556,0.0009753195336088538
1775722368368390700,8.431390625,-0.12646672129631042,-0.01754431426525116,-0.027969513088464737
1775722368378403300,8.4414033203125,-0.13692986965179443,0.006254855077713728,-0.05666230246424675
1775722368388416500,8.45141650390625,-0.1412537842988968,0.042049605399370193,-0.08044645935297012
1775722368398429400,8.461429443359375,-0.1435023695230484,0.05727275088429451,-0.08205145597457886
1775722368408443400,8.471443359375,-0.13446705043315887,0.06291678547859192,-0.060435645282268524
1775722368418456600,8.48145654296875,-0.12349657714366913,0.06220829114317894,-0.02523568831384182
1775722368428469500,8.491469482421875,-0.11328095942735672,0.0643039271235466,0.005607977509498596
1775722368438482400,8.501482421875,-0.10707692056894302,0.08411777019500732,0.01940321922302246
1775722368448495600,8.51149560546875,-0.1097525954246521,0.08258751779794693,0.02012094110250473
1775722368458509600,8.521509521484376,-0.1096186414361,0.07041872292757034,0.010466956533491611
1775722368468522500,8.5315224609375,-0.11214172095060349,0.06582503765821457,0.004306266084313393
1775722368478535400,8.541535400390625,-0.10893578082323074,0.06517250090837479,-0.011834376491606236
1775722368488548600,8.551548583984374,-0.1000293716788292,0.06744018197059631,-0.04047028347849846
1775722368498561500,8.5615615234375,-0.09036942571401596,0.06619717925786972,-0.0702056735754013
1775722368508575500,8.571575439453126,-0.07663071155548096,0.042389050126075745,-0.0868578851222992
1775722368518588400,8.58158837890625,-0.06334254890680313,0.013167884200811386,-0.0982690155506134
1775722368528601300,8.591601318359375,-0.05932570621371269,-0.008252985775470734,-0.10406432300806046
1775722368538614500,8.601614501953126,-0.06177316606044769,-0.018715430051088333,-0.1185402050614357
1775722368548628500,8.61162841796875,-0.06524673104286194,-0.020230235531926155,-0.12823623418807983
1775722368558641400,8.621641357421876,-0.058088190853595734,-0.010603848844766617,-0.1293794959783554
1775722368568654600,8.631654541015624,-0.036135222762823105,-0.00918278656899929,-0.12714722752571106
1775722368578667500,8.64166748046875,-0.0072880694642663,-0.007672682870179415,-0.1190403401851654
1775722368588680400,8.651680419921876,0.016012193635106087,-0.006541372276842594,-0.10723534971475601
1775722368598694700,8.661694580078125,0.026707269251346588,-0.012865588068962097,-0.0895526334643364
1775722368608707300,8.671707275390625,0.024705637246370316,-0.005144285038113594,-0.07261785864830017
1775722368618720500,8.681720458984374,0.013018820434808731,0.01334146037697792,-0.06128039211034775
1775722368628733400,8.6917333984375,0.000766681507229805,0.028167011216282845,-0.06306631118059158
1775722368638746600,8.70174658203125,-0.004966385662555695,0.038757842034101486,-0.06591156870126724
1775722368648760600,8.711760498046875,-0.0023964352440088987,0.049941521137952805,-0.060805752873420715
1775722368658773500,8.7217734375,0.0012946643400937319,0.06678640842437744,-0.04329729080200195
1775722368668786400,8.731786376953124,-0.00040443241596221924,0.08275339007377625,-0.020192239433526993
1775722368678799600,8.741799560546875,-0.011244086548686028,0.08045284450054169,-0.004712067544460297
1775722368688812500,8.7518125,-0.026870716363191605,0.07310864329338074,-0.004426310770213604
1775722368698826500,8.761826416015625,-0.03674115240573883,0.06434459984302521,-0.006415709853172302
1775722368708839400,8.77183935546875,-0.0331413596868515,0.051756903529167175,-0.00541010033339262
1775722368718852600,8.7818525390625,-0.025954369455575943,0.037673305720090866,0.0030101314187049866
1775722368728865500,8.791865478515625,-0.011118965223431587,0.022488759830594063,0.02053293213248253
1775722368738878500,8.80187841796875,-0.0029050391167402267,0.013158030807971954,0.04670920968055725
1775722368748892700,8.811892578125,-0.00831578392535448,0.015213191509246826,0.06580514460802078
1775722368758905300,8.8219052734375,-0.011626338586211205,0.019383372738957405,0.07667934149503708
1775722368768918500,8.83191845703125,-0.014478850178420544,0.0210861973464489,0.07745777815580368
1775722368778931700,8.841931640625,-0.011153319850564003,0.025099189952015877,0.07668381929397583
1775722368788944400,8.8519443359375,0.0010460882913321257,0.03139463812112808,0.07424063980579376
1775722368798958600,8.86195849609375,0.023632708936929703,0.031418077647686005,0.07366368174552917
1775722368808971500,8.871971435546875,0.04623708501458168,0.02225680463016033,0.06608618795871735
1775722368818984400,8.881984375,0.06578489392995834,0.0056181056424975395,0.06175331771373749
1775722368828997600,8.89199755859375,0.09166496247053146,-0.004035853315144777,0.06049497425556183
1775722368839011300,8.90201123046875,0.1130373626947403,-0.00981544516980648,0.05971653386950493
1775722368849024500,8.9120244140625,0.1268540918827057,-0.01979164592921734,0.05202958360314369
1775722368859037400,8.922037353515625,0.13093113899230957,-0.034406810998916626,0.03521731495857239
1775722368869050600,8.932050537109374,0.12120900303125381,-0.04449433088302612,0.020580047741532326
1775722368879063600,8.9420634765625,0.10078483074903488,-0.04597282037138939,0.01531295757740736
1775722368889077500,8.952077392578126,0.08250302821397781,-0.029765356332063675,0.01979905180633068
1775722368899090400,8.96209033203125,0.0667734146118164,-0.014095020480453968,0.02582572028040886
1775722368909103400,8.972103271484375,0.04899175465106964,-0.004945996683090925,0.030386118218302727
1775722368919116500,8.982116455078126,0.025693543255329132,0.007761513348668814,0.03218221664428711
1775722368929129700,8.992129638671875,0.0015818155370652676,0.010718420147895813,0.025190088897943497
1775722368939143400,9.002143310546876,-0.019546804949641228,0.00746054295450449,0.017426088452339172
1775722368949156600,9.012156494140624,-0.041245441883802414,0.0035366415977478027,0.013779155910015106
1775722368959169500,9.02216943359375,-0.05588465556502342,-0.007105100434273481,0.018265340477228165
1775722368969182500,9.032182373046876,-0.05843223258852959,-0.026354163885116577,0.03315507620573044
1775722368979195600,9.042195556640625,-0.06112208962440491,-0.049299515783786774,0.06087595969438553
1775722368989209300,9.052209228515625,-0.05264578014612198,-0.07165516167879105,0.08638665080070496
1775722368999222500,9.062222412109374,-0.03341599553823471,-0.10002949833869934,0.11042391508817673
1775722369009235700,9.072235595703125,-0.008232343941926956,-0.12576813995838165,0.1305779218673706
1775722369019248400,9.082248291015626,0.02099635824561119,-0.14484989643096924,0.15335385501384735
1775722369029261600,9.092261474609375,0.05560919642448425,-0.17246447503566742,0.1851288229227066
1775722369039275500,9.102275634765626,0.08362102508544922,-0.18207257986068726,0.2187926024198532
1775722369049288400,9.112288330078124,0.09981703758239746,-0.1917952597141266,0.2545734941959381
1775722369059301600,9.122301513671875,0.1027790829539299,-0.20689962804317474,0.2880314886569977
1775722369069314600,9.132314453125,0.0988842099905014,-0.21238334476947784,0.31531664729118347
1775722369079327500,9.142327392578125,0.08805428445339203,-0.21770618855953217,0.33583036065101624
1775722369089341400,9.152341552734375,0.06715219467878342,-0.2149604707956314,0.34471678733825684
1775722369099354600,9.162354736328124,0.037179600447416306,-0.2072235494852066,0.3441503643989563
1775722369109367600,9.172367431640625,0.006580675020813942,-0.1957107037305832,0.3397156596183777
1775722369119380500,9.18238037109375,-0.019879331812262535,-0.1758752316236496,0.33428195118904114
1775722369129393700,9.1923935546875,-0.03781518712639809,-0.15547622740268707,0.3282237946987152
1775722369139407400,9.202407470703125,-0.05347749963402748,-0.1505264937877655,0.3325793743133545
1775722369149420500,9.212420654296874,-0.06643937528133392,-0.15323306620121002,0.34057843685150146
1775722369159433700,9.222433837890625,-0.07967471331357956,-0.1456357091665268,0.3540899455547333
1775722369169446400,9.2324462890625,-0.09445419162511826,-0.13653568923473358,0.3614621162414551
1775722369179459600,9.24245947265625,-0.10796990245580673,-0.12315331399440765,0.36071664094924927
1775722369189473500,9.2524736328125,-0.1223594918847084,-0.11541896313428879,0.3568023443222046
1775722369199486500,9.262486572265624,-0.13370075821876526,-0.09630058705806732,0.3542933166027069
1775722369209499600,9.272499755859375,-0.13771015405654907,-0.07479662448167801,0.35788512229919434
1775722369219512600,9.2825126953125,-0.13743717968463898,-0.05875561758875847,0.37187573313713074
1775722369229525500,9.292525390625,-0.139434814453125,-0.036288391798734665,0.3921887278556824
1775722369239539700,9.302539794921875,-0.1422031968832016,-0.018406549468636513,0.4150034785270691
1775722369249552400,9.312552490234374,-0.13874082267284393,0.0041970303282141685,0.43866169452667236
1775722369259565600,9.322565673828125,-0.12774911522865295,0.011125942692160606,0.4609217345714569
1775722369269578500,9.33257861328125,-0.11262449622154236,0.012637287378311157,0.48468777537345886
1775722369279592400,9.342592529296875,-0.09580117464065552,0.019338490441441536,0.5090457201004028
1775722369289605600,9.352605712890625,-0.08224568516016006,0.03297440707683563,0.5248520970344543
1775722369299618600,9.36261865234375,-0.07648461312055588,0.051255837082862854,0.5275880694389343
1775722369309631500,9.372631591796875,-0.08061490952968597,0.07828931510448456,0.5163474082946777
1775722369319644400,9.38264453125,-0.08940815925598145,0.10301577299833298,0.4986395835876465
1775722369329658600,9.39265869140625,-0.09182577580213547,0.13217659294605255,0.47635266184806824
1775722369339671600,9.402671630859375,-0.0786481648683548,0.1391122043132782,0.46028071641921997
1775722369349684700,9.412684814453126,-0.05530902370810509,0.13685357570648193,0.455529123544693
1775722369359698000,9.422697998046875,-0.02688823826611042,0.1358075588941574,0.45051535964012146
1775722369369710600,9.432710693359375,-0.002593817189335823,0.12467101216316223,0.44110241532325745
1775722369379724800,9.442724853515625,0.02223612368106842,0.11062216013669968,0.4210118353366852
1775722369389737700,9.45273779296875,0.05471204221248627,0.1155514046549797,0.39860770106315613
1775722369399750700,9.462750732421876,0.09393376857042313,0.12135755270719528,0.37466907501220703
1775722369409763800,9.472763916015625,0.1462411880493164,0.11899053305387497,0.3381930887699127
1775722369419776800,9.48277685546875,0.197628453373909,0.11428213119506836,0.30276215076446533
1775722369429790700,9.492790771484374,0.25035586953163147,0.0739126056432724,0.2726212739944458
1775722369439803600,9.5028037109375,0.29532185196876526,0.01782814972102642,0.2551630735397339
1775722369449816600,9.512816650390626,0.32783398032188416,-0.024568840861320496,0.2510317265987396
1775722369459829800,9.522829833984375,0.3461003303527832,-0.06442995369434357,0.2637938857078552
1775722369469842700,9.5328427734375,0.367669016122818,-0.07212569564580917,0.2887575626373291
1775722369479856600,9.542856689453124,0.3959197998046875,-0.07804606854915619,0.3103129267692566
1775722369489869800,9.552869873046875,0.4292870759963989,-0.10442148149013519,0.31178298592567444
1775722369499882800,9.5628828125,0.4507281482219696,-0.13398057222366333,0.28308185935020447
1775722369509895700,9.572895751953125,0.45064401626586914,-0.14250695705413818,0.23246848583221436
1775722369519908600,9.58290869140625,0.4262622892856598,-0.13102731108665466,0.17127512395381927
1775722369529922800,9.5929228515625,0.384363055229187,-0.10885410010814667,0.11038941144943237
1775722369539935700,9.602935791015625,0.3393779993057251,-0.0867304801940918,0.05416952446103096
1775722369549948700,9.61294873046875,0.2997986376285553,-0.07621338963508606,0.023019326850771904
1775722369559961900,9.6229619140625,0.2679246664047241,-0.0851200520992279,0.026458708569407463
1775722369569974800,9.632974853515625,0.24768942594528198,-0.09745342284440994,0.0642167404294014
1775722369579988700,9.64298876953125,0.2362682968378067,-0.08380229026079178,0.11731638014316559
1775722369590002000,9.653001953125,0.22567477822303772,-0.06543473154306412,0.16344818472862244
1775722369600014600,9.6630146484375,0.21519885957241058,-0.0409993901848793,0.18975606560707092
1775722369610027800,9.67302783203125,0.20360052585601807,0.002251146361231804,0.18339750170707703
1775722369620040700,9.683040771484375,0.19915041327476501,0.0609162263572216,0.14476986229419708
1775722369630054700,9.6930546875,0.21155701577663422,0.11412564665079117,0.08664529770612717
1775722369640067800,9.70306787109375,0.243402361869812,0.14133422076702118,0.028301307931542397
1775722369650080800,9.713080810546876,0.273373544216156,0.13232289254665375,0.00037513457937166095
1775722369660093700,9.72309375,0.2886325716972351,0.13111916184425354,-0.012732349336147308
1775722369670106600,9.733106689453125,0.26427584886550903,0.13004857301712036,-0.010063596069812775
1775722369680120800,9.743120849609374,0.2307421863079071,0.16484279930591583,-0.0030193079728633165
1775722369690133800,9.7531337890625,0.1905020922422409,0.1744765192270279,0.008594204671680927
1775722369700146700,9.763146728515625,0.14085446298122406,0.17190364003181458,0.021848110482096672
1775722369710160000,9.773159912109374,0.07930641621351242,0.17930695414543152,0.04283434897661209
1775722369720172500,9.783172607421875,0.026639681309461594,0.1968318372964859,0.06691315025091171
1775722369730186800,9.793186767578124,-0.012753532268106937,0.23513688147068024,0.08817289769649506
1775722369740199700,9.80319970703125,-0.04550459608435631,0.2633571922779083,0.10021069645881653
1775722369750212600,9.813212646484375,-0.07854989171028137,0.27644822001457214,0.09278526902198792
1775722369760225800,9.823225830078124,-0.11120682209730148,0.2918040156364441,0.07662882655858994
1775722369770238700,9.83323876953125,-0.138298898935318,0.3238937556743622,0.05287795513868332
1775722369780252700,9.843252685546876,-0.15099190175533295,0.36221352219581604,0.024839797988533974
1775722369790265900,9.853265869140625,-0.1442868560552597,0.39107099175453186,-0.011514214798808098
1775722369800278800,9.86327880859375,-0.13572129607200623,0.38357436656951904,-0.04395664855837822
1775722369810291700,9.873291748046874,-0.1394190937280655,0.3778434991836548,-0.06519322842359543
1775722369820304600,9.8833046875,-0.12282124161720276,0.36631399393081665,-0.06647229194641113
1775722369830318600,9.893318603515626,-0.07980426400899887,0.33268463611602783,-0.06285625696182251
1775722369840331800,9.903331787109375,-0.04093115031719208,0.2891605496406555,-0.06037232279777527
1775722369850344700,9.9133447265625,-0.0031882980838418007,0.2517434060573578,-0.06688161939382553
1775722369860358000,9.92335791015625,0.03206761181354523,0.20247705280780792,-0.07517674565315247
1775722369870370600,9.93337060546875,0.0383974127471447,0.13226068019866943,-0.06574276089668274
1775722369880384800,9.943384765625,0.019334958866238594,0.06867019832134247,-0.033920347690582275
1775722369890397700,9.953397705078125,-0.00031171273440122604,0.016601139679551125,0.01715056039392948
1775722369900410600,9.96341064453125,0.0022846630308777094,-0.026669543236494064,0.06887390464544296
1775722369910423800,9.973423828125,0.026305044069886208,-0.07053419947624207,0.11418145895004272
1775722369920436700,9.983436767578125,0.04453630745410919,-0.11782119423151016,0.15577973425388336
1775722369930450700,9.99345068359375,0.062060438096523285,-0.12867091596126556,0.1979905664920807
1775722369940463900,10.0034638671875,0.09040848165750504,-0.11483106762170792,0.23411151766777039
1775722369950476500,10.0134765625,0.12406257539987564,-0.11375568062067032,0.25895750522613525
1775722369960489700,10.02348974609375,0.1506568193435669,-0.12932561337947845,0.2727963924407959
1775722369970502700,10.033502685546875,0.16200615465641022,-0.13505300879478455,0.277308851480484
1775722369980516600,10.0435166015625,0.1510869413614273,-0.1148308664560318,0.27836430072784424
1775722369990529800,10.05352978515625,0.1367412805557251,-0.08084440231323242,0.2736116349697113
1775722370000542700,10.063542724609375,0.12957631051540375,-0.048758599907159805,0.2594939172267914
1775722370010555600,10.0735556640625,0.126942977309227,-0.01265625562518835,0.2533492147922516
1775722370020568600,10.083568603515625,0.12137112021446228,0.010570175014436245,0.2506069242954254
1775722370030582800,10.093582763671876,0.11047186702489853,0.01228498388081789,0.25472816824913025
1775722370040595700,10.103595703125,0.08673571050167084,0.0160308126360178,0.2510327100753784
1775722370050608600,10.113608642578125,0.05852005258202553,0.0179006177932024,0.23964104056358337
1775722370060621800,10.123621826171876,0.02708510495722294,0.03198332339525223,0.21762526035308838
1775722370070634500,10.133634521484375,0.0029696484562009573,0.05123371630907059,0.1900905817747116
1775722370080648700,10.143648681640625,-0.013107651844620705,0.04357226565480232,0.16504471004009247
1775722370090662000,10.153661865234374,-0.019924012944102287,0.023987380787730217,0.1466161608695984
1775722370100674600,10.163674560546875,-0.013331192545592785,0.007821759209036827,0.13407781720161438
1775722370110687700,10.173687744140626,-0.007183019071817398,-0.006500188261270523,0.12590058147907257
1775722370120701000,10.183700927734375,-0.016275234520435333,-0.01822606846690178,0.11490537971258163
1775722370130714600,10.193714599609375,-0.02774227224290371,-0.008527103811502457,0.0960691049695015
1775722370140727800,10.203727783203124,-0.03461931645870209,0.01430699322372675,0.06940658390522003
1775722370150740700,10.21374072265625,-0.03524542227387428,0.02781241573393345,0.05119774490594864
1775722370160753700,10.223753662109376,-0.025746645405888557,0.013254010118544102,0.03655428811907768
1775722370170766800,10.233766845703125,-0.013833260163664818,-0.009509359486401081,0.026719234883785248
1775722370180780500,10.243780517578125,-0.005508954171091318,-0.031141364946961403,0.01717834733426571
1775722370190793700,10.253793701171874,-0.010941269807517529,-0.05019361898303032,0.009236800484359264
1775722370200806700,10.263806640625,-0.018867742270231247,-0.05595983564853668,-0.007460550405085087
1775722370210819800,10.27381982421875,-0.021675512194633484,-0.0469713993370533,-0.03314913809299469
1775722370220832800,10.283832763671874,-0.021058762446045876,-0.03442593663930893,-0.060314953327178955
1775722370230846700,10.2938466796875,-0.017442191019654274,-0.0450945608317852,-0.07936801016330719
1775722370240859600,10.303859619140624,-0.016167867928743362,-0.05503401160240173,-0.07820207625627518
1775722370250872600,10.31387255859375,-0.011664995923638344,-0.05760795623064041,-0.06532196700572968
1775722370260885800,10.3238857421875,-0.004035818390548229,-0.0702633410692215,-0.049308642745018005
1775722370270899000,10.33389892578125,-0.005408411845564842,-0.07882940024137497,-0.0390368327498436
1775722370280912600,10.34391259765625,-0.01185772567987442,-0.06617745757102966,-0.032619498670101166
1775722370290925800,10.35392578125,-0.015259115025401115,-0.04005877301096916,-0.036051783710718155
1775722370300938500,10.3639384765625,-0.018033023923635483,-0.01953761838376522,-0.04624636098742485
1775722370310951700,10.37395166015625,-0.015696100890636444,-0.011943346820771694,-0.05839064344763756
1775722370320964900,10.38396484375,-0.012359648942947388,-0.0068099889904260635,-0.06549444794654846
1775722370330978600,10.393978515625,-0.010076520964503288,0.003418946173042059,-0.06712830066680908
1775722370340992500,10.403992431640624,-0.0056715114042162895,0.016815299168229103,-0.05648162588477135
1775722370351005400,10.41400537109375,-0.001821113284677267,0.029589416459202766,-0.04066883772611618
1775722370361018400,10.424018310546876,-0.0052778758108615875,0.025398073717951775,-0.027627360075712204
1775722370371031300,10.43403125,-0.006865386385470629,0.013004520907998085,-0.017768604680895805
1775722370381045200,10.444045166015625,-0.0008331214776262641,0.009113031439483166,-0.013258207589387894
1775722370391058400,10.454058349609374,0.00013946485705673695,0.009825958870351315,-0.013557547703385353
1775722370401071400,10.4640712890625,-0.007729171775281429,0.01580945774912834,-0.012875734828412533
1775722370411084300,10.474084228515625,-0.01937038078904152,0.02500641718506813,-0.010771570727229118
1775722370421097200,10.48409716796875,-0.03782070055603981,0.04530937224626541,-0.003482033032923937
1775722370431111400,10.494111328125,-0.04968960955739021,0.0617850199341774,0.0017486815340816975
1775722370441124400,10.504124267578124,-0.0466645248234272,0.058381497859954834,0.006150087807327509
1775722370451137300,10.51413720703125,-0.034589484333992004,0.04305447265505791,0.011898521333932877
1775722370461150500,10.524150390625,-0.01782611757516861,0.030379390344023705,0.015451089479029179
1775722370471163400,10.534163330078124,-0.005082358606159687,0.016624165698885918,0.01644924283027649
1775722370481177300,10.54417724609375,-0.002843315713107586,0.011488948948681355,0.008954707533121109
1775722370491190500,10.5541904296875,-0.009836777113378048,0.00839275773614645,-0.005578695796430111
1775722370501203200,10.564203125,-0.012119311839342117,0.006236754357814789,-0.02556682750582695
1775722370511216400,10.57421630859375,-0.011994941160082817,0.00700028333812952,-0.049255114048719406
1775722370521229300,10.584229248046874,-0.005225186236202717,0.004475087393075228,-0.07085705548524857
1775722370531243300,10.5942431640625,0.0013046178501099348,0.0037168851122260094,-0.08404289931058884
1775722370541256400,10.60425634765625,0.0015079604927450418,0.00822517927736044,-0.09646590054035187
1775722370551269400,10.614269287109375,0.0006240576039999723,0.014049511402845383,-0.1055227741599083
1775722370561282300,10.6242822265625,0.0007755921687930822,0.020362788811326027,-0.11893820762634277
1775722370571295500,10.63429541015625,0.005934401415288448,0.024077631533145905,-0.12827737629413605
1775722370581309400,10.644309326171875,0.013330982998013496,0.025824395939707756,-0.13309359550476074
1775722370591322400,10.654322265625,0.027756527066230774,0.03516410291194916,-0.14055711030960083
1775722370601335300,10.664335205078125,0.038069989532232285,0.046970367431640625,-0.14692619442939758
1775722370611348500,10.674348388671875,0.0402710922062397,0.06165849789977074,-0.15097260475158691
1775722370621361400,10.684361328125,0.03713376075029373,0.07674383372068405,-0.15392161905765533
1775722370631374300,10.694374267578125,0.034414142370224,0.09261547029018402,-0.15546812117099762
1775722370641388500,10.704388427734376,0.034323800355196,0.1097022220492363,-0.15226882696151733
1775722370651401200,10.714401123046875,0.030030783265829086,0.128413587808609,-0.13972081243991852
1775722370661414400,10.724414306640625,0.02410896122455597,0.14882038533687592,-0.12251625210046768
1775722370671427600,10.734427490234374,0.017343467101454735,0.15930470824241638,-0.10262670367956161
1775722370681440300,10.744440185546875,0.017028063535690308,0.16229143738746643,-0.09108658134937286
1775722370691454500,10.754454345703126,0.021100036799907684,0.16615089774131775,-0.09241096675395966
1775722370701467400,10.76446728515625,0.017842130735516548,0.1705130636692047,-0.10048110038042068
1775722370711480300,10.774480224609375,0.006286942400038242,0.1718992292881012,-0.11011242866516113
1775722370721493500,10.784493408203126,-0.005366784520447254,0.15702494978904724,-0.11356707662343979
1775722370731506400,10.79450634765625,-0.018900969997048378,0.1386462152004242,-0.10863330215215683
1775722370741520400,10.804520263671876,-0.029671508818864822,0.14886237680912018,-0.09704997390508652
1775722370751533300,10.814533203125,-0.028594259172677994,0.15886759757995605,-0.0823647752404213
1775722370761546500,10.82454638671875,-0.018470970913767815,0.14020393788814545,-0.062129613012075424
1775722370771559400,10.834559326171876,0.0240410678088665,0.08969229459762573,-0.04601109400391579
1775722370781572400,10.844572265625,0.0608123354613781,0.058601658791303635,-0.03659810498356819
1775722370791586300,10.85458642578125,0.06851207464933395,0.034292858093976974,-0.02853219211101532
1775722370801599500,10.864599609375,0.0454910472035408,0.016343528404831886,-0.01351502537727356
1775722370811612400,10.8746123046875,-0.0045313709415495396,0.0202740877866745,0.00008227606303989887
1775722370821625300,10.884625244140626,-0.06663098186254501,0.032631486654281616,0.01496990118175745
1775722370831638300,10.89463818359375,-0.13331200182437897,0.0425107479095459,0.034994207322597504
1775722370841652500,10.904652587890626,-0.19425436854362488,0.07362180948257446,0.05827867239713669
1775722370851665400,10.91466552734375,-0.24388663470745087,0.11676741391420364,0.07322992384433746
1775722370861678300,10.92467822265625,-0.271605521440506,0.15251818299293518,0.08439221233129501
1775722370871691500,10.93469140625,-0.2780197560787201,0.14453242719173431,0.09367199242115021
1775722370881704400,10.944704345703125,-0.26789727807044983,0.1101250872015953,0.11230983585119247
1775722370891718400,10.954718505859375,-0.25157129764556885,0.07084159553050995,0.1345754712820053
1775722370901731600,10.964731689453124,-0.23032326996326447,0.025329692289233208,0.15715450048446655
1775722370911744300,10.974744140625,-0.2118169665336609,-0.029123429208993912,0.1856423318386078
1775722370921757400,10.98475732421875,-0.19415563344955444,-0.08195585757493973,0.2163323014974594
1775722370931770400,10.994770263671874,-0.16976986825466156,-0.12471663951873779,0.23845970630645752
1775722370941784300,11.004784423828125,-0.15054555237293243,-0.1429511159658432,0.24769070744514465
1775722370951797500,11.014797607421874,-0.13921061158180237,-0.14331384003162384,0.24402567744255066
1775722370961810400,11.024810546875,-0.1345854252576828,-0.15063931047916412,0.2273329347372055
1775722370971823400,11.0348232421875,-0.13086898624897003,-0.1640310138463974,0.20284117758274078
1775722370981836300,11.044836181640624,-0.13283155858516693,-0.1701328605413437,0.17424210906028748
1775722370991849500,11.054849365234375,-0.13390587270259857,-0.17418459057807922,0.1397472470998764
1775722371001863400,11.064863525390624,-0.13688796758651733,-0.17736664414405823,0.10396409034729004
1775722371011876400,11.07487646484375,-0.14158818125724792,-0.18559235334396362,0.07507731765508652
1775722371021889500,11.0848896484375,-0.1415017545223236,-0.1991569846868515,0.0574159175157547
1775722371031902200,11.094902099609374,-0.12975960969924927,-0.2036244422197342,0.03312283009290695
1775722371041915400,11.104915283203125,-0.10825502127408981,-0.20926426351070404,0.0013820986496284604
1775722371051929600,11.1149296875,-0.08795773983001709,-0.20953084528446198,-0.03324352204799652
1775722371061942300,11.1249423828125,-0.07556414604187012,-0.20455195009708405,-0.06668969243764877
1775722371071955500,11.13495556640625,-0.06446409225463867,-0.18094754219055176,-0.10455957800149918
1775722371081968400,11.144968505859374,-0.05576026439666748,-0.14481854438781738,-0.14765731990337372
1775722371091981300,11.154981201171875,-0.05731022357940674,-0.11304756253957748,-0.19048255681991577
1775722371101995500,11.16499560546875,-0.0629100576043129,-0.09372126311063766,-0.2357104867696762
1775722371112008400,11.175008544921875,-0.07486498355865479,-0.08331629633903503,-0.27839961647987366
1775722371122021400,11.185021484375,-0.0901092067360878,-0.07089471817016602,-0.3196184039115906
1775722371132034300,11.195034423828124,-0.10873056203126907,-0.056637220084667206,-0.34841516613960266
1775722371142047500,11.205047607421875,-0.11517579853534698,-0.0446787066757679,-0.35690543055534363
1775722371152061400,11.2150615234375,-0.1074153482913971,-0.015789799392223358,-0.35370591282844543
1775722371162074400,11.225074462890625,-0.10163921862840652,0.022689921781420708,-0.34254732728004456
1775722371172087600,11.235087646484375,-0.09441965818405151,0.057703301310539246,-0.328247994184494
1775722371182100200,11.245100341796874,-0.09294610470533371,0.09663812071084976,-0.31386110186576843
1775722371192113400,11.255113525390625,-0.09475519508123398,0.13101527094841003,-0.2969937026500702
1775722371202127400,11.26512744140625,-0.09116259217262268,0.14124953746795654,-0.27932119369506836
1775722371212140300,11.275140380859375,-0.08656757324934006,0.14408686757087708,-0.2555413246154785
1775722371222153500,11.285153564453125,-0.08331441879272461,0.16526482999324799,-0.22985227406024933
1775722371232166400,11.29516650390625,-0.07622295618057251,0.18713204562664032,-0.20623856782913208
1775722371242179300,11.305179443359375,-0.06235580891370773,0.19652962684631348,-0.18759676814079285
1775722371252192500,11.315192626953126,-0.0475504994392395,0.20885765552520752,-0.18194952607154846
1775722371262206200,11.325206298828125,-0.03620270639657974,0.21797612309455872,-0.18468120694160461
1775722371272219400,11.335219482421875,-0.02969580702483654,0.20068129897117615,-0.1913100779056549
1775722371282232300,11.345232421875,-0.015548089519143105,0.19500121474266052,-0.207545205950737
1775722371292245500,11.35524560546875,0.0022314395755529404,0.21584604680538177,-0.23428839445114136
1775722371302258400,11.365258544921875,0.02125995047390461,0.22662585973739624,-0.26343876123428345
1775722371312272400,11.3752724609375,0.046010568737983704,0.2220233827829361,-0.28701892495155334
1775722371322285300,11.385285400390625,0.07492514699697495,0.201404869556427,-0.3039412796497345
1775722371332298200,11.39529833984375,0.10592913627624512,0.1668546199798584,-0.3076460063457489
1775722371342310700,11.405310546875,0.13683800399303436,0.1533871591091156,-0.3052639961242676
1775722371352323800,11.41532373046875,0.16191112995147705,0.13569284975528717,-0.31505751609802246
1775722371362337800,11.425337890625,0.17763753235340118,0.1208241730928421,-0.33903443813323975
1775722371372350700,11.435350830078125,0.18906834721565247,0.11863479018211365,-0.36860376596450806
1775722371382364000,11.445364013671876,0.2105255275964737,0.1393030881881714,-0.3995542824268341
1775722371392376600,11.45537646484375,0.23763570189476013,0.17230017483234406,-0.4274466335773468
1775722371402389800,11.4653896484375,0.26187795400619507,0.18243156373500824,-0.4501227140426636
1775722371412403700,11.47540380859375,0.3017875552177429,0.19595296680927277,-0.46935153007507324
1775722371422416600,11.485416748046875,0.3524915874004364,0.26142585277557373,-0.484809935092926
1775722371432429800,11.495429931640626,0.3910435140132904,0.3624877333641052,-0.4832288324832916
1775722371442442800,11.50544287109375,0.3793340027332306,0.45177197456359863,-0.4587859511375427
1775722371452455700,11.51545556640625,0.33564192056655884,0.5314114093780518,-0.4241161346435547
1775722371462468600,11.525468505859376,0.27806898951530457,0.5932701826095581,-0.39693495631217957
1775722371472482600,11.535482666015625,0.2327454686164856,0.6249538064002991,-0.4074919819831848
1775722371482495700,11.545495849609376,0.19752946496009827,0.6424403190612793,-0.4546068012714386
1775722371492508700,11.5555087890625,0.17239108681678772,0.6670145988464355,-0.5230340361595154
1775722371502521900,11.56552197265625,0.1414894014596939,0.6387341022491455,-0.578557550907135
1775722371512534500,11.575534423828126,0.1068403422832489,0.5365068316459656,-0.6124013066291809
1775722371522548700,11.585548828125,0.034964147955179214,0.43345916271209717,-0.6227442622184753
1775722371532561700,11.595561767578126,-0.09421087801456451,0.3224298357963562,-0.6066012978553772
1775722371542574600,11.60557470703125,-0.2332211136817932,0.22387492656707764,-0.5649815201759338
1775722371552587800,11.615587890625,-0.3173852562904358,0.12571294605731964,-0.5092354416847229
1775722371562600700,11.6256005859375,-0.3386082053184509,0.02770397625863552,-0.46112707257270813
1775722371572614700,11.63561474609375,-0.3335931897163391,-0.04513081535696983,-0.4315910339355469
1775722371582627800,11.6456279296875,-0.3465237617492676,-0.07741869240999222,-0.4125405550003052
1775722371592640500,11.655640625,-0.38285061717033386,-0.09479235857725143,-0.39203980565071106
1775722371602653700,11.66565380859375,-0.43532615900039673,-0.08951790630817413,-0.3696818947792053
1775722371612666600,11.67566650390625,-0.4819128215312958,-0.06583068519830704,-0.36574602127075195
1775722371622680600,11.6856806640625,-0.49334749579429626,-0.06026962026953697,-0.37066152691841125
1775722371632693800,11.69569384765625,-0.48185062408447266,-0.09170796722173691,-0.3517341911792755
1775722371642706700,11.705706787109374,-0.4532136917114258,-0.12336739152669907,-0.3184971511363983
1775722371652719600,11.7157197265625,-0.4056275188922882,-0.1401652842760086,-0.2876276671886444
1775722371662732500,11.725732666015626,-0.3492584228515625,-0.16380725800991058,-0.26389366388320923
1775722371672745700,11.735745849609375,-0.3050094544887543,-0.18877331912517548,-0.2486065924167633
1775722371682759700,11.745759765625,-0.2800435721874237,-0.19403916597366333,-0.24002249538898468
1775722371692772600,11.755772705078124,-0.2770661413669586,-0.1839228719472885,-0.22488854825496674
1775722371702785800,11.765785888671875,-0.2803579270839691,-0.1638028770685196,-0.19097892940044403
1775722371712798700,11.775798828125,-0.2730259895324707,-0.14103364944458008,-0.13225996494293213
1775722371722811600,11.785811767578124,-0.25295406579971313,-0.14655157923698425,-0.050594083964824677
1775722371732825900,11.795825927734375,-0.22351975739002228,-0.15710942447185516,0.030118336901068687
1775722371742838500,11.805838623046874,-0.18985876441001892,-0.19414642453193665,0.10797987133264542
1775722371752851700,11.815851806640625,-0.15160459280014038,-0.23004555702209473,0.17908281087875366
1775722371762865000,11.825864990234376,-0.10109812766313553,-0.23538535833358765,0.2261929214000702
1775722371772877600,11.835877685546874,-0.048888713121414185,-0.23885385692119598,0.24935176968574524
1775722371782891800,11.845891845703125,-0.0037505929358303547,-0.23184742033481598,0.2483832687139511
1775722371792904700,11.85590478515625,0.029681134968996048,-0.219873309135437,0.2291744202375412
1775722371802917600,11.865917724609375,0.05896435305476189,-0.19969186186790466,0.20169414579868317
1775722371812930800,11.875930908203125,0.08526626229286194,-0.1657080501317978,0.1724925935268402
1775722371822943700,11.88594384765625,0.1111118346452713,-0.11821521073579788,0.1527155637741089
1775722371832956700,11.895956787109375,0.1393549144268036,-0.07462778687477112,0.13441137969493866
1775722371842970600,11.905970703125,0.15853412449359894,-0.025797955691814423,0.11614350229501724
1775722371852983800,11.91598388671875,0.16229185461997986,0.013283666223287582,0.10853298753499985
1775722371862996700,11.925996826171875,0.1531742513179779,0.04548769071698189,0.10844991356134415
1775722371873009700,11.936009765625,0.1453341692686081,0.07513479888439178,0.11189151555299759
1775722371883022800,11.94602294921875,0.1363435834646225,0.09336898475885391,0.11496961861848831
1775722371893036500,11.95603662109375,0.12042559683322906,0.10340617597103119,0.11702238768339157
1775722371903049700,11.9660498046875,0.11799813061952591,0.11619705706834793,0.11264679580926895
1775722371913063000,11.97606298828125,0.12797565758228302,0.11807751655578613,0.09626329690217972
1775722371923075600,11.98607568359375,0.13244858384132385,0.10765454918146133,0.07146194577217102
1775722371933088800,11.9960888671875,0.11717642098665237,0.09279917180538177,0.0448463074862957
1775722371943102700,12.006102783203126,0.09178944677114487,0.08203025162220001,0.018020950257778168
1775722371953115600,12.01611572265625,0.05993777513504028,0.0677541121840477,0.006317157298326492
1775722371963128800,12.02612890625,0.03191189840435982,0.05010432377457619,0.006253618281334639
1775722371973141800,12.036141845703124,0.01534677017480135,0.03648039326071739,0.014993846416473389
1775722371983154700,12.04615478515625,0.00967579334974289,0.024052061140537262,0.02432611957192421
1775722371993167600,12.056167724609375,0.00896206684410572,-0.002126810373738408,0.02541561797261238
1775722372003181600,12.066181640625,0.003594322595745325,-0.012417653575539589,0.0173207838088274
1775722372013194800,12.07619482421875,-0.00561355659738183,-0.006439389195293188,-0.0027991316746920347
1775722372023207700,12.086207763671876,-0.02052217908203602,0.002469101455062628,-0.02954951860010624
1775722372033220900,12.096220947265625,-0.0352899394929409,0.016432855278253555,-0.05716143921017647
1775722372043233500,12.106233642578125,-0.04483165591955185,0.022073866799473763,-0.07974116504192352
1775722372053247700,12.116247802734375,-0.04668601229786873,0.0013590011512860656,-0.08829283714294434
1775722372063260700,12.1262607421875,-0.04152167588472366,-0.020453698933124542,-0.07443048804998398
1775722372073273600,12.136273681640626,-0.029928136616945267,-0.03453090041875839,-0.05000849813222885
1775722372083286800,12.146286865234375,-0.011594708077609539,-0.03142151981592178,-0.023986954241991043
1775722372093299700,12.1562998046875,0.005960849113762379,-0.022477561607956886,-0.010828008875250816
1775722372103312600,12.166312744140624,0.02126671001315117,-0.0099001694470644,-0.013991487212479115
