time,seconds_elapsed,z,y,x
1775341730997915100,0.0709150390625,2.2396819591522217,9.643074989318848,-0.38763725757598877
1775341731014701000,0.087701171875,2.4909284114837646,9.391828536987305,0.08374879509210587
1775341731031488000,0.104488037109375,2.400001049041748,9.45882797241211,-0.06939185410737991
1775341731048275200,0.121275146484375,2.2229323387145996,9.57607650756836,-0.059820566326379776
1775341731065062100,0.138062255859375,2.3880369663238525,9.573683738708496,-0.10767702013254166
1775341731081849000,0.15484912109375,2.1750757694244385,9.55214786529541,-0.04785645380616188
1775341731098636000,0.171635986328125,2.2851455211639404,9.516255378723145,0.014356935396790504
1775341731115423000,0.188423095703125,2.383251428604126,9.547362327575684,-0.14835500717163086
1775341731132210000,0.2052099609375,2.2540390491485596,9.614361763000488,-0.0526420995593071
1775341731148996900,0.221996826171875,2.2085752487182617,9.528220176696777,-0.040677983313798904
1775341731165783800,0.23878369140625,2.478964328765869,9.439684867858887,-0.038285162299871445
1775341731182570800,0.25557080078125,2.416750907897949,9.54496955871582,-0.10767702013254166
1775341731199358000,0.27235791015625,2.0721843242645264,9.614361763000488,-0.035892341285943985
1775341731216145000,0.289144775390625,2.359323024749756,9.489934921264648,-0.07657032459974289
1775341731232931800,0.305931884765625,2.469393014907837,9.45164966583252,-0.009571290574967861
1775341731249718800,0.32271875,2.225325107574463,9.597611427307129,-0.12681959569454193
1775341731266505700,0.339505615234375,2.132004976272583,9.640682220458984,-0.04785645380616188
1775341731283292700,0.356292724609375,2.3736801147460938,9.45164966583252,-0.02871387079358101
1775341731300079600,0.37307958984375,2.455035924911499,9.473184585571289,-0.04307080805301666
1775341731316866600,0.389866455078125,2.203789710998535,9.592825889587402,-0.11006984114646912
1775341731333653800,0.40665380859375,2.194218397140503,9.58325481414795,-0.031106693670153618
1775341731350440400,0.4234404296875,2.500499725341797,9.45164966583252,-0.07178468257188797
1775341731367227600,0.4402275390625,2.4023938179016113,9.497113227844238,-0.07657032459974289
1775341731384014600,0.4570146484375,2.1367905139923096,9.623932838439941,-0.07657032459974289
1775341731400801500,0.473801513671875,2.266003131866455,9.540184020996094,-0.02871387079358101
1775341731417588500,0.49058837890625,2.4335005283355713,9.473184585571289,-0.07657032459974289
1775341731434375400,0.50737548828125,2.3641088008880615,9.523433685302734,-0.06939185410737991
1775341731451162400,0.524162353515625,2.227717876434326,9.595218658447266,-0.059820566326379776
1775341731467949300,0.54094921875,2.287538528442383,9.540184020996094,-0.038285162299871445
1775341731484736500,0.557736572265625,2.4263222217559814,9.489934921264648,-0.06939185410737991
1775341731501523500,0.5745234375,2.3330020904541016,9.525827407836914,-0.04546362906694412
1775341731518310400,0.591310302734375,2.2229323387145996,9.57607650756836,-0.07178468257188797
1775341731535097300,0.608097412109375,2.3330020904541016,9.528220176696777,-0.06699903309345245
1775341731551884300,0.62488427734375,2.359323024749756,9.521040916442871,-0.062213387340307236
1775341731568671200,0.641671142578125,2.287538528442383,9.55214786529541,-0.05742774158716202
1775341731585458200,0.658458251953125,2.328216314315796,9.53779125213623,-0.06939185410737991
1775341731602245000,0.6752451171875,2.359323024749756,9.525827407836914,-0.05024927482008934
1775341731619032300,0.6920322265625,2.2995026111602783,9.54496955871582,-0.038285162299871445
1775341731635819300,0.7088193359375,2.2851455211639404,9.54496955871582,-0.0526420995593071
1775341731652606200,0.725606201171875,2.3330020904541016,9.53779125213623,-0.07657032459974289
1775341731669393200,0.74239306640625,2.328216314315796,9.525827407836914,-0.05024927482008934
1775341731686180000,0.75918017578125,2.352144718170166,9.535398483276367,-0.064606212079525
1775341731702967000,0.775967041015625,2.3401806354522705,9.533005714416504,-0.06699903309345245
1775341731719754000,0.79275390625,2.3018953800201416,9.55214786529541,-0.07417750358581543
1775341731736541200,0.809541259765625,2.2755744457244873,9.55214786529541,-0.040677983313798904
1775341731753328000,0.826328125,2.335394859313965,9.528220176696777,-0.059820566326379776
1775341731770115000,0.843114990234375,2.3784656524658203,9.504291534423828,-0.064606212079525
1775341731786902000,0.859902099609375,2.313859462738037,9.542576789855957,-0.062213387340307236
1775341731803689000,0.87668896484375,2.2707886695861816,9.547362327575684,-0.05024927482008934
1775341731820476000,0.893475830078125,2.3473589420318604,9.53061294555664,-0.07178468257188797
1775341731837263000,0.91026318359375,2.3473589420318604,9.506684303283691,-0.059820566326379776
1775341731854050000,0.927050048828125,2.304288148880005,9.542576789855957,-0.064606212079525
1775341731870837000,0.9438369140625,2.2636101245880127,9.547362327575684,-0.04307080805301666
1775341731887624000,0.9606240234375,2.359323024749756,9.53061294555664,-0.08135596662759781
1775341731904411000,0.977410888671875,2.344966173171997,9.525827407836914,-0.05024927482008934
1775341731921197800,0.99419775390625,2.282752752304077,9.561718940734863,-0.0526420995593071
1775341731937984800,1.01098486328125,2.3090739250183105,9.535398483276367,-0.04546362906694412
1775341731954771700,1.027771728515625,2.352144718170166,9.521040916442871,-0.06699903309345245
1775341731971559000,1.044558837890625,2.2947168350219727,9.542576789855957,-0.0526420995593071
1775341731988345900,1.061345947265625,2.282752752304077,9.547362327575684,-0.06699903309345245
1775341732005132800,1.0781328125,2.3545374870300293,9.523433685302734,-0.059820566326379776
1775341732021919700,1.094919677734375,2.3330020904541016,9.525827407836914,-0.07178468257188797
1775341732038706700,1.111706787109375,2.2851455211639404,9.540184020996094,-0.05742774158716202
1775341732055493600,1.12849365234375,2.289931297302246,9.55214786529541,-0.059820566326379776
1775341732072280800,1.14528076171875,2.3186452388763428,9.518648147583008,-0.05503492057323456
1775341732089067800,1.16206787109375,2.328216314315796,9.521040916442871,-0.05024927482008934
1775341732105854700,1.178854736328125,2.311466693878174,9.53779125213623,-0.064606212079525
1775341732122641700,1.1956416015625,2.328216314315796,9.528220176696777,-0.06699903309345245
1775341732139428600,1.2124287109375,2.3162522315979004,9.528220176696777,-0.05024927482008934
1775341732156215600,1.229215576171875,2.3234307765960693,9.523433685302734,-0.059820566326379776
1775341732173002800,1.246002685546875,2.3090739250183105,9.53779125213623,-0.05503492057323456
1775341732189789700,1.262789794921875,2.3330020904541016,9.533005714416504,-0.06699903309345245
1775341732206576600,1.27957666015625,2.311466693878174,9.528220176696777,-0.05024927482008934
1775341732223363600,1.296363525390625,2.3258235454559326,9.528220176696777,-0.064606212079525
1775341732240150500,1.313150634765625,2.3330020904541016,9.523433685302734,-0.05503492057323456
1775341732256937500,1.3299375,2.3162522315979004,9.542576789855957,-0.062213387340307236
1775341732273724700,1.346724609375,2.304288148880005,9.525827407836914,-0.05503492057323456
1775341732290511600,1.36351171875,2.3258235454559326,9.535398483276367,-0.06939185410737991
1775341732307298600,1.380298583984375,2.3162522315979004,9.540184020996094,-0.062213387340307236
1775341732324085500,1.39708544921875,2.304288148880005,9.53061294555664,-0.064606212079525
1775341732340872400,1.41387255859375,2.3473589420318604,9.535398483276367,-0.05742774158716202
1775341732357659400,1.430659423828125,2.321038007736206,9.528220176696777,-0.06699903309345245
1775341732374446600,1.447446533203125,2.313859462738037,9.53061294555664,-0.0526420995593071
1775341732391233500,1.464233642578125,2.304288148880005,9.528220176696777,-0.05742774158716202
1775341732408020500,1.4810205078125,2.3186452388763428,9.53779125213623,-0.04785645380616188
1775341732424807400,1.497807373046875,2.337787628173828,9.535398483276367,-0.07178468257188797
1775341732441594400,1.514594482421875,2.342573404312134,9.525827407836914,-0.059820566326379776
1775341732458381600,1.531381591796875,2.289931297302246,9.540184020996094,-0.06939185410737991
1775341732475168500,1.54816845703125,2.321038007736206,9.542576789855957,-0.059820566326379776
1775341732491955500,1.56495556640625,2.335394859313965,9.535398483276367,-0.064606212079525
1775341732508742400,1.581742431640625,2.306680917739868,9.542576789855957,-0.05742774158716202
1775341732525529300,1.598529296875,2.311466693878174,9.53779125213623,-0.064606212079525
1775341732542316300,1.61531640625,2.313859462738037,9.53061294555664,-0.06699903309345245
1775341732559103200,1.632103271484375,2.297109842300415,9.540184020996094,-0.0526420995593071
1775341732575890400,1.648890380859375,2.3162522315979004,9.533005714416504,-0.05503492057323456
1775341732592677400,1.665677490234375,2.321038007736206,9.533005714416504,-0.06939185410737991
1775341732609464300,1.68246435546875,2.3018953800201416,9.53779125213623,-0.062213387340307236
1775341732626251300,1.699251220703125,2.304288148880005,9.542576789855957,-0.06699903309345245
1775341732643038200,1.7160380859375,2.3018953800201416,9.53779125213623,-0.064606212079525
1775341732659825400,1.732825439453125,2.313859462738037,9.525827407836914,-0.05503492057323456
1775341732676612400,1.7496123046875,2.342573404312134,9.53779125213623,-0.06699903309345245
1775341732693399300,1.7663994140625,2.3090739250183105,9.542576789855957,-0.04546362906694412
1775341732710186200,1.783186279296875,2.3090739250183105,9.533005714416504,-0.040677983313798904
1775341732726973200,1.79997314453125,2.3186452388763428,9.521040916442871,-0.05503492057323456
1775341732743760100,1.816760009765625,2.313859462738037,9.53061294555664,-0.0526420995593071
1775341732760547300,1.83354736328125,2.306680917739868,9.53779125213623,-0.05742774158716202
1775341732777334300,1.850334228515625,2.3401806354522705,9.513862609863281,-0.07417750358581543
1775341732794121200,1.867121337890625,2.321038007736206,9.542576789855957,-0.059820566326379776
1775341732810908200,1.883908203125,2.2947168350219727,9.53779125213623,-0.059820566326379776
1775341732827695000,1.900695068359375,2.306680917739868,9.525827407836914,-0.04546362906694412
1775341732844482300,1.917482421875,2.321038007736206,9.535398483276367,-0.07178468257188797
1775341732861269200,1.934269287109375,2.3234307765960693,9.535398483276367,-0.0526420995593071
1775341732878056200,1.95105615234375,2.3090739250183105,9.54496955871582,-0.059820566326379776
1775341732894843100,1.967843017578125,2.289931297302246,9.54496955871582,-0.0526420995593071
1775341732911630000,1.984630126953125,2.3330020904541016,9.528220176696777,-0.062213387340307236
1775341732928417300,2.001417236328125,2.3306093215942383,9.521040916442871,-0.07178468257188797
1775341732945204200,2.018204345703125,2.304288148880005,9.54496955871582,-0.07178468257188797
1775341732961991200,2.0349912109375,2.2947168350219727,9.547362327575684,-0.06939185410737991
1775341732978778000,2.051778076171875,2.335394859313965,9.535398483276367,-0.062213387340307236
1775341732995565000,2.06856494140625,2.337787628173828,9.513862609863281,-0.05503492057323456
1775341733012352300,2.085352294921875,2.304288148880005,9.542576789855957,-0.05742774158716202
1775341733029139200,2.10213916015625,2.306680917739868,9.540184020996094,-0.05742774158716202
1775341733045926100,2.118926025390625,2.306680917739868,9.533005714416504,-0.05024927482008934
1775341733062713000,2.135713134765625,2.328216314315796,9.528220176696777,-0.05503492057323456
1775341733079500000,2.1525,2.321038007736206,9.549755096435547,-0.06699903309345245
1775341733096287200,2.169287353515625,2.2923240661621094,9.533005714416504,-0.05024927482008934
1775341733113074200,2.18607421875,2.311466693878174,9.523433685302734,-0.062213387340307236
1775341733129861000,2.202861083984375,2.304288148880005,9.533005714416504,-0.04785645380616188
1775341733146648000,2.21964794921875,2.3018953800201416,9.54496955871582,-0.07417750358581543
1775341733163435000,2.23643505859375,2.3162522315979004,9.521040916442871,-0.05742774158716202
1775341733180222200,2.25322216796875,2.344966173171997,9.533005714416504,-0.05503492057323456
1775341733197009200,2.270009033203125,2.3186452388763428,9.533005714416504,-0.05503492057323456
1775341733213796000,2.286796142578125,2.2755744457244873,9.547362327575684,-0.06699903309345245
1775341733230583000,2.3035830078125,2.304288148880005,9.54496955871582,-0.06699903309345245
1775341733247370000,2.320369873046875,2.344966173171997,9.525827407836914,-0.06699903309345245
1775341733264157200,2.3371572265625,2.3473589420318604,9.53061294555664,-0.06699903309345245
1775341733280944000,2.353944091796875,2.2779672145843506,9.547362327575684,-0.062213387340307236
1775341733297731000,2.37073095703125,2.2923240661621094,9.549755096435547,-0.0526420995593071
1775341733314518000,2.38751806640625,2.3258235454559326,9.518648147583008,-0.05503492057323456
1775341733331305200,2.40430517578125,2.335394859313965,9.528220176696777,-0.05024927482008934
1775341733348092200,2.421092041015625,2.2995026111602783,9.547362327575684,-0.062213387340307236
1775341733364879000,2.437879150390625,2.297109842300415,9.54496955871582,-0.05024927482008934
1775341733381666000,2.454666015625,2.3234307765960693,9.523433685302734,-0.062213387340307236
1775341733398453000,2.471452880859375,2.3090739250183105,9.528220176696777,-0.062213387340307236
1775341733415240200,2.488240234375,2.304288148880005,9.542576789855957,-0.06939185410737991
1775341733432027100,2.505027099609375,2.3234307765960693,9.523433685302734,-0.05024927482008934
1775341733448814000,2.52181396484375,2.335394859313965,9.535398483276367,-0.06699903309345245
1775341733465601000,2.53860107421875,2.3234307765960693,9.535398483276367,-0.0526420995593071
1775341733482388200,2.55538818359375,2.289931297302246,9.53779125213623,-0.06939185410737991
1775341733499175200,2.572175048828125,2.304288148880005,9.53061294555664,-0.05742774158716202
1775341733515962000,2.588962158203125,2.311466693878174,9.533005714416504,-0.06939185410737991
1775341733532749000,2.6057490234375,2.3306093215942383,9.53779125213623,-0.04785645380616188
1775341733549536000,2.622535888671875,2.3090739250183105,9.540184020996094,-0.05742774158716202
1775341733566323000,2.639322998046875,2.3186452388763428,9.540184020996094,-0.0526420995593071
1775341733583110100,2.656110107421875,2.3090739250183105,9.53779125213623,-0.07417750358581543
1775341733599897000,2.67289697265625,2.3306093215942383,9.528220176696777,-0.04785645380616188
1775341733616684000,2.68968408203125,2.304288148880005,9.528220176696777,-0.062213387340307236
1775341733633471000,2.706470947265625,2.3090739250183105,9.533005714416504,-0.05742774158716202
1775341733650258200,2.723258056640625,2.306680917739868,9.542576789855957,-0.07417750358581543
1775341733667045000,2.740045166015625,2.321038007736206,9.528220176696777,-0.064606212079525
1775341733683832000,2.75683203125,2.306680917739868,9.525827407836914,-0.06699903309345245
1775341733700619000,2.773618896484375,2.306680917739868,9.54496955871582,-0.05742774158716202
1775341733717406200,2.79040625,2.311466693878174,9.523433685302734,-0.064606212079525
1775341733734193200,2.807193115234375,2.2995026111602783,9.54496955871582,-0.059820566326379776
1775341733750980000,2.82397998046875,2.321038007736206,9.521040916442871,-0.06699903309345245
1775341733767767000,2.84076708984375,2.3473589420318604,9.518648147583008,-0.05024927482008934
1775341733784554000,2.857553955078125,2.2851455211639404,9.55214786529541,-0.05503492057323456
1775341733801341200,2.874341064453125,2.3306093215942383,9.525827407836914,-0.059820566326379776
1775341733818128100,2.891128173828125,2.344966173171997,9.53061294555664,-0.06699903309345245
1775341733834915000,2.9079150390625,2.2851455211639404,9.542576789855957,-0.06699903309345245
1775341733851702000,2.924701904296875,2.280359983444214,9.542576789855957,-0.06699903309345245
1775341733868489200,2.9414892578125,2.3617160320281982,9.518648147583008,-0.07178468257188797
1775341733885276200,2.958276123046875,2.311466693878174,9.53061294555664,-0.06699903309345245
1775341733902063000,2.97506298828125,2.2923240661621094,9.55214786529541,-0.062213387340307236
1775341733918850000,2.99185009765625,2.3330020904541016,9.523433685302734,-0.05503492057323456
1775341733935637200,3.00863720703125,2.3234307765960693,9.533005714416504,-0.064606212079525
1775341733952424200,3.025424072265625,2.266003131866455,9.561718940734863,-0.0526420995593071
1775341733969211100,3.042211181640625,2.3186452388763428,9.535398483276367,-0.07178468257188797
1775341733985998000,3.058998046875,2.3641088008880615,9.516255378723145,-0.07178468257188797
1775341734002785300,3.075785400390625,2.3162522315979004,9.540184020996094,-0.06939185410737991
1775341734019572200,3.092572265625,2.3090739250183105,9.542576789855957,-0.0526420995593071
1775341734036359200,3.109359130859375,2.3258235454559326,9.542576789855957,-0.064606212079525
1775341734053146000,3.12614599609375,2.3162522315979004,9.533005714416504,-0.04546362906694412
1775341734069933300,3.142933349609375,2.311466693878174,9.533005714416504,-0.06939185410737991
1775341734086720300,3.15972021484375,2.337787628173828,9.53779125213623,-0.04785645380616188
1775341734103507200,3.176507080078125,2.3186452388763428,9.528220176696777,-0.07178468257188797
1775341734120294100,3.193294189453125,2.311466693878174,9.525827407836914,-0.05024927482008934
1775341734137081300,3.210081298828125,2.3090739250183105,9.540184020996094,-0.06699903309345245
1775341734153868300,3.226868408203125,2.3258235454559326,9.535398483276367,-0.05742774158716202
1775341734170655200,3.2436552734375,2.321038007736206,9.533005714416504,-0.064606212079525
1775341734187442200,3.260442138671875,2.3234307765960693,9.535398483276367,-0.04785645380616188
1775341734204229400,3.2772294921875,2.3090739250183105,9.542576789855957,-0.07896314561367035
1775341734221016300,3.294016357421875,2.3258235454559326,9.54496955871582,-0.035892341285943985
1775341734237803300,3.31080322265625,2.304288148880005,9.525827407836914,-0.064606212079525
1775341734254590500,3.327590576171875,2.311466693878174,9.53061294555664,-0.04785645380616188
1775341734271377400,3.34437744140625,2.304288148880005,9.53061294555664,-0.07417750358581543
1775341734288164400,3.361164306640625,2.3162522315979004,9.518648147583008,-0.04546362906694412
1775341734304951300,3.377951416015625,2.321038007736206,9.53061294555664,-0.064606212079525
1775341734321738500,3.394738525390625,2.3090739250183105,9.53779125213623,-0.04785645380616188
1775341734338525400,3.411525390625,2.3162522315979004,9.523433685302734,-0.064606212079525
1775341734355312400,3.4283125,2.321038007736206,9.53061294555664,-0.0526420995593071
1775341734372099300,3.445099365234375,2.2947168350219727,9.540184020996094,-0.06939185410737991
1775341734388886500,3.461886474609375,2.3234307765960693,9.523433685302734,-0.05024927482008934
1775341734405673500,3.478673583984375,2.304288148880005,9.533005714416504,-0.06939185410737991
1775341734422460400,3.49546044921875,2.3018953800201416,9.547362327575684,-0.05742774158716202
1775341734439247400,3.512247314453125,2.3306093215942383,9.535398483276367,-0.064606212079525
1775341734456034600,3.52903466796875,2.321038007736206,9.53061294555664,-0.05742774158716202
1775341734472821500,3.545821533203125,2.2995026111602783,9.542576789855957,-0.059820566326379776
1775341734489608400,3.5626083984375,2.3090739250183105,9.547362327575684,-0.04546362906694412
1775341734506395400,3.5793955078125,2.3330020904541016,9.53061294555664,-0.07417750358581543
1775341734523182600,3.5961826171875,2.3234307765960693,9.528220176696777,-0.05742774158716202
1775341734539969500,3.612969482421875,2.3018953800201416,9.542576789855957,-0.062213387340307236
1775341734556756500,3.629756591796875,2.3401806354522705,9.53061294555664,-0.059820566326379776
1775341734573543700,3.646543701171875,2.337787628173828,9.518648147583008,-0.062213387340307236
1775341734590330600,3.66333056640625,2.2995026111602783,9.547362327575684,-0.05503492057323456
1775341734607117600,3.68011767578125,2.2851455211639404,9.540184020996094,-0.062213387340307236
1775341734623904500,3.696904541015625,2.3306093215942383,9.523433685302734,-0.059820566326379776
1775341734640691700,3.713691650390625,2.337787628173828,9.533005714416504,-0.06699903309345245
1775341734657478700,3.730478759765625,2.3641088008880615,9.477970123291016,0.05503492057323456
1775341734674265600,3.747265625,1.698904037475586,9.899106979370117,-0.3326023519039154
1775341734691052800,3.764052734375,2.282752752304077,9.41336441040039,0.25363919138908386
1775341734707839700,3.78083984375,2.3234307765960693,9.489934921264648,-0.3038884699344635
1775341734724626700,3.797626708984375,2.785245656967163,9.363115310668945,0.05024927482008934
1775341734741413600,3.81441357421875,1.6462619304656982,9.667003631591797,-0.12203395366668701
1775341734758200800,3.831200927734375,2.7565317153930664,9.44447135925293,-0.064606212079525
1775341734774987800,3.84798779296875,2.63449764251709,9.387042999267578,0.038285162299871445
1775341734791774700,3.864774658203125,2.0099709033966064,9.693324089050293,-0.27038896083831787
1775341734808562000,3.88156201171875,1.9956140518188477,9.595218658447266,0.2847459018230438
1775341734825348900,3.898348876953125,2.6273193359375,9.42772102355957,-0.4139583110809326
1775341734842135800,3.9151357421875,2.4813570976257324,9.45882797241211,0.2225325107574463
1775341734858922800,3.9319228515625,1.9357935190200806,9.736394882202148,-0.3613162338733673
1775341734875710000,3.9487099609375,2.4358935356140137,9.446864128112793,0.26081767678260803
1775341734892497000,3.965496826171875,2.5459632873535156,9.463613510131836,-0.3924229145050049
1775341734909283800,3.982283935546875,2.2612173557281494,9.535398483276367,0.19621145725250244
1775341734926071000,3.999071044921875,2.038684844970703,9.664610862731934,-0.23688943684101105
1775341734942858000,4.01585791015625,2.5220351219177246,9.442078590393066,0.10049854964017868
1775341734959645000,4.03264501953125,2.423929452896118,9.501898765563965,-0.1986042857170105
1775341734976431900,4.049431884765625,2.194218397140503,9.57607650756836,0.0526420995593071
1775341734993219000,4.066218994140625,2.273181438446045,9.564111709594727,-0.13878370821475983
1775341735010006000,4.083006103515625,2.3545374870300293,9.509077072143555,-0.02392822690308094
1775341735026793000,4.09979296875,2.390429735183716,9.516255378723145,-0.08614161610603333
1775341735043580200,4.116580078125,2.258824586868286,9.54496955871582,-0.02392822690308094
1775341735060367000,4.1333671875,2.306680917739868,9.55214786529541,-0.07657032459974289
1775341735077154000,4.150154052734375,2.313859462738037,9.528220176696777,-0.03349951654672623
1775341735093941200,4.166941162109375,2.3473589420318604,9.521040916442871,-0.07657032459974289
1775341735110728200,4.183728271484375,2.2923240661621094,9.542576789855957,-0.038285162299871445
1775341735127515100,4.20051513671875,2.3234307765960693,9.53061294555664,-0.10049854964017868
1775341735144302300,4.21730224609375,2.3186452388763428,9.533005714416504,-0.009571290574967861
1775341735161089300,4.23408935546875,2.287538528442383,9.549755096435547,-0.11246266216039658
1775341735177876200,4.250876220703125,2.342573404312134,9.528220176696777,-0.016749758273363113
1775341735194663200,4.2676630859375,2.3401806354522705,9.549755096435547,-0.08374879509210587
1775341735211450400,4.284450439453125,2.311466693878174,9.547362327575684,-0.04546362906694412
1775341735228237300,4.3012373046875,2.306680917739868,9.53061294555664,-0.07417750358581543
1775341735245024300,4.318024169921875,2.328216314315796,9.533005714416504,-0.016749758273363113
1775341735261811500,4.3348115234375,2.3258235454559326,9.53061294555664,-0.08614161610603333
1775341735278598400,4.351598388671875,2.2947168350219727,9.535398483276367,-0.040677983313798904
1775341735295385300,4.36838525390625,2.337787628173828,9.542576789855957,-0.06699903309345245
1775341735312172500,4.385172607421875,2.337787628173828,9.559326171875,-0.05742774158716202
1775341735328959500,4.40195947265625,2.352144718170166,9.542576789855957,-0.11006984114646912
1775341735345746400,4.418746337890625,2.3234307765960693,9.533005714416504,-0.007178467698395252
1775341735362533600,4.43553369140625,2.3306093215942383,9.533005714416504,-0.10289137065410614
1775341735379320600,4.452320556640625,2.2851455211639404,9.535398483276367,-0.01196411345154047
1775341735396107500,4.469107421875,2.306680917739868,9.53061294555664,-0.09571290761232376
1775341735412894500,4.48589453125,2.3617160320281982,9.504291534423828,-0.016749758273363113
1775341735429681700,4.502681640625,2.368894338607788,9.53779125213623,-0.13160525262355804
1775341735446468600,4.519468505859375,2.2923240661621094,9.528220176696777,0.009571290574967861
1775341735463255600,4.536255615234375,2.3234307765960693,9.547362327575684,-0.11485548317432404
1775341735480042800,4.553042724609375,2.280359983444214,9.516255378723145,-0.05024927482008934
1775341735496829700,4.56982958984375,2.344966173171997,9.53779125213623,-0.08853443711996078
1775341735513616600,4.58661669921875,2.289931297302246,9.521040916442871,-0.02392822690308094
1775341735530403800,4.60340380859375,2.328216314315796,9.53779125213623,-0.10767702013254166
1775341735547190800,4.620190673828125,2.304288148880005,9.53061294555664,0.01196411345154047
1775341735563977700,4.636977783203125,2.3306093215942383,9.533005714416504,-0.07417750358581543
1775341735580765000,4.653764892578125,2.3401806354522705,9.518648147583008,-0.04307080805301666
1775341735597551900,4.6705517578125,2.3162522315979004,9.55214786529541,-0.064606212079525
1775341735614338800,4.6873388671875,2.280359983444214,9.547362327575684,-0.01196411345154047
1775341735631126000,4.7041259765625,2.3569302558898926,9.528220176696777,-0.0933200865983963
1775341735647913000,4.720912841796875,2.3569302558898926,9.499505996704102,-0.064606212079525
1775341735664700000,4.737699951171875,2.234896421432495,9.53779125213623,-0.059820566326379776
1775341735681487000,4.754487060546875,2.2133610248565674,9.561718940734863,-0.11006984114646912
1775341735698274000,4.771274169921875,2.3186452388763428,9.53779125213623,-0.0023928226437419653
1775341735715061000,4.78806103515625,2.4837498664855957,9.499505996704102,-0.059820566326379776
1775341735731848200,4.80484814453125,2.2372891902923584,9.590433120727539,-0.1052841991186142
1775341735748635100,4.82163525390625,2.2612173557281494,9.56650447845459,0.007178467698395252
1775341735765422000,4.838422119140625,2.455035924911499,9.461220741271973,-0.004785645287483931
1775341735782209300,4.855209228515625,2.3401806354522705,9.516255378723145,-0.05024927482008934
1775341735798996200,4.871996337890625,2.2540390491485596,9.57607650756836,-0.10049854964017868
1775341735815783200,4.888783203125,2.3401806354522705,9.540184020996094,0.02153540402650833
1775341735832570400,4.9055703125,2.416750907897949,9.456435203552246,-0.1818545162677765
1775341735849357300,4.922357421875,2.4119651317596436,9.533005714416504,-0.05503492057323456
1775341735866144300,4.939144287109375,2.2396819591522217,9.56889820098877,-0.12203395366668701
1775341735882931500,4.955931396484375,2.493321180343628,9.497113227844238,0.02153540402650833
1775341735899718400,4.972718505859375,2.328216314315796,9.518648147583008,-0.10767702013254166
1775341735916505300,4.98950537109375,2.251646041870117,9.56650447845459,0.007178467698395252
1775341735933292500,5.00629248046875,2.5746772289276123,9.4061861038208,-0.05742774158716202
1775341735950079500,5.02307958984375,2.210968017578125,9.619147300720215,0.019142581149935722
1775341735966866400,5.039866455078125,2.550748825073242,9.410971641540527,-0.16031911969184875
1775341735983653600,5.056653564453125,2.2468605041503906,9.58325481414795,-0.01196411345154047
1775341736000440600,5.073440673828125,2.4358935356140137,9.497113227844238,-0.06699903309345245
1775341736017227500,5.0902275390625,2.3258235454559326,9.580862045288086,-0.05742774158716202
1775341736034014700,5.1070146484375,2.423929452896118,9.494720458984375,-0.12921242415905
1775341736050801700,5.1238017578125,2.4741785526275635,9.477970123291016,-0.13160525262355804
1775341736067588900,5.1405888671875,2.3234307765960693,9.55214786529541,-0.05503492057323456
1775341736084375800,5.157375732421875,2.122433662414551,9.633503913879395,-0.02392822690308094
1775341736101162800,5.174162841796875,2.0243279933929443,9.724431037902832,-0.019142581149935722
1775341736117950000,5.190949951171875,2.076970100402832,9.80817985534668,0
1775341736134737000,5.20773681640625,3.0101709365844727,9.34157943725586,-0.06699903309345245
1775341736151523800,5.22452392578125,2.093719720840454,9.674181938171387,0.0933200865983963
1775341736168311000,5.24131103515625,2.256431818008423,9.7938232421875,-0.20099709928035736
1775341736185098000,5.258097900390625,2.4047868251800537,9.7005033493042,-0.10289137065410614
1775341736201885000,5.274885009765625,1.4979069232940674,10.346565246582031,0.05503492057323456
1775341736218672000,5.291672119140625,3.326023578643799,9.463613510131836,-0.1698904037475586
1775341736235459000,5.308458984375,3.208775281906128,9.432506561279297,0.040677983313798904
1775341736252246300,5.325246337890625,1.9310078620910645,10.289137840270996,0.06699903309345245
1775341736269033200,5.342033203125,2.4646072387695312,10.317851066589355,-0.15553347766399384
1775341736285820200,5.358820068359375,2.9766714572906494,9.834501266479492,0.0023928226437419653
1775341736302607400,5.375607421875,1.5361921787261963,10.695917129516602,0.07896314561367035
1775341736319394300,5.392394287109375,2.304288148880005,10.461421012878418,-0.15074782073497772
1775341736336181200,5.40918115234375,2.775674343109131,9.999606132507324,-0.3445664644241333
1775341736352968400,5.425968505859375,2.0865414142608643,10.40638542175293,-0.02153540402650833
1775341736369755400,5.44275537109375,2.6799614429473877,9.999606132507324,-0.4331009089946747
1775341736386542600,5.45954248046875,-0.7561319470405579,11.624332427978516,0.04307080805301666
1775341736403329500,5.47632958984375,-5.0464630126953125,13.160524368286133,-0.007178467698395252
1775341736420116500,5.493116455078125,-0.8207381963729858,11.263015747070312,0.016749758273363113
1775341736436903700,5.509903564453125,0.41874396800994873,9.643074989318848,-0.040677983313798904
1775341736453690600,5.526690673828125,2.196611166000366,8.724231719970703,-0.02153540402650833
1775341736470477800,5.543477783203125,5.5034918785095215,6.836294174194336,-0.26560330390930176
1775341736487264800,5.5602646484375,7.716853141784668,6.013163089752197,-0.3684946894645691
1775341736504051700,5.5770517578125,8.48016357421875,5.807380676269531,-0.30628129839897156
1775341736520839000,5.5938388671875,8.563912391662598,5.711667537689209,-0.16031911969184875
1775341736537625900,5.6106259765625,7.791030406951904,5.6925249099731445,-0.31345975399017334
1775341736554412800,5.627412841796875,6.379265308380127,6.6592254638671875,-0.1866401731967926
1775341736571200000,5.644199951171875,4.225724697113037,7.219145774841309,-0.16031911969184875
1775341736587987000,5.660987060546875,3.5222349166870117,7.389036178588867,-0.03349951654672623
1775341736604774100,5.677774169921875,3.4121651649475098,7.489534854888916,-0.035892341285943985
1775341736621561000,5.69456103515625,3.8021950721740723,7.106683254241943,-0.2392822653055191
1775341736638348300,5.711348388671875,3.955335855484009,7.0301127433776855,-0.0526420995593071
1775341736655135200,5.72813525390625,4.67078971862793,6.501298904418945,-0.30628129839897156
1775341736671922200,5.744922119140625,44.04947280883789,-6.912864685058594,-7.04925537109375
1775341736688709400,5.76170947265625,-20.604595184326172,21.209980010986328,4.570291042327881
1775341736705496300,5.778496337890625,20.48016929626465,1.8185452222824097,-6.38883638381958
1775341736722283300,5.795283203125,7.860422611236572,5.704489231109619,3.620340585708618
1775341736739070500,5.812070556640625,5.838487148284912,8.066205024719238,-3.3619158267974854
1775341736755857400,5.828857421875,5.520241737365723,6.39601469039917,1.31365966796875
1775341736772644600,5.84564453125,7.276573657989502,7.436892986297607,-0.9523434042930603
1775341736789431600,5.862431640625,6.881757736206055,7.295716285705566,-0.31345975399017334
1775341736806218800,5.87921875,7.133004188537598,7.125825881958008,0.5431707501411438
1775341736823005700,5.896005615234375,7.496713161468506,7.302894592285156,-1.2873386144638062
1775341736839792600,5.912792724609375,7.953742504119873,6.951149940490723,0.6317051649093628
1775341736856579800,5.929579833984375,6.1328043937683105,7.977670669555664,-1.0863415002822876
1775341736873366800,5.94636669921875,8.762516975402832,6.537191390991211,0.26560330390930176
1775341736890153700,5.96315380859375,6.417550563812256,7.9728851318359375,-0.5623133182525635
1775341736906941000,5.97994091796875,7.3914289474487305,7.286144733428955,-0.04546362906694412
1775341736923728000,5.996727783203125,6.939185619354248,7.458428382873535,-0.1746760457754135
1775341736940515000,6.01351513671875,6.798008918762207,7.8077802658081055,-0.4139583110809326
1775341736957302000,6.030302001953125,7.793423175811768,6.965506553649902,-0.25363919138908386
1775341736974089200,6.047089111328125,6.427121639251709,7.7838521003723145,-0.4426721930503845
1775341736990876200,6.063876220703125,7.829315662384033,6.695117950439453,-0.1698904037475586
1775341737007663000,6.0806630859375,6.441478729248047,7.331608772277832,-0.4570291340351105
1775341737024450300,6.0974501953125,6.896114826202393,6.714260101318359,-0.15553347766399384
1775341737041237200,6.1142373046875,6.247660160064697,6.922435760498047,-0.42352959513664246
1775341737058024400,6.1310244140625,6.4701924324035645,6.64486837387085,-0.1818545162677765
1775341737074811400,6.147811279296875,6.7621169090271,6.233303070068359,-0.4091726839542389
1775341737091598600,6.1645986328125,6.106483459472656,6.204588890075684,-0.12921242415905
1775341737108385500,6.181385498046875,5.704489231109619,6.331408500671387,-0.18424734473228455
1775341737125172700,6.1981728515625,6.350551128387451,5.912664890289307,-0.20578274130821228
1775341737141959700,6.214959716796875,4.9435715675354,6.474977970123291,0.14356936514377594
1775341737158747000,6.231746826171875,6.144768714904785,5.98444938659668,-0.1986042857170105
1775341737175533800,6.248533935546875,8.812766075134277,5.362315654754639,-0.08135596662759781
1775341737192321000,6.265321044921875,6.0610198974609375,6.010770320892334,-0.43549370765686035
1775341737209108000,6.28210791015625,5.1182475090026855,6.640082836151123,0.18424734473228455
1775341737225895000,6.29889501953125,7.176074981689453,6.051448345184326,-0.8805587291717529
1775341737242682000,6.31568212890625,6.111268997192383,6.721438884735107,-0.016749758273363113
1775341737259469000,6.332468994140625,6.017949104309082,6.802794933319092,-0.6149554252624512
1775341737276256300,6.34925634765625,7.886743545532227,5.900700569152832,-0.2871387302875519
1775341737293043200,6.366043212890625,6.147161483764648,7.087540626525879,-0.638883650302887
1775341737309830400,6.382830322265625,6.7932233810424805,6.788437843322754,-0.0526420995593071
1775341737326617300,6.399617431640625,6.807580471038818,6.750152587890625,-0.4953143000602722
1775341737343404500,6.416404541015625,6.833901405334473,7.037291526794434,-0.2153540402650833
1775341737360191500,6.43319140625,6.876972198486328,6.64486837387085,0.2991028428077698
1775341737376978700,6.449978759765625,6.154339790344238,7.477570533752441,-0.46420758962631226
1775341737393765600,6.466765625,7.814958572387695,6.620940208435059,0.6125625967979431
1775341737410552800,6.483552734375,6.872186660766602,6.843472957611084,-0.8662018179893494
1775341737427339800,6.50033984375,5.886343479156494,6.8410797119140625,0.30628129839897156
1775341737444127000,6.517126953125,7.223931789398193,6.788437843322754,-0.6580262184143066
1775341737460914000,6.533913818359375,6.44387149810791,6.814758777618408,-0.02153540402650833
1775341737477701000,6.550701171875,7.247859954833984,6.465406894683838,-0.41874396800994873
1775341737494488000,6.567488037109375,6.838686943054199,6.879364967346191,-0.007178467698395252
1775341737511275300,6.584275146484375,6.735795974731445,6.97268533706665,-0.5886343717575073
1775341737528062200,6.601062255859375,6.953542709350586,6.876972198486328,0.035892341285943985
1775341737544849400,6.617849365234375,7.010970115661621,7.046862602233887,-0.41874396800994873
1775341737561636400,6.63463623046875,6.556334018707275,7.137789726257324,-0.062213387340307236
1775341737578423600,6.651423583984375,7.17368221282959,6.788437843322754,-0.45224347710609436
1775341737595210500,6.66821044921875,6.45822811126709,6.965506553649902,-0.41156548261642456
1775341737611997700,6.684997802734375,6.91765022277832,7.044469833374023,-0.4737788736820221
1775341737628784600,6.70178466796875,6.896114826202393,7.29810905456543,-0.3924229145050049
1775341737645571800,6.71857177734375,7.0923261642456055,6.955935478210449,0.10289137065410614
1775341737662359000,6.735359130859375,6.398407936096191,6.946363925933838,-0.1746760457754135
1775341737679146000,6.75214599609375,6.960721015930176,6.948757171630859,0.08135596662759781
1775341737695933200,6.76893310546875,6.7070817947387695,7.044469833374023,-0.3924229145050049
1775341737712720100,6.78572021484375,7.17368221282959,7.312466144561768,-0.1339980661869049
1775341737729507300,6.80250732421875,6.271588325500488,7.3675007820129395,-0.17946170270442963
1775341737746294300,6.819294189453125,6.329015731811523,7.420143127441406,0.059820566326379776
1775341737763081500,6.83608154296875,7.867600917816162,6.738188743591309,-0.3206382393836975
1775341737779868400,6.852868408203125,6.116054534912109,8.243273735046387,-0.12921242415905
1775341737796655600,6.869655517578125,8.405985832214355,7.118647575378418,-0.3038884699344635
1775341737813442600,6.886442626953125,7.877171993255615,7.35314416885376,-0.30628129839897156
1775341737830229800,6.903229736328125,6.58265495300293,7.69531774520874,-0.11246266216039658
1775341737847016700,6.9200166015625,7.752745151519775,7.520641803741455,-0.7489534616470337
1775341737863804000,6.936803955078125,7.2335028648376465,7.396214962005615,-0.09571290761232376
1775341737880591000,6.953591064453125,7.058826923370361,7.477570533752441,-0.45942193269729614
1775341737897378000,6.9703779296875,7.207181930541992,7.542177200317383,-0.07178468257188797
1775341737914165200,6.987165283203125,7.149754047393799,7.637889862060547,-0.42831525206565857
1775341737930952200,7.0039521484375,6.8171515464782715,7.245467185974121,0.20817556977272034
1775341737947739400,7.020739501953125,7.95134973526001,6.929614543914795,-0.5264210104942322
1775341737964526300,7.0375263671875,7.2430739402771,7.159325122833252,-0.1459621787071228
1775341737981313500,7.0543134765625,6.740581512451172,7.171289443969727,-0.42352959513664246
1775341737998100500,7.0711005859375,7.200003147125244,7.0995049476623535,-0.20817556977272034
1775341738014887700,7.0878876953125,6.415157318115234,7.417750358581543,-0.11006984114646912
1775341738031674600,7.104674560546875,6.051448345184326,7.381857872009277,-0.009571290574967861
1775341738048461800,7.1214619140625,9.34875774383545,6.137589931488037,-0.5694918036460876
1775341738065248800,7.138248779296875,6.589833736419678,7.946564197540283,-0.24885354936122894
1775341738082036000,7.155035888671875,6.331408500671387,7.429714202880859,-0.1052841991186142
1775341738098823200,7.1718232421875,7.9250288009643555,7.176074981689453,-0.5072783827781677
1775341738115610000,7.188610107421875,7.152146816253662,7.293323516845703,-0.37806597352027893
1775341738132397300,7.205397216796875,6.776473522186279,7.575676441192627,-0.4211367964744568
1775341738149184300,7.222184326171875,7.489534854888916,6.915257453918457,-0.22492532432079315
1775341738165971500,7.238971435546875,6.474977970123291,7.142575740814209,-0.2512463629245758
1775341738182758400,7.25575830078125,6.558726787567139,7.106683254241943,-0.3278166949748993
1775341738199545600,7.272545654296875,6.996613502502441,6.692724704742432,0.014356935396790504
1775341738216332500,7.28933251953125,6.984649181365967,7.274180889129639,-0.16031911969184875
1775341738233119700,7.30611962890625,7.192824840545654,6.884150981903076,-0.275174617767334
1775341738249906700,7.32290673828125,6.362515449523926,7.161718368530273,-0.08614161610603333
1775341738266694000,7.33969384765625,6.754938125610352,7.164111137390137,-0.2727817893028259
1775341738283481000,7.356481201171875,5.876772403717041,7.534998416900635,-0.14835500717163086
1775341738300268000,7.37326806640625,6.38165807723999,7.451249599456787,-0.38285163044929504
1775341738317055200,7.39005517578125,8.066205024719238,6.565905570983887,-0.33499518036842346
1775341738333842200,7.40684228515625,6.501298904418945,7.558926582336426,-0.41874396800994873
1775341738350629400,7.42362939453125,6.362515449523926,7.381857872009277,-0.16031911969184875
1775341738367416300,7.440416259765625,7.566105365753174,7.085147857666016,-0.6436693072319031
1775341738384203500,7.45720361328125,6.45822811126709,7.434499740600586,0.05024927482008934
1775341738400990700,7.47399072265625,6.891329288482666,6.941578388214111,-0.4737788736820221
1775341738417777700,7.490777587890625,6.752545356750488,6.891329288482666,0.03349951654672623
1775341738434564900,7.50756494140625,6.8004021644592285,6.850651264190674,-0.34217363595962524
1775341738451351800,7.524351806640625,6.98704195022583,6.943971157073975,-0.1818545162677765
1775341738468139000,7.541138916015625,6.422336101531982,7.013363361358643,-0.2225325107574463
1775341738484926200,7.55792626953125,7.216753005981445,7.113861560821533,-0.18424734473228455
1775341738501713200,7.574713134765625,6.357729911804199,7.276573657989502,-0.24167509377002716
1775341738518500400,7.591500244140625,6.881757736206055,7.144968509674072,-0.31106695532798767
1775341738535287300,7.608287353515625,6.690331935882568,7.202396392822266,-0.3206382393836975
1775341738552074500,7.625074462890625,7.037291526794434,7.2095746994018555,-0.1746760457754135
1775341738568861400,7.641861328125,8.37009334564209,6.64486837387085,-0.18903298676013947
1775341738585648600,7.658648681640625,6.123233318328857,7.408178806304932,-0.23210379481315613
1775341738602435800,7.675435791015625,7.326822757720947,6.92482852935791,-0.26560330390930176
1775341738619222800,7.692222900390625,7.618747234344482,7.113861560821533,-0.5407779216766357
1775341738636010000,7.709010009765625,6.116054534912109,7.5637125968933105,-0.2560320198535919
1775341738652797000,7.725796875,7.142575740814209,7.168896675109863,-0.39481574296951294
1775341738669584100,7.742584228515625,7.238288402557373,7.245467185974121,-0.2919243574142456
1775341738686371000,7.75937109375,6.649653911590576,7.17368221282959,-0.18903298676013947
1775341738703158300,7.776158203125,7.1234331130981445,7.465606689453125,-0.2153540402650833
1775341738719945500,7.792945556640625,6.805187702178955,7.326822757720947,-0.2967100143432617
1775341738736732400,7.809732421875,5.970092296600342,7.506284713745117,0.05742774158716202
1775341738753519600,7.82651953125,7.451249599456787,7.45364236831665,-0.2967100143432617
1775341738770306600,7.843306640625,7.511070251464844,7.5708909034729,-0.13160525262355804
1775341738787093800,7.86009375,6.654439926147461,8.008777618408203,-0.2512463629245758
1775341738803881000,7.876880859375,7.458428382873535,8.133204460144043,-0.32303106784820557
1775341738820668000,7.89366796875,9.231510162353516,7.752745151519775,-0.5312066078186035
1775341738837455000,7.910455078125,7.020541667938232,8.508877754211426,-0.39960137009620667
1775341738854242000,7.927241943359375,7.621140003204346,8.3629150390625,-0.33499518036842346
1775341738871029200,7.944029296875,8.195417404174805,8.439485549926758,-0.4450650215148926
1775341738887816400,7.96081640625,7.8819580078125,8.496912956237793,-0.26560330390930176
1775341738904603400,7.977603271484375,8.063812255859375,8.566305160522461,-0.33499518036842346
1775341738921390600,7.994390625,7.836493968963623,8.683553695678711,-0.24406790733337402
1775341738938177500,8.011177490234376,8.169096946716309,8.666803359985352,-0.4905286431312561
1775341738954964700,8.02796484375,7.688138961791992,8.760123252868652,-0.08853443711996078
1775341738971752000,8.044751953125,8.48016357421875,8.346165657043457,-0.48574298620224
1775341738988539000,8.061538818359375,8.140382766723633,8.738588333129883,0
1775341739005326000,8.078326171875,7.534998416900635,8.434700012207031,-0.34217363595962524
1775341739022113000,8.095113037109375,8.149953842163086,8.69791030883789,-0.20578274130821228
1775341739038900200,8.111900146484375,8.142775535583496,8.25523853302002,-0.13878370821475983
1775341739055687400,8.1286875,8.595019340515137,8.530412673950195,-0.12203395366668701
1775341739072474400,8.145474365234374,6.833901405334473,8.772088050842285,-0.24167509377002716
1775341739089261600,8.162261474609375,8.264809608459473,7.898707389831543,-0.09092725813388824
1775341739106048500,8.179048583984375,8.293522834777832,8.049455642700195,-0.5527420043945312
1775341739122835700,8.195835693359374,6.900900363922119,8.248059272766113,0.014356935396790504
1775341739139623000,8.212622802734375,8.779266357421875,8.281558990478516,-0.31824541091918945
1775341739156409900,8.229409912109375,7.350750923156738,8.260024070739746,0.0526420995593071
1775341739173197000,8.246197021484376,7.262216567993164,8.360522270202637,-0.3756731450557709
1775341739189984000,8.26298388671875,8.506484031677246,7.314858913421631,-0.3158525824546814
1775341739206771200,8.279771240234375,6.745367050170898,7.941778182983398,-0.37806597352027893
1775341739223558400,8.296558349609375,7.51585578918457,7.735995769500732,-0.2392822653055191
1775341739240345300,8.313345458984376,8.271987915039062,7.381857872009277,-0.7130611538887024
1775341739257132500,8.330132568359375,7.585247993469238,8.047062873840332,-0.19142581522464752
1775341739273919700,8.346919677734375,6.32662296295166,7.350750923156738,-0.23210379481315613
1775341739290706700,8.363706787109376,7.3914289474487305,6.905686378479004,-0.4905286431312561
1775341739307494000,8.380493896484374,7.417750358581543,7.618747234344482,-0.12921242415905
1775341739324280800,8.39728076171875,7.2813591957092285,6.927221775054932,-0.2105683982372284
1775341739341068000,8.414068115234375,6.805187702178955,6.888936519622803,-0.3684946894645691
1775341739357855200,8.430855224609376,6.484549522399902,6.9583282470703125,-0.2991028428077698
1775341739374642200,8.44764208984375,6.723831653594971,6.874579429626465,-0.07896314561367035
1775341739391429400,8.464429443359375,6.860222339630127,6.6592254638671875,-0.5647061467170715
1775341739408216300,8.48121630859375,6.666403770446777,6.6352972984313965,-0.29431718587875366
1775341739425003500,8.49800341796875,5.649454116821289,6.8554368019104,-0.31106695532798767
1775341739441790700,8.514790771484375,7.144968509674072,6.175875186920166,-0.19142581522464752
1775341739458578000,8.531577880859375,6.068198204040527,7.056434154510498,-0.02871387079358101
1775341739475364900,8.54836474609375,5.496313571929932,6.065805435180664,-0.3924229145050049
1775341739492152000,8.565152099609374,6.008377552032471,5.718846321105957,-0.05024927482008934
1775341739508939000,8.58193896484375,4.6061835289001465,6.0538411140441895,-0.13878370821475983
1775341739525726200,8.598726318359375,6.738188743591309,5.333601474761963,0.062213387340307236
1775341739542513200,8.61551318359375,5.498706340789795,5.0225348472595215,-0.2560320198535919
1775341739559300400,8.63230029296875,6.094519138336182,4.871787071228027,-0.2847459018230438
1775341739576087600,8.649087646484375,5.371886730194092,5.0225348472595215,-0.4570291340351105
1775341739592874500,8.66587451171875,3.625126361846924,4.972285270690918,0.08135596662759781
1775341739609661700,8.68266162109375,5.036891460418701,4.534399032592773,-0.6029912829399109
1775341739626449000,8.699448974609375,4.359723091125488,4.213760852813721,-0.33738797903060913
1775341739643235800,8.71623583984375,4.275974273681641,4.625326156616211,-0.5120640397071838
1775341739660023000,8.73302294921875,4.40757942199707,4.041477680206299,-0.25363919138908386
1775341739676810200,8.749810302734375,3.9050865173339844,4.151547431945801,-0.2679961323738098
1775341739693597200,8.76659716796875,5.314459323883057,3.6059837341308594,-0.16271193325519562
1775341739710384400,8.78338427734375,4.000799655914307,4.59421968460083,0.02153540402650833
1775341739727171300,8.80017138671875,4.780859470367432,4.460221290588379,0.02392822690308094
1775341739743958500,8.81695849609375,4.2209391593933105,4.957928657531738,0.02632104977965355
1775341739760745700,8.833745849609375,5.146961688995361,5.197210788726807,-0.13878370821475983
1775341739777533000,8.850532958984376,4.742574691772461,5.343173027038574,-0.15553347766399384
1775341739794320000,8.86731982421875,4.7712883949279785,6.142375946044922,-0.29431718587875366
1775341739811107000,8.884107177734375,7.898707389831543,4.536791801452637,-0.33499518036842346
1775341739827894000,8.90089404296875,4.7952165603637695,6.498906135559082,-0.16510476171970367
1775341739844681200,8.91768115234375,6.2500529289245605,5.831308841705322,-0.40677985548973083
1775341739861468400,8.934468505859375,5.467599868774414,6.884150981903076,-0.11006984114646912
1775341739878255400,8.95125537109375,9.477970123291016,4.874179840087891,-0.5575276613235474
1775341739895042600,8.96804248046875,6.467799663543701,6.2668023109436035,-0.6149554252624512
1775341739911829500,8.98482958984375,4.728217601776123,7.1162543296813965,-0.08614161610603333
1775341739928616700,9.00161669921875,8.037490844726562,5.855237007141113,-0.6675975322723389
1775341739945404000,9.01840380859375,5.706881999969482,6.8243303298950195,-0.35413774847984314
1775341739962190800,9.03519091796875,6.120840549468994,6.656832695007324,0.031106693670153618
1775341739978978000,9.05197802734375,7.594819068908691,6.56829833984375,-0.5599204897880554
1775341739995765200,9.06876513671875,6.680760860443115,6.661618232727051,-0.19381862878799438
1775341740012552200,9.08555224609375,6.120840549468994,7.04925537109375,-0.15314064919948578
1775341740029339400,9.10233935546875,6.8865437507629395,7.0995049476623535,-0.11006984114646912
1775341740046126600,9.119126708984375,6.204588890075684,7.458428382873535,-0.2871387302875519
1775341740062913500,9.13591357421875,7.491927623748779,7.109076023101807,-0.23449662327766418
1775341740079700700,9.15270068359375,7.245467185974121,6.965506553649902,-0.5335994362831116
1775341740096487700,9.16948779296875,6.16391134262085,7.479963779449463,-0.12203395366668701
1775341740113275000,9.18627490234375,7.214360237121582,7.156932353973389,-0.2991028428077698
1775341740130062000,9.20306201171875,7.274180889129639,7.054041385650635,-0.1746760457754135
1775341740146849300,9.219849365234374,6.967899322509766,7.6737823486328125,-0.4618147611618042
1775341740163636200,9.23663623046875,6.530013084411621,7.5708909034729,-0.016749758273363113
1775341740180423400,9.25342333984375,6.941578388214111,7.003791809082031,-0.16749759018421173
1775341740197210400,9.27021044921875,7.0923261642456055,7.319644451141357,-0.14835500717163086
1775341740213997600,9.28699755859375,6.309873104095459,7.601997375488281,-0.48095735907554626
1775341740230784800,9.30378466796875,7.319644451141357,6.900900363922119,-0.29431718587875366
1775341740247571700,9.32057177734375,6.788437843322754,7.1856465339660645,-0.46420758962631226
1775341740264359000,9.33735888671875,6.9344000816345215,7.465606689453125,-0.20338992774486542
1775341740281146000,9.35414599609375,7.609176158905029,7.070790767669678,-0.5335994362831116
1775341740297933000,9.37093310546875,5.757131099700928,7.637889862060547,-0.1986042857170105
1775341740314720300,9.38772021484375,7.618747234344482,7.018148899078369,-0.24885354936122894
1775341740331507500,9.404507568359374,7.482356548309326,7.432106971740723,-0.10049854964017868
1775341740348294400,9.42129443359375,6.809973239898682,7.70249605178833,0.059820566326379776
1775341740365081600,9.43808154296875,6.52044153213501,7.642675399780273,-0.06939185410737991
1775341740381868800,9.454868896484374,8.475378036499023,7.171289443969727,-0.3326023519039154
1775341740398655700,9.47165576171875,5.795416355133057,7.814958572387695,-0.4211367964744568
1775341740415443000,9.48844287109375,8.257631301879883,7.573283672332764,-0.09571290761232376
1775341740432230100,9.505230224609376,7.2430739402771,7.3986077308654785,-0.6532405614852905
1775341740449017000,9.52201708984375,6.546762943267822,8.078168869018555,-0.38763725757598877
1775341740465804300,9.53880419921875,7.168896675109863,8.063812255859375,-0.39481574296951294
1775341740482591500,9.555591552734375,7.307680130004883,7.448856830596924,-0.3852444589138031
1775341740499378400,9.57237841796875,7.0301127433776855,7.982456207275391,-0.2560320198535919
1775341740516165600,9.58916552734375,6.809973239898682,7.350750923156738,-0.019142581149935722
1775341740532952800,9.605952880859375,6.989434719085693,7.238288402557373,-0.2727817893028259
1775341740549739800,9.62273974609375,6.975078105926514,7.427321434020996,-0.17706887423992157
1775341740566527000,9.63952685546875,7.338787078857422,7.700103282928467,-0.3684946894645691
1775341740583314200,9.656314208984375,6.32662296295166,7.274180889129639,-0.0023928226437419653
1775341740600101000,9.67310107421875,7.420143127441406,7.8556365966796875,-0.48813581466674805
1775341740616888300,9.689888427734376,7.020541667938232,7.791030406951904,0.0023928226437419653
1775341740633675500,9.706675537109374,7.077969551086426,7.439285755157471,-0.550349235534668
1775341740650462500,9.72346240234375,6.276373863220215,7.4464640617370605,-0.20578274130821228
1775341740667249700,9.740249755859375,8.161917686462402,7.412964344024658,-0.605384111404419
1775341740684036900,9.757036865234374,6.872186660766602,7.726424217224121,-0.1579262912273407
1775341740700823800,9.77382373046875,7.022934436798096,7.35314416885376,-0.42352959513664246
1775341740717611000,9.790611083984375,7.1234331130981445,7.692924976348877,-0.11964113265275955
1775341740734398200,9.807398193359376,7.11146879196167,7.542177200317383,-0.2105683982372284
1775341740751185200,9.82418505859375,7.09711217880249,7.29093074798584,-0.275174617767334
1775341740767972400,9.840972412109375,7.470392227172852,7.6043901443481445,-0.2153540402650833
1775341740784759600,9.857759521484375,7.527820110321045,7.616354465484619,0.0023928226437419653
1775341740801546500,9.87454638671875,7.022934436798096,8.068597793579102,-0.07896314561367035
1775341740818333700,9.891333740234375,8.118846893310547,7.625925540924072,-0.20099709928035736
1775341740835121000,9.908120849609375,7.460821151733398,8.135597229003906,-0.5048855543136597
1775341740851907800,9.924907958984376,6.742974281311035,8.726624488830566,-0.05503492057323456
1775341740868695000,9.941695068359374,7.944170951843262,8.61894702911377,-0.5575276613235474
1775341740885482200,9.958482177734375,8.336593627929688,8.080561637878418,0.014356935396790504
1775341740902269200,9.975269287109375,6.561119556427002,9.492327690124512,-0.3517449200153351
1775341740919056400,9.992056396484376,9.461220741271973,7.829315662384033,-0.11246266216039658
1775341740935843600,10.008843505859375,8.104490280151367,9.066405296325684,-0.6101697683334351
1775341740952630500,10.025630615234375,7.465606689453125,9.037691116333008,-0.10767702013254166
1775341740969417700,10.042417724609376,8.803194046020508,8.72901725769043,-0.7537391185760498
1775341740986205000,10.059204833984374,7.762316703796387,8.951549530029297,-0.12203395366668701
1775341741002991900,10.075991943359375,8.008777618408203,8.863015174865723,-0.7824530005455017
1775341741019779000,10.092779052734375,7.9657063484191895,8.772088050842285,0.17706887423992157
1775341741036566300,10.109566162109376,7.968099594116211,8.544769287109375,-0.6340979933738708
1775341741053353200,10.126353271484374,8.329415321350098,8.798408508300781,0.20338992774486542
1775341741070140400,10.143140380859375,7.164111137390137,8.453842163085938,-0.6029912829399109
1775341741086927600,10.159927734375,8.240880966186523,8.482556343078613,0.11246266216039658
1775341741103714600,10.176714599609374,7.448856830596924,8.22413158416748,-0.8279166221618652
1775341741120501800,10.193501708984375,8.09252643585205,8.257631301879883,-0.16510476171970367
1775341741137289000,10.2102890625,7.611568927764893,7.968099594116211,-0.5910272002220154
1775341741154076000,10.227075927734376,7.657032489776611,8.169096946716309,-0.064606212079525
1775341741170863000,10.243863037109374,7.884350776672363,7.680960655212402,-0.38763725757598877
1775341741187650300,10.260650390625,7.17368221282959,7.848458290100098,-0.12442677468061447
1775341741204437500,10.2774375,6.5419769287109375,8.133204460144043,-0.24167509377002716
1775341741221224400,10.294224365234374,7.2335028648376465,7.905886173248291,-0.04785645380616188
1775341741238011600,10.31101171875,7.865208148956299,7.886743545532227,-0.28953152894973755
1775341741254798800,10.327798828125,7.558926582336426,7.499105930328369,-0.031106693670153618
1775341741271585800,10.344585693359376,8.451449394226074,7.527820110321045,-0.2919243574142456
1775341741288373000,10.361373046875,5.907878875732422,8.283951759338379,-0.24646073579788208
1775341741305160200,10.37816015625,7.393822193145752,7.621140003204346,-0.4426721930503845
1775341741321947100,10.394947021484375,6.592226505279541,7.645068168640137,-0.12681959569454193
1775341741338734300,10.411734375,6.929614543914795,7.530212879180908,-0.2512463629245758
1775341741355521500,10.428521484375,6.991827964782715,7.020541667938232,-0.25363919138908386
1775341741372308500,10.44530859375,7.300501823425293,7.642675399780273,-0.1339980661869049
1775341741389095700,10.462095703125,6.927221775054932,6.98704195022583,-0.007178467698395252
1775341741405883000,10.4788828125,6.300302028656006,6.704689025878906,-0.21774685382843018
1775341741422669800,10.495669921875,7.051648139953613,6.9822564125061035,-0.3924229145050049
1775341741439457000,10.51245703125,6.57547664642334,7.250252723693848,-0.06699903309345245
1775341741456244200,10.529244140625,5.661418437957764,6.410371780395508,-0.2225325107574463
1775341741473031200,10.54603125,6.860222339630127,6.45822811126709,-0.4618147611618042
1775341741489818400,10.562818359375,5.931807518005371,6.355337142944336,-0.5216353535652161
1775341741506605600,10.57960546875,4.524827480316162,7.087540626525879,0.3732803463935852
1775341741523392800,10.596392822265624,8.398807525634766,4.878965377807617,-0.4139583110809326
1775341741540179700,10.6131796875,3.838087558746338,6.178267955780029,-0.3086741268634796
1775341741556967000,10.629966796875,5.501099109649658,5.496313571929932,0.37806597352027893
1775341741573754000,10.646754150390626,8.291130065917969,4.240081787109375,-1.1892328262329102
1775341741590541000,10.663541015625,4.027120590209961,5.594419479370117,0.06699903309345245
1775341741607328300,10.680328369140625,4.742574691772461,4.960321426391602,-0.14356936514377594
1775341741624115500,10.697115478515625,5.891129493713379,4.223331928253174,-0.44745782017707825
1775341741640902400,10.71390234375,5.072783946990967,4.563112735748291,-0.11246266216039658
1775341741657689600,10.730689697265625,3.493520975112915,4.878965377807617,-0.4618147611618042
1775341741674476800,10.747476806640625,4.7234320640563965,4.240081787109375,-0.21774685382843018
1775341741691263700,10.764263671875,3.9864425659179688,4.225724697113037,-0.14356936514377594
1775341741708051000,10.781051025390624,4.759324073791504,3.9122650623321533,-0.2584248483181
1775341741724838100,10.797838134765625,4.460221290588379,3.9840497970581055,-0.0526420995593071
1775341741741625000,10.814625,4.443471431732178,4.139583110809326,-0.1339980661869049
1775341741758412300,10.831412353515624,4.938786029815674,4.118047714233398,-0.21296121180057526
1775341741775199500,10.848199462890625,4.543970108032227,4.587040901184082,-0.12921242415905
1775341741791986400,10.864986328125,4.780859470367432,4.622933387756348,-0.038285162299871445
1775341741808773600,10.881773681640626,5.446064472198486,5.144568920135498,-0.19142581522464752
1775341741825560800,10.898560791015624,5.343173027038574,5.036891460418701,0.035892341285943985
1775341741842348000,10.91534814453125,4.9531426429748535,5.726024627685547,-0.5335994362831116
1775341741859135000,10.932135009765625,5.848058700561523,5.429314613342285,-0.22971096634864807
1775341741875922200,10.948922119140626,5.8337016105651855,5.077569484710693,-0.3565305769443512
1775341741892709400,10.96570947265625,5.290530681610107,6.245266914367676,-0.38763725757598877
1775341741909496300,10.982496337890625,6.654439926147461,5.819344520568848,-0.41874396800994873
1775341741926283500,10.999283447265626,4.7401814460754395,6.7310099601745605,-0.004785645287483931
1775341741943070700,11.01607080078125,7.29093074798584,6.235695838928223,-0.33738797903060913
1775341741959857700,11.032857666015625,6.876972198486328,6.154339790344238,-0.42352959513664246
1775341741976644900,11.049644775390625,5.4867424964904785,7.479963779449463,0.0526420995593071
1775341741993432000,11.06643212890625,7.2574310302734375,6.680760860443115,-0.36610186100006104
1775341742010219300,11.08321923828125,7.5804619789123535,6.867401123046875,-0.31345975399017334
1775341742027006200,11.100006103515625,6.350551128387451,7.10429048538208,-0.32542386651039124
1775341742043793400,11.11679345703125,6.709474563598633,6.932007312774658,-0.36610186100006104
1775341742060580600,11.13358056640625,6.865008354187012,7.044469833374023,-0.06939185410737991
1775341742077367600,11.150367431640625,7.04207706451416,7.245467185974121,-0.06939185410737991
1775341742094154800,11.16715478515625,6.805187702178955,7.149754047393799,-0.24646073579788208
1775341742110942000,11.18394189453125,6.881757736206055,7.2095746994018555,0.014356935396790504
1775341742127729000,11.20072900390625,7.57806921005249,7.226324558258057,-0.18903298676013947
1775341742144516000,11.21751611328125,7.168896675109863,7.302894592285156,-0.06939185410737991
1775341742161303300,11.23430322265625,6.604190349578857,7.680960655212402,-0.20817556977272034
1775341742178090200,11.25109033203125,7.283751964569092,7.18086051940918,0.0526420995593071
1775341742194877400,11.26787744140625,7.64028263092041,7.056434154510498,-0.8039883971214294
1775341742211664600,11.28466455078125,7.4464640617370605,7.810173034667969,0.07178468257188797
1775341742228451600,11.30145166015625,6.989434719085693,7.716853141784668,-0.849452018737793
1775341742245238800,11.31823876953125,7.860422611236572,7.860422611236572,-0.15074782073497772
1775341742262026000,11.33502587890625,6.702296257019043,7.788637638092041,-0.3517449200153351
1775341742278813200,11.351813232421875,7.066005229949951,7.70249605178833,-0.038285162299871445
1775341742295600000,11.36860009765625,7.707281589508057,7.405786037445068,-0.638883650302887
1775341742312387300,11.38538720703125,7.3986077308654785,7.728816986083984,-0.22013968229293823
1775341742329174500,11.402174560546875,7.226324558258057,7.2574310302734375,0.04307080805301666
1775341742345961700,11.418961669921876,7.690532207489014,7.9657063484191895,-0.3924229145050049
1775341742362748700,11.435748779296874,7.238288402557373,7.470392227172852,0.0023928226437419653
1775341742379536000,11.452535888671875,6.92482852935791,7.8388872146606445,-0.2799602448940277
1775341742396323000,11.469322998046875,8.23130989074707,7.525427341461182,-0.29431718587875366
1775341742413110000,11.486110107421876,6.941578388214111,8.063812255859375,-0.2105683982372284
1775341742429897200,11.502897216796875,7.377072334289551,7.5086774826049805,-0.14356936514377594
1775341742446684400,11.519684326171875,7.752745151519775,7.657032489776611,-0.7585247755050659
1775341742463471400,11.536471435546876,6.953542709350586,7.676175117492676,0.32303106784820557
1775341742480258600,11.553258544921874,7.424928665161133,7.64028263092041,-0.885344386100769
1775341742497045800,11.570045654296875,7.085147857666016,7.551748275756836,0.23449662327766418
1775341742513832700,11.586832763671875,7.75753116607666,7.762316703796387,-0.9690931439399719
1775341742530620000,11.603619873046876,7.35314416885376,7.802994728088379,0.22013968229293823
1775341742547407000,11.620406982421875,7.288537979125977,7.496713161468506,-0.5335994362831116
1775341742564194300,11.6371943359375,6.63769006729126,7.908278942108154,0.07178468257188797
1775341742580981200,11.653981201171876,7.18086051940918,7.4847493171691895,-0.42352959513664246
1775341742597768400,11.6707685546875,7.802994728088379,6.424728870391846,-0.29431718587875366
1775341742614555600,11.6875556640625,5.5345988273620605,8.054241180419922,-0.038285162299871445
1775341742631342800,11.7043427734375,7.444071292877197,7.226324558258057,-0.46420758962631226
1775341742648129800,11.7211298828125,6.601797580718994,7.1856465339660645,0.13160525262355804
1775341742664917000,11.7379169921875,6.501298904418945,7.525427341461182,-0.07178468257188797
1775341742681704200,11.7547041015625,6.999006271362305,7.6043901443481445,-0.02392822690308094
1775341742698491100,11.7714912109375,7.609176158905029,7.286144733428955,-0.14356936514377594
1775341742715278300,11.7882783203125,9.408578872680664,6.879364967346191,-0.5718846321105957
1775341742732065500,11.8050654296875,7.3675007820129395,7.700103282928467,-0.3326023519039154
1775341742748852700,11.821852783203125,7.7216386795043945,7.661818027496338,-0.39960137009620667
1775341742765639700,11.8386396484375,7.791030406951904,7.625925540924072,-0.4139583110809326
1775341742782427000,11.855427001953124,7.247859954833984,8.104490280151367,-0.3086741268634796
1775341742799214000,11.872214111328125,7.788637638092041,7.867600917816162,-0.40677985548973083
1775341742816001000,11.8890009765625,7.3052873611450195,7.750352382659912,-0.32542386651039124
1775341742832788200,11.905788330078124,7.2335028648376465,7.659425258636475,-0.16271193325519562
1775341742849575400,11.922575439453125,7.712067604064941,7.719245910644531,-0.1986042857170105
1775341742866362600,11.939362548828125,6.781259536743164,7.8556365966796875,-0.10289137065410614
1775341742883149600,11.956149658203126,7.657032489776611,7.566105365753174,-0.06699903309345245
1775341742899936800,11.972936767578124,7.554141044616699,7.848458290100098,-0.26081767678260803
1775341742916724000,11.989723876953125,6.996613502502441,8.169096946716309,-0.2392822653055191
1775341742933511000,12.006510986328125,7.841279983520508,8.02074146270752,-0.4426721930503845
1775341742950298000,12.023298095703124,8.032705307006836,7.987242221832275,-0.26081767678260803
1775341742967085300,12.040085205078125,7.716853141784668,8.310273170471191,-0.39960137009620667
1775341742983872500,12.05687255859375,7.76470947265625,8.585447311401367,-0.25363919138908386
1775341743000659500,12.073659423828126,8.025527000427246,8.34855842590332,-0.4618147611618042
1775341743017446700,12.09044677734375,7.999206066131592,8.803194046020508,-0.3326023519039154
1775341743034233900,12.10723388671875,7.549355506896973,8.434700012207031,-0.3397808074951172
1775341743051021000,12.12402099609375,8.159524917602539,8.678768157958984,-0.4331009089946747
1775341743067808000,12.14080810546875,8.102097511291504,8.566305160522461,-0.14356936514377594
1775341743084595200,12.15759521484375,7.762316703796387,8.09970474243164,-0.20817556977272034
1775341743101382400,12.17438232421875,7.800601959228516,8.530412673950195,-0.12442677468061447
1775341743118169300,12.19116943359375,7.566105365753174,8.142775535583496,-0.1866401731967926
1775341743134956500,12.20795654296875,7.680960655212402,7.963313579559326,-0.6101697683334351
1775341743151743700,12.22474365234375,7.944170951843262,8.523234367370605,-0.11964113265275955
1775341743168531000,12.241531005859375,7.032505512237549,7.846065521240234,-0.20817556977272034
1775341743185318000,12.25831787109375,7.393822193145752,7.743174076080322,-0.38285163044929504
1775341743202105000,12.27510498046875,7.8795647621154785,8.116454124450684,-0.3158525824546814
1775341743218892300,12.291892333984375,7.671389579772949,8.102097511291504,-0.31345975399017334
1775341743235679500,12.308679443359376,7.247859954833984,8.047062873840332,-0.0933200865983963
1775341743252466400,12.325466552734374,7.908278942108154,8.252845764160156,-0.3278166949748993
1775341743269253600,12.342253662109375,7.23589563369751,7.724031448364258,-0.11006984114646912
1775341743286040800,12.359040771484375,7.76470947265625,8.183453559875488,-0.4043870270252228
1775341743302828000,12.375828125,7.389036178588867,7.692924976348877,-0.23449662327766418
1775341743319615000,12.392614990234375,7.546962738037109,7.616354465484619,-0.3158525824546814
1775341743336402200,12.409402099609375,7.747959613800049,7.6977105140686035,-0.12203395366668701
1775341743353189400,12.426189453125,7.018148899078369,7.601997375488281,-0.24406790733337402
1775341743369976300,12.442976318359374,6.941578388214111,7.302894592285156,-0.43549370765686035
1775341743386763500,12.459763427734375,7.070790767669678,7.460821151733398,-0.12203395366668701
1775341743403550700,12.47655078125,6.343372821807861,6.879364967346191,-0.37088751792907715
1775341743420338000,12.493337890625,7.2430739402771,7.240681171417236,-0.3613162338733673
1775341743437124900,12.510124755859374,6.465406894683838,6.831508636474609,-0.035892341285943985
1775341743453912000,12.526912109375,7.365108013153076,7.319644451141357,-0.34695929288864136
1775341743470699300,12.54369921875,6.716653347015381,6.8243303298950195,-0.1818545162677765
1775341743487486500,12.560486572265624,7.020541667938232,6.833901405334473,-0.17706887423992157
1775341743504273400,12.5772734375,7.204789161682129,7.200003147125244,-0.38763725757598877
1775341743521060600,12.594060546875,6.616154670715332,6.821937561035156,-0.3038884699344635
1775341743537847800,12.610847900390626,6.340980052947998,6.6352972984313965,-0.27038896083831787
1775341743554635000,12.627635009765624,6.6831536293029785,6.795616149902344,-0.34695929288864136
1775341743571422000,12.644421875,7.348358154296875,6.781259536743164,-0.20099709928035736
1775341743588209200,12.661209228515625,6.5252275466918945,6.702296257019043,-0.06939185410737991
1775341743604996400,12.677996337890624,6.223731517791748,6.187839508056641,-0.35892340540885925
1775341743621783600,12.694783447265625,6.963113784790039,6.159125328063965,-0.23449662327766418
1775341743638570500,12.711570556640625,5.92223596572876,6.4941205978393555,-0.1818545162677765
1775341743655357700,12.728357666015626,6.293123722076416,6.185446739196777,-0.07657032459974289
1775341743672145000,12.745144775390624,7.439285755157471,5.31685209274292,-0.6604190468788147
1775341743688931800,12.761931884765625,3.8883368968963623,5.97727108001709,-0.1339980661869049
1775341743705719000,12.778718994140625,5.848058700561523,5.039284706115723,-0.007178467698395252
1775341743722506200,12.79550634765625,5.747560024261475,4.577469825744629,-0.15314064919948578
1775341743739293400,12.81229345703125,5.2115678787231445,4.742574691772461,-0.23688943684101105
1775341743756080400,12.829080322265625,4.510470867156982,4.9363932609558105,-0.2392822653055191
1775341743772867600,12.84586767578125,4.335794448852539,4.256831645965576,-0.24646073579788208
1775341743789654800,12.86265478515625,4.591826438903809,4.187439441680908,-0.42352959513664246
1775341743806442000,12.87944189453125,4.764110088348389,3.5581271648406982,0.009571290574967861
1775341743823229000,12.89622900390625,3.565305709838867,4.115654945373535,-0.4091726839542389
1775341743840016100,12.91301611328125,4.180261135101318,3.7016966342926025,0.1339980661869049
1775341743856803300,12.92980322265625,5.032105922698975,3.902693748474121,-0.4618147611618042
1775341743873590300,12.94659033203125,4.311866283416748,4.292723655700684,0.07896314561367035
1775341743890377500,12.96337744140625,4.661218643188477,4.182653903961182,-0.1986042857170105
1775341743907164700,12.98016455078125,4.785645484924316,4.826323509216309,0.05742774158716202
1775341743923951900,12.996951904296875,4.122833251953125,5.508277893066406,0.04785645380616188
1775341743940738800,13.01373876953125,4.833501815795898,4.955535888671875,-0.10049854964017868
1775341743957526000,13.030526123046876,7.558926582336426,4.9986066818237305,-0.5216353535652161
1775341743974313200,13.047313232421875,5.469992637634277,5.056034088134766,-0.48095735907554626
1775341743991100400,13.064100341796875,4.993820667266846,5.972485542297363,-0.02632104977965355
1775341744007887400,13.080887451171876,6.288337707519531,6.03948450088501,-0.6269195079803467
1775341744024674600,13.097674560546874,5.86002254486084,6.288337707519531,-0.1818545162677765
1775341744041461800,13.114461669921875,6.592226505279541,5.749952793121338,-0.5359922647476196
1775341744058248700,13.131248779296875,6.91765022277832,6.16391134262085,-0.004785645287483931
1775341744075036000,13.148035888671876,6.300302028656006,6.240481376647949,-0.48574298620224
1775341744091823000,13.164822998046875,5.84566593170166,6.948757171630859,0.18903298676013947
1775341744108610300,13.1816103515625,5.726024627685547,7.226324558258057,-0.13639089465141296
1775341744125397200,13.198397216796875,7.8556365966796875,6.317051887512207,-0.08374879509210587
1775341744142184400,13.215184326171874,6.400800704956055,7.424928665161133,-0.06939185410737991
1775341744158971600,13.2319716796875,6.379265308380127,7.204789161682129,-0.12681959569454193
1775341744175758800,13.2487587890625,7.733603000640869,6.733402729034424,-0.3278166949748993
1775341744192545800,13.2655458984375,6.903293132781982,7.616354465484619,-0.06939185410737991
1775341744209333000,13.2823330078125,7.386643409729004,7.307680130004883,-0.4737788736820221
1775341744226120200,13.2991201171875,7.121040344238281,7.444071292877197,-0.42831525206565857
1775341744242907400,13.315907470703126,6.288337707519531,7.405786037445068,-0.6675975322723389
1775341744259694300,13.3326943359375,7.348358154296875,7.396214962005615,0.09092725813388824
1775341744276481500,13.3494814453125,7.57806921005249,7.743174076080322,-0.9188438653945923
1775341744293268700,13.366268798828125,7.594819068908691,7.467999458312988,0.21296121180057526
1775341744310056000,13.383055908203126,7.3746795654296875,7.432106971740723,-0.6436693072319031
1775341744326843000,13.3998427734375,7.625925540924072,7.365108013153076,0.11485548317432404
1775341744343630000,13.416630126953125,7.125825881958008,7.491927623748779,-0.36610186100006104
1775341744360417300,13.433417236328125,6.881757736206055,7.637889862060547,0.03349951654672623
1775341744377204200,13.450204345703124,7.389036178588867,7.7216386795043945,-0.3732803463935852
1775341744393991400,13.466991455078125,7.6666035652160645,7.470392227172852,-0.09810572862625122
1775341744410778600,13.483778564453125,7.45364236831665,7.795815944671631,-0.6580262184143066
1775341744427565800,13.50056591796875,8.382058143615723,7.659425258636475,-0.059820566326379776
1775341744444352800,13.517352783203124,7.8388872146606445,8.061419486999512,-0.380458801984787
1775341744461140000,13.534139892578125,7.288537979125977,8.001599311828613,-0.1866401731967926
1775341744477927200,13.55092724609375,7.6737823486328125,8.126026153564453,-0.41874396800994873
1775341744494714000,13.567714111328126,7.29093074798584,7.259823799133301,-0.26560330390930176
1775341744511501300,13.584501220703125,6.86261510848999,7.9657063484191895,-0.42831525206565857
1775341744528288500,13.60128857421875,7.5708909034729,7.542177200317383,-0.349352091550827
1775341744545075700,13.61807568359375,7.594819068908691,7.506284713745117,-0.5527420043945312
1775341744561862700,13.634862548828124,6.776473522186279,7.932207107543945,-0.10049854964017868
1775341744578649900,13.65164990234375,6.678368091583252,7.659425258636475,-0.4163511395454407
1775341744595437000,13.66843701171875,7.061219692230225,7.3675007820129395,0.019142581149935722
1775341744612224300,13.685224365234374,6.379265308380127,7.561319351196289,-0.5407779216766357
1775341744629011200,13.70201123046875,7.779066562652588,7.621140003204346,-0.019142581149935722
1775341744645798400,13.71879833984375,6.960721015930176,7.482356548309326,-0.4043870270252228
1775341744662585600,13.735585693359376,6.563512325286865,7.417750358581543,0.04307080805301666
1775341744679372500,13.75237255859375,7.487142086029053,7.5804619789123535,-0.5383850932121277
1775341744696159700,13.76915966796875,7.324429988861084,8.111668586730957,0.2727817893028259
1775341744712947000,13.785947021484375,7.077969551086426,7.70249605178833,-0.49292147159576416
1775341744729734100,13.802734130859376,9.095118522644043,7.17368221282959,0.20338992774486542
1775341744746521000,13.81952099609375,7.341179847717285,7.601997375488281,-0.794417142868042
1775341744763308300,13.836308349609375,7.188039302825928,7.802994728088379,0.016749758273363113
1775341744780095500,13.853095458984376,7.664210796356201,7.733603000640869,-0.5910272002220154
1775341744796882400,13.86988232421875,7.355536937713623,7.609176158905029,-0.05503492057323456
1775341744813669600,13.886669677734375,7.192824840545654,7.637889862060547,-0.6436693072319031
1775341744830456800,13.903456787109375,7.6977105140686035,7.491927623748779,-0.06939185410737991
1775341744847244000,13.920244140625,7.144968509674072,7.6977105140686035,-0.6556333899497986
1775341744864031000,13.937031005859374,7.161718368530273,7.594819068908691,0.0526420995593071
1775341744880818200,13.953818115234375,7.061219692230225,7.410571575164795,-0.48813581466674805
1775341744897605400,13.97060546875,7.621140003204346,7.192824840545654,0.038285162299871445
1775341744914392300,13.987392333984374,7.752745151519775,7.149754047393799,-0.42831525206565857
1775341744931179500,14.004179443359375,7.0061845779418945,7.853243827819824,0.11006984114646912
1775341744947966700,14.020966796875,7.238288402557373,8.188239097595215,-0.5886343717575073
1775341744964754000,14.03775390625,7.479963779449463,7.932207107543945,0.10049854964017868
1775341744981540900,14.054540771484374,7.436892986297607,8.319844245910645,-0.4977070987224579
1775341744998328000,14.071328125,8.140382766723633,8.298309326171875,-0.1746760457754135
1775341745015115300,14.088115234375,8.453842163085938,8.372486114501953,-0.48574298620224
1775341745031902200,14.104902099609374,7.027719974517822,8.451449394226074,-0.18903298676013947
1775341745048689400,14.121689453125,8.34138011932373,8.422736167907715,-0.38763725757598877
1775341745065476600,14.1384765625,7.630711555480957,8.286344528198242,-0.6173482537269592
1775341745082263800,14.155263916015626,7.850851058959961,8.73619556427002,0.040677983313798904
1775341745099050800,14.17205078125,7.932207107543945,8.34138011932373,-0.5910272002220154
1775341745115838000,14.188837890625,8.118846893310547,8.520841598510742,0.16510476171970367
1775341745132625200,14.205625244140625,8.21695327758789,8.549555778503418,-0.7393822073936462
1775341745149412400,14.222412353515624,7.886743545532227,8.477770805358887,0.08853443711996078
1775341745166199300,14.23919921875,8.264809608459473,8.221738815307617,-0.5383850932121277
1775341745182986500,14.255986572265625,7.3675007820129395,8.484949111938477,0.007178467698395252
1775341745199773700,14.272773681640626,7.814958572387695,8.23848819732666,-0.519242525100708
1775341745216561000,14.289560791015624,7.678567886352539,8.157132148742676,-0.1746760457754135
1775341745233347800,14.306347900390625,7.511070251464844,8.34138011932373,-0.02632104977965355
1775341745250135000,14.323135009765625,7.590033531188965,7.8388872146606445,-0.32303106784820557
1775341745266922200,14.339922119140626,8.12123966217041,8.049455642700195,-0.1818545162677765
1775341745283709200,14.356709228515625,7.252645492553711,7.728816986083984,-0.32542386651039124
1775341745300496400,14.373496337890625,7.534998416900635,8.252845764160156,-0.1459621787071228
1775341745317283600,14.39028369140625,7.334001541137695,7.630711555480957,-0.21774685382843018
1775341745334070800,14.40707080078125,7.657032489776611,7.836493968963623,-0.2584248483181
1775341745350857700,14.423857666015625,7.051648139953613,8.01356315612793,-0.05742774158716202
1775341745367645000,14.44064501953125,7.058826923370361,8.018348693847656,-0.25363919138908386
1775341745384432000,14.45743212890625,7.125825881958008,7.7216386795043945,-0.1579262912273407
1775341745401219000,14.474218994140625,7.0995049476623535,7.439285755157471,-0.49292147159576416
1775341745418006300,14.49100634765625,6.9344000816345215,7.69531774520874,-0.0526420995593071
1775341745434793500,14.50779345703125,7.4225358963012695,7.077969551086426,-0.4905286431312561
1775341745451580700,14.52458056640625,7.5326056480407715,6.948757171630859,-0.14117653667926788
1775341745468367600,14.54136767578125,6.52044153213501,7.393822193145752,-0.5144568681716919
1775341745485154800,14.55815478515625,7.262216567993164,7.056434154510498,0.04546362906694412
1775341745501942000,14.57494189453125,6.989434719085693,6.867401123046875,-0.42352959513664246
1775341745518729000,14.59172900390625,6.367300987243652,7.003791809082031,-0.20099709928035736
1775341745535516200,14.60851611328125,6.307480335235596,7.039684295654297,-0.3613162338733673
1775341745552303400,14.625303466796876,7.1473612785339355,6.750152587890625,-0.07657032459974289
1775341745569090300,14.64209033203125,7.271788120269775,6.367300987243652,-0.44027936458587646
1775341745585877500,14.65887744140625,6.915257453918457,6.97986364364624,-0.1052841991186142
1775341745602664700,14.675664794921875,6.175875186920166,6.63769006729126,-0.19142581522464752
1775341745619452000,14.692451904296876,6.230910301208496,6.3122663497924805,-0.2871387302875519
1775341745636238800,14.70923876953125,7.152146816253662,6.434299945831299,-0.43549370765686035
1775341745653026000,14.726026123046875,6.544369697570801,6.544369697570801,-0.05742774158716202
1775341745669813200,14.742813232421875,5.6925249099731445,6.403193473815918,-0.24885354936122894
1775341745686600400,14.759600341796874,7.69531774520874,5.529813289642334,-0.2919243574142456
1775341745703387400,14.776387451171875,6.714260101318359,6.092126369476318,-0.2225325107574463
1775341745720174600,14.793174560546875,6.0538411140441895,6.008377552032471,-0.062213387340307236
1775341745736961800,14.8099619140625,6.075376510620117,5.828916072845459,-0.36610186100006104
1775341745753748700,14.826748779296874,5.749952793121338,5.776273727416992,-0.2871387302875519
1775341745770536000,14.843535888671875,3.996013879776001,6.154339790344238,-0.20578274130821228
1775341745787323100,14.8603232421875,4.9363932609558105,5.92223596572876,-0.41874396800994873
1775341745804110000,14.877110107421874,6.252445697784424,4.979464054107666,-0.36610186100006104
1775341745820897300,14.893897216796875,6.7621169090271,4.551148891448975,-0.3517449200153351
1775341745837684500,14.9106845703125,4.534399032592773,5.077569484710693,0.03349951654672623
1775341745854471400,14.927471435546876,4.077369689941406,4.821537494659424,-0.2632105052471161
1775341745871258600,14.944258544921874,5.333601474761963,4.304687976837158,0.0526420995593071
1775341745888045800,14.9610458984375,4.051048755645752,3.9936211109161377,-0.04546362906694412
1775341745904833000,14.9778330078125,4.639683246612549,4.043870449066162,0.02871387079358101
1775341745921620000,14.994619873046876,4.931607246398926,4.12761926651001,-0.5431707501411438
1775341745938407200,15.0114072265625,4.366901397705078,4.285545349121094,-0.07417750358581543
1775341745955194400,15.0281943359375,5.017749309539795,4.572684288024902,-0.6795616149902344
1775341745971981600,15.044981689453126,4.886143684387207,4.948357105255127,0.064606212079525
1775341745988768500,15.0617685546875,5.048855781555176,5.1182475090026855,-0.22013968229293823
1775341746005555700,15.0785556640625,4.680361270904541,6.44387149810791,0.09810572862625122
1775341746022343000,15.095343017578125,5.096712112426758,5.077569484710693,-0.42352959513664246
1775341746039130000,15.112130126953126,6.293123722076416,5.831308841705322,0.2225325107574463
1775341746055917000,15.1289169921875,5.515456199645996,6.116054534912109,-0.607776939868927
1775341746072704300,15.145704345703125,5.175675392150879,6.226124286651611,0.040677983313798904
1775341746089491500,15.162491455078126,7.731209754943848,5.726024627685547,-0.6221339106559753
1775341746106278400,15.1792783203125,5.115854740142822,6.453442573547363,0.12203395366668701
1775341746123065600,15.196065673828125,5.680561065673828,6.845865726470947,-0.48095735907554626
1775341746139852800,15.212852783203125,7.252645492553711,6.068198204040527,-0.14835500717163086
1775341746156639700,15.2296396484375,5.6207404136657715,6.625725746154785,-0.44027936458587646
1775341746173427000,15.246427001953125,6.467799663543701,6.455835342407227,-0.24885354936122894
1775341746190214100,15.263214111328125,6.752545356750488,6.821937561035156,-0.363709032535553
1775341746207001000,15.2800009765625,6.135197162628174,7.106683254241943,0.16510476171970367
1775341746223788300,15.296788330078124,7.408178806304932,6.539584159851074,-0.45224347710609436
1775341746240575500,15.313575439453125,7.357929706573486,7.262216567993164,0.0526420995593071
1775341746257362700,15.33036279296875,6.790830612182617,7.57806921005249,-0.3517449200153351
1775341746274149600,15.347149658203126,6.752545356750488,7.29093074798584,-0.014356935396790504
1775341746290936800,15.363936767578124,7.214360237121582,7.934599876403809,-0.4139583110809326
1775341746307724000,15.38072412109375,7.872386455535889,7.070790767669678,-0.13639089465141296
1775341746324511000,15.397510986328125,6.668796539306641,7.913064479827881,-0.35892340540885925
1775341746341298200,15.414298095703124,7.207181930541992,7.355536937713623,-0.16031911969184875
1775341746358085400,15.43108544921875,7.432106971740723,7.322037220001221,-0.5838487148284912
1775341746374872600,15.44787255859375,7.262216567993164,7.814958572387695,-0.035892341285943985
1775341746391659500,15.464659423828126,7.032505512237549,7.295716285705566,-0.5886343717575073
1775341746408446700,15.48144677734375,7.094718933105469,7.405786037445068,-0.038285162299871445
1775341746425234000,15.49823388671875,7.554141044616699,7.434499740600586,-0.5216353535652161
1775341746442020900,15.515020751953125,6.752545356750488,7.417750358581543,-0.275174617767334
1775341746458808000,15.53180810546875,7.6666035652160645,7.070790767669678,-0.4331009089946747
1775341746475595300,15.54859521484375,7.2574310302734375,7.23589563369751,0.11006984114646912
1775341746492382200,15.56538232421875,6.467799663543701,7.369893550872803,-0.349352091550827
1775341746509169400,15.58216943359375,6.8171515464782715,7.6043901443481445,-0.15314064919948578
1775341746525956600,15.59895654296875,7.616354465484619,7.195217609405518,-0.44745782017707825
1775341746542743800,15.615743896484375,6.412764549255371,7.267002582550049,0.04546362906694412
1775341746559530800,15.63253076171875,7.168896675109863,7.345965385437012,-0.5048855543136597
1775341746576318000,15.64931787109375,7.680960655212402,7.286144733428955,-0.07896314561367035
1775341746593105200,15.666105224609375,7.03489875793457,7.357929706573486,-0.45224347710609436
1775341746609892400,15.682892333984375,6.314659118652344,7.527820110321045,0.06699903309345245
1775341746626679300,15.69967919921875,7.525427341461182,7.087540626525879,-0.5335994362831116
1775341746643466500,15.716466552734374,7.980063438415527,7.3746795654296875,-0.1818545162677765
1775341746660253700,15.733253662109375,6.128018856048584,7.642675399780273,-0.47617170214653015
1775341746677040600,15.75004052734375,7.18086051940918,7.087540626525879,-0.08374879509210587
1775341746693827800,15.766827880859376,6.872186660766602,7.410571575164795,-0.5000999569892883
1775341746710615000,15.783614990234375,6.91765022277832,7.1473612785339355,0.059820566326379776
1775341746727402000,15.800402099609375,7.858029365539551,7.427321434020996,-0.4737788736820221
1775341746744189200,15.817189208984376,6.742974281311035,7.496713161468506,0.2392822653055191
1775341746760976400,15.833976318359374,7.223931789398193,7.429714202880859,-0.24885354936122894
1775341746777763300,15.850763427734375,6.98704195022583,7.568498134613037,-0.016749758273363113
1775341746794550500,15.867550537109375,6.831508636474609,7.661818027496338,-0.26560330390930176
1775341746811337700,15.884337646484376,7.858029365539551,7.334001541137695,-0.41156548261642456
1775341746828125000,15.901125,7.345965385437012,7.4847493171691895,-0.19142581522464752
1775341746844911900,15.917911865234375,6.759724140167236,7.700103282928467,-0.21774685382843018
1775341746861699000,15.934698974609375,7.51585578918457,7.735995769500732,-0.23688943684101105
1775341746878486300,15.951486328125,7.6977105140686035,7.759923934936523,-0.22971096634864807
1775341746895273200,15.968273193359375,6.786045074462891,7.850851058959961,-0.2584248483181
1775341746912060400,15.985060302734375,7.156932353973389,7.420143127441406,-0.3397808074951172
1775341746928847600,16.00184765625,7.264609336853027,7.003791809082031,-0.1818545162677765
1775341746945634600,16.018634521484376,6.530013084411621,7.496713161468506,-0.2727817893028259
1775341746962421800,16.035421875,6.805187702178955,7.472784996032715,-0.17228323221206665
1775341746979209000,16.052208984375,6.690331935882568,7.45364236831665,-0.2584248483181
1775341746995996200,16.06899609375,7.008577346801758,7.2095746994018555,-0.07896314561367035
1775341747012783000,16.085783203125,6.831508636474609,7.451249599456787,-0.2584248483181
1775341747029570300,16.1025703125,6.50608491897583,7.791030406951904,-0.035892341285943985
1775341747046357500,16.119357421875,7.338787078857422,7.384250640869141,-0.34695929288864136
1775341747063144400,16.13614453125,8.008777618408203,6.9344000816345215,-0.4091726839542389
1775341747079931600,16.152931640625,6.656832695007324,7.798209190368652,-0.4785645306110382
1775341747096718800,16.16971875,8.061419486999512,7.513463020324707,-0.10049854964017868
1775341747113506000,16.186506103515626,7.496713161468506,7.587640762329102,-0.5048855543136597
1775341747130293000,16.20329296875,6.757331371307373,7.886743545532227,-0.3326023519039154
1775341747147080200,16.220080078125,7.420143127441406,8.080561637878418,-0.4618147611618042
1775341747163867400,16.236867431640626,7.539783954620361,7.489534854888916,-0.34217363595962524
1775341747180654300,16.253654296875,7.238288402557373,7.700103282928467,-0.2919243574142456
1775341747197441500,16.270441650390627,6.69990348815918,7.960920810699463,-0.004785645287483931
1775341747214228700,16.287228759765625,7.822137355804443,7.8819580078125,-0.3613162338733673
1775341747231015700,16.304015625,7.195217609405518,8.032705307006836,0.12442677468061447
1775341747247803000,16.320802978515626,7.542177200317383,8.171489715576172,-0.29431718587875366
1775341747264590000,16.337590087890625,7.625925540924072,8.46341323852539,-0.10289137065410614
1775341747281377000,16.354376953125,7.846065521240234,8.48734188079834,-0.32303106784820557
1775341747298164200,16.371164306640626,8.126026153564453,8.652446746826172,-0.29431718587875366
1775341747314951400,16.387951416015625,8.090133666992188,8.523234367370605,-0.4426721930503845
1775341747331738400,16.40473828125,8.037490844726562,8.678768157958984,-0.23688943684101105
1775341747348525600,16.421525634765626,8.166703224182129,8.70508861541748,-0.5168496966362
1775341747365312800,16.438312744140624,7.8795647621154785,8.673981666564941,-0.2392822653055191
1775341747382100000,16.455099853515627,7.989634990692139,8.621339797973633,-0.3924229145050049
1775341747398887000,16.471886962890625,7.8556365966796875,8.525627136230469,0.038285162299871445
1775341747415674000,16.488674072265624,8.15234661102295,8.37727165222168,-0.27038896083831787
1775341747432461300,16.50546142578125,7.755138397216797,8.135597229003906,0.08614161610603333
1775341747449248300,16.522248291015625,7.5708909034729,8.803194046020508,-0.5623133182525635
1775341747466035500,16.539035400390624,8.195417404174805,8.188239097595215,-0.3206382393836975
1775341747482822700,16.55582275390625,7.795815944671631,7.9657063484191895,-0.7058826684951782
1775341747499609600,16.572609619140625,6.771687984466553,8.047062873840332,-0.3900300860404968
1775341747516396800,16.589396728515624,7.953742504119873,7.776673793792725,-0.363709032535553
1775341747533184000,16.60618408203125,8.025527000427246,7.6498541831970215,-0.4977070987224579
1775341747549971200,16.62297119140625,6.52044153213501,7.812565803527832,0.12921242415905
1775341747566758100,16.639758056640623,7.590033531188965,7.898707389831543,-0.2153540402650833
1775341747583545300,16.65654541015625,7.953742504119873,7.427321434020996,-0.16749759018421173
1775341747600332500,16.67333251953125,7.501499176025391,7.590033531188965,-0.15314064919948578
1775341747617119500,16.690119384765627,6.50608491897583,8.054241180419922,-0.19381862878799438
1775341747633906700,16.70690673828125,6.790830612182617,7.781459331512451,-0.4666004180908203
1775341747650694000,16.72369384765625,6.364908218383789,7.204789161682129,-0.17706887423992157
1775341747667480800,16.740480712890626,8.659625053405762,6.951149940490723,-0.4378865361213684
1775341747684268000,16.75726806640625,7.04207706451416,7.427321434020996,-0.19381862878799438
1775341747701055200,16.77405517578125,6.317051887512207,7.836493968963623,-0.3613162338733673
1775341747717842200,16.79084228515625,7.537391185760498,6.967899322509766,-0.4833501875400543
1775341747734629400,16.80762939453125,6.687939167022705,7.544569969177246,-0.15553347766399384
1775341747751416600,16.82441650390625,6.338587284088135,6.905686378479004,-0.32542386651039124
1775341747768203500,16.84120361328125,6.573083877563477,7.207181930541992,-0.07657032459974289
1775341747784990700,16.85799072265625,7.159325122833252,6.57547664642334,-0.2967100143432617
1775341747801778000,16.87477783203125,7.0301127433776855,6.58265495300293,-0.4905286431312561
1775341747818564900,16.89156494140625,6.214160442352295,6.690331935882568,0.031106693670153618
1775341747835352000,16.90835205078125,6.86261510848999,6.757331371307373,-0.6173482537269592
1775341747852139300,16.92513916015625,6.685546398162842,6.8410797119140625,0.12681959569454193
1775341747868926500,16.941926513671874,5.831308841705322,7.118647575378418,-0.45224347710609436
1775341747885713400,16.95871337890625,7.886743545532227,6.340980052947998,0.07896314561367035
1775341747902500600,16.97550048828125,7.283751964569092,6.116054534912109,-0.43549370765686035
1775341747919287800,16.992287841796873,6.123233318328857,6.429514408111572,-0.2991028428077698
1775341747936074800,17.00907470703125,7.051648139953613,6.0538411140441895,-0.41874396800994873
1775341747952862000,17.025862060546874,6.946363925933838,6.113661766052246,-0.15314064919948578
1775341747969649200,17.042649169921877,6.032305717468262,6.546762943267822,-0.41156548261642456
1775341747986436000,17.05943603515625,6.058627128601074,6.106483459472656,0.1459621787071228
1775341748003223300,17.076223388671874,6.017949104309082,6.204588890075684,-0.7130611538887024
1775341748020010500,17.093010498046876,5.237888813018799,5.747560024261475,-0.038285162299871445
1775341748036797400,17.10979736328125,5.869594097137451,5.056034088134766,-0.6101697683334351
1775341748053584600,17.126584716796874,4.398007869720459,5.8337016105651855,-0.004785645287483931
1775341748070371800,17.143371826171876,5.625525951385498,5.26181697845459,-0.4546363055706024
1775341748087158800,17.16015869140625,5.989234924316406,4.713860511779785,-0.1818545162677765
1775341748103946000,17.176946044921873,4.783252239227295,5.350351333618164,-0.28953152894973755
1775341748120733200,17.193733154296876,5.048855781555176,5.06082010269165,0.16510476171970367
1775341748137520000,17.21052001953125,5.5728840827941895,4.821537494659424,-0.08853443711996078
1775341748154307300,17.227307373046877,4.706682205200195,5.285745143890381,-0.1866401731967926
1775341748171094500,17.244094482421875,4.7401814460754395,4.941178798675537,-0.16749759018421173
1775341748187881700,17.2608818359375,5.276174068450928,4.7401814460754395,0.035892341285943985
1775341748204668700,17.277668701171876,5.0225348472595215,5.01296329498291,-0.24885354936122894
1775341748221456000,17.294455810546875,5.577669620513916,4.910071849822998,-0.14117653667926788
1775341748238243000,17.3112431640625,5.170889854431152,5.034498691558838,-0.31345975399017334
1775341748255030000,17.328030029296876,5.247459888458252,5.00578498840332,-0.3397808074951172
1775341748271817200,17.344817138671875,5.639883041381836,5.295316696166992,-0.5048855543136597
1775341748288604400,17.3616044921875,4.3310089111328125,5.907878875732422,-0.12921242415905
1775341748305391400,17.378391357421876,6.056233882904053,5.003392219543457,0.04307080805301666
1775341748322178600,17.395178466796875,5.5728840827941895,6.467799663543701,-0.4043870270252228
1775341748338965800,17.4119658203125,5.948556900024414,5.498706340789795,-0.3445664644241333
1775341748355752700,17.428752685546876,4.802394866943359,6.544369697570801,0.1459621787071228
1775341748372540000,17.445539794921874,7.326822757720947,5.9198431968688965,-0.5623133182525635
1775341748389327000,17.4623271484375,6.20219612121582,6.553941249847412,0.009571290574967861
1775341748406114000,17.479114013671875,5.812166213989258,6.338587284088135,-0.31106695532798767
1775341748422901200,17.4959013671875,6.58265495300293,6.415157318115234,0.02871387079358101
1775341748439688400,17.5126884765625,6.774080753326416,6.640082836151123,-0.3924229145050049
1775341748456475400,17.529475341796875,6.008377552032471,6.845865726470947,-0.46420758962631226
1775341748473262600,17.5462626953125,7.178467750549316,6.293123722076416,0.12921242415905
1775341748490049800,17.5630498046875,6.338587284088135,6.534798622131348,-0.39481574296951294
1775341748506836700,17.579836669921875,5.422136306762695,7.5086774826049805,-0.25363919138908386
1775341748523624000,17.5966240234375,5.642275810241699,6.996613502502441,0.07657032459974289
1775341748540411100,17.6134111328125,8.784051895141602,6.831508636474609,-0.5096712112426758
1775341748557198300,17.6301982421875,6.16391134262085,7.494320392608643,-0.18424734473228455
1775341748573985300,17.6469853515625,7.16650390625,7.22871732711792,-0.26560330390930176
1775341748590772500,17.6637724609375,8.133204460144043,6.97986364364624,-0.2679961323738098
1775341748607559400,17.680559326171874,6.496513366699219,7.542177200317383,-0.27038896083831787
1775341748624346600,17.6973466796875,7.0301127433776855,6.881757736206055,-0.5718846321105957
1775341748641133800,17.7141337890625,7.03489875793457,7.226324558258057,-0.4331009089946747
1775341748657920800,17.730920654296874,6.745367050170898,7.664210796356201,-0.19381862878799438
1775341748674708000,17.7477080078125,7.680960655212402,7.018148899078369,-0.33020952343940735
1775341748691495200,17.7644951171875,6.69990348815918,7.152146816253662,-0.4498506486415863
1775341748708282000,17.7812822265625,5.962913990020752,7.527820110321045,0.062213387340307236
1775341748725069300,17.7980693359375,7.295716285705566,7.267002582550049,-0.08374879509210587
1775341748741856500,17.8148564453125,6.874579429626465,7.618747234344482,-0.3445664644241333
1775341748758643500,17.8316435546875,5.9198431968688965,7.135396957397461,0.1746760457754135
1775341748775430700,17.8484306640625,7.101897716522217,7.008577346801758,-0.6628118753433228
1775341748792217900,17.8652177734375,6.652047157287598,7.044469833374023,-0.20338992774486542
1775341748809005000,17.882005126953125,6.50608491897583,7.355536937713623,-0.2512463629245758
1775341748825792000,17.8987919921875,7.554141044616699,6.8243303298950195,0.064606212079525
1775341748842579200,17.9155791015625,6.814758777618408,7.460821151733398,-0.34217363595962524
1775341748859366400,17.932366455078125,6.314659118652344,7.613961696624756,-0.02632104977965355
1775341748876153300,17.9491533203125,7.3292155265808105,7.087540626525879,-0.5742774605751038
1775341748892940500,17.9659404296875,7.523034572601318,6.996613502502441,0.07417750358581543
1775341748909727700,17.982727783203124,6.608976364135742,7.793423175811768,-0.698704183101654
1775341748926514700,17.9995146484375,6.943971157073975,7.312466144561768,-0.12442677468061447
1775341748943302000,18.016302001953125,7.357929706573486,7.432106971740723,-0.7896314859390259
1775341748960089000,18.033089111328124,6.333801746368408,7.369893550872803,-0.016749758273363113
1775341748976876000,18.0498759765625,7.499105930328369,7.518248558044434,-0.6508477330207825
1775341748993663200,18.066663330078125,7.45364236831665,7.408178806304932,-0.24646073579788208
1775341749010450200,18.0834501953125,7.192824840545654,7.544569969177246,-0.10767702013254166
1775341749027237400,18.1002373046875,6.838686943054199,7.704888820648193,-0.5144568681716919
1775341749044024600,18.117024658203125,7.661818027496338,6.965506553649902,-0.009571290574967861
1775341749060811800,18.133811767578123,7.250252723693848,7.357929706573486,-0.5742774605751038
1775341749077598700,18.1505986328125,6.125626087188721,7.692924976348877,0.007178467698395252
1775341749094386000,18.167385986328124,7.16650390625,7.365108013153076,-0.12442677468061447
1775341749111173000,18.184173095703127,7.2335028648376465,7.441678524017334,-0.06939185410737991
1775341749127960000,18.2009599609375,6.963113784790039,7.133004188537598,-0.380458801984787
1775341749144747300,18.217747314453124,6.149554252624512,7.743174076080322,-0.14117653667926788
1775341749161534500,18.234534423828126,7.802994728088379,7.1162543296813965,-0.3852444589138031
1775341749178321400,18.2513212890625,6.759724140167236,7.278966426849365,-0.4043870270252228
1775341749195108600,18.268108642578124,6.738188743591309,7.9489569664001465,-0.2392822653055191
1775341749211895800,18.284895751953126,7.616354465484619,7.307680130004883,-0.20817556977272034
1775341749228682800,18.301682861328125,6.654439926147461,7.3052873611450195,-0.49292147159576416
1775341749245470000,18.318469970703124,6.8482584953308105,7.3052873611450195,-0.15314064919948578
1775341749262257200,18.335257080078126,7.623532772064209,7.611568927764893,-0.36610186100006104
1775341749279044000,18.352044189453125,6.716653347015381,7.3986077308654785,-0.06699903309345245
1775341749295831300,18.368831298828123,6.807580471038818,7.204789161682129,-0.349352091550827
1775341749312618500,18.385618408203126,6.735795974731445,7.293323516845703,-0.05024927482008934
1775341749329405400,18.402405517578124,7.29810905456543,7.369893550872803,-0.3565305769443512
1775341749346192600,18.419192626953127,6.936792850494385,7.51585578918457,-0.24885354936122894
1775341749362979800,18.435979736328125,6.9104719161987305,7.2335028648376465,-0.1866401731967926
1775341749379766800,18.452766845703124,7.3052873611450195,7.616354465484619,-0.42352959513664246
1775341749396554000,18.469553955078126,6.403193473815918,7.467999458312988,-0.24167509377002716
1775341749413341000,18.4863408203125,7.683353424072266,7.365108013153076,-0.2584248483181
1775341749430128000,18.503128173828124,7.140182971954346,7.747959613800049,-0.4091726839542389
1775341749446915300,18.519915283203126,7.013363361358643,7.800601959228516,0.02153540402650833
1775341749463702500,18.53670263671875,7.898707389831543,7.755138397216797,-0.4618147611618042
1775341749480489500,18.553489501953123,7.2095746994018555,8.078168869018555,-0.11485548317432404
1775341749497276700,18.570276611328126,7.499105930328369,8.10688304901123,-0.42831525206565857
1775341749514063600,18.587063720703124,7.740781307220459,8.087740898132324,-0.16510476171970367
1775341749530850800,18.603850830078127,7.668996810913086,8.561519622802734,-0.349352091550827
1775341749547638000,18.620637939453125,8.082955360412598,8.642875671386719,-0.20099709928035736
1775341749564425200,18.63742529296875,7.805387496948242,8.714659690856934,-0.4043870270252228
1775341749581212200,18.654212158203126,7.944170951843262,8.82233715057373,-0.2632105052471161
1775341749597999400,18.670999267578125,8.420342445373535,8.908478736877441,-0.3924229145050049
1775341749614786300,18.687786376953124,8.228917121887207,8.997013092041016,-0.18903298676013947
1775341749631573500,18.704573486328126,8.35573673248291,9.229117393493652,-0.4091726839542389
1775341749648360700,18.721360595703125,7.975277900695801,8.908478736877441,-0.4139583110809326
1775341749665147600,18.738147705078124,8.200202941894531,8.915657043457031,-0.5886343717575073
1775341749681934800,18.754934814453126,8.116454124450684,9.123832702636719,-0.09571290761232376
1775341749698722000,18.77172216796875,8.197810173034668,8.7505521774292,-0.5359922647476196
1775341749715509000,18.788509033203123,8.207381248474121,8.877371788024902,-0.10767702013254166
1775341749732296200,18.805296142578126,7.520641803741455,8.482556343078613,-0.4211367964744568
1775341749749083400,18.82208349609375,8.039883613586426,8.271987915039062,-0.22013968229293823
1775341749765870300,18.838870361328127,8.276773452758789,8.240880966186523,-0.31345975399017334
1775341749782657500,18.855657470703125,7.341179847717285,8.324629783630371,-0.3158525824546814
1775341749799444700,18.87244482421875,7.314858913421631,8.200202941894531,-0.18903298676013947
1775341749816231700,18.889231689453126,8.008777618408203,7.496713161468506,-0.5575276613235474
1775341749833019000,18.906018798828125,7.77188777923584,7.621140003204346,-0.26560330390930176
1775341749849806000,18.92280615234375,7.044469833374023,8.283951759338379,-0.31345975399017334
1775341749866593000,18.939593017578126,6.781259536743164,8.135597229003906,0.12203395366668701
1775341749883380200,18.956380126953125,6.63051176071167,7.654639720916748,-0.4666004180908203
1775341749900167400,18.97316748046875,7.76470947265625,7.2335028648376465,-0.3326023519039154
1775341749916954400,18.989954345703126,7.278966426849365,7.384250640869141,-0.11246266216039658
1775341749933741600,19.006741455078124,6.91765022277832,7.252645492553711,-0.2727817893028259
1775341749950528500,19.023528564453127,7.159325122833252,7.379465103149414,-0.26560330390930176
1775341749967315700,19.040315673828125,6.757331371307373,7.487142086029053,-0.46420758962631226
1775341749984103000,19.05710302734375,7.159325122833252,7.054041385650635,0.08374879509210587
1775341750000890000,19.07389013671875,7.992027759552002,6.788437843322754,-0.7800601720809937
1775341750017677000,19.090677001953125,6.271588325500488,7.183253765106201,0.33738797903060913
1775341750034464300,19.10746435546875,7.616354465484619,6.424728870391846,-0.7345965504646301
1775341750051251500,19.12425146484375,7.322037220001221,7.003791809082031,-0.19381862878799438
1775341750068038400,19.141038330078125,6.486942291259766,6.556334018707275,-0.1818545162677765
1775341750084825600,19.15782568359375,6.281159400939941,6.685546398162842,-0.26081767678260803
1775341750101612500,19.174612548828126,6.295516490936279,6.709474563598633,-0.3756731450557709
1775341750118399700,19.191399658203125,6.86261510848999,6.479763507843018,-0.06939185410737991
1775341750135187000,19.20818701171875,5.996413707733154,6.726224422454834,-0.2847459018230438
1775341750151974000,19.224973876953126,5.304887771606445,5.8719868659973145,0.06939185410737991
1775341750168761000,19.241760986328124,7.372286796569824,6.106483459472656,-0.4977070987224579
1775341750185548300,19.25854833984375,5.07517671585083,6.116054534912109,-0.3206382393836975
1775341750202335200,19.275335205078125,6.613761901855469,5.532206058502197,0.0023928226437419653
1775341750219122400,19.292122314453124,5.869594097137451,5.78345251083374,-0.5838487148284912
1775341750235909600,19.30890966796875,4.488935470581055,5.85284423828125,0.3445664644241333
1775341750252696600,19.325696533203125,5.714060306549072,5.570491313934326,-0.3086741268634796
1775341750269483800,19.34248388671875,5.38624382019043,5.26181697845459,-0.3445664644241333
1775341750286270700,19.359270751953126,5.781059741973877,4.7952165603637695,-0.12442677468061447
1775341750303058000,19.376057861328125,5.285745143890381,5.108676433563232,-0.23449662327766418
1775341750319845000,19.39284521484375,5.087141036987305,4.398007869720459,-0.7202396392822266
1775341750336632000,19.409632080078126,4.046263217926025,4.493721008300781,0.05503492057323456
1775341750353419300,19.426419189453124,3.531806230545044,4.06540584564209,-0.6149554252624512
1775341750370206500,19.44320654296875,4.778466701507568,3.8763725757598877,0.0023928226437419653
1775341750386993400,19.459993408203125,4.4721856117248535,3.7016966342926025,-0.5024927258491516
1775341750403780600,19.476780517578124,4.814359188079834,3.9912281036376953,-0.05503492057323456
1775341750420567800,19.49356787109375,4.572684288024902,4.235296249389648,-0.14117653667926788
1775341750437354800,19.510354736328125,4.323830604553223,4.744967460632324,-0.15074782073497772
1775341750454142000,19.527141845703124,4.883750915527344,4.797609329223633,0.3924229145050049
1775341750470929200,19.54392919921875,4.374079704284668,5.773880958557129,-0.0933200865983963
1775341750487716000,19.560716064453125,5.776273727416992,5.245067119598389,0.07657032459974289
1775341750504503300,19.57750341796875,6.723831653594971,5.300102233886719,-0.4211367964744568
1775341750521290500,19.59429052734375,5.84566593170166,6.233303070068359,-0.4713860750198364
1775341750538077400,19.611077392578125,4.67078971862793,6.453442573547363,-0.04307080805301666
1775341750554864600,19.62786474609375,8.056633949279785,5.670989513397217,-0.672383189201355
1775341750571651600,19.644651611328126,6.479763507843018,6.262016773223877,-0.5048855543136597
1775341750588438800,19.661438720703124,5.92223596572876,6.714260101318359,-0.4977070987224579
1775341750605226000,19.67822607421875,5.364708423614502,7.2335028648376465,-0.11246266216039658
1775341750622013000,19.695012939453125,6.642475605010986,6.515655994415283,-0.5096712112426758
1775341750638800100,19.711800048828124,8.22413158416748,6.175875186920166,-0.11006984114646912
1775341750655587300,19.72858740234375,6.374479293823242,7.214360237121582,-0.4426721930503845
1775341750672374300,19.745374267578125,6.738188743591309,7.003791809082031,0.2105683982372284
1775341750689161500,19.762161376953124,7.7455668449401855,6.778866767883301,-0.1866401731967926
1775341750705948700,19.77894873046875,6.876972198486328,7.379465103149414,-0.2991028428077698
1775341750722735600,19.795735595703125,6.97268533706665,7.405786037445068,0.15074782073497772
1775341750739522800,19.812522705078123,7.5708909034729,7.073183536529541,-0.5670989751815796
1775341750756309800,19.829309814453126,6.221338748931885,7.245467185974121,-0.16271193325519562
1775341750773097000,19.846096923828124,6.764509677886963,7.451249599456787,-0.8063812255859375
1775341750789884200,19.86288427734375,7.372286796569824,7.3675007820129395,-0.007178467698395252
1775341750806671000,19.879671142578125,7.037291526794434,7.293323516845703,-0.7537391185760498
1775341750823458300,19.896458251953124,6.999006271362305,7.496713161468506,-0.10049854964017868
1775341750840245500,19.91324560546875,6.776473522186279,7.319644451141357,-0.31824541091918945
1775341750857032400,19.930032470703125,7.345965385437012,7.417750358581543,0.07896314561367035
1775341750873819600,19.946819580078124,7.2574310302734375,7.51585578918457,-0.26081767678260803
1775341750890606600,19.963606689453126,6.563512325286865,7.276573657989502,-0.014356935396790504
1775341750907393800,19.980393798828125,6.721438884735107,7.740781307220459,-0.040677983313798904
1775341750924181000,19.997180908203124,7.412964344024658,7.355536937713623,-0.35892340540885925
1775341750940968000,20.013968017578126,7.29810905456543,7.501499176025391,-0.4498506486415863
1775341750957755100,20.030755126953125,6.932007312774658,7.307680130004883,-0.5407779216766357
1775341750974542300,20.047542236328123,7.396214962005615,7.6977105140686035,-0.32542386651039124
1775341750991329300,20.064329345703126,7.121040344238281,7.085147857666016,-0.3038884699344635
1775341751008116500,20.081116455078124,6.6113691329956055,7.2813591957092285,-0.17946170270442963
1775341751024903700,20.097903564453127,7.051648139953613,7.477570533752441,-0.15314064919948578
1775341751041690600,20.114690673828125,8.023134231567383,7.128218650817871,-0.17228323221206665
1775341751058477800,20.131477783203124,6.2500529289245605,7.350750923156738,-0.17706887423992157
1775341751075264800,20.1482646484375,6.97268533706665,7.5086774826049805,-0.007178467698395252
1775341751092052000,20.165052001953125,7.3292155265808105,7.403393268585205,-0.6460621356964111
1775341751108839200,20.181839111328124,6.522834300994873,7.489534854888916,-0.05742774158716202
1775341751125626000,20.198626220703126,7.64028263092041,7.661818027496338,-0.20099709928035736
1775341751142413300,20.215413330078125,7.11146879196167,7.499105930328369,-0.32303106784820557
1775341751159200500,20.232200439453123,7.039684295654297,7.36032247543335,-0.5312066078186035
1775341751175987500,20.248987548828126,6.932007312774658,7.377072334289551,-0.13639089465141296
1775341751192774700,20.265774658203124,7.542177200317383,7.456035137176514,-0.5168496966362
1775341751209561900,20.282561767578127,6.867401123046875,7.226324558258057,-0.14835500717163086
1775341751226348800,20.299348876953125,7.223931789398193,7.420143127441406,-0.16510476171970367
1775341751243136000,20.316135986328124,7.659425258636475,7.3914289474487305,-0.18424734473228455
1775341751259923000,20.3329228515625,6.912864685058594,7.3746795654296875,-0.1746760457754135
1775341751276710100,20.349710205078125,7.216753005981445,7.087540626525879,-0.24646073579788208
1775341751293497300,20.366497314453124,6.922435760498047,7.470392227172852,-0.20817556977272034
1775341751310284300,20.3832841796875,7.11146879196167,7.17368221282959,-0.14117653667926788
1775341751327071500,20.400071533203125,7.324429988861084,7.176074981689453,-0.397208571434021
1775341751343858700,20.416858642578124,6.963113784790039,7.379465103149414,-0.16031911969184875
1775341751360645600,20.433645751953126,7.4225358963012695,7.678567886352539,-0.5240281820297241
1775341751377432800,20.450432861328125,6.814758777618408,7.293323516845703,-0.1459621787071228
1775341751394219800,20.4672197265625,7.013363361358643,7.628318786621094,-0.5000999569892883
1775341751411007000,20.484007080078126,7.317251682281494,7.408178806304932,-0.24406790733337402
1775341751427794200,20.500794189453124,7.355536937713623,7.451249599456787,-0.5479564070701599
1775341751444581000,20.5175810546875,6.932007312774658,7.582854747772217,-0.20817556977272034
1775341751461368300,20.534368408203125,7.0755767822265625,7.542177200317383,-0.3613162338733673
1775341751478155500,20.551155517578124,7.063612461090088,7.410571575164795,-0.11485548317432404
1775341751494942500,20.5679423828125,6.943971157073975,7.278966426849365,-0.3900300860404968
1775341751511729700,20.584729736328125,7.405786037445068,7.058826923370361,0.07178468257188797
1775341751528516600,20.6015166015625,7.738388538360596,7.568498134613037,-0.5120640397071838
1775341751545303800,20.6183037109375,6.905686378479004,7.5804619789123535,0.019142581149935722
1775341751562091000,20.635091064453125,7.628318786621094,7.460821151733398,-0.5288137793540955
1775341751578878000,20.6518779296875,6.510870456695557,7.788637638092041,0.0526420995593071
1775341751595665200,20.6686650390625,7.037291526794434,7.70967435836792,-0.2273181527853012
1775341751612452400,20.685452392578124,6.64486837387085,8.133204460144043,-0.02632104977965355
1775341751629239300,20.7022392578125,7.334001541137695,8.102097511291504,-0.3900300860404968
1775341751646026500,20.719026611328125,8.958727836608887,7.389036178588867,-0.30149564146995544
1775341751662813400,20.7358134765625,6.398407936096191,8.595019340515137,-0.5072783827781677
1775341751679600600,20.7526005859375,7.642675399780273,8.26241683959961,-0.10049854964017868
1775341751696387800,20.769387939453125,8.2695951461792,8.226524353027344,-0.8063812255859375
1775341751713174800,20.7861748046875,7.410571575164795,8.566305160522461,-0.040677983313798904
1775341751729962000,20.8029619140625,7.865208148956299,8.72183895111084,-0.7441678643226624
1775341751746749000,20.8197490234375,8.015955924987793,8.360522270202637,-0.038285162299871445
1775341751763536100,20.8365361328125,8.128418922424316,8.50169849395752,-0.6125625967979431
1775341751780323300,20.8533232421875,7.625925540924072,8.63330364227295,0.09810572862625122
1775341751797110300,20.8701103515625,8.267202377319336,8.398807525634766,-0.35413774847984314
1775341751813897500,20.8868974609375,8.14516830444336,8.35573673248291,0.0023928226437419653
1775341751830684700,20.9036845703125,7.8388872146606445,8.398807525634766,-0.42831525206565857
1775341751847471600,20.9204716796875,7.690532207489014,8.02074146270752,-0.1339980661869049
1775341751864258800,20.9372587890625,8.159524917602539,8.26241683959961,-0.5599204897880554
1775341751881045800,20.954045654296873,6.996613502502441,8.097311973571777,0.15074782073497772
1775341751897833000,20.9708330078125,7.465606689453125,7.917850017547607,-0.672383189201355
1775341751914620200,20.9876201171875,7.271788120269775,8.082955360412598,-0.07896314561367035
1775341751931407000,21.004406982421877,7.728816986083984,7.750352382659912,-0.27038896083831787
1775341751948194300,21.0211943359375,7.197610378265381,7.8628153800964355,-0.07178468257188797
1775341751964981200,21.037981201171874,7.503891944885254,8.011170387268066,-0.38285163044929504
1775341751981768400,21.0547685546875,7.530212879180908,7.992027759552002,-0.3397808074951172
1775341751998555600,21.0715556640625,6.6831536293029785,7.712067604064941,-0.4450650215148926
1775341752015342600,21.088342529296874,8.291130065917969,7.814958572387695,-0.3038884699344635
1775341752032129800,21.1051298828125,7.331608772277832,7.877171993255615,-0.33738797903060913
1775341752048916700,21.121916748046875,7.015756130218506,7.953742504119873,-0.20817556977272034
1775341752065704000,21.138703857421874,7.41535758972168,7.594819068908691,-0.6317051649093628
1775341752082491100,21.1554912109375,6.989434719085693,7.149754047393799,0.007178467698395252
1775341752099278000,21.172278076171875,7.140182971954346,7.032505512237549,-0.2919243574142456
1775341752116065300,21.189065185546873,6.604190349578857,7.2335028648376465,-0.014356935396790504
1775341752132852500,21.2058525390625,6.912864685058594,7.0995049476623535,-0.1746760457754135
1775341752149639400,21.222639404296874,6.893722057342529,6.991827964782715,-0.12203395366668701
1775341752166426600,21.239426513671877,6.7070817947387695,7.178467750549316,-0.4043870270252228
1775341752183213600,21.256213623046875,6.781259536743164,7.003791809082031,-0.2967100143432617
1775341752200000800,21.273000732421874,6.922435760498047,6.989434719085693,-0.6604190468788147
1775341752216788000,21.2897880859375,6.721438884735107,6.903293132781982,-0.18903298676013947
1775341752233575000,21.306574951171875,6.209374904632568,7.1856465339660645,-0.3206382393836975
1775341752250362000,21.323362060546874,7.17368221282959,6.467799663543701,-0.37088751792907715
1775341752267149000,21.340149169921876,6.1088762283325195,7.039684295654297,0.031106693670153618
1775341752283936300,21.356936279296875,6.69990348815918,6.786045074462891,-0.34695929288864136
1775341752300723500,21.373723388671873,6.400800704956055,6.939185619354248,-0.3684946894645691
1775341752317510400,21.390510498046876,6.573083877563477,6.697510719299316,-0.36610186100006104
1775341752334297600,21.407297607421874,6.484549522399902,6.908079147338867,-0.41874396800994873
1775341752351084800,21.424084716796877,6.695117950439453,7.003791809082031,-0.43549370765686035
