time,seconds_elapsed,z,y,x
1775341730993261000,0.066260986328125,0,0,0
1775341731003261000,0.076260986328125,0.0103607177734375,0.09800052642822266,-0.41138237714767456
1775341731013261000,0.086260986328125,0.0813140869140625,-0.012234687805175781,-0.2244018018245697
1775341731023261000,0.096260986328125,0.05534029006958008,-0.03565216064453125,0.21295851469039917
1775341731033261000,0.106260986328125,-0.0281982421875,0.025632858276367188,0.045679330825805664
1775341731043261000,0.116260986328125,0.05420660972595215,0.008039474487304688,-0.2224513590335846
1775341731053261000,0.126260986328125,-0.05837082862854004,0.03162574768066406,-0.017498403787612915
1775341731063261000,0.136260986328125,0.046783447265625,-0.04978370666503906,0.15271984040737152
1775341731073261000,0.146260986328125,0.07905793190002441,0.011929512023925781,-0.15583792328834534
1775341731083261000,0.156260986328125,-0.12936043739318848,0.006304740905761719,-0.05738421529531479
1775341731093261000,0.166260986328125,0.13358736038208008,-0.019458770751953125,0.04237806424498558
1775341731103261000,0.176260986328125,0.000056743621826171875,-0.018053054809570312,0.05139407142996788
1775341731113261000,0.186260986328125,-0.038278818130493164,0.031726837158203125,-0.14195653796195984
1775341731123261000,0.196260986328125,0.0836949348449707,-0.022873878479003906,0.003756783902645111
1775341731133261000,0.206260986328125,-0.04525017738342285,-0.0075855255126953125,0.10696452856063843
1775341731143261000,0.216260986328125,0.0657510757446289,0.028290748596191406,-0.11849963665008545
1775341731153261000,0.226260986328125,-0.06331253051757812,-0.013289451599121094,-0.0049401335418224335
1775341731163261000,0.236260986328125,0.021548032760620117,0.02634716033935547,0.03455844521522522
1775341731173261000,0.246260986328125,0.04224419593811035,-0.047145843505859375,-0.0032446011900901794
1775341731183261000,0.256260986328125,-0.12513446807861328,0.0782461166381836,-0.06200491636991501
1775341731193261000,0.266260986328125,0.22631287574768066,-0.07394599914550781,0.0411374606192112
1775341731203261000,0.276260986328125,-0.18782305717468262,0.05732154846191406,0.032974667847156525
1775341731213261000,0.286260986328125,0.14177274703979492,-0.023268699645996094,-0.13183537125587463
1775341731223261000,0.296260986328125,-0.029787063598632812,0.002471923828125,0.0012462884187698364
1775341731233261000,0.306260986328125,0.017299413681030273,0.004639625549316406,0.04487793147563934
1775341731243261000,0.316260986328125,0.05596446990966797,-0.0526885986328125,0.005613546818494797
1775341731253261000,0.326260986328125,-0.10995936393737793,0.06659412384033203,-0.06810826063156128
1775341731263261000,0.336260986328125,0.1588459014892578,-0.12050914764404297,0.03230060636997223
1775341731273261000,0.346260986328125,-0.16022014617919922,0.1097116470336914,-0.015807747840881348
1775341731283261000,0.356260986328125,0.13623285293579102,-0.061598777770996094,-0.02138839289546013
1775341731293261000,0.366260986328125,-0.11491060256958008,0.02984142303466797,0.03312195837497711
1775341731303261000,0.376260986328125,0.05575251579284668,-0.02056407928466797,0.008101146668195724
1775341731313261000,0.386260986328125,-0.025849580764770508,-0.0004863739013671875,0.0032191015779972076
1775341731323261000,0.396260986328125,-0.03692460060119629,0.023324012756347656,-0.05136461928486824
1775341731333261000,0.406260986328125,0.10460233688354492,-0.06062030792236328,-0.002776186913251877
1775341731343261000,0.416260986328125,-0.14014506340026855,0.06987476348876953,0.018248148262500763
1775341731353261000,0.426260986328125,0.18565082550048828,-0.06924057006835938,-0.016305699944496155
1775341731363261000,0.436260986328125,-0.14521551132202148,0.06911945343017578,-0.010703939944505692
1775341731373261000,0.446260986328125,0.10387682914733887,-0.04496288299560547,-0.01832399144768715
1775341731383261000,0.456260986328125,-0.04974174499511719,0.02344226837158203,-0.0134352445602417
1775341731393261000,0.466260986328125,-0.031075239181518555,0.01940631866455078,-0.020625833421945572
1775341731403261000,0.476260986328125,0.04909539222717285,-0.04318428039550781,0.015037711709737778
1775341731413261000,0.486260986328125,-0.08700871467590332,0.042995452880859375,0.015618156641721725
1775341731423261000,0.496260986328125,0.09730839729309082,-0.04705047607421875,-0.01968681812286377
1775341731433261000,0.506260986328125,-0.07740902900695801,0.04159259796142578,-0.015403535217046738
1775341731443261000,0.516260986328125,0.09641885757446289,-0.04298973083496094,-0.001873105764389038
1775341731453261000,0.526260986328125,-0.05031108856201172,0.040008544921875,0.00010199099779129028
1775341731463261000,0.536260986328125,0.08613181114196777,-0.022995948791503906,-0.0037757642567157745
1775341731473261000,0.546260986328125,-0.02357196807861328,0.008187294006347656,0.017562732100486755
1775341731483261000,0.556260986328125,0.0019123554229736328,0.0045375823974609375,-0.011194568127393723
1775341731493261000,0.566260986328125,0.04100918769836426,-0.012689590454101562,-0.009958602488040924
1775341731503261000,0.576260986328125,-0.07001161575317383,0.023481369018554688,0.010286174714565277
1775341731513261000,0.586260986328125,0.056791067123413086,-0.03383350372314453,0.011025670915842056
1775341731523261000,0.596260986328125,-0.07954025268554688,0.03769969940185547,-0.012914836406707764
1775341731533261000,0.606260986328125,0.0403294563293457,-0.026140213012695312,-0.00562378391623497
1775341731543261000,0.616260986328125,-0.025193214416503906,0.02062702178955078,-0.013494599610567093
1775341731553261000,0.626260986328125,0.014765024185180664,0.004261016845703125,-0.007519882172346115
1775341731563261000,0.636260986328125,0.05141568183898926,-0.004515647888183594,-0.004547815769910812
1775341731573261000,0.646260986328125,-0.019204139709472656,0.01775360107421875,0.0014292225241661072
1775341731583261000,0.656260986328125,0.03742861747741699,-0.018930435180664062,0.0025994591414928436
1775341731593261000,0.666260986328125,-0.007442474365234375,0.00772857666015625,-0.007275491952896118
1775341731603261000,0.676260986328125,0.00476527214050293,-0.00876617431640625,-0.0007262043654918671
1775341731613261000,0.686260986328125,0.026862382888793945,0.005108833312988281,0.0007765404880046844
1775341731623261000,0.696260986328125,-0.015908002853393555,0.010814666748046875,0.015157584100961685
1775341731633261000,0.706260986328125,0.02401447296142578,-0.0064487457275390625,0.002847101539373398
1775341731643261000,0.716260986328125,-0.03398633003234863,0.0064792633056640625,0.006609536707401276
1775341731653261000,0.726260986328125,0.012176275253295898,-0.009055137634277344,-0.008631575852632523
1775341731663261000,0.736260986328125,-0.0017137527465820312,-0.000091552734375,-0.01815364882349968
1775341731673261000,0.746260986328125,0.010591506958007812,-0.0055370330810546875,0.004669729620218277
1775341731683261000,0.756260986328125,0.02568650245666504,0.00000762939453125,-0.013532623648643494
1775341731693261000,0.766260986328125,0.02373194694519043,0.0017251968383789062,-0.0006261840462684631
1775341731703261000,0.776260986328125,0.007782936096191406,0.008699417114257812,-0.0009186156094074249
1775341731713261000,0.786260986328125,0.002890348434448242,-0.011685371398925781,-0.007784653455018997
1775341731723261000,0.796260986328125,-0.01092386245727539,0.017546653747558594,-0.01294262707233429
1775341731733261000,0.806260986328125,0.04003190994262695,-0.01049041748046875,-0.005055680871009827
1775341731743261000,0.816260986328125,-0.02521038055419922,0.017286300659179688,0.015124361962080002
1775341731753261000,0.826260986328125,0.05955243110656738,-0.006846427917480469,-0.00828530639410019
1775341731763261000,0.836260986328125,-0.04370450973510742,0.009961128234863281,0.008826851844787598
1775341731773261000,0.846260986328125,0.04695630073547363,-0.019208908081054688,-0.003510192036628723
1775341731783261000,0.856260986328125,-0.01771235466003418,0.008605003356933594,0.0017609409987926483
1775341731793261000,0.866260986328125,0.011356592178344727,0.0024662017822265625,-0.0037894248962402344
1775341731803261000,0.876260986328125,0.030369281768798828,-0.008298873901367188,0.003687117248773575
1775341731813261000,0.886260986328125,-0.04138827323913574,0.016309738159179688,0.0036722496151924133
1775341731823261000,0.896260986328125,0.03727126121520996,-0.008058547973632812,-0.014861095696687698
1775341731833261000,0.906260986328125,-0.05081629753112793,0.028169631958007812,0.005656138062477112
1775341731843261000,0.916260986328125,0.0319216251373291,-0.021909713745117188,-0.0028709322214126587
1775341731853261000,0.926260986328125,-0.042630910873413086,0.02191448211669922,-0.006838053464889526
1775341731863261000,0.936260986328125,0.046036481857299805,-0.008780479431152344,-0.006071936339139938
1775341731873261000,0.946260986328125,-0.014174222946166992,0.007903099060058594,0.0068536922335624695
1775341731883261000,0.956260986328125,0.008135795593261719,0.00035381317138671875,-0.0030340105295181274
1775341731893261000,0.966260986328125,0.0344390869140625,-0.0018510818481445312,-0.021941188722848892
1775341731903261000,0.976260986328125,-0.022035598754882812,0.0077342987060546875,0.0013694912195205688
1775341731913261000,0.986260986328125,0.04438281059265137,-0.021218299865722656,0.003304213285446167
1775341731923261000,0.996260986328125,-0.022397994995117188,0.011290550231933594,0.005041595548391342
1775341731933261000,1.006260986328125,0.022729873657226562,-0.0019674301147460938,-0.0006917901337146759
1775341731943261000,1.016260986328125,-0.006870269775390625,0.00142669677734375,0.010862629860639572
1775341731953261000,1.026260986328125,-0.012307167053222656,-0.0022172927856445312,-0.008650828152894974
1775341731963261000,1.036260986328125,0.014647960662841797,-0.0204315185546875,-0.0012344978749752045
1775341731973261000,1.046260986328125,-0.048508405685424805,0.014967918395996094,0.008830275386571884
1775341731983261000,1.056260986328125,0.03239941596984863,-0.013975143432617188,0.005252659320831299
1775341731993261000,1.066260986328125,-0.027925968170166016,0.011987686157226562,-0.0076368339359760284
1775341732003261000,1.076260986328125,0.013625144958496094,-0.0017137527465820312,0.000060614198446273804
1775341732013261000,1.086260986328125,0.0007083415985107422,0.0031747817993164062,-0.001655876636505127
1775341732023261000,1.096260986328125,-0.008798599243164062,0.0022344589233398438,-0.008394759148359299
1775341732033261000,1.106260986328125,0.017486572265625,0.0005273818969726562,-0.008010216057300568
1775341732043261000,1.116260986328125,-0.026485919952392578,0.004565238952636719,0.0005958862602710724
1775341732053261000,1.126260986328125,0.019869089126586914,-0.011861801147460938,-0.0021320320665836334
1775341732063261000,1.136260986328125,-0.02267146110534668,0.016832351684570312,0.001360766589641571
1775341732073261000,1.146260986328125,0.01808619499206543,-0.020516395568847656,0.0017771609127521515
1775341732083261000,1.156260986328125,-0.009103059768676758,0.011931419372558594,0.007467526942491531
1775341732093261000,1.166260986328125,0.009597539901733398,-0.010097503662109375,0.006795667111873627
1775341732103261000,1.176260986328125,-0.010823965072631836,-0.0031986236572265625,0.004277188330888748
1775341732113261000,1.186260986328125,0.00425410270690918,-0.0019464492797851562,-0.005471531301736832
1775341732123261000,1.196260986328125,0.011004924774169922,-0.0021944046020507812,-0.00987621396780014
1775341732133261000,1.206260986328125,0.010729074478149414,-0.004483222961425781,-0.005033466964960098
1775341732143261000,1.216260986328125,-0.0018930435180664062,-0.004660606384277344,0.006379496306180954
1775341732153261000,1.226260986328125,-0.0020933151245117188,0.0024242401123046875,-0.013202998787164688
1775341732163261000,1.236260986328125,0.00664210319519043,-0.0070037841796875,-0.0011698044836521149
1775341732173261000,1.246260986328125,-0.0029516220092773438,0.0019359588623046875,0.003418911248445511
1775341732183261000,1.256260986328125,-0.010453939437866211,-0.0018367767333984375,-0.0038730986416339874
1775341732193261000,1.266260986328125,0.011603355407714844,0.0006818771362304688,-0.007746420800685883
1775341732203261000,1.276260986328125,0.001516580581665039,0.006007194519042969,-0.008649155497550964
1775341732213261000,1.286260986328125,0.000885009765625,-0.005202293395996094,0.007130663841962814
1775341732223261000,1.296260986328125,0.023441314697265625,-0.0005731582641601562,-0.006226051598787308
1775341732233261000,1.306260986328125,-0.0114593505859375,-0.009789466857910156,0.001973390579223633
1775341732243261000,1.316260986328125,0.009922266006469727,-0.009093284606933594,0.008028808981180191
1775341732253261000,1.326260986328125,0.0008597373962402344,-0.002613067626953125,-0.007528163492679596
1775341732263261000,1.336260986328125,-0.005302906036376953,0.007091522216796875,-0.002687741070985794
1775341732273261000,1.346260986328125,-0.0012125968933105469,-0.0023698806762695312,0.0010991543531417847
1775341732283261000,1.356260986328125,-0.018865346908569336,0.0030059814453125,-0.0003312230110168457
1775341732293261000,1.366260986328125,0.005217075347900391,0.0023069381713867188,-0.008142136037349701
1775341732303261000,1.376260986328125,-0.008076906204223633,0.0022830963134765625,-0.003934066742658615
1775341732313261000,1.386260986328125,0.005457639694213867,0.0047550201416015625,-0.004644513130187988
1775341732323261000,1.396260986328125,0.02452874183654785,-0.010628700256347656,-0.014758389443159103
1775341732333261000,1.406260986328125,-0.022385835647583008,0.005223274230957031,-0.0029814578592777252
1775341732343261000,1.416260986328125,0.02415919303894043,0.0005578994750976562,-0.001545742154121399
1775341732353261000,1.426260986328125,-0.004942178726196289,-0.0019435882568359375,-0.007727768272161484
1775341732363261000,1.436260986328125,0.005406379699707031,-0.005496025085449219,-0.005932074040174484
1775341732373261000,1.446260986328125,0.003086566925048828,-0.004605293273925781,0.004262331873178482
1775341732383261000,1.456260986328125,0.0007002353668212891,-0.0031995773315429688,0.007045060396194458
1775341732393261000,1.466260986328125,-0.006197929382324219,-0.009776115417480469,0.0020434558391571045
1775341732403261000,1.476260986328125,-0.0027446746826171875,-0.0038709640502929688,0.002039339393377304
1775341732413261000,1.486260986328125,0.0016791820526123047,0.004818916320800781,0.010257281363010406
1775341732423261000,1.496260986328125,0.0033969879150390625,-0.0009069442749023438,-0.01497340202331543
1775341732433261000,1.506260986328125,0.009382247924804688,0.0038995742797851562,-0.003386218100786209
1775341732443261000,1.516260986328125,0.0045318603515625,-0.0014886856079101562,0.0035540275275707245
1775341732453261000,1.526260986328125,0.00989222526550293,-0.00667572021484375,0.002576041966676712
1775341732463261000,1.536260986328125,-0.023655176162719727,0.006453514099121094,-0.007560618221759796
1775341732473261000,1.546260986328125,0.016303539276123047,-0.0017442703247070312,0.0008481740951538086
1775341732483261000,1.556260986328125,-0.00493931770324707,0.009213447570800781,-0.002463150769472122
1775341732493261000,1.566260986328125,0.004441976547241211,-0.009883880615234375,-0.0056436993181705475
1775341732503261000,1.576260986328125,-0.0051727294921875,-0.005394935607910156,-0.00281558558344841
1775341732513261000,1.586260986328125,-0.009401082992553711,0.007884025573730469,0.001975998282432556
1775341732523261000,1.596260986328125,0.005591630935668945,-0.0014314651489257812,-0.0012781694531440735
1775341732533261000,1.606260986328125,-0.004480600357055664,-0.0025053024291992188,-0.0014306232333183289
1775341732543261000,1.616260986328125,-0.009367942810058594,0.005423545837402344,0.003185838460922241
1775341732553261000,1.626260986328125,0.00972890853881836,-0.00081634521484375,0.002168256789445877
1775341732563261000,1.636260986328125,-0.016544818878173828,0.004825592041015625,0.007418990135192871
1775341732573261000,1.646260986328125,0.009483098983764648,-0.00574493408203125,-0.00032584741711616516
1775341732583261000,1.656260986328125,-0.003386259078979492,0.0013666152954101562,0.004548955708742142
1775341732593261000,1.666260986328125,-0.00013494491577148438,0.004271507263183594,-0.007721956819295883
1775341732603261000,1.676260986328125,0.0028641223907470703,-0.0020961761474609375,0.006513770669698715
1775341732613261000,1.686260986328125,-0.013654947280883789,0.0035381317138671875,0.000344838947057724
1775341732623261000,1.696260986328125,0.0031006336212158203,0.0076618194580078125,-0.011776994913816452
1775341732633261000,1.706260986328125,-0.005705356597900391,0.0053253173828125,-0.002385750412940979
1775341732643261000,1.716260986328125,-0.0010075569152832031,0.0017242431640625,-0.00519055500626564
1775341732653261000,1.726260986328125,-0.0037736892700195312,-0.0023889541625976562,0.003580443561077118
1775341732663261000,1.736260986328125,0.0015914440155029297,-0.006072998046875,0.005581989884376526
1775341732673261000,1.746260986328125,-0.005387544631958008,0.008551597595214844,0.0069092027842998505
1775341732683261000,1.756260986328125,0.02496790885925293,0.002410888671875,-0.008489638566970825
1775341732693261000,1.766260986328125,-0.023197412490844727,0.012993812561035156,0.00818200409412384
1775341732703261000,1.776260986328125,0.020070552825927734,-0.0026760101318359375,0.003784455358982086
1775341732713261000,1.786260986328125,-0.0023801326751708984,-0.0063533782958984375,0.01679942011833191
1775341732723261000,1.796260986328125,-0.010964155197143555,-0.0003604888916015625,-0.0073344409465789795
1775341732733261000,1.806260986328125,-0.0003247261047363281,-0.006232261657714844,0.00412658229470253
1775341732743261000,1.816260986328125,-0.021221637725830078,0.014585494995117188,0.00023200735449790955
1775341732753261000,1.826260986328125,0.014519453048706055,-0.010694503784179688,0.008507810533046722
1775341732763261000,1.836260986328125,0.00030493736267089844,0.0044040679931640625,0.005304757505655289
1775341732773261000,1.846260986328125,0.009786844253540039,0.0004749298095703125,0.0012129545211791992
1775341732783261000,1.856260986328125,0.0214693546295166,-0.014592170715332031,-0.010809455066919327
1775341732793261000,1.866260986328125,-0.008905172348022461,0.007925987243652344,0.004653438925743103
1775341732803261000,1.876260986328125,0.02322530746459961,0.006306648254394531,-0.0031793341040611267
1775341732813261000,1.886260986328125,-0.011236190795898438,-0.0002307891845703125,0.0019019730389118195
1775341732823261000,1.896260986328125,0.0044591426849365234,0.0006504058837890625,-0.0017649121582508087
1775341732833261000,1.906260986328125,-0.009565114974975586,-0.00713348388671875,0.01357937976717949
1775341732843261000,1.916260986328125,-0.0004591941833496094,0.005401611328125,-0.004956606775522232
1775341732853261000,1.926260986328125,0.0020148754119873047,-0.000286102294921875,-0.0004561617970466614
1775341732863261000,1.936260986328125,-0.008344650268554688,0.008770942687988281,0.011255592107772827
1775341732873261000,1.946260986328125,0.0066280364990234375,-0.004718780517578125,-0.003933578729629517
1775341732883261000,1.956260986328125,-0.006025552749633789,0.009447097778320312,0.00024548545479774475
1775341732893261000,1.966260986328125,0.01378631591796875,-0.009258270263671875,0.0060718245804309845
1775341732903261000,1.976260986328125,-0.011052370071411133,0.013871192932128906,0.0028415657579898834
1775341732913261000,1.986260986328125,0.016783475875854492,-0.009990692138671875,-0.005655352026224136
1775341732923261000,1.996260986328125,-0.014403820037841797,0.003997802734375,0.0046784356236457825
1775341732933261000,2.006260986328125,0.014034032821655273,-0.010748863220214844,-0.010657399892807007
1775341732943261000,2.016260986328125,0.005527973175048828,0.0029115676879882812,-0.0035246722400188446
1775341732953261000,2.026260986328125,0.011885404586791992,-0.0022716522216796875,-0.008553434163331985
1775341732963261000,2.036260986328125,0.011523008346557617,-0.0033845901489257812,-0.0020680055022239685
1775341732973261000,2.046260986328125,-0.014064788818359375,0.0006799697875976562,-0.010935205966234207
1775341732983261000,2.056260986328125,0.016163110733032227,-0.0009336471557617188,-0.0027060657739639282
1775341732993261000,2.066260986328125,-0.01834583282470703,0.0062408447265625,0.0019636526703834534
1775341733003261000,2.076260986328125,0.013390302658081055,-0.013617515563964844,0.007474903017282486
1775341733013261000,2.086260986328125,-0.010571956634521484,0.0017852783203125,-0.003027956932783127
1775341733023261000,2.096260986328125,0.015994548797607422,-0.0070629119873046875,0.003781888633966446
1775341733033261000,2.106260986328125,-0.005220174789428711,0.005434989929199219,0.0037429891526699066
1775341733043261000,2.116260986328125,0.0037441253662109375,-0.012299537658691406,0.0012365132570266724
1775341733053261000,2.126260986328125,-0.013379573822021484,-0.0023250579833984375,0.004718169569969177
1775341733063261000,2.136260986328125,0.0018815994262695312,0.0026254653930664062,0.0018423572182655334
1775341733073261000,2.146260986328125,-0.0027730464935302734,-0.006026268005371094,0.010029137134552002
1775341733083261000,2.156260986328125,0.001538991928100586,0.012906074523925781,-0.005243871361017227
1775341733093261000,2.166260986328125,0.014856338500976562,-0.0033788681030273438,-0.00039671361446380615
1775341733103261000,2.176260986328125,-0.01343393325805664,0.00031185150146484375,0.003206443041563034
1775341733113261000,2.186260986328125,0.002471923828125,-0.0009012222290039062,-0.0015282295644283295
1775341733123261000,2.196260986328125,0.013020992279052734,-0.007697105407714844,-0.006522085517644882
1775341733133261000,2.206260986328125,-0.009858369827270508,0.0004987716674804688,0.010466612875461578
1775341733143261000,2.216260986328125,0.031394004821777344,-0.008151054382324219,0.006689619272947311
1775341733153261000,2.226260986328125,-0.011398077011108398,0.008759498596191406,-0.01298365369439125
1775341733163261000,2.236260986328125,0.023388147354125977,-0.0044803619384765625,0.002768993377685547
1775341733173261000,2.246260986328125,-0.013313770294189453,0.0022363662719726562,0.00239451602101326
1775341733183261000,2.256260986328125,0.015281915664672852,0.0075283050537109375,0.00385897234082222
1775341733193261000,2.266260986328125,-0.013529300689697266,0.011612892150878906,0.0050552599132061005
1775341733203261000,2.276260986328125,0.014767885208129883,-0.004528045654296875,0.006153307855129242
1775341733213261000,2.286260986328125,-0.012980461120605469,0.001041412353515625,-0.0031234174966812134
1775341733223261000,2.296260986328125,0.004447460174560547,0.000957489013671875,-0.0006822757422924042
1775341733233261000,2.306260986328125,0.0017652511596679688,0.0009222030639648438,-0.007016677409410477
1775341733243261000,2.316260986328125,-0.0026540756225585938,0.0028018951416015625,-0.007104910910129547
1775341733253261000,2.326260986328125,0.021135330200195312,-0.006371498107910156,-0.004640903323888779
1775341733263261000,2.336260986328125,-0.01480722427368164,0.0005550384521484375,0.0023854151368141174
1775341733273261000,2.346260986328125,0.025413990020751953,0.0019788742065429688,-0.004010844975709915
1775341733283261000,2.356260986328125,-0.03233218193054199,0.011725425720214844,-0.005165454000234604
1775341733293261000,2.366260986328125,0.019077062606811523,-0.006196022033691406,-0.0058366842567920685
1775341733303261000,2.376260986328125,-0.0248720645904541,0.01538848876953125,0.006975997239351273
1775341733313261000,2.386260986328125,0.005579948425292969,-0.009359359741210938,0.0030868127942085266
1775341733323261000,2.396260986328125,-0.01364445686340332,0.0012969970703125,0.002604268491268158
1775341733333261000,2.406260986328125,-0.0013074874877929688,0.0030775070190429688,0.008594851940870285
1775341733343261000,2.416260986328125,0.018823862075805664,-0.010670661926269531,0.004805795848369598
1775341733353261000,2.426260986328125,-0.014524698257446289,0.012270927429199219,-0.0011215433478355408
1775341733363261000,2.436260986328125,0.016649961471557617,-0.0014801025390625,-0.0009488537907600403
1775341733373261000,2.446260986328125,-0.01201176643371582,0.0069561004638671875,0.008607316762208939
1775341733383261000,2.456260986328125,0.016386747360229492,-0.01207733154296875,-0.0007008388638496399
1775341733393261000,2.466260986328125,-0.0033521652221679688,0.008520126342773438,-0.009807728230953217
1775341733403261000,2.476260986328125,-0.006420612335205078,-0.004039764404296875,-0.0022312402725219727
1775341733413261000,2.486260986328125,-0.006314277648925781,-0.00482940673828125,0.01202121376991272
1775341733423261000,2.496260986328125,-0.003319263458251953,0.006670951843261719,-0.006558619439601898
1775341733433261000,2.506260986328125,0.0004775524139404297,-0.011017799377441406,-0.0016978681087493896
1775341733443261000,2.516260986328125,0.001718759536743164,0.000988006591796875,0.008243963122367859
1775341733453261000,2.526260986328125,0.018500089645385742,0.0013475418090820312,-0.004953540861606598
1775341733463261000,2.536260986328125,0.009394168853759766,0.0039234161376953125,-0.004753153771162033
1775341733473261000,2.546260986328125,0.00729680061340332,-0.0033626556396484375,0.01374119147658348
1775341733483261000,2.556260986328125,0.0017478466033935547,-0.006905555725097656,0.002165183424949646
1775341733493261000,2.566260986328125,-0.012729883193969727,0.0064239501953125,-0.013812653720378876
1775341733503261000,2.576260986328125,-0.00660252571105957,-0.00152587890625,0.00011451542377471924
1775341733513261000,2.586260986328125,-0.00038242340087890625,0.0010166168212890625,0.005820702761411667
1775341733523261000,2.596260986328125,-0.0054073333740234375,0.003658294677734375,-0.011135086417198181
1775341733533261000,2.606260986328125,0.0049397945404052734,0.006711006164550781,0.0007010921835899353
1775341733543261000,2.616260986328125,0.01036524772644043,0.0017862319946289062,0.016261376440525055
1775341733553261000,2.626260986328125,-0.0012717247009277344,0.005520820617675781,0.004733290523290634
1775341733563261000,2.636260986328125,0.0009818077087402344,-0.005035400390625,-0.016703851521015167
1775341733573261000,2.646260986328125,-0.007043600082397461,0.0028333663940429688,0.008088916540145874
1775341733583261000,2.656260986328125,-0.00043392181396484375,0.0007839202880859375,-0.007422707974910736
1775341733593261000,2.666260986328125,-0.010995626449584961,0.00036907196044921875,-0.005157247185707092
1775341733603261000,2.676260986328125,0.0059053897857666016,-0.0022325515747070312,0.009577106684446335
1775341733613261000,2.686260986328125,-0.008889198303222656,0.0047931671142578125,0.009636085480451584
1775341733623261000,2.696260986328125,-0.008450031280517578,-0.0038862228393554688,-0.00304572656750679
1775341733633261000,2.706260986328125,0.003876209259033203,0.0034666061401367188,0.002730458974838257
1775341733643261000,2.716260986328125,-0.009130716323852539,0.0014801025390625,0.00395796075463295
1775341733653261000,2.726260986328125,-0.00878286361694336,0.0032949447631835938,-0.007317453622817993
1775341733663261000,2.736260986328125,-0.016689538955688477,0.0014820098876953125,-0.015352919697761536
1775341733673261000,2.746260986328125,0.0025606155395507812,-0.005980491638183594,-0.0029017403721809387
1775341733683261000,2.756260986328125,-0.0049479007720947266,-0.0020933151245117188,0.0011966340243816376
1775341733693261000,2.766260986328125,-0.0008189678192138672,-0.0008907318115234375,-0.008555490523576736
1775341733703261000,2.776260986328125,-0.0010745525360107422,0.0018453598022460938,-0.0013386011123657227
1775341733713261000,2.786260986328125,-0.007726430892944336,-0.00139617919921875,0.014372006058692932
1775341733723261000,2.796260986328125,-0.0014452934265136719,-0.007317543029785156,-0.0055607035756111145
1775341733733261000,2.806260986328125,-0.006794452667236328,-0.00083160400390625,-0.010776814073324203
1775341733743261000,2.816260986328125,-0.000946044921875,0.002838134765625,0.016070358455181122
1775341733753261000,2.826260986328125,-0.0013339519500732422,-0.013222694396972656,0.003024403005838394
1775341733763261000,2.836260986328125,-0.03085780143737793,0.017694473266601562,0.0022366605699062347
1775341733773261000,2.846260986328125,0.03011798858642578,-0.0146636962890625,0.008819356560707092
1775341733783261000,2.856260986328125,0.007780551910400391,0.0028076171875,0.00846400111913681
1775341733793261000,2.866260986328125,-0.017041683197021484,0.00946807861328125,-0.003833092749118805
1775341733803261000,2.876260986328125,0.03743553161621094,-0.010922431945800781,-0.0020943619310855865
1775341733813261000,2.886260986328125,-0.035524606704711914,0.01764392852783203,0.0057542286813259125
1775341733823261000,2.896260986328125,0.026463747024536133,-0.0034017562866210938,-0.0073909759521484375
1775341733833261000,2.906260986328125,-0.01982259750366211,-0.0013370513916015625,0.002474401146173477
1775341733843261000,2.916260986328125,0.005598783493041992,0.009400367736816406,-0.007928352802991867
1775341733853261000,2.926260986328125,0.007981300354003906,-0.005553245544433594,-0.003192577511072159
1775341733863261000,2.936260986328125,-0.023110628128051758,0.005664825439453125,-0.0008932426571846008
1775341733873261000,2.946260986328125,0.04300880432128906,-0.015135765075683594,-0.009866464883089066
1775341733883261000,2.956260986328125,-0.017549753189086914,0.015659332275390625,0.001049526035785675
1775341733893261000,2.966260986328125,0.021576404571533203,-0.014855384826660156,-0.008257828652858734
1775341733903261000,2.976260986328125,0.021288156509399414,-0.0031385421752929688,-0.007628165185451508
1775341733913261000,2.986260986328125,-0.01983809471130371,0.0038661956787109375,-0.003775130957365036
1775341733923261000,2.996260986328125,0.018047094345092773,-0.008600234985351562,0.005074895918369293
1775341733933261000,3.006260986328125,-0.024683713912963867,0.014443397521972656,-0.007962547242641449
1775341733943261000,3.016260986328125,0.0216677188873291,-0.004535675048828125,0.0009904317557811737
1775341733953261000,3.026260986328125,-0.02706623077392578,0.0130767822265625,0.0019202828407287598
1775341733963261000,3.036260986328125,0.010257959365844727,0.0040264129638671875,0.00008299574255943298
1775341733973261000,3.046260986328125,0.009100198745727539,-0.004166603088378906,-0.011201288551092148
1775341733983261000,3.056260986328125,-0.009673118591308594,-0.0072612762451171875,0.0012879297137260437
1775341733993261000,3.066260986328125,0.02641773223876953,-0.013670921325683594,-0.006155136972665787
1775341734003261000,3.076260986328125,-0.010982275009155273,0.0035200119018554688,-0.011655475944280624
1775341734013261000,3.086260986328125,0.02322840690612793,-0.0058460235595703125,-0.002931743860244751
1775341734023261000,3.096260986328125,-0.003731250762939453,0.0037069320678710938,0.008387591689825058
1775341734033261000,3.106260986328125,0.000035762786865234375,-0.00566864013671875,0.007529370486736298
1775341734043261000,3.116260986328125,0.0018184185028076172,0.0054569244384765625,-0.00321120023727417
1775341734053261000,3.126260986328125,-0.007463932037353516,-0.000743865966796875,0.017394263297319412
1775341734063261000,3.136260986328125,0.001766204833984375,0.005268096923828125,0.004592135548591614
1775341734073261000,3.146260986328125,-0.0062122344970703125,0.0000019073486328125,-0.0074863433837890625
1775341734083261000,3.156260986328125,-0.01595902442932129,0.005656242370605469,0.007740963250398636
1775341734093261000,3.166260986328125,0.013138532638549805,-0.00003528594970703125,0.012547962367534637
1775341734103261000,3.176260986328125,0.0020999908447265625,0.004853248596191406,0.0005023740231990814
1775341734113261000,3.186260986328125,-0.005244016647338867,-0.013796806335449219,-0.009709686040878296
1775341734123261000,3.196260986328125,-0.005605459213256836,-0.00634002685546875,0.0042514316737651825
1775341734133261000,3.206260986328125,0.0029363632202148438,-0.0037975311279296875,0.0007155053317546844
1775341734143261000,3.216260986328125,-0.007794618606567383,0.0038614273071289062,-0.006405584514141083
1775341734153261000,3.226260986328125,-0.002222776412963867,-0.00013065338134765625,0.0012333951890468597
1775341734163261000,3.236260986328125,0.006399393081665039,0.003928184509277344,0.0025303810834884644
1775341734173261000,3.246260986328125,-0.005070686340332031,0.0013895034790039062,-0.005118776112794876
1775341734183261000,3.256260986328125,-0.004042148590087891,-0.0023431777954101562,-0.0016146264970302582
1775341734193261000,3.266260986328125,0.0077669620513916016,-0.0017499923706054688,0.010927263647317886
1775341734203261000,3.276260986328125,0.010025739669799805,-0.0027332305908203125,-0.0080905482172966
1775341734213261000,3.286260986328125,-0.0017082691192626953,-0.001323699951171875,-0.01590532436966896
1775341734223261000,3.296260986328125,0.002321481704711914,-0.0020036697387695312,0.010859508067369461
1775341734233261000,3.306260986328125,0.01488494873046875,-0.0033054351806640625,0.009368211030960083
1775341734243261000,3.316260986328125,-0.011328458786010742,-0.006823539733886719,-0.0035816095769405365
1775341734253261000,3.326260986328125,-0.015391111373901367,0.007233619689941406,-0.002624180167913437
1775341734263261000,3.336260986328125,0.009011030197143555,-0.009696006774902344,0.012634117156267166
1775341734273261000,3.346260986328125,0.0013108253479003906,-0.004452705383300781,-0.006091468036174774
1775341734283261000,3.356260986328125,-0.005746603012084961,-0.0010404586791992188,-0.006716731935739517
1775341734293261000,3.366260986328125,0.0034265518188476562,-0.013387680053710938,0.015089970082044601
1775341734303261000,3.376260986328125,0.01733851432800293,0.0026531219482421875,0.004001200199127197
1775341734313261000,3.386260986328125,0.0018014907836914062,-0.003559112548828125,-0.0033741146326065063
1775341734323261000,3.396260986328125,0.0027413368225097656,0.0030374526977539062,-0.0018825717270374298
1775341734333261000,3.406260986328125,0.010302543640136719,-0.0006475448608398438,0.00908491387963295
1775341734343261000,3.416260986328125,0.0015263557434082031,-0.009348869323730469,-0.005049008876085281
1775341734353261000,3.426260986328125,-0.009978294372558594,0.015484809875488281,-0.0007322318851947784
1775341734363261000,3.436260986328125,0.006830930709838867,-0.0015478134155273438,0.01039501279592514
1775341734373261000,3.446260986328125,-0.0034563541412353516,-0.0032625198364257812,0.0013360045850276947
1775341734383261000,3.456260986328125,-0.02544379234313965,0.0015439987182617188,-0.008398249745368958
1775341734393261000,3.466260986328125,0.008179426193237305,-0.009042739868164062,0.008227735757827759
1775341734403261000,3.476260986328125,-0.010103940963745117,0.008128166198730469,0.012401584535837173
1775341734413261000,3.486260986328125,0.0029268264770507812,0.008787155151367188,-0.016395412385463715
1775341734423261000,3.496260986328125,0.0012886524200439453,0.00792694091796875,-0.009387843310832977
1775341734433261000,3.506260986328125,0.0021026134490966797,0.000598907470703125,0.006076868623495102
1775341734443261000,3.516260986328125,0.01508021354675293,-0.0009546279907226562,-0.0022641047835350037
1775341734453261000,3.526260986328125,-0.021839618682861328,0.0144500732421875,-0.0020449385046958923
1775341734463261000,3.536260986328125,0.010473012924194336,-0.0029306411743164062,0.010112836956977844
1775341734473261000,3.546260986328125,-0.0160219669342041,0.00215911865234375,0.008438054472208023
1775341734483261000,3.556260986328125,0.012115955352783203,-0.0028753280639648438,-0.012307517230510712
1775341734493261000,3.566260986328125,0.0009467601776123047,0.0082550048828125,0.008233722299337387
1775341734503261000,3.576260986328125,-0.018212080001831055,0.004233360290527344,0.007073286920785904
1775341734513261000,3.586260986328125,0.018175125122070312,0.0010204315185546875,-0.008456528186798096
1775341734523261000,3.596260986328125,-0.003139019012451172,0.005771636962890625,-0.006477691233158112
1775341734533261000,3.606260986328125,0.015147209167480469,-0.012593269348144531,0.008437536656856537
1775341734543261000,3.616260986328125,-0.006074666976928711,0.0033664703369140625,-0.0014231614768505096
1775341734553261000,3.626260986328125,-0.003720521926879883,0.0014867782592773438,-0.012901343405246735
1775341734563261000,3.636260986328125,0.01376032829284668,-0.0019855499267578125,0.00810142233967781
1775341734573261000,3.646260986328125,-0.0025539398193359375,-0.0022726058959960938,0.015798918902873993
1775341734583261000,3.656260986328125,0.006427288055419922,-0.0223236083984375,-0.018890317529439926
1775341734593261000,3.666260986328125,-0.02131342887878418,0.014844894409179688,-0.005147196352481842
1775341734603261000,3.676260986328125,0.007565021514892578,-0.02018451690673828,0.009390629827976227
1775341734613261000,3.686260986328125,-0.02794194221496582,0.006890296936035156,-0.006651699542999268
1775341734623261000,3.696260986328125,0.018944263458251953,-0.0060024261474609375,-0.02096940204501152
1775341734633261000,3.706260986328125,-0.0076715946197509766,-0.0006132125854492188,0.008036140352487564
1775341734643261000,3.716260986328125,0.008939743041992188,0.0032567977905273438,0.0016460120677947998
1775341734653261000,3.726260986328125,0.00590968132019043,-0.00040340423583984375,-0.02357824146747589
1775341734663261000,3.736260986328125,0.05694866180419922,-0.09955310821533203,0.11869169771671295
1775341734673261000,3.746260986328125,-0.11015152931213379,0.007325172424316406,-0.015405379235744476
1775341734683261000,3.756260986328125,-0.12034726142883301,0.20340728759765625,-0.3462919592857361
1775341734693261000,3.766260986328125,0.3462214469909668,-0.21334171295166016,0.1217774897813797
1775341734703261000,3.776260986328125,-0.10503673553466797,0.06784439086914062,0.2858945429325104
1775341734713261000,3.786260986328125,-0.018009424209594727,-0.020529747009277344,-0.24008989334106445
1775341734723261000,3.796260986328125,-0.2758216857910156,0.13248634338378906,-0.20312944054603577
1775341734733261000,3.806260986328125,0.6101646423339844,-0.2584953308105469,0.2866848111152649
1775341734743261000,3.816260986328125,-0.451801061630249,0.10210037231445312,0.17697162926197052
1775341734753261000,3.826260986328125,0.0021092891693115234,0.03694343566894531,-0.4798080623149872
1775341734763261000,3.836260986328125,0.3822665214538574,-0.07992935180664062,0.0071046799421310425
1775341734773261000,3.846260986328125,-0.22001099586486816,0.045914649963378906,0.4957863986492157
1775341734783261000,3.856260986328125,0.2301185131072998,-0.10507869720458984,-0.18614719808101654
1775341734793261000,3.866260986328125,-0.4473388195037842,0.24050045013427734,-0.40563082695007324
1775341734803261000,3.876260986328125,0.4142317771911621,-0.1865072250366211,0.2539752721786499
1775341734813261000,3.886260986328125,-0.26545023918151855,0.04432487487792969,0.33848074078559875
1775341734823261000,3.896260986328125,-0.058302879333496094,0.07655048370361328,-0.3414781093597412
1775341734833261000,3.906260986328125,0.12936663627624512,-0.035538673400878906,-0.12257817387580872
1775341734843261000,3.916260986328125,-0.17289495468139648,0.020470619201660156,0.3834347724914551
1775341734853261000,3.926260986328125,0.2231743335723877,-0.08605766296386719,-0.07438970357179642
1775341734863261000,3.936260986328125,-0.3369016647338867,0.17777729034423828,-0.2943214178085327
1775341734873261000,3.946260986328125,0.29085516929626465,-0.13425922393798828,0.14673832058906555
1775341734883261000,3.956260986328125,-0.08823394775390625,0.014430999755859375,0.22818949818611145
1775341734893261000,3.966260986328125,-0.009952545166015625,0.03346443176269531,-0.26168033480644226
1775341734903261000,3.976260986328125,0.02921581268310547,-0.009854316711425781,-0.1139155924320221
1775341734913261000,3.986260986328125,-0.08988142013549805,0.02220439910888672,0.23773105442523956
1775341734923261000,3.996260986328125,0.21138620376586914,-0.08526229858398438,0.001704338937997818
1775341734933261000,4.006260986328125,-0.2568509578704834,0.12240314483642578,-0.1555110216140747
1775341734943261000,4.016260986328125,0.19380521774291992,-0.0926046371459961,0.07330009341239929
1775341734953261000,4.026260986328125,-0.0705726146697998,0.02305889129638672,0.1210065558552742
1775341734963261000,4.036260986328125,0.03766512870788574,-0.009385108947753906,-0.10800386965274811
1775341734973261000,4.046260986328125,-0.0012640953063964844,0.010060310363769531,-0.04868018627166748
1775341734983261000,4.056260986328125,-0.04621243476867676,0.010861396789550781,0.11405134201049805
1775341734993261000,4.066260986328125,0.09396910667419434,-0.037700653076171875,0.005647491663694382
1775341735003261000,4.076260986328125,-0.08949637413024902,0.054848670959472656,-0.08612057566642761
1775341735013261000,4.086260986328125,0.03020477294921875,-0.0179901123046875,0.014943692833185196
1775341735023261000,4.096260986328125,-0.022756338119506836,0.011018753051757812,0.05723492056131363
1775341735033261000,4.106260986328125,0.05475950241088867,-0.012867927551269531,-0.03103608638048172
1775341735043261000,4.116260986328125,-0.06325340270996094,0.021541595458984375,0.0003413297235965729
1775341735053261000,4.126260986328125,-0.013176679611206055,-0.01991748809814453,0.03670888394117355
1775341735063261000,4.136260986328125,-0.0027298927307128906,0.0130157470703125,-0.003792267292737961
1775341735073261000,4.146260986328125,-0.0001423358917236328,-0.002422332763671875,0.011491574347019196
1775341735083261000,4.156260986328125,-0.014700651168823242,-0.0013761520385742188,0.02477407082915306
1775341735093261000,4.166260986328125,-0.015542984008789062,0.007273674011230469,-0.001855459064245224
1775341735103261000,4.176260986328125,0.05323171615600586,-0.010691642761230469,-0.009106840938329697
1775341735113261000,4.186260986328125,-0.008476495742797852,0.008718490600585938,0.02295859530568123
1775341735123261000,4.196260986328125,-0.0175323486328125,-0.0009603500366210938,-0.02365928515791893
1775341735133261000,4.206260986328125,0.005639076232910156,-0.000530242919921875,-0.0338190421462059
1775341735143261000,4.216260986328125,0.013300657272338867,-0.00003719329833984375,0.0432075560092926
1775341735153261000,4.226260986328125,-0.00010347366333007812,-0.007541656494140625,0.016396749764680862
1775341735163261000,4.236260986328125,-0.025743722915649414,0.01442718505859375,-0.05316625535488129
1775341735173261000,4.246260986328125,0.003340005874633789,-0.004917144775390625,0.0006312727928161621
1775341735183261000,4.256260986328125,0.01921987533569336,-0.0064334869384765625,0.04169075936079025
1775341735193261000,4.266260986328125,-0.026670217514038086,0.008062362670898438,-0.0033321939408779144
1775341735203261000,4.276260986328125,0.01824188232421875,0.00392913818359375,-0.015423178672790527
1775341735213261000,4.286260986328125,0.0053102970123291016,0.004096031188964844,0.01285097748041153
1775341735223261000,4.296260986328125,0.012444257736206055,0.0036668777465820312,-0.0028221532702445984
1775341735233261000,4.306260986328125,-0.010072708129882812,-0.0030193328857421875,-0.01248842477798462
1775341735243261000,4.316260986328125,0.006484270095825195,0.0042514801025390625,0.021203014999628067
1775341735253261000,4.326260986328125,0.008861541748046875,0.0019502639770507812,0.03792288526892662
1775341735263261000,4.336260986328125,-0.007776975631713867,0.002391815185546875,-0.010869499295949936
1775341735273261000,4.346260986328125,0.01843857765197754,0.008563041687011719,-0.019426319748163223
1775341735283261000,4.356260986328125,-0.02250504493713379,0.0020036697387695312,0.016498621553182602
1775341735293261000,4.366260986328125,-0.010984182357788086,-0.003032684326171875,0.013135239481925964
1775341735303261000,4.376260986328125,0.024693012237548828,0.010122299194335938,-0.007640998810529709
1775341735313261000,4.386260986328125,0.014377832412719727,0.004872322082519531,-0.005175918340682983
1775341735323261000,4.396260986328125,-0.05302262306213379,-0.02339649200439453,0.010959729552268982
1775341735333261000,4.406260986328125,0.021684646606445312,-0.00040721893310546875,-0.04362819716334343
1775341735343261000,4.416260986328125,0.02110576629638672,0.0105133056640625,-0.0029894933104515076
1775341735353261000,4.426260986328125,-0.022203445434570312,-0.000335693359375,0.052260998636484146
1775341735363261000,4.436260986328125,0.04604983329772949,-0.0068187713623046875,-0.022741369903087616
1775341735373261000,4.446260986328125,-0.018919944763183594,0.005339622497558594,-0.021718662232160568
1775341735383261000,4.456260986328125,-0.02100229263305664,0.004452705383300781,0.0419701486825943
1775341735393261000,4.466260986328125,0.04566478729248047,-0.007925987243652344,0.016356080770492554
1775341735403261000,4.476260986328125,-0.008263111114501953,0.005860328674316406,-0.02453414350748062
1775341735413261000,4.486260986328125,0.031126022338867188,-0.019876480102539062,0.03085855208337307
1775341735423261000,4.496260986328125,-0.010132312774658203,0.006543159484863281,0.0274166502058506
1775341735433261000,4.506260986328125,0.018183231353759766,0.009032249450683594,-0.059266477823257446
1775341735443261000,4.516260986328125,-0.018612146377563477,-0.0057964324951171875,-0.018536992371082306
1775341735453261000,4.526260986328125,-0.015256881713867188,-0.009124755859375,0.06506480276584625
1775341735463261000,4.536260986328125,0.03058004379272461,0.011115074157714844,-0.010226614773273468
1775341735473261000,4.546260986328125,-0.01558542251586914,0.008557319641113281,-0.04758000746369362
1775341735483261000,4.556260986328125,-0.02150130271911621,-0.012460708618164062,0.006282296031713486
1775341735493261000,4.566260986328125,-0.004502773284912109,-0.000392913818359375,-0.018295112997293472
1775341735503261000,4.576260986328125,0.02455425262451172,0.003116607666015625,-0.014273803681135178
1775341735513261000,4.586260986328125,-0.01430821418762207,-0.02921581268310547,0.04891636595129967
1775341735523261000,4.596260986328125,-0.03896689414978027,0.01656627655029297,-0.0018665902316570282
1775341735533261000,4.606260986328125,0.016866445541381836,0.01593303680419922,-0.053472407162189484
1775341735543261000,4.616260986328125,0.013478994369506836,-0.009555816650390625,0.04213659465312958
1775341735553261000,4.626260986328125,-0.013634204864501953,-0.0015316009521484375,0.05766204744577408
1775341735563261000,4.636260986328125,0.02603292465209961,0.0041370391845703125,-0.022022414952516556
1775341735573261000,4.646260986328125,-0.027559995651245117,0.006702423095703125,0.02290090173482895
1775341735583261000,4.656260986328125,-0.009377241134643555,-0.010334014892578125,0.03269987925887108
1775341735593261000,4.666260986328125,-0.017824172973632812,0.0045833587646484375,-0.03414275497198105
1775341735603261000,4.676260986328125,0.0016417503356933594,0.014208793640136719,0.0001504272222518921
1775341735613261000,4.686260986328125,0.039380550384521484,-0.020537376403808594,0.05688472464680672
1775341735623261000,4.696260986328125,-0.03240633010864258,0.016775131225585938,0.00775059312582016
1775341735633261000,4.706260986328125,0.05650758743286133,-0.01603984832763672,-0.04900270327925682
1775341735643261000,4.716260986328125,-0.07649636268615723,0.02934551239013672,-0.012674354016780853
1775341735653261000,4.726260986328125,0.02811574935913086,-0.02955150604248047,-0.004995763301849365
1775341735663261000,4.736260986328125,-0.06747555732727051,0.026185989379882812,-0.01337410882115364
1775341735673261000,4.746260986328125,-0.0518038272857666,-0.021127700805664062,-0.015184495598077774
1775341735683261000,4.756260986328125,-0.11984968185424805,0.022337913513183594,-0.034252483397722244
1775341735693261000,4.766260986328125,0.06344079971313477,-0.005036354064941406,-0.04681333899497986
1775341735703261000,4.776260986328125,-0.007534980773925781,0.0073394775390625,0.0542852059006691
1775341735713261000,4.786260986328125,-0.0020449161529541016,0.02958965301513672,0.04188593104481697
1775341735723261000,4.796260986328125,0.15301823616027832,-0.04368305206298828,-0.012409068644046783
1775341735733261000,4.806260986328125,-0.0995948314666748,0.03000640869140625,-0.03254136070609093
1775341735743261000,4.816260986328125,0.08841848373413086,-0.032975196838378906,-0.005675062537193298
1775341735753261000,4.826260986328125,-0.057715415954589844,0.032830238342285156,0.06317494064569473
1775341735763261000,4.836260986328125,-0.008716106414794922,0.022541046142578125,0.03739364445209503
1775341735773261000,4.846260986328125,0.08113455772399902,-0.06420326232910156,0.07236261665821075
1775341735783261000,4.856260986328125,-0.024907588958740234,-0.009852409362792969,0.06546098738908768
1775341735793261000,4.866260986328125,-0.038976430892944336,-0.005343437194824219,-0.07820048183202744
1775341735803261000,4.876260986328125,-0.09112977981567383,0.04850578308105469,-0.04786498844623566
1775341735813261000,4.886260986328125,0.09745264053344727,-0.011931419372558594,0.10838063061237335
1775341735823261000,4.896260986328125,-0.007272958755493164,0.02638721466064453,0.041915103793144226
1775341735833261000,4.906260986328125,0.04054403305053711,-0.0300750732421875,-0.1108441948890686
1775341735843261000,4.916260986328125,0.08125710487365723,-0.039160728454589844,-0.06845854222774506
1775341735853261000,4.926260986328125,0.05524492263793945,0.0027065277099609375,-0.0008346438407897949
1775341735863261000,4.936260986328125,-0.011759757995605469,0.025801658630371094,-0.031211312860250473
1775341735873261000,4.946260986328125,-0.13235688209533691,0.0432281494140625,-0.05635813623666763
1775341735883261000,4.956260986328125,0.060771942138671875,-0.014734268188476562,0.02156582847237587
1775341735893261000,4.966260986328125,0.006655693054199219,-0.015206336975097656,0.11073847860097885
1775341735903261000,4.976260986328125,-0.058695316314697266,-0.0025510787963867188,-0.017760027199983597
1775341735913261000,4.986260986328125,0.11181211471557617,0.004192352294921875,-0.07579904794692993
1775341735923261000,4.996260986328125,-0.12035584449768066,0.037265777587890625,0.08817939460277557
1775341735933261000,5.006260986328125,0.05992937088012695,-0.061786651611328125,0.06164038926362991
1775341735943261000,5.016260986328125,0.034155845642089844,0.0062427520751953125,-0.006794039160013199
1775341735953261000,5.026260986328125,-0.1933879852294922,0.114898681640625,0.061869218945503235
1775341735963261000,5.036260986328125,0.019693851470947266,-0.039597511291503906,0.003823995590209961
1775341735973261000,5.046260986328125,0.15160036087036133,-0.07237815856933594,-0.0918361023068428
1775341735983261000,5.056260986328125,-0.150346040725708,0.08021163940429688,-0.0027986615896224976
1775341735993261000,5.066260986328125,0.00139617919921875,0.012302398681640625,0.04214617609977722
1775341736003261000,5.076260986328125,0.11164522171020508,-0.029320716857910156,0.0018503367900848389
1775341736013261000,5.086260986328125,-0.06510639190673828,-0.026610374450683594,0.014505136758089066
1775341736023261000,5.096260986328125,-0.03644824028015137,0.052458763122558594,-0.002634108066558838
1775341736033261000,5.106260986328125,0.1127939224243164,-0.044170379638671875,-0.061645813286304474
1775341736043261000,5.116260986328125,-0.15492868423461914,0.050278663635253906,-0.06765039265155792
1775341736053261000,5.126260986328125,0.01540517807006836,-0.0036039352416992188,-0.06968041509389877
1775341736063261000,5.136260986328125,-0.007676362991333008,0.0016279220581054688,0.0012278854846954346
1775341736073261000,5.146260986328125,-0.03116750717163086,0.027887344360351562,0.014985363930463791
1775341736083261000,5.156260986328125,-0.09587931632995605,0.07556438446044922,0.02810107171535492
1775341736093261000,5.166260986328125,-0.1414639949798584,0.08405017852783203,0.03727392479777336
1775341736103261000,5.176260986328125,-0.24438023567199707,0.16736507415771484,0.049566783010959625
1775341736113261000,5.186260986328125,-0.07872509956359863,0.06910228729248047,0.021137401461601257
1775341736123261000,5.196260986328125,-0.31551122665405273,0.27251625061035156,0.06620931625366211
1775341736133261000,5.206260986328125,-0.06349992752075195,0.0717325210571289,0.025688476860523224
1775341736143261000,5.216260986328125,0.3996131420135498,-0.21226882934570312,0.03224223107099533
1775341736153261000,5.226260986328125,0.11103057861328125,0.01981639862060547,0.16482235491275787
1775341736163261000,5.236260986328125,-0.26419901847839355,0.245941162109375,0.0749189630150795
1775341736173261000,5.246260986328125,-0.15781712532043457,0.2705574035644531,-0.1228150799870491
1775341736183261000,5.256260986328125,-0.6280596256256104,0.42980098724365234,-0.043635666370391846
1775341736193261000,5.266260986328125,0.3316493034362793,0.10082054138183594,-0.00553952157497406
1775341736203261000,5.276260986328125,-0.6506102085113525,0.6796283721923828,0.08848416805267334
1775341736213261000,5.286260986328125,0.17992019653320312,0.09694194793701172,0.14495538175106049
1775341736223261000,5.296260986328125,0.851715087890625,-0.09031200408935547,-0.07844708859920502
1775341736233261000,5.306260986328125,-0.5620170831680298,0.43804359436035156,-0.13129934668540955
1775341736243261000,5.316260986328125,0.7467813491821289,0.007823944091796875,0.17509707808494568
1775341736253261000,5.326260986328125,-0.8987674713134766,0.6334371566772461,0.21417760848999023
1775341736263261000,5.336260986328125,0.05565476417541504,0.37902355194091797,-0.07861361652612686
1775341736273261000,5.346260986328125,-0.05449676513671875,0.6996383666992188,-0.09001708030700684
1775341736283261000,5.356260986328125,-0.9907883405685425,0.818206787109375,0.38318464159965515
1775341736293261000,5.366260986328125,0.6226222515106201,0.3143930435180664,-0.07434632629156113
1775341736303261000,5.376260986328125,-0.7549426555633545,0.8546514511108398,-0.11389897018671036
1775341736313261000,5.386260986328125,-0.32098865509033203,0.8150472640991211,0.25558364391326904
1775341736323261000,5.396260986328125,-0.10327434539794922,0.797450065612793,-0.03098783642053604
1775341736333261000,5.406260986328125,-1.162333369255066,0.9341869354248047,-0.25540515780448914
1775341736343261000,5.416260986328125,0.1789233684539795,0.3953981399536133,-0.0837489515542984
1775341736353261000,5.426260986328125,-0.38580322265625,0.9142637252807617,0.2058751881122589
1775341736363261000,5.436260986328125,-0.44812440872192383,0.3798360824584961,-0.19318947196006775
1775341736373261000,5.446260986328125,-0.005141019821166992,0.36942005157470703,-0.34049108624458313
1775341736383261000,5.456260986328125,-2.900428533554077,1.9679908752441406,0.04667772352695465
1775341736393261000,5.466260986328125,-3.403780221939087,1.9358587265014648,0.12703435122966766
1775341736403261000,5.476260986328125,-5.283699035644531,2.55765438079834,0.03247061371803284
1775341736413261000,5.486260986328125,-8.646631240844727,3.74703311920166,0.15371650457382202
1775341736423261000,5.496260986328125,-4.657020568847656,2.0414886474609375,0.12938252091407776
1775341736433261000,5.506260986328125,-5.271303176879883,1.8841056823730469,0.2835124135017395
1775341736443261000,5.516260986328125,-2.842712879180908,0.2776346206665039,0.07150746881961823
1775341736453261000,5.526260986328125,-2.549509286880493,0.007012367248535156,0.1320635825395584
1775341736463261000,5.536260986328125,-0.7553558349609375,-1.1576294898986816,0.031845733523368835
1775341736473261000,5.546260986328125,0.793917179107666,-2.0772218704223633,-0.08467687666416168
1775341736483261000,5.556260986328125,2.2624950408935547,-2.4176855087280273,-0.1805477738380432
1775341736493261000,5.566260986328125,2.952347755432129,-2.7141122817993164,-0.16707320511341095
1775341736503261000,5.576260986328125,3.133864402770996,-2.732302665710449,-0.0764276385307312
1775341736513261000,5.586260986328125,3.4301676750183105,-2.9269399642944336,-0.1992967575788498
1775341736523261000,5.596260986328125,3.442493438720703,-2.6811208724975586,-0.06061440706253052
1775341736533261000,5.606260986328125,2.3789820671081543,-3.012171745300293,0.07631125301122665
1775341736543261000,5.616260986328125,2.2685093879699707,-2.580472946166992,-0.11209768056869507
1775341736553261000,5.626260986328125,1.0331954956054688,-1.9108381271362305,-0.030302301049232483
1775341736563261000,5.636260986328125,0.2768850326538086,-1.344949722290039,-0.016582444310188293
1775341736573261000,5.646260986328125,-1.2184138298034668,-0.9334602355957031,0.03838437795639038
1775341736583261000,5.656260986328125,-2.006533145904541,-0.730870246887207,0.07745255529880524
1775341736593261000,5.666260986328125,-2.3670623302459717,-0.650578498840332,0.16481858491897583
1775341736603261000,5.676260986328125,-2.4706649780273438,-0.5958666801452637,0.21711726486682892
1775341736613261000,5.686260986328125,-2.455190658569336,-0.2790393829345703,0.09907576441764832
1775341736623261000,5.696260986328125,-2.4846086502075195,-0.5696315765380859,0.017096832394599915
1775341736633261000,5.706260986328125,-2.337752342224121,-0.7335591316223145,0.0003098994493484497
1775341736643261000,5.716260986328125,-2.4752414226531982,-0.5583419799804688,0.1685773879289627
1775341736653261000,5.726260986328125,-2.470155715942383,-0.6043057441711426,0.1573665291070938
1775341736663261000,5.736260986328125,-1.8061022758483887,-0.8932356834411621,-0.15978088974952698
1775341736673261000,5.746260986328125,16.94301414489746,-6.91929817199707,-3.316071033477783
1775341736683261000,5.756260986328125,30.698795318603516,-17.19855308532715,2.6189095973968506
1775341736693261000,5.766260986328125,-25.32818603515625,11.699617385864258,6.584712028503418
1775341736703261000,5.776260986328125,-6.483150959014893,2.6527132987976074,-3.4109580516815186
1775341736713261000,5.786260986328125,10.236780166625977,-3.363422155380249,-4.174098968505859
1775341736723261000,5.796260986328125,-0.3551769256591797,-2.5503711700439453,3.381685256958008
1775341736733261000,5.806260986328125,-1.3117971420288086,-0.06888675689697266,2.2462828159332275
1775341736743261000,5.816260986328125,-0.947547435760498,0.7639651298522949,-2.588397979736328
1775341736753261000,5.826260986328125,0.8008489608764648,-0.7787184715270996,-1.7737115621566772
1775341736763261000,5.836260986328125,-0.18853282928466797,-0.8651390075683594,1.9077309370040894
1775341736773261000,5.846260986328125,1.5559992790222168,-0.8511686325073242,0.5725610852241516
1775341736783261000,5.856260986328125,-1.8468451499938965,1.117330551147461,-1.5729902982711792
1775341736793261000,5.866260986328125,-0.3694429397583008,0.31420373916625977,-0.35756969451904297
1775341736803261000,5.876260986328125,2.8779473304748535,-1.3181352615356445,1.2513794898986816
1775341736813261000,5.886260986328125,-0.7363018989562988,0.40869808197021484,0.36850765347480774
1775341736823261000,5.896260986328125,-1.0005850791931152,0.8101825714111328,-1.1093440055847168
1775341736833261000,5.906260986328125,1.116692066192627,-0.22783899307250977,-0.2358807474374771
1775341736843261000,5.916260986328125,1.1588473320007324,-0.30760717391967773,0.8471595048904419
1775341736853261000,5.926260986328125,0.08746528625488281,0.22432231903076172,-0.2538868486881256
1775341736863261000,5.936260986328125,-0.9263105392456055,0.7483420372009277,-0.7228190302848816
1775341736873261000,5.946260986328125,0.8930110931396484,-0.23411846160888672,0.18582242727279663
1775341736883261000,5.956260986328125,1.2322564125061035,-0.3502640724182129,0.5256627798080444
1775341736893261000,5.966260986328125,-0.17598342895507812,0.5498385429382324,-0.1727115958929062
1775341736903261000,5.976260986328125,-0.3007197380065918,0.7519912719726562,-0.3710876703262329
1775341736913261000,5.986260986328125,0.7086782455444336,-0.05166006088256836,0.2732953727245331
1775341736923261000,5.996260986328125,0.9568972587585449,-0.21991968154907227,0.3860965669155121
1775341736933261000,6.006260986328125,-0.2964324951171875,0.4720292091369629,-0.2463715523481369
1775341736943261000,6.016260986328125,0.02388906478881836,0.5473728179931641,-0.28478384017944336
1775341736953261000,6.026260986328125,0.6520633697509766,-0.07109642028808594,0.21551579236984253
1775341736963261000,6.036260986328125,0.863800048828125,-0.22083330154418945,-0.05748821794986725
1775341736973261000,6.046260986328125,-0.16656112670898438,0.27769994735717773,-0.3278433084487915
1775341736983261000,6.056260986328125,-0.6316609382629395,0.5286879539489746,-0.03328804671764374
1775341736993261000,6.066260986328125,0.8721332550048828,-0.35094594955444336,0.11661671102046967
1775341737003261000,6.076260986328125,0.2513141632080078,-0.22440576553344727,-0.06715710461139679
1775341737013261000,6.086260986328125,-0.3076944351196289,0.03638267517089844,-0.20367968082427979
1775341737023261000,6.096260986328125,0.02717733383178711,-0.36710071563720703,0.013740673661231995
1775341737033261000,6.106260986328125,0.3998885154724121,-0.6737780570983887,-0.0014247000217437744
1775341737043261000,6.116260986328125,-0.18534564971923828,-0.4769577980041504,-0.22503864765167236
1775341737053261000,6.126260986328125,-0.4240097999572754,-0.6119627952575684,-0.04914051294326782
1775341737063261000,6.136260986328125,-0.3622469902038574,-0.5955410003662109,0.04855877161026001
1775341737073261000,6.146260986328125,-0.9259285926818848,-0.4228940010070801,-0.041881948709487915
1775341737083261000,6.156260986328125,0.10118865966796875,-1.1440587043762207,-0.19030489027500153
1775341737093261000,6.166260986328125,-0.6426749229431152,-1.0100045204162598,0.021440893411636353
1775341737103261000,6.176260986328125,-0.5420823097229004,-1.1365413665771484,0.08496233820915222
1775341737113261000,6.186260986328125,-1.0573630332946777,-0.9283432960510254,0.049303337931632996
1775341737123261000,6.196260986328125,-1.2021079063415527,-1.1746363639831543,0.08598773181438446
1775341737133261000,6.206260986328125,-0.40987348556518555,-1.250229835510254,0.09095814824104309
1775341737143261000,6.216260986328125,-1.6994915008544922,-0.8203377723693848,0.40000882744789124
1775341737153261000,6.226260986328125,-1.0303945541381836,-1.0511665344238281,0.08478517830371857
1775341737163261000,6.236260986328125,-0.612971305847168,-1.235428810119629,0.030202597379684448
1775341737173261000,6.246260986328125,-0.03161144256591797,-1.6544547080993652,0.3019614517688751
1775341737183261000,6.256260986328125,-0.14552688598632812,-1.2017521858215332,0.040939778089523315
1775341737193261000,6.266260986328125,-2.2327589988708496,-0.11979389190673828,-0.07362997531890869
1775341737203261000,6.276260986328125,0.9417614936828613,-1.648636817932129,-0.06718628108501434
1775341737213261000,6.286260986328125,-1.3820209503173828,-0.6819181442260742,0.393197238445282
1775341737223261000,6.296260986328125,-0.5809521675109863,-0.9355835914611816,-0.14054976403713226
1775341737233261000,6.306260986328125,0.18349790573120117,-0.9228610992431641,-0.49187225103378296
1775341737243261000,6.316260986328125,-1.1093206405639648,-0.37073755264282227,0.15065735578536987
1775341737253261000,6.326260986328125,0.25142478942871094,-0.9412579536437988,-0.052423909306526184
1775341737263261000,6.336260986328125,-0.5995683670043945,-0.5466580390930176,-0.36513596773147583
1775341737273261000,6.346260986328125,-1.0158615112304688,-0.5327057838439941,-0.21181544661521912
1775341737283261000,6.356260986328125,0.9120264053344727,-1.0472073554992676,-0.024982333183288574
1775341737293261000,6.366260986328125,-0.950408935546875,0.1793193817138672,-0.18185219168663025
1775341737303261000,6.376260986328125,0.19016504287719727,-0.4629344940185547,-0.3717479407787323
1775341737313261000,6.386260986328125,0.0213775634765625,-0.4505958557128906,0.0846022218465805
1775341737323261000,6.396260986328125,-0.17126846313476562,-0.13752365112304688,0.23268617689609528
1775341737333261000,6.406260986328125,-0.0025658607482910156,-0.40271663665771484,-0.33860382437705994
1775341737343261000,6.416260986328125,-0.38251543045043945,-0.22791624069213867,-0.31953173875808716
1775341737353261000,6.426260986328125,0.14714813232421875,-0.09241819381713867,0.36112910509109497
1775341737363261000,6.436260986328125,0.18529224395751953,-0.44245386123657227,0.5634703636169434
1775341737373261000,6.446260986328125,0.17379093170166016,-0.44201087951660156,0.0691419392824173
1775341737383261000,6.456260986328125,-0.4935770034790039,0.2911090850830078,-0.19630971550941467
1775341737393261000,6.466260986328125,0.6922802925109863,-0.3834986686706543,0.2903132140636444
1775341737403261000,6.476260986328125,-0.15764427185058594,-0.5920014381408691,0.7057393193244934
1775341737413261000,6.486260986328125,-0.3169403076171875,-0.20169448852539062,-0.37929320335388184
1775341737423261000,6.496260986328125,0.17441654205322266,-0.5232138633728027,-0.20790617167949677
1775341737433261000,6.506260986328125,-0.9338536262512207,-0.30988216400146484,0.5016706585884094
1775341737443261000,6.516260986328125,-0.06725788116455078,-0.2784571647644043,-0.13628871738910675
1775341737453261000,6.526260986328125,0.03792285919189453,-0.21814775466918945,-0.2585031986236572
1775341737463261000,6.536260986328125,-0.6807427406311035,-0.26036596298217773,0.1415122002363205
1775341737473261000,6.546260986328125,-0.02103137969970703,-0.5541520118713379,0.17846542596817017
1775341737483261000,6.556260986328125,0.30901288986206055,-0.647456169128418,-0.20490221679210663
1775341737493261000,6.566260986328125,-0.4604001045227051,-0.03558778762817383,-0.1371556669473648
1775341737503261000,6.576260986328125,0.3791666030883789,-0.30524158477783203,0.3024422526359558
1775341737513261000,6.586260986328125,0.021754741668701172,-0.37064361572265625,-0.21045872569084167
1775341737523261000,6.596260986328125,-0.24253511428833008,-0.09206771850585938,-0.20276382565498352
1775341737533261000,6.606260986328125,0.15966463088989258,-0.29034423828125,0.26357436180114746
1775341737543261000,6.616260986328125,0.0147247314453125,-0.29119443893432617,0.0911058634519577
1775341737553261000,6.626260986328125,0.13323450088500977,-0.1547260284423828,-0.3504630923271179
1775341737563261000,6.636260986328125,0.19244766235351562,-0.08428478240966797,-0.024651557207107544
1775341737573261000,6.646260986328125,-0.22629785537719727,-0.07350349426269531,0.238026425242424
1775341737583261000,6.656260986328125,0.3715696334838867,-0.37243127822875977,-0.19053591787815094
1775341737593261000,6.666260986328125,-0.14394283294677734,-0.16312837600708008,-0.2946963310241699
1775341737603261000,6.676260986328125,-0.02682018280029297,-0.17614269256591797,-0.03909015655517578
1775341737613261000,6.686260986328125,0.1176304817199707,-0.2862668037414551,-0.05093181133270264
1775341737623261000,6.696260986328125,0.0272216796875,-0.21605920791625977,-0.4471915364265442
1775341737633261000,6.706260986328125,0.19115447998046875,0.11468839645385742,-0.16612370312213898
1775341737643261000,6.716260986328125,-0.11603212356567383,0.11776256561279297,0.33576714992523193
1775341737653261000,6.726260986328125,0.10518550872802734,-0.2393169403076172,0.18633951246738434
1775341737663261000,6.736260986328125,0.015543937683105469,0.13582181930541992,0.09631766378879547
1775341737673261000,6.746260986328125,-0.18977737426757812,-0.36891698837280273,0.029609888792037964
1775341737683261000,6.756260986328125,0.21728229522705078,-0.21543502807617188,0.28694093227386475
1775341737693261000,6.766260986328125,0.43485593795776367,-0.4322686195373535,0.014823004603385925
1775341737703261000,6.776260986328125,-0.15987825393676758,-0.12376213073730469,-0.1583927571773529
1775341737713261000,6.786260986328125,0.0644845962524414,0.05578422546386719,-0.04809989035129547
1775341737723261000,6.796260986328125,0.2711672782897949,0.11323022842407227,0.34153497219085693
1775341737733261000,6.806260986328125,-0.4913616180419922,0.18149423599243164,0.1103217601776123
1775341737743261000,6.816260986328125,0.24676990509033203,-0.07090520858764648,-0.19741667807102203
1775341737753261000,6.826260986328125,-0.48593616485595703,0.3690052032470703,0.4036351144313812
1775341737763261000,6.836260986328125,-0.06703519821166992,0.16236162185668945,0.3278343081474304
1775341737773261000,6.846260986328125,1.687882900238037,-0.7498059272766113,-0.4235726594924927
1775341737783261000,6.856260986328125,-0.6652588844299316,0.7595500946044922,-0.05112721025943756
1775341737793261000,6.866260986328125,0.5269737243652344,-0.03955411911010742,0.22754134237766266
1775341737803261000,6.876260986328125,1.0171265602111816,0.12493515014648438,-0.08065496385097504
1775341737813261000,6.886260986328125,-0.8857250213623047,0.4724159240722656,-0.25096648931503296
1775341737823261000,6.896260986328125,1.444648265838623,-0.011883258819580078,0.27337825298309326
1775341737833261000,6.906260986328125,-0.15806055068969727,0.37688636779785156,0.24606728553771973
1775341737843261000,6.916260986328125,0.4943842887878418,0.29483747482299805,-0.6787245273590088
1775341737853261000,6.926260986328125,0.7527713775634766,0.34098196029663086,-0.336762398481369
1775341737863261000,6.936260986328125,0.12002182006835938,0.3175640106201172,0.4959852695465088
1775341737873261000,6.946260986328125,0.09731578826904297,0.31854963302612305,-0.3579294979572296
1775341737883261000,6.956260986328125,0.48243188858032227,0.41231632232666016,-0.3578278124332428
1775341737893261000,6.966260986328125,0.43965673446655273,0.4459090232849121,0.4709573984146118
1775341737903261000,6.976260986328125,0.2924485206604004,0.3572516441345215,0.07349538803100586
1775341737913261000,6.986260986328125,0.24989080429077148,0.7122535705566406,-0.4912061095237732
1775341737923261000,6.996260986328125,0.5188708305358887,-0.04170417785644531,0.2500441372394562
1775341737933261000,7.006260986328125,0.05823373794555664,-0.12038135528564453,0.49798399209976196
1775341737943261000,7.016260986328125,-0.04046440124511719,-0.03228139877319336,-0.28591111302375793
1775341737953261000,7.026260986328125,0.9374523162841797,-0.2881960868835449,-0.23413707315921783
1775341737963261000,7.036260986328125,-0.4841885566711426,-0.05054426193237305,0.44871413707733154
1775341737973261000,7.046260986328125,0.6664514541625977,-0.11501693725585938,-0.2982499599456787
1775341737983261000,7.056260986328125,0.12513208389282227,0.0547642707824707,-0.35865485668182373
1775341737993261000,7.066260986328125,-0.6534085273742676,-0.08126544952392578,0.2071869820356369
1775341738003261000,7.076260986328125,0.2404780387878418,-0.11254262924194336,0.01656845211982727
1775341738013261000,7.086260986328125,-0.32180213928222656,0.23482465744018555,-0.07682186365127563
1775341738023261000,7.096260986328125,-0.45395946502685547,0.3101987838745117,0.1669810563325882
1775341738033261000,7.106260986328125,-0.18029451370239258,0.03434133529663086,0.2996975779533386
1775341738043261000,7.116260986328125,-0.30355167388916016,-0.14368438720703125,0.10031729936599731
1775341738053261000,7.126260986328125,2.2421116828918457,-1.0245776176452637,-0.30194994807243347
1775341738063261000,7.136260986328125,-1.1122980117797852,0.6202912330627441,0.06278902292251587
1775341738073261000,7.146260986328125,0.4377861022949219,0.06794118881225586,-0.1348307877779007
1775341738083261000,7.156260986328125,1.2712178230285645,0.056618690490722656,0.044386669993400574
1775341738093261000,7.166260986328125,-0.6420149803161621,0.29537343978881836,0.06898778676986694
1775341738103261000,7.176260986328125,0.9374938011169434,-0.05068254470825195,-0.2823937237262726
1775341738113261000,7.186260986328125,-0.3746519088745117,0.3078446388244629,-0.21971723437309265
1775341738123261000,7.196260986328125,0.37061214447021484,-0.06571817398071289,-0.23601876199245453
1775341738133261000,7.206260986328125,0.8065199851989746,0.20248937606811523,-0.15158186852931976
1775341738143261000,7.216260986328125,-0.5359377861022949,0.15498781204223633,-0.08322493731975555
1775341738153261000,7.226260986328125,0.501833438873291,-0.2844581604003906,-0.015162661671638489
1775341738163261000,7.236260986328125,-0.25469255447387695,0.16883420944213867,-0.02739115059375763
1775341738173261000,7.246260986328125,-0.2559013366699219,-0.1595745086669922,-0.03165808320045471
1775341738183261000,7.256260986328125,0.11581611633300781,-0.0710744857788086,-0.12848596274852753
1775341738193261000,7.266260986328125,-0.06798362731933594,-0.10266590118408203,-0.005250871181488037
1775341738203261000,7.276260986328125,0.20513010025024414,-0.5452537536621094,0.2646706700325012
1775341738213261000,7.286260986328125,0.01012277603149414,-0.27025270462036133,0.05503767728805542
1775341738223261000,7.296260986328125,-0.08933830261230469,0.008234500885009766,0.09260815382003784
1775341738233261000,7.306260986328125,-0.07792043685913086,-0.23310089111328125,0.10013245046138763
1775341738243261000,7.316260986328125,0.5095915794372559,-0.27306127548217773,-0.06263613700866699
1775341738253261000,7.326260986328125,-0.3106870651245117,-0.11442232131958008,0.10665669292211533
1775341738263261000,7.336260986328125,-0.43047571182250977,-0.032129764556884766,0.053557947278022766
1775341738273261000,7.346260986328125,-0.07295894622802734,-0.07021522521972656,-0.009598776698112488
1775341738283261000,7.356260986328125,-0.7598800659179688,0.1849517822265625,0.09003177285194397
1775341738293261000,7.366260986328125,0.6908841133117676,-0.2129659652709961,-0.08645786345005035
1775341738303261000,7.376260986328125,0.424379825592041,-0.14467382431030273,-0.18276740610599518
1775341738313261000,7.386260986328125,-0.36947202682495117,0.6614418029785156,-0.11935330927371979
1775341738323261000,7.396260986328125,1.171004295349121,-0.5696611404418945,-0.06682293117046356
1775341738333261000,7.406260986328125,-0.8366742134094238,0.36850595474243164,0.03780283033847809
1775341738343261000,7.416260986328125,0.546668529510498,-0.16887998580932617,-0.2998730540275574
1775341738353261000,7.426260986328125,0.16119813919067383,0.0059642791748046875,0.02367764711380005
1775341738363261000,7.436260986328125,-0.18100261688232422,0.291262149810791,-0.04206760227680206
1775341738373261000,7.446260986328125,0.6415114402770996,-0.1262969970703125,-0.3593248128890991
1775341738383261000,7.456260986328125,-0.22461795806884766,0.15653514862060547,0.1021503210067749
1775341738393261000,7.466260986328125,-0.12997722625732422,-0.06497383117675781,0.18353556096553802
1775341738403261000,7.476260986328125,0.17858314514160156,-0.30007314682006836,-0.22690759599208832
1775341738413261000,7.486260986328125,-0.108642578125,-0.1188192367553711,-0.01695062220096588
1775341738423261000,7.496260986328125,-0.056461334228515625,-0.31304311752319336,0.2551262080669403
1775341738433261000,7.506260986328125,0.3888993263244629,-0.3176445960998535,0.010967150330543518
1775341738443261000,7.516260986328125,-0.4141850471496582,-0.22914981842041016,-0.120452880859375
1775341738453261000,7.526260986328125,0.4279165267944336,-0.28714656829833984,0.05045981705188751
1775341738463261000,7.536260986328125,-0.09822940826416016,-0.27915191650390625,0.05662153661251068
1775341738473261000,7.546260986328125,-0.435178279876709,-0.23214387893676758,0.008733272552490234
1775341738483261000,7.556260986328125,-0.11854934692382812,-0.08638954162597656,-0.07728447020053864
1775341738493261000,7.566260986328125,0.24129915237426758,-0.14910125732421875,0.15339525043964386
1775341738503261000,7.576260986328125,-0.7520365715026855,-0.01704263687133789,0.16752851009368896
1775341738513261000,7.586260986328125,0.13210296630859375,-0.13006925582885742,-0.3206159472465515
1775341738523261000,7.596260986328125,0.007767200469970703,-0.08706903457641602,-0.07915684580802917
1775341738533261000,7.606260986328125,-0.25139522552490234,0.10704421997070312,0.15238288044929504
1775341738543261000,7.616260986328125,-0.36893510818481445,-0.048020362854003906,-0.12481130659580231
1775341738553261000,7.626260986328125,-0.09436893463134766,-0.03450345993041992,-0.18311917781829834
1775341738563261000,7.636260986328125,-0.1957840919494629,-0.06687021255493164,0.2321709394454956
1775341738573261000,7.646260986328125,1.4008288383483887,-0.49360084533691406,0.05760611593723297
1775341738583261000,7.656260986328125,-0.07582521438598633,-0.051413536071777344,-0.1043274849653244
1775341738593261000,7.666260986328125,-0.36090755462646484,0.15400218963623047,-0.0749170333147049
1775341738603261000,7.676260986328125,1.107405662536621,-0.5341129302978516,-0.0146961510181427
1775341738613261000,7.686260986328125,-0.552854061126709,0.28101158142089844,0.06990458071231842
1775341738623261000,7.696260986328125,0.4544796943664551,-0.03392601013183594,-0.25447356700897217
1775341738633261000,7.706260986328125,-0.11319112777709961,0.09446287155151367,-0.11672191321849823
1775341738643261000,7.716260986328125,-0.2507290840148926,0.24890470504760742,-0.009204760193824768
1775341738653261000,7.726260986328125,0.3333311080932617,-0.34740114212036133,-0.24973765015602112
1775341738663261000,7.736260986328125,-0.26856327056884766,0.09355640411376953,-0.059752076864242554
1775341738673261000,7.746260986328125,0.1362910270690918,0.015067577362060547,-0.05447326600551605
1775341738683261000,7.756260986328125,0.3936004638671875,-0.3126049041748047,0.030024617910385132
1775341738693261000,7.766260986328125,-0.037560462951660156,-0.050373077392578125,-0.00852157175540924
1775341738703261000,7.776260986328125,0.5136599540710449,0.053662776947021484,-0.0785844475030899
1775341738713261000,7.786260986328125,-0.11650800704956055,0.16280031204223633,0.14350293576717377
1775341738723261000,7.796260986328125,-0.15369701385498047,0.017941951751708984,0.01557980477809906
1775341738733261000,7.806260986328125,0.6210193634033203,0.35149669647216797,0.03241240978240967
1775341738743261000,7.816260986328125,-0.7284817695617676,0.18186521530151367,0.2736753225326538
1775341738753261000,7.826260986328125,0.9232039451599121,-0.06526327133178711,0.025618523359298706
1775341738763261000,7.836260986328125,-0.1078028678894043,0.4436187744140625,0.11318124830722809
1775341738773261000,7.846260986328125,0.26683664321899414,0.4429798126220703,0.12123222649097443
1775341738783261000,7.856260986328125,0.5831851959228516,0.43818187713623047,0.03949776291847229
1775341738793261000,7.866260986328125,0.054233551025390625,0.6768732070922852,-0.055539026856422424
1775341738803261000,7.876260986328125,1.248682975769043,0.44112682342529297,-0.2550392150878906
1775341738813261000,7.886260986328125,-0.28273820877075195,0.8193902969360352,-0.01475447416305542
1775341738823261000,7.896260986328125,1.4376907348632812,0.6325030326843262,-0.1830851435661316
1775341738833261000,7.906260986328125,0.8868145942687988,0.9475469589233398,-0.1599540114402771
1775341738843261000,7.916260986328125,0.22054386138916016,1.1046843528747559,-0.12996292114257812
1775341738853261000,7.926260986328125,1.2618951797485352,0.7092075347900391,-0.12531068921089172
1775341738863261000,7.936260986328125,0.5021557807922363,1.1234116554260254,-0.07223448157310486
1775341738873261000,7.946260986328125,0.8806939125061035,1.1320586204528809,-0.188946932554245
1775341738883261000,7.956260986328125,0.9201407432556152,1.1589970588684082,-0.018188506364822388
1775341738893261000,7.966260986328125,0.8737421035766602,1.1858153343200684,-0.015529245138168335
1775341738903261000,7.976260986328125,0.8972487449645996,1.3213810920715332,-0.17983633279800415
1775341738913261000,7.986260986328125,1.1096935272216797,1.2354230880737305,-0.013065934181213379
1775341738923261000,7.996260986328125,1.141404628753662,1.3121743202209473,0.0676717460155487
1775341738933261000,8.006260986328124,0.827423095703125,1.5220131874084473,-0.2143707573413849
1775341738943261000,8.016260986328126,1.1430110931396484,1.306469440460205,-0.23120814561843872
1775341738953261000,8.026260986328126,1.0870957374572754,1.258209228515625,0.17633503675460815
1775341738963261000,8.036260986328125,0.8716068267822266,1.424271583557129,0.01262734830379486
1775341738973261000,8.046260986328125,1.482994556427002,1.0659847259521484,-0.28727248311042786
1775341738983261000,8.056260986328125,0.8796310424804688,1.2798562049865723,0.08793753385543823
1775341738993261000,8.066260986328125,1.0785646438598633,1.3562602996826172,0.2446184605360031
1775341739003261000,8.076260986328125,1.2509446144104004,0.8897509574890137,0.037271156907081604
1775341739013261000,8.086260986328124,0.6889314651489258,1.1046838760375977,-0.0557028204202652
1775341739023261000,8.096260986328126,0.9115695953369141,1.1364164352416992,-0.06408354640007019
1775341739033261000,8.106260986328126,0.9417381286621094,1.1197352409362793,-0.007770940661430359
1775341739043261000,8.116260986328125,1.0604724884033203,0.8792171478271484,0.09288951754570007
1775341739053261000,8.126260986328125,-0.8591971397399902,1.4526982307434082,0.3940393328666687
1775341739063261000,8.136260986328125,1.8692030906677246,0.9951291084289551,-0.0531633198261261
1775341739073261000,8.146260986328125,0.43093013763427734,1.2191624641418457,0.00012467801570892334
1775341739083261000,8.156260986328125,0.10375452041625977,1.0379619598388672,0.17433814704418182
1775341739093261000,8.166260986328124,1.2960915565490723,0.5370230674743652,0.18906360864639282
1775341739103261000,8.176260986328124,-0.1318655014038086,1.2297053337097168,-0.1247071772813797
1775341739113261000,8.186260986328126,1.2259697914123535,0.6702413558959961,-0.15069164335727692
1775341739123261000,8.196260986328125,0.30980396270751953,0.8619961738586426,0.24918942153453827
1775341739133261000,8.206260986328125,0.05899238586425781,0.7419447898864746,0.12387198209762573
1775341739143261000,8.216260986328125,1.5120353698730469,0.7359943389892578,-0.1129278838634491
1775341739153261000,8.226260986328125,0.12204694747924805,1.0835871696472168,0.18936945497989655
1775341739163261000,8.236260986328125,0.7155823707580566,0.5825953483581543,0.13404522836208344
1775341739173261000,8.246260986328124,1.3389763832092285,0.4754047393798828,-0.2593611478805542
1775341739183261000,8.256260986328124,-0.2613563537597656,0.8600773811340332,-0.09710446000099182
1775341739193261000,8.266260986328126,1.0435771942138672,0.12595462799072266,-0.07528689503669739
1775341739203261000,8.276260986328126,0.29806995391845703,0.6265411376953125,0.11224102973937988
1775341739213261000,8.286260986328125,-0.051605224609375,0.4689478874206543,-0.18148577213287354
1775341739223261000,8.296260986328125,0.9420266151428223,0.19113540649414062,-0.27013537287712097
1775341739233261000,8.306260986328125,-0.28789234161376953,0.45230913162231445,0.08402511477470398
1775341739243261000,8.316260986328125,0.871431827545166,-0.041136741638183594,-0.36675065755844116
1775341739253261000,8.326260986328125,-0.23623085021972656,0.5285873413085938,-0.4636440575122833
1775341739263261000,8.336260986328124,0.3996710777282715,0.43625354766845703,0.0976572334766388
1775341739273261000,8.346260986328126,0.02225637435913086,-0.2446589469909668,0.1215868890285492
1775341739283261000,8.356260986328126,-0.24890565872192383,0.10156774520874023,-0.0554099977016449
1775341739293261000,8.366260986328125,0.10254478454589844,-0.31891965866088867,-0.2714487612247467
1775341739303261000,8.376260986328125,0.1704416275024414,0.13895559310913086,0.08525609970092773
1775341739313261000,8.386260986328125,0.11939573287963867,0.15961122512817383,0.10689561069011688
1775341739323261000,8.396260986328125,0.12295389175415039,-0.32178258895874023,-0.005949094891548157
1775341739333261000,8.406260986328125,-0.23870182037353516,-0.32469797134399414,0.020565345883369446
1775341739343261000,8.416260986328124,0.08158540725708008,-0.5124421119689941,-0.10724052786827087
1775341739353261000,8.426260986328124,-0.5244894027709961,-0.3625202178955078,0.06685954332351685
1775341739363261000,8.436260986328126,-0.4914722442626953,-0.49370479583740234,-0.04208168387413025
1775341739373261000,8.446260986328125,-0.015619277954101562,-0.7369799613952637,-0.13340449333190918
1775341739383261000,8.456260986328125,-0.6244668960571289,-0.572542667388916,0.0890737920999527
1775341739393261000,8.466260986328125,-0.13515806198120117,-0.5103487968444824,-0.01898139715194702
1775341739403261000,8.476260986328125,-0.053551673889160156,-0.41513538360595703,-0.11437352001667023
1775341739413261000,8.486260986328125,-0.3377246856689453,-0.8238425254821777,-0.08037520945072174
1775341739423261000,8.496260986328124,-0.642728328704834,-1.2349495887756348,-0.39141976833343506
1775341739433261000,8.506260986328124,-2.208432197570801,-0.2661914825439453,0.06064264476299286
1775341739443261000,8.516260986328126,-0.11193704605102539,-1.265716552734375,0.08498631417751312
1775341739453261000,8.526260986328126,-0.8957962989807129,-0.7547478675842285,0.28460410237312317
1775341739463261000,8.536260986328125,-1.1301956176757812,-0.4971318244934082,0.18773427605628967
1775341739473261000,8.546260986328125,-0.3906683921813965,-1.4362144470214844,-0.15433138608932495
1775341739483261000,8.556260986328125,-2.1230664253234863,-1.292527198791504,-0.04190869629383087
1775341739493261000,8.566260986328125,-1.0638766288757324,-1.3881359100341797,0.20897828042507172
1775341739503261000,8.576260986328125,-1.0259113311767578,-1.324533462524414,0.3960573375225067
1775341739513261000,8.586260986328124,-2.4045681953430176,-1.293304443359375,0.15285389125347137
1775341739523261000,8.596260986328126,1.4979925155639648,-2.5860118865966797,-0.13855628669261932
1775341739533261000,8.606260986328126,-0.681429386138916,-2.066288948059082,0.2679122984409332
1775341739543261000,8.616260986328125,-1.3358616828918457,-2.1581926345825195,0.08808298408985138
1775341739553261000,8.626260986328125,-2.1105027198791504,-2.2281737327575684,0.17895129323005676
1775341739563261000,8.636260986328125,-1.1060280799865723,-2.601487636566162,0.04474771022796631
1775341739573261000,8.646260986328125,-1.5355863571166992,-2.6144323348999023,0.003038451075553894
1775341739583261000,8.656260986328125,-1.415940284729004,-2.470177173614502,-0.3590620756149292
1775341739593261000,8.666260986328124,-1.614516258239746,-2.7350449562072754,-0.25066736340522766
1775341739603261000,8.676260986328124,-3.8743462562561035,-1.8749704360961914,0.4087068438529968
1775341739613261000,8.686260986328126,-2.3498549461364746,-2.621145725250244,-0.3110598623752594
1775341739623261000,8.696260986328125,-1.788649559020996,-3.5339465141296387,-0.17906609177589417
1775341739633261000,8.706260986328125,-2.423354148864746,-3.059023380279541,-0.2031034529209137
1775341739643261000,8.716260986328125,-2.5847926139831543,-2.7335362434387207,-0.40191155672073364
1775341739653261000,8.726260986328125,-2.522535800933838,-3.2138381004333496,-0.19699175655841827
1775341739663261000,8.736260986328125,-2.507485866546631,-3.2771005630493164,-0.012501433491706848
1775341739673261000,8.746260986328124,-1.9286255836486816,-3.602430820465088,-0.15153491497039795
1775341739683261000,8.756260986328124,-2.925445795059204,-3.066537380218506,0.10696308314800262
1775341739693261000,8.766260986328126,-2.3151793479919434,-3.1976943016052246,0.49868065118789673
1775341739703261000,8.776260986328126,-1.219538688659668,-3.6136083602905273,-0.25310611724853516
1775341739713261000,8.786260986328125,-2.7671141624450684,-2.7889537811279297,0.07058680057525635
1775341739723261000,8.796260986328125,-2.2091064453125,-2.9207210540771484,0.41076356172561646
1775341739733261000,8.806260986328125,-1.8466849327087402,-2.8036341667175293,0.2621128261089325
1775341739743261000,8.816260986328125,-1.903672695159912,-2.437167167663574,0.2498515546321869
1775341739753261000,8.826260986328125,-2.3685078620910645,-2.2807559967041016,0.1815968006849289
1775341739763261000,8.836260986328124,-1.7658648490905762,-2.0220580101013184,0.09171350300312042
1775341739773261000,8.846260986328126,-1.5158357620239258,-2.07017183303833,0.19353215396404266
1775341739783261000,8.856260986328126,-1.9868321418762207,-1.9683303833007812,0.060779958963394165
1775341739793261000,8.866260986328125,-1.1888279914855957,-2.012878894805908,-0.13597150146961212
1775341739803261000,8.876260986328125,-2.2972207069396973,-0.8757190704345703,-0.0057532936334609985
1775341739813261000,8.886260986328125,0.18552017211914062,-2.150218963623047,-0.056749388575553894
1775341739823261000,8.896260986328125,0.2865028381347656,-1.7762565612792969,0.08025090396404266
1775341739833261000,8.906260986328125,-2.058468818664551,-0.7968578338623047,0.049027472734451294
1775341739843261000,8.916260986328124,-0.5571203231811523,-1.5402798652648926,-0.30779504776000977
1775341739853261000,8.926260986328124,-1.3627324104309082,-0.8790264129638672,0.05826304852962494
1775341739863261000,8.936260986328126,-1.7041406631469727,-0.08996152877807617,0.21087200939655304
1775341739873261000,8.946260986328125,-0.08049631118774414,-1.4243063926696777,-0.23303493857383728
1775341739883261000,8.956260986328125,2.270186424255371,-2.177183151245117,-0.28645065426826477
1775341739893261000,8.966260986328125,-3.223649501800537,0.13700437545776367,0.1642686128616333
1775341739903261000,8.976260986328125,1.0061964988708496,-1.121650218963623,-0.4442006051540375
1775341739913261000,8.986260986328125,-1.4598565101623535,-0.6472921371459961,-0.0643562376499176
1775341739923261000,8.996260986328124,-1.2265233993530273,-0.31960439682006836,0.011733263731002808
1775341739933261000,9.006260986328124,1.0264124870300293,-1.2612972259521484,-0.40169385075569153
1775341739943261000,9.016260986328126,-1.6334562301635742,-0.15157747268676758,-0.1185896098613739
1775341739953261000,9.026260986328126,-0.38367223739624023,-0.7428450584411621,-0.107667475938797
1775341739963261000,9.036260986328125,0.35527896881103516,-0.856834888458252,0.17142148315906525
1775341739973261000,9.046260986328125,-0.6410036087036133,-0.24741315841674805,0.10441374778747559
1775341739983261000,9.056260986328125,0.5930109024047852,-0.5615787506103516,-0.2849186658859253
1775341739993261000,9.066260986328125,-0.5032882690429688,0.35479021072387695,0.043871015310287476
1775341740003261000,9.076260986328125,0.38483476638793945,-0.5701813697814941,0.12065847218036652
1775341740013261000,9.086260986328124,0.2595539093017578,-0.30027198791503906,0.1886478215456009
1775341740023261000,9.096260986328126,-0.7720880508422852,-0.12724685668945312,0.05328485369682312
1775341740033261000,9.106260986328126,0.014418601989746094,-0.02761363983154297,0.1289454698562622
1775341740043261000,9.116260986328125,0.12874078750610352,-0.18869781494140625,0.06198970973491669
1775341740053261000,9.126260986328125,-0.5111994743347168,0.2556309700012207,0.03823055326938629
1775341740063261000,9.136260986328125,0.45482778549194336,-0.14440011978149414,-0.07374872267246246
1775341740073261000,9.146260986328125,-0.36138391494750977,0.2374095916748047,0.08653676509857178
1775341740083261000,9.156260986328125,0.09357357025146484,-0.07592535018920898,-0.24162974953651428
1775341740093261000,9.166260986328124,0.7073965072631836,-0.25606727600097656,0.08748860657215118
1775341740103261000,9.176260986328124,-0.3491644859313965,0.3500699996948242,0.08351396024227142
1775341740113261000,9.186260986328126,0.5273036956787109,0.14514684677124023,-0.09370693564414978
1775341740123261000,9.196260986328125,-0.3591341972351074,-0.1512899398803711,-0.05260747671127319
1775341740133261000,9.206260986328125,0.3435955047607422,-0.04316854476928711,0.12945441901683807
1775341740143261000,9.216260986328125,-0.39366579055786133,-0.10074186325073242,-0.22477740049362183
1775341740153261000,9.226260986328125,0.28878164291381836,0.31526803970336914,-0.18722155690193176
1775341740163261000,9.236260986328125,0.33861732482910156,0.12075948715209961,0.10131138563156128
1775341740173261000,9.246260986328124,0.09555435180664062,0.3701772689819336,0.2180454581975937
1775341740183261000,9.256260986328124,0.2862248420715332,-0.0412898063659668,0.09955210983753204
1775341740193261000,9.266260986328126,-0.675513744354248,-0.03469419479370117,0.03209540247917175
1775341740203261000,9.276260986328126,0.34061288833618164,0.13583993911743164,0.11704614758491516
1775341740213261000,9.286260986328125,0.267913818359375,0.10651922225952148,-0.0670178234577179
1775341740223261000,9.296260986328125,-0.24016189575195312,0.5629448890686035,-0.1929124891757965
1775341740233261000,9.306260986328125,0.5773558616638184,-0.10696649551391602,-0.024665653705596924
1775341740243261000,9.316260986328125,-0.028694629669189453,0.14139890670776367,-0.04703626036643982
1775341740253261000,9.326260986328125,0.08659601211547852,0.059752464294433594,-0.19839787483215332
1775341740263261000,9.336260986328124,0.002765178680419922,0.012184619903564453,-0.17247486114501953
1775341740273261000,9.346260986328126,0.4801902770996094,0.031038761138916016,-0.0012658536434173584
1775341740283261000,9.356260986328126,0.24356794357299805,-0.17830514907836914,-0.36785539984703064
1775341740293261000,9.366260986328125,0.49013566970825195,-0.2135481834411621,-0.10067513585090637
1775341740303261000,9.376260986328125,-1.0087041854858398,0.41057538986206055,0.03057265281677246
1775341740313261000,9.386260986328125,0.6893119812011719,-0.3349881172180176,-0.2107560634613037
1775341740323261000,9.396260986328125,-0.05888032913208008,0.30611753463745117,0.1515803337097168
1775341740333261000,9.406260986328125,-0.09007644653320312,0.4743380546569824,0.16508013010025024
1775341740343261000,9.416260986328124,0.17719459533691406,0.09752655029296875,0.10005968809127808
1775341740353261000,9.426260986328124,-0.08815717697143555,0.523442268371582,0.29731544852256775
1775341740363261000,9.436260986328126,0.13691949844360352,0.4505300521850586,0.3142377436161041
1775341740373261000,9.446260986328125,-0.7171211242675781,0.7659950256347656,0.16725973784923553
1775341740383261000,9.456260986328125,0.6735920906066895,0.31313467025756836,-0.05938294529914856
1775341740393261000,9.466260986328125,1.5332212448120117,-0.050313472747802734,-0.058451324701309204
1775341740403261000,9.476260986328125,-0.8462777137756348,0.6113114356994629,-0.1641375720500946
1775341740413261000,9.486260986328125,1.1555562019348145,0.23301410675048828,-0.1484309434890747
1775341740423261000,9.496260986328124,0.4049992561340332,0.3941059112548828,0.02928486466407776
1775341740433261000,9.506260986328124,0.5797324180603027,0.4361381530761719,-0.16934722661972046
1775341740443261000,9.516260986328126,0.6759037971496582,0.20083141326904297,-0.32736650109291077
1775341740453261000,9.526260986328126,-0.16993188858032227,0.868797779083252,-0.11614462733268738
1775341740463261000,9.536260986328125,0.9448580741882324,0.3799400329589844,-0.1503027379512787
1775341740473261000,9.546260986328125,0.0007457733154296875,0.6885080337524414,-0.20772892236709595
1775341740483261000,9.556260986328125,0.005053997039794922,0.29738855361938477,-0.258654922246933
1775341740493261000,9.566260986328125,0.6581592559814453,0.17855262756347656,0.03753356635570526
1775341740503261000,9.576260986328125,-0.005838871002197266,0.6977849006652832,0.02215765416622162
1775341740513261000,9.586260986328124,0.8665280342102051,0.252316951751709,-0.020930975675582886
1775341740523261000,9.596260986328126,0.16110610961914062,0.17566347122192383,0.293832927942276
1775341740533261000,9.606260986328126,0.24925804138183594,0.1520543098449707,0.18946781754493713
1775341740543261000,9.616260986328125,0.13242387771606445,-0.0023183822631835938,0.029791653156280518
1775341740553261000,9.626260986328125,0.08832597732543945,0.18920087814331055,0.09758388996124268
1775341740563261000,9.636260986328125,0.42167234420776367,-0.0005292892456054688,-0.2102944552898407
1775341740573261000,9.646260986328125,0.27539825439453125,0.37998056411743164,-0.04419553279876709
1775341740583261000,9.656260986328125,-0.13988208770751953,0.12662458419799805,0.35009247064590454
1775341740593261000,9.666260986328124,-0.5507516860961914,0.1545724868774414,0.015524476766586304
1775341740603261000,9.676260986328124,0.40157270431518555,0.5937986373901367,-0.21023550629615784
1775341740613261000,9.686260986328126,0.7735533714294434,0.05406761169433594,-0.19933190941810608
1775341740623261000,9.696260986328125,-0.1067190170288086,0.5185317993164062,0.2371375858783722
1775341740633261000,9.706260986328125,-0.3631277084350586,0.24011659622192383,-0.19944477081298828
1775341740643261000,9.716260986328125,0.5270986557006836,-0.07592344284057617,-0.09403294324874878
1775341740653261000,9.726260986328125,0.3459010124206543,-0.047562599182128906,0.09569822251796722
1775341740663261000,9.736260986328125,0.17810535430908203,0.40886449813842773,-0.27355092763900757
1775341740673261000,9.746260986328124,1.0134425163269043,0.13706159591674805,-0.25751328468322754
1775341740683261000,9.756260986328124,-0.3770771026611328,0.3708992004394531,0.22320616245269775
1775341740693261000,9.766260986328126,0.4329037666320801,0.11977910995483398,-0.2092469334602356
1775341740703261000,9.776260986328126,0.5765399932861328,-0.036014556884765625,-0.253231942653656
1775341740713261000,9.786260986328125,-0.5876755714416504,0.42302560806274414,0.14444880187511444
1775341740723261000,9.796260986328125,0.17668867111206055,0.33896398544311523,0.15325027704238892
1775341740733261000,9.806260986328125,0.4294090270996094,-0.003529071807861328,0.06281885504722595
1775341740743261000,9.816260986328125,0.3257284164428711,0.24686145782470703,0.15130111575126648
1775341740753261000,9.826260986328125,0.35910701751708984,0.11586856842041016,0.028963103890419006
1775341740763261000,9.836260986328124,0.21968793869018555,0.10532236099243164,-0.050469160079956055
1775341740773261000,9.846260986328126,0.45484447479248047,0.32337427139282227,0.04963715374469757
1775341740783261000,9.856260986328126,-0.5332431793212891,0.8249640464782715,0.2444285899400711
1775341740793261000,9.866260986328125,0.9762511253356934,0.23027849197387695,0.15023337304592133
1775341740803261000,9.876260986328125,-0.005505561828613281,0.5632801055908203,0.10411512851715088
1775341740813261000,9.886260986328125,0.04337882995605469,0.6898579597473145,0.0767953097820282
1775341740823261000,9.896260986328125,1.0211758613586426,0.28420162200927734,0.04668620228767395
1775341740833261000,9.906260986328125,-0.10886526107788086,0.922457218170166,-0.04121622443199158
1775341740843261000,9.916260986328124,1.0058069229125977,0.5329217910766602,-0.19366705417633057
1775341740853261000,9.926260986328124,0.4284076690673828,0.7560315132141113,0.16500376164913177
1775341740863261000,9.936260986328126,-0.2041473388671875,1.4445123672485352,0.0442802757024765
1775341740873261000,9.946260986328125,0.8303084373474121,1.1977458000183105,-0.2655372619628906
1775341740883261000,9.956260986328125,0.5160808563232422,1.1897649765014648,0.26938503980636597
1775341740893261000,9.966260986328125,2.438162326812744,0.21406793594360352,0.08593256771564484
1775341740903261000,9.976260986328125,0.36956071853637695,1.2584547996520996,-0.2971849739551544
1775341740913261000,9.986260986328125,0.5483641624450684,1.3615407943725586,0.1320842206478119
1775341740923261000,9.996260986328124,2.1942877769470215,0.4005708694458008,0.16298505663871765
1775341740933261000,10.006260986328124,0.24633455276489258,1.5548677444458008,-0.07391983270645142
1775341740943261000,10.016260986328126,1.532325267791748,1.3688039779663086,-0.2912479341030121
1775341740953261000,10.026260986328126,0.9955096244812012,1.317406177520752,0.15702620148658752
1775341740963261000,10.036260986328125,0.7322139739990234,1.5419392585754395,-0.14899346232414246
1775341740973261000,10.046260986328125,1.6291608810424805,1.2758164405822754,-0.4854474663734436
1775341740983261000,10.056260986328125,0.49266529083251953,1.571746826171875,0.14118501543998718
1775341740993261000,10.066260986328125,0.9182634353637695,1.3742332458496094,-0.019063055515289307
1775341741003261000,10.076260986328125,1.127110481262207,1.1995296478271484,-0.7002160549163818
1775341741013261000,10.086260986328124,1.0177326202392578,1.4064788818359375,-0.0484943687915802
1775341741023261000,10.096260986328126,0.8918566703796387,1.321178913116455,0.4442029893398285
1775341741033261000,10.106260986328126,0.7890834808349609,1.070976734161377,-0.11608389019966125
1775341741043261000,10.116260986328125,1.0737171173095703,0.9855246543884277,-0.27712881565093994
1775341741053261000,10.126260986328125,1.3412117958068848,1.31036376953125,0.3093530535697937
1775341741063261000,10.136260986328125,1.11810302734375,0.9777212142944336,0.26142045855522156
1775341741073261000,10.146260986328125,0.15634679794311523,0.957888126373291,-0.3066571056842804
1775341741083261000,10.156260986328125,1.021224021911621,0.9491515159606934,0.0011210143566131592
1775341741093261000,10.166260986328124,1.1757545471191406,0.9723472595214844,0.38119348883628845
1775341741103261000,10.176260986328124,0.36125802993774414,0.8545107841491699,-0.19765183329582214
1775341741113261000,10.186260986328126,0.7068243026733398,0.7150144577026367,-0.6488567590713501
1775341741123261000,10.196260986328125,0.8705015182495117,0.7672653198242188,-0.07552427053451538
1775341741133261000,10.206260986328125,0.4817490577697754,0.4048299789428711,0.041130587458610535
1775341741143261000,10.216260986328125,0.5108890533447266,0.4859504699707031,-0.3307911455631256
1775341741153261000,10.226260986328125,0.6743831634521484,0.6771011352539062,-0.049270182847976685
1775341741163261000,10.236260986328125,0.3150191307067871,0.7789621353149414,0.2889705300331116
1775341741173261000,10.246260986328124,0.5724887847900391,0.38680315017700195,0.026503756642341614
1775341741183261000,10.256260986328124,0.5707378387451172,0.43690061569213867,-0.13386359810829163
1775341741193261000,10.266260986328126,0.14885520935058594,0.3567514419555664,0.13507892191410065
1775341741203261000,10.276260986328126,0.17267513275146484,0.6960797309875488,0.10461385548114777
1775341741213261000,10.286260986328125,-0.12876415252685547,0.46817731857299805,0.004438877105712891
1775341741223261000,10.296260986328125,0.4361295700073242,0.3957228660583496,0.11122173070907593
1775341741233261000,10.306260986328125,-0.00851583480834961,0.5597257614135742,0.03467738628387451
1775341741243261000,10.316260986328125,0.6450176239013672,0.33722448348999023,-0.032101958990097046
1775341741253261000,10.326260986328125,-0.17148780822753906,0.27901697158813477,0.1978185474872589
1775341741263261000,10.336260986328124,0.26061487197875977,0.13898468017578125,0.06598933041095734
1775341741273261000,10.346260986328126,0.5328869819641113,-0.006953716278076172,-0.0275956392288208
1775341741283261000,10.356260986328126,0.5394721031188965,-0.004240989685058594,-0.014793455600738525
1775341741293261000,10.366260986328125,-1.1501808166503906,0.6714005470275879,0.015910476446151733
1775341741303261000,10.376260986328125,0.7557773590087891,-0.3242802619934082,-0.21725016832351685
1775341741313261000,10.386260986328125,0.0803384780883789,0.0016541481018066406,-0.15559905767440796
1775341741323261000,10.396260986328125,-0.24675846099853516,0.09082508087158203,0.1452370285987854
1775341741333261000,10.406260986328125,0.21050167083740234,-0.5030379295349121,0.0014210045337677002
1775341741343261000,10.416260986328124,-0.05898857116699219,-0.0743870735168457,-0.006770342588424683
1775341741353261000,10.426260986328124,-0.3670191764831543,-0.08561229705810547,0.006416797637939453
1775341741363261000,10.436260986328126,0.27284717559814453,-0.35155296325683594,0.04334405064582825
1775341741373261000,10.446260986328125,-0.5550055503845215,0.06088972091674805,0.06526553630828857
1775341741383261000,10.456260986328125,-0.15630531311035156,-0.31670475006103516,0.08199048042297363
1775341741393261000,10.466260986328125,-0.26305341720581055,-0.44953060150146484,0.2611826956272125
1775341741403261000,10.476260986328125,-0.46521568298339844,-0.40676403045654297,0.23832029104232788
1775341741413261000,10.486260986328125,-0.5308208465576172,-0.8148703575134277,-0.007304131984710693
1775341741423261000,10.496260986328124,-0.376863956451416,-0.5396170616149902,-0.025411903858184814
1775341741433261000,10.506260986328124,0.22213268280029297,-0.44045066833496094,-0.11022669076919556
1775341741443261000,10.516260986328126,-0.5397944450378418,-0.3826146125793457,0.09018953144550323
1775341741453261000,10.526260986328126,-0.7776856422424316,-0.9966588020324707,0.09398326277732849
1775341741463261000,10.536260986328125,-1.1257052421569824,-1.2100043296813965,-0.10430523753166199
1775341741473261000,10.546260986328125,-0.2128734588623047,-1.640334129333496,-0.47255733609199524
1775341741483261000,10.556260986328125,-0.48755931854248047,-0.6832132339477539,0.02187645435333252
1775341741493261000,10.566260986328125,-1.1530570983886719,-0.9065122604370117,-0.19401651620864868
1775341741503261000,10.576260986328125,0.26704835891723633,-1.5034422874450684,0.12888717651367188
1775341741513261000,10.586260986328124,-2.8320608139038086,-0.4798698425292969,0.5509691834449768
1775341741523261000,10.596260986328126,-0.9040379524230957,-1.6286873817443848,-0.0018781423568725586
1775341741533261000,10.606260986328126,0.2209644317626953,-1.9337120056152344,-0.03530830144882202
1775341741543261000,10.616260986328125,-3.4958224296569824,-1.3447270393371582,-0.00860510766506195
1775341741553261000,10.626260986328125,0.6483039855957031,-2.3929648399353027,0.06779299676418304
1775341741563261000,10.636260986328125,-1.8613100051879883,-1.8521537780761719,0.5156672596931458
1775341741573261000,10.646260986328125,-0.7095828056335449,-2.324923515319824,-0.6953856945037842
1775341741583261000,10.656260986328125,-0.4796161651611328,-2.5282254219055176,-0.306060791015625
1775341741593261000,10.666260986328124,-3.529928207397461,-1.7947273254394531,0.4523976445198059
1775341741603261000,10.676260986328124,-0.9422311782836914,-2.3822989463806152,-0.22245442867279053
1775341741613261000,10.686260986328126,-2.304652690887451,-2.5010924339294434,0.1767665296792984
1775341741623261000,10.696260986328125,-1.8364825248718262,-2.767122745513916,0.23393413424491882
1775341741633261000,10.706260986328125,-1.126241683959961,-3.1415295600891113,-0.3871099054813385
1775341741643261000,10.716260986328125,-1.8709297180175781,-2.8532395362854004,-0.10036836564540863
1775341741653261000,10.726260986328125,-2.0147976875305176,-3.2359156608581543,0.3505100607872009
1775341741663261000,10.736260986328125,-3.460568904876709,-2.5938491821289062,-0.23735575377941132
1775341741673261000,10.746260986328124,-2.759589672088623,-2.9186782836914062,-0.30802467465400696
1775341741683261000,10.756260986328124,-2.0850319862365723,-3.481006622314453,0.22134560346603394
1775341741693261000,10.766260986328126,-2.7150540351867676,-3.4942774772644043,0.21745380759239197
1775341741703261000,10.776260986328126,-2.6324048042297363,-3.3293895721435547,-0.2541649341583252
1775341741713261000,10.786260986328125,-2.2501702308654785,-3.5256035327911377,0.012607291340827942
1775341741723261000,10.796260986328125,-2.8857674598693848,-3.5931124687194824,0.5295007824897766
1775341741733261000,10.806260986328125,-2.2950820922851562,-3.5171947479248047,-0.04511876404285431
1775341741743261000,10.816260986328125,-2.2260031700134277,-3.370163917541504,-0.04199481010437012
1775341741753261000,10.826260986328125,-2.5804529190063477,-3.058133125305176,0.18894627690315247
1775341741763261000,10.836260986328124,-2.056061267852783,-3.253851890563965,0.03467118740081787
1775341741773261000,10.846260986328126,-2.3331518173217773,-2.9055538177490234,-0.017200857400894165
1775341741783261000,10.856260986328126,-2.07515287399292,-2.7619361877441406,0.14084354043006897
1775341741793261000,10.866260986328125,-2.0599985122680664,-2.8002820014953613,0.18944887816905975
1775341741803261000,10.876260986328125,-2.1573290824890137,-2.6090569496154785,0.2282213568687439
1775341741813261000,10.886260986328125,-1.53944730758667,-2.2491378784179688,0.07021807134151459
1775341741823261000,10.896260986328125,-1.9674758911132812,-2.219900131225586,0.16006053984165192
1775341741833261000,10.906260986328125,-1.940434455871582,-2.266883373260498,0.17923806607723236
1775341741843261000,10.916260986328124,-2.395017623901367,-1.7780065536499023,-0.2623428702354431
1775341741853261000,10.926260986328124,-1.5609521865844727,-1.7598142623901367,-0.07304276525974274
1775341741863261000,10.936260986328126,-1.1460356712341309,-1.890134334564209,0.021855428814888
1775341741873261000,10.946260986328125,-0.6827168464660645,-2.0481514930725098,-0.3218833804130554
1775341741883261000,10.956260986328125,-1.0502066612243652,-2.0085067749023438,-0.04178285598754883
1775341741893261000,10.966260986328125,-1.7996973991394043,-0.8728251457214355,0.007152184844017029
1775341741903261000,10.976260986328125,-0.9459385871887207,-1.3316926956176758,-0.29993391036987305
1775341741913261000,10.986260986328125,-0.36494874954223633,-1.5277442932128906,-0.18238374590873718
1775341741923261000,10.996260986328124,0.7421293258666992,-1.6039586067199707,0.07984687387943268
1775341741933261000,11.006260986328124,-2.14424467086792,-0.5338144302368164,0.08955593407154083
1775341741943261000,11.016260986328126,0.7691354751586914,-1.5093436241149902,-0.39170727133750916
1775341741953261000,11.026260986328126,-1.5124540328979492,-0.30237770080566406,0.38407957553863525
1775341741963261000,11.036260986328125,-0.45745134353637695,-0.8852410316467285,0.00018459558486938477
1775341741973261000,11.046260986328125,-0.14021539688110352,-0.965416431427002,-0.19514325261116028
1775341741983261000,11.056260986328125,-0.9714164733886719,0.1308131217956543,0.32769066095352173
1775341741993261000,11.066260986328125,0.45652294158935547,-0.8577666282653809,0.01208871603012085
1775341742003261000,11.076260986328125,-0.7470593452453613,-0.2841510772705078,-0.20958885550498962
1775341742013261000,11.086260986328124,0.20507240295410156,-0.35086822509765625,-0.10885506868362427
1775341742023261000,11.096260986328126,0.07174062728881836,-0.2551727294921875,0.24963119626045227
1775341742033261000,11.106260986328126,-0.4560208320617676,-0.1731266975402832,-0.12155202031135559
1775341742043261000,11.116260986328125,-0.1172938346862793,-0.49165821075439453,-0.37693947553634644
1775341742053261000,11.126260986328125,0.0795135498046875,-0.19449710845947266,0.2372536063194275
1775341742063261000,11.136260986328125,-0.41849803924560547,-0.2690277099609375,0.18300378322601318
1775341742073261000,11.146260986328125,-0.3466911315917969,-0.48082447052001953,0.127079039812088
1775341742083261000,11.156260986328125,-0.07300806045532227,-0.12752771377563477,0.1611710488796234
1775341742093261000,11.166260986328124,-0.2456660270690918,-0.17055463790893555,-0.005900204181671143
1775341742103261000,11.176260986328124,0.17848682403564453,-0.058628082275390625,0.16432972252368927
1775341742113261000,11.186260986328126,-0.17783212661743164,0.032842159271240234,0.2575088441371918
1775341742123261000,11.196260986328125,-0.1911463737487793,-0.00927591323852539,-0.04662680625915527
1775341742133261000,11.206260986328125,0.406402587890625,-0.052777767181396484,0.09930340945720673
1775341742143261000,11.216260986328125,-0.5267386436462402,0.13489103317260742,0.24061360955238342
1775341742153261000,11.226260986328125,0.5141720771789551,0.05580711364746094,0.08181172609329224
1775341742163261000,11.236260986328125,0.06104564666748047,0.5472326278686523,-0.01734820008277893
1775341742173261000,11.246260986328124,0.9231271743774414,0.2275676727294922,0.275573194026947
1775341742183261000,11.256260986328124,0.2955441474914551,0.006524085998535156,0.295937180519104
1775341742193261000,11.266260986328126,-0.40703773498535156,0.5118622779846191,-0.13490155339241028
1775341742203261000,11.276260986328126,0.6875491142272949,-0.032482147216796875,-0.4088153839111328
1775341742213261000,11.286260986328125,-0.28009843826293945,0.455322265625,0.11305972933769226
1775341742223261000,11.296260986328125,0.6312398910522461,0.27886009216308594,0.12278680503368378
1775341742233261000,11.306260986328125,0.06980037689208984,0.4694337844848633,-0.5474519729614258
1775341742243261000,11.316260986328125,0.33213138580322266,0.6845240592956543,-0.37131720781326294
1775341742253261000,11.326260986328125,0.8856964111328125,0.35884952545166016,0.27068638801574707
1775341742263261000,11.336260986328124,-0.685882568359375,0.2969961166381836,0.11710849404335022
1775341742273261000,11.346260986328126,0.47016000747680664,0.5149040222167969,-0.2991725206375122
1775341742283261000,11.356260986328126,0.31194305419921875,0.4803605079650879,0.18433091044425964
1775341742293261000,11.366260986328125,0.508026123046875,0.3076615333557129,0.11928349733352661
1775341742303261000,11.376260986328125,0.34557628631591797,0.3763575553894043,-0.4444604516029358
1775341742313261000,11.386260986328125,0.31925106048583984,0.5067634582519531,-0.18478462100028992
1775341742323261000,11.396260986328125,0.3735966682434082,0.3167433738708496,0.3848913609981537
1775341742333261000,11.406260986328125,0.15964078903198242,0.03714275360107422,0.32481440901756287
1775341742343261000,11.416260986328124,0.13122987747192383,0.1992325782775879,-0.19281244277954102
1775341742353261000,11.426260986328124,0.6279506683349609,0.5336441993713379,0.0404718816280365
1775341742363261000,11.436260986328126,0.05151176452636719,0.31488704681396484,0.4497218728065491
1775341742373261000,11.446260986328125,0.3870658874511719,0.22615909576416016,-0.06902390718460083
1775341742383261000,11.456260986328125,-0.05052328109741211,0.5496349334716797,-0.03678283095359802
1775341742393261000,11.466260986328125,-0.09866523742675781,0.698150634765625,0.327936053276062
1775341742403261000,11.476260986328125,0.9563479423522949,0.25127077102661133,-0.03688734769821167
1775341742413261000,11.486260986328125,-0.1094202995300293,0.4807257652282715,-0.12477213144302368
1775341742423261000,11.496260986328124,0.2969040870666504,0.5763216018676758,0.16636675596237183
1775341742433261000,11.506260986328124,0.5744366645812988,0.25176239013671875,0.17535293102264404
1775341742443261000,11.516260986328126,0.20210981369018555,0.44885969161987305,-0.3068443834781647
1775341742453261000,11.526260986328126,0.8165850639343262,0.5072898864746094,-0.30455368757247925
1775341742463261000,11.536260986328125,0.59918212890625,0.7215213775634766,0.6524518728256226
1775341742473261000,11.546260986328125,-0.28961610794067383,0.07481765747070312,0.03098452091217041
1775341742483261000,11.556260986328125,0.536893367767334,0.34178924560546875,-0.5907015204429626
1775341742493261000,11.566260986328125,-0.1364912986755371,0.35001087188720703,0.06306345760822296
1775341742503261000,11.576260986328125,0.1533050537109375,0.28077173233032227,0.4170156717300415
1775341742513261000,11.586260986328124,0.6230459213256836,0.5832085609436035,-0.3862535357475281
1775341742523261000,11.596260986328126,0.7249479293823242,0.3584160804748535,-0.5601910948753357
1775341742533261000,11.606260986328126,0.2530045509338379,0.484560489654541,0.3085077106952667
1775341742543261000,11.616260986328125,0.1349477767944336,0.23706579208374023,0.28356438875198364
1775341742553261000,11.626260986328125,0.31162500381469727,0.17152833938598633,-0.23881536722183228
1775341742563261000,11.636260986328125,-0.25467395782470703,0.41719961166381836,0.09656381607055664
1775341742573261000,11.646260986328125,0.27843761444091797,0.19211912155151367,0.240786612033844
1775341742583261000,11.656260986328125,0.45848560333251953,-0.05692625045776367,-0.09274747967720032
1775341742593261000,11.666260986328124,0.08208894729614258,0.15607643127441406,-0.23733973503112793
1775341742603261000,11.676260986328124,0.7692852020263672,-0.8929901123046875,-0.016089141368865967
1775341742613261000,11.686260986328126,-0.1837472915649414,-0.11493873596191406,0.2842545211315155
1775341742623261000,11.696260986328125,-0.7910699844360352,0.48210620880126953,-0.019297242164611816
1775341742633261000,11.706260986328125,0.19220590591430664,-0.06972265243530273,-0.39234641194343567
1775341742643261000,11.716260986328125,-0.37567901611328125,0.0822138786315918,0.2697051465511322
1775341742653261000,11.726260986328125,-0.4210968017578125,-0.1542048454284668,0.35406383872032166
1775341742663261000,11.736260986328125,0.1696028709411621,-0.12897300720214844,-0.07418003678321838
1775341742673261000,11.746260986328124,-0.7679071426391602,0.2297377586364746,0.29756540060043335
1775341742683261000,11.756260986328124,0.14073848724365234,0.15040969848632812,0.3119681775569916
1775341742693261000,11.766260986328126,-0.6384692192077637,0.5621204376220703,0.07114273309707642
1775341742703261000,11.776260986328126,0.5171971321105957,-0.028030872344970703,0.08140544593334198
1775341742713261000,11.786260986328125,0.312227725982666,-0.02762746810913086,-0.015126705169677734
1775341742723261000,11.796260986328125,1.3908472061157227,-0.2195758819580078,-0.23077476024627686
1775341742733261000,11.806260986328125,-0.41246509552001953,0.4519062042236328,-0.07891547679901123
1775341742743261000,11.816260986328125,0.43091773986816406,0.0074291229248046875,-0.23940998315811157
1775341742753261000,11.826260986328125,0.5808749198913574,0.22878694534301758,-0.1536533236503601
1775341742763261000,11.836260986328124,-0.07236099243164062,0.634528636932373,0.0013947784900665283
1775341742773261000,11.846260986328126,0.571533203125,0.3261256217956543,-0.09765759110450745
1775341742783261000,11.856260986328126,0.06524372100830078,0.6340522766113281,-0.05432766675949097
1775341742793261000,11.866260986328125,0.10240554809570312,0.5877623558044434,-0.1644725203514099
1775341742803261000,11.876260986328125,0.6694002151489258,0.47019100189208984,-0.17172160744667053
1775341742813261000,11.886260986328125,0.29482173919677734,0.6010341644287109,0.023726195096969604
1775341742823261000,11.896260986328125,0.36496782302856445,0.2863039970397949,-0.06754186749458313
1775341742833261000,11.906260986328125,0.16442298889160156,0.27830934524536133,0.05027487874031067
1775341742843261000,11.916260986328124,0.41451406478881836,0.3255500793457031,0.10237027704715729
1775341742853261000,11.926260986328124,0.5301117897033691,0.33209705352783203,0.059873759746551514
1775341742863261000,11.936260986328126,0.17595815658569336,0.32553577423095703,0.1628173440694809
1775341742873261000,11.946260986328125,-0.13811588287353516,0.38457536697387695,0.14273719489574432
1775341742883261000,11.956260986328125,0.4985694885253906,0.059569358825683594,0.12362492084503174
1775341742893261000,11.966260986328125,0.1767892837524414,0.37261056900024414,0.2032606601715088
1775341742903261000,11.976260986328125,0.2670879364013672,0.45081233978271484,0.03460867702960968
1775341742913261000,11.986260986328125,0.6211404800415039,0.380739688873291,-0.09707233309745789
1775341742923261000,11.996260986328124,-0.10040903091430664,0.6768069267272949,0.014305591583251953
1775341742933261000,12.006260986328124,0.6685290336608887,0.3927631378173828,-0.10742148756980896
1775341742943261000,12.016260986328126,0.23567724227905273,0.7496299743652344,-0.1289122998714447
1775341742953261000,12.026260986328126,0.7017431259155273,0.5902695655822754,0.006840616464614868
1775341742963261000,12.036260986328125,0.8615360260009766,0.6490297317504883,0.018571868538856506
1775341742973261000,12.046260986328125,0.6149506568908691,0.772120475769043,-0.1493733525276184
1775341742983261000,12.056260986328125,0.741912841796875,0.8245134353637695,-0.13965773582458496
1775341742993261000,12.066260986328125,0.5920767784118652,1.0884618759155273,0.12993180751800537
1775341743003261000,12.076260986328125,0.7533979415893555,0.7768936157226562,-0.0990438461303711
