time,seconds_elapsed,z,y,x
1775341730992971500,0.065971435546875,-0.0054977829568088055,0.000610864779446274,0
1775341731009758500,0.082758544921875,0.017715077847242355,-0.011606430634856224,-0.010995565913617611
1775341731026545400,0.09954541015625,0.006719512399286032,-0.006719512399286032,-0.006719512399286032
1775341731043332400,0.116332275390625,0.010995565913617611,-0.007941242307424545,-0.000610864779446274
1775341731060119300,0.133119384765625,0.006719512399286032,-0.004886918235570192,-0.004276053514331579
1775341731076906200,0.14990625,0.012217295356094837,-0.009162971749901772,-0.001221729558892548
1775341731093693200,0.166693115234375,0.010384701192378998,-0.007941242307424545,-0.001832594396546483
1775341731110480100,0.183480224609375,0.009162971749901772,-0.006719512399286032,-0.007330377586185932
1775341731127267000,0.20026708984375,0.009162971749901772,-0.008552107028663158,-0.001832594396546483
1775341731144054300,0.21705419921875,0.010995565913617611,-0.008552107028663158,-0.004276053514331579
1775341731160841200,0.23384130859375,0.009162971749901772,-0.006719512399286032,-0.009162971749901772
1775341731177628200,0.250628173828125,0.007941242307424545,-0.006719512399286032,-0.006719512399286032
1775341731194415000,0.2674150390625,0.009162971749901772,-0.006719512399286032,0.002443459117785096
1775341731211202000,0.2842021484375,0.010995565913617611,-0.009162971749901772,-0.006108647678047419
1775341731227989000,0.300989013671875,0.011606430634856224,-0.006719512399286032,-0.009773836471140385
1775341731244776000,0.31777587890625,0.007330377586185932,-0.0054977829568088055,-0.004276053514331579
1775341731261563100,0.334563232421875,0.010384701192378998,-0.008552107028663158,-0.002443459117785096
1775341731278350000,0.35135009765625,0.010384701192378998,-0.008552107028663158,-0.008552107028663158
1775341731295137000,0.368136962890625,0.010384701192378998,-0.007941242307424545,-0.006719512399286032
1775341731311924000,0.384924072265625,0.008552107028663158,-0.008552107028663158,0
1775341731328711000,0.4017109375,0.010995565913617611,-0.008552107028663158,0
1775341731345497900,0.418497802734375,0.009773836471140385,-0.007330377586185932,-0.007330377586185932
1775341731362284800,0.435284912109375,0.009773836471140385,-0.009162971749901772,-0.004276053514331579
1775341731379071700,0.45207177734375,0.010384701192378998,-0.009162971749901772,-0.000610864779446274
1775341731395858700,0.468858642578125,0.010384701192378998,-0.007941242307424545,-0.003665188793092966
1775341731412646000,0.48564599609375,0.009773836471140385,-0.007330377586185932,-0.006108647678047419
1775341731429432800,0.502432861328125,0.010384701192378998,-0.008552107028663158,-0.0030543238390237093
1775341731446219800,0.5192197265625,0.008552107028663158,-0.007941242307424545,0
1775341731463006700,0.5360068359375,0.010995565913617611,-0.009162971749901772,-0.0030543238390237093
1775341731479793700,0.552793701171875,0.009773836471140385,-0.007941242307424545,-0.007941242307424545
1775341731496580600,0.56958056640625,0.010995565913617611,-0.008552107028663158,-0.003665188793092966
1775341731513367600,0.586367431640625,0.009162971749901772,-0.008552107028663158,0
1775341731530154500,0.603154541015625,0.009773836471140385,-0.007941242307424545,-0.003665188793092966
1775341731546941700,0.619941650390625,0.010384701192378998,-0.008552107028663158,-0.003665188793092966
1775341731563728600,0.636728759765625,0.009773836471140385,-0.007330377586185932,-0.002443459117785096
1775341731580515600,0.653515625,0.009773836471140385,-0.007941242307424545,-0.003665188793092966
1775341731597302500,0.670302490234375,0.009773836471140385,-0.008552107028663158,-0.004276053514331579
1775341731614089500,0.68708935546875,0.010384701192378998,-0.008552107028663158,-0.003665188793092966
1775341731630876400,0.70387646484375,0.009773836471140385,-0.007941242307424545,-0.002443459117785096
1775341731647663400,0.720663330078125,0.009773836471140385,-0.006719512399286032,-0.004276053514331579
1775341731664450300,0.7374501953125,0.010384701192378998,-0.007941242307424545,-0.003665188793092966
1775341731681237500,0.754237548828125,0.009773836471140385,-0.007330377586185932,-0.0030543238390237093
1775341731698024400,0.7710244140625,0.009773836471140385,-0.008552107028663158,-0.004886918235570192
1775341731714811400,0.787811279296875,0.009773836471140385,-0.007941242307424545,-0.003665188793092966
1775341731731598300,0.804598388671875,0.010384701192378998,-0.008552107028663158,-0.002443459117785096
1775341731748385300,0.82138525390625,0.009773836471140385,-0.008552107028663158,-0.003665188793092966
1775341731765172200,0.838172119140625,0.010995565913617611,-0.007330377586185932,-0.004276053514331579
1775341731781959400,0.85495947265625,0.009773836471140385,-0.007941242307424545,-0.004276053514331579
1775341731798746400,0.871746337890625,0.010995565913617611,-0.007941242307424545,-0.002443459117785096
1775341731815533300,0.888533203125,0.009773836471140385,-0.007941242307424545,-0.004886918235570192
1775341731832320300,0.9053203125,0.010384701192378998,-0.007941242307424545,-0.004276053514331579
1775341731849107200,0.922107177734375,0.010384701192378998,-0.007941242307424545,-0.001832594396546483
1775341731865894100,0.93889404296875,0.009773836471140385,-0.007330377586185932,-0.002443459117785096
1775341731882681000,0.95568115234375,0.009773836471140385,-0.007330377586185932,-0.0030543238390237093
1775341731899468300,0.97246826171875,0.010384701192378998,-0.008552107028663158,-0.003665188793092966
1775341731916255200,0.989255126953125,0.009773836471140385,-0.007941242307424545,-0.0030543238390237093
1775341731933042200,1.006042236328125,0.009162971749901772,-0.008552107028663158,-0.002443459117785096
1775341731949829000,1.0228291015625,0.009773836471140385,-0.008552107028663158,-0.004276053514331579
1775341731966616000,1.039615966796875,0.009773836471140385,-0.007941242307424545,-0.002443459117785096
1775341731983403000,1.056403076171875,0.009773836471140385,-0.007941242307424545,-0.001832594396546483
1775341732000190200,1.073190185546875,0.009773836471140385,-0.007941242307424545,-0.004276053514331579
1775341732016977200,1.08997705078125,0.009773836471140385,-0.007941242307424545,-0.003665188793092966
1775341732033764000,1.10676416015625,0.009773836471140385,-0.008552107028663158,-0.002443459117785096
1775341732050551000,1.123551025390625,0.009773836471140385,-0.007941242307424545,-0.0030543238390237093
1775341732067338000,1.140337890625,0.009773836471140385,-0.007941242307424545,-0.003665188793092966
1775341732084125000,1.157125,0.009773836471140385,-0.007330377586185932,-0.002443459117785096
1775341732100911900,1.173911865234375,0.010384701192378998,-0.007941242307424545,-0.003665188793092966
1775341732117699000,1.190698974609375,0.009773836471140385,-0.008552107028663158,-0.003665188793092966
1775341732134486000,1.207486083984375,0.009773836471140385,-0.007330377586185932,-0.0030543238390237093
1775341732151273000,1.22427294921875,0.009773836471140385,-0.009162971749901772,-0.0030543238390237093
1775341732168060000,1.241059814453125,0.010384701192378998,-0.007330377586185932,-0.002443459117785096
1775341732184846800,1.257846923828125,0.009773836471140385,-0.007941242307424545,-0.0030543238390237093
1775341732201633800,1.2746337890625,0.010995565913617611,-0.007941242307424545,-0.003665188793092966
1775341732218421000,1.2914208984375,0.008552107028663158,-0.008552107028663158,-0.002443459117785096
1775341732235208000,1.3082080078125,0.009773836471140385,-0.007941242307424545,-0.003665188793092966
1775341732251995000,1.324994873046875,0.009773836471140385,-0.007941242307424545,-0.004276053514331579
1775341732268781800,1.34178173828125,0.009773836471140385,-0.007941242307424545,-0.002443459117785096
1775341732285568800,1.35856884765625,0.009773836471140385,-0.008552107028663158,-0.003665188793092966
1775341732302355700,1.375355712890625,0.009773836471140385,-0.008552107028663158,-0.003665188793092966
1775341732319143000,1.392142822265625,0.009773836471140385,-0.007941242307424545,-0.001832594396546483
1775341732335929900,1.408929931640625,0.009773836471140385,-0.007941242307424545,-0.004276053514331579
1775341732352716800,1.425716796875,0.009162971749901772,-0.008552107028663158,-0.0030543238390237093
1775341732369503700,1.442503662109375,0.009773836471140385,-0.007330377586185932,-0.003665188793092966
1775341732386290700,1.459290771484375,0.009773836471140385,-0.008552107028663158,-0.0030543238390237093
1775341732403077600,1.47607763671875,0.009773836471140385,-0.007330377586185932,-0.003665188793092966
1775341732419864800,1.49286474609375,0.010384701192378998,-0.007941242307424545,-0.003665188793092966
1775341732436651800,1.50965185546875,0.009773836471140385,-0.007330377586185932,-0.002443459117785096
1775341732453438700,1.526438720703125,0.009773836471140385,-0.007941242307424545,-0.0030543238390237093
1775341732470225700,1.5432255859375,0.009773836471140385,-0.008552107028663158,-0.001832594396546483
1775341732487012600,1.5600126953125,0.009162971749901772,-0.007941242307424545,-0.004276053514331579
1775341732503799600,1.576799560546875,0.010384701192378998,-0.008552107028663158,-0.003665188793092966
1775341732520586800,1.593586669921875,0.010384701192378998,-0.008552107028663158,-0.001832594396546483
1775341732537373700,1.610373779296875,0.009773836471140385,-0.007330377586185932,-0.003665188793092966
1775341732554160600,1.62716064453125,0.009162971749901772,-0.009162971749901772,-0.003665188793092966
1775341732570947600,1.643947509765625,0.009162971749901772,-0.008552107028663158,-0.0030543238390237093
1775341732587734500,1.660734619140625,0.009773836471140385,-0.007330377586185932,-0.0030543238390237093
1775341732604521700,1.677521728515625,0.009773836471140385,-0.009162971749901772,-0.002443459117785096
1775341732621308700,1.69430859375,0.009773836471140385,-0.007330377586185932,-0.0030543238390237093
1775341732638095600,1.711095703125,0.009773836471140385,-0.007330377586185932,-0.004276053514331579
1775341732654882600,1.727882568359375,0.009773836471140385,-0.009162971749901772,-0.002443459117785096
1775341732671669500,1.74466943359375,0.009773836471140385,-0.008552107028663158,-0.002443459117785096
1775341732688456400,1.76145654296875,0.009773836471140385,-0.007941242307424545,-0.003665188793092966
1775341732705243600,1.77824365234375,0.009162971749901772,-0.008552107028663158,-0.0030543238390237093
1775341732722030600,1.795030517578125,0.009162971749901772,-0.007330377586185932,-0.004276053514331579
1775341732738817500,1.811817626953125,0.009773836471140385,-0.007941242307424545,-0.003665188793092966
1775341732755604500,1.8286044921875,0.009773836471140385,-0.008552107028663158,-0.002443459117785096
1775341732772391400,1.845391357421875,0.009773836471140385,-0.008552107028663158,-0.001832594396546483
1775341732789178600,1.8621787109375,0.009773836471140385,-0.007941242307424545,-0.0030543238390237093
1775341732805965600,1.878965576171875,0.009773836471140385,-0.007941242307424545,-0.001832594396546483
1775341732822752500,1.89575244140625,0.010384701192378998,-0.007941242307424545,-0.002443459117785096
1775341732839539500,1.91253955078125,0.009162971749901772,-0.007941242307424545,-0.003665188793092966
1775341732856326400,1.929326416015625,0.009773836471140385,-0.007330377586185932,-0.004276053514331579
1775341732873113600,1.946113525390625,0.010995565913617611,-0.007941242307424545,-0.002443459117785096
1775341732889900500,1.962900634765625,0.009773836471140385,-0.007941242307424545,-0.0030543238390237093
1775341732906687500,1.9796875,0.010995565913617611,-0.007941242307424545,-0.0030543238390237093
1775341732923474400,1.996474365234375,0.009773836471140385,-0.007941242307424545,-0.004276053514331579
1775341732940261400,2.013261474609375,0.010384701192378998,-0.007941242307424545,-0.001832594396546483
1775341732957048300,2.03004833984375,0.009773836471140385,-0.008552107028663158,-0.0030543238390237093
1775341732973835500,2.04683544921875,0.010384701192378998,-0.008552107028663158,-0.003665188793092966
1775341732990622500,2.06362255859375,0.009773836471140385,-0.007941242307424545,-0.0030543238390237093
1775341733007409400,2.080409423828125,0.009773836471140385,-0.008552107028663158,-0.001832594396546483
1775341733024196400,2.0971962890625,0.009773836471140385,-0.007941242307424545,-0.002443459117785096
1775341733040983600,2.113983642578125,0.010384701192378998,-0.007330377586185932,-0.004276053514331579
1775341733057770500,2.1307705078125,0.010384701192378998,-0.007941242307424545,-0.004276053514331579
1775341733074557400,2.147557373046875,0.010384701192378998,-0.007330377586185932,-0.003665188793092966
1775341733091344400,2.164344482421875,0.010384701192378998,-0.009162971749901772,-0.0030543238390237093
1775341733108131300,2.18113134765625,0.009773836471140385,-0.007941242307424545,-0.0030543238390237093
1775341733124918300,2.197918212890625,0.010995565913617611,-0.008552107028663158,-0.003665188793092966
1775341733141705500,2.21470556640625,0.009773836471140385,-0.007941242307424545,-0.002443459117785096
1775341733158492400,2.231492431640625,0.009773836471140385,-0.006719512399286032,-0.004276053514331579
1775341733175279400,2.248279296875,0.009773836471140385,-0.007941242307424545,-0.002443459117785096
1775341733192066300,2.26506640625,0.009162971749901772,-0.006719512399286032,-0.0030543238390237093
1775341733208853200,2.281853271484375,0.009773836471140385,-0.007941242307424545,-0.0030543238390237093
1775341733225640400,2.298640380859375,0.010384701192378998,-0.007330377586185932,-0.002443459117785096
1775341733242427400,2.315427490234375,0.009162971749901772,-0.007330377586185932,-0.003665188793092966
1775341733259214300,2.33221435546875,0.009773836471140385,-0.006719512399286032,-0.003665188793092966
1775341733276001300,2.349001220703125,0.009773836471140385,-0.007330377586185932,-0.002443459117785096
1775341733292788500,2.36578857421875,0.009773836471140385,-0.007330377586185932,-0.002443459117785096
1775341733309575400,2.382575439453125,0.009162971749901772,-0.007941242307424545,-0.003665188793092966
1775341733326362400,2.3993623046875,0.009773836471140385,-0.009162971749901772,-0.0030543238390237093
1775341733343149300,2.4161494140625,0.009773836471140385,-0.007941242307424545,-0.001832594396546483
1775341733359936300,2.432936279296875,0.009773836471140385,-0.009773836471140385,-0.002443459117785096
1775341733376723200,2.44972314453125,0.009773836471140385,-0.007941242307424545,-0.003665188793092966
1775341733393510400,2.466510498046875,0.010384701192378998,-0.007941242307424545,-0.0030543238390237093
1775341733410297300,2.48329736328125,0.009162971749901772,-0.007941242307424545,-0.002443459117785096
1775341733427084300,2.500084228515625,0.009773836471140385,-0.007941242307424545,-0.002443459117785096
1775341733443871200,2.516871337890625,0.009162971749901772,-0.007941242307424545,-0.002443459117785096
1775341733460658400,2.533658447265625,0.009773836471140385,-0.007941242307424545,-0.004276053514331579
1775341733477445400,2.5504453125,0.009773836471140385,-0.007941242307424545,-0.003665188793092966
1775341733494232300,2.567232421875,0.009162971749901772,-0.008552107028663158,-0.003665188793092966
1775341733511019300,2.584019287109375,0.009162971749901772,-0.007941242307424545,-0.0030543238390237093
1775341733527806500,2.600806396484375,0.010384701192378998,-0.008552107028663158,-0.0030543238390237093
1775341733544593400,2.617593505859375,0.009773836471140385,-0.007330377586185932,-0.0030543238390237093
1775341733561380400,2.63438037109375,0.009773836471140385,-0.008552107028663158,-0.004276053514331579
1775341733578167300,2.651167236328125,0.010995565913617611,-0.008552107028663158,-0.0030543238390237093
1775341733594954200,2.667954345703125,0.010384701192378998,-0.007941242307424545,-0.004276053514331579
1775341733611741400,2.684741455078125,0.009773836471140385,-0.007941242307424545,-0.003665188793092966
1775341733628528400,2.7015283203125,0.010995565913617611,-0.008552107028663158,-0.004276053514331579
1775341733645315300,2.7183154296875,0.009773836471140385,-0.007330377586185932,-0.002443459117785096
1775341733662102300,2.735102294921875,0.010384701192378998,-0.008552107028663158,-0.0030543238390237093
1775341733678889500,2.751889404296875,0.009773836471140385,-0.007941242307424545,-0.0030543238390237093
1775341733695676400,2.768676513671875,0.010384701192378998,-0.007941242307424545,-0.003665188793092966
1775341733712463400,2.78546337890625,0.009773836471140385,-0.007941242307424545,-0.004276053514331579
1775341733729250300,2.802250244140625,0.010384701192378998,-0.007330377586185932,-0.0030543238390237093
1775341733746037500,2.81903759765625,0.009773836471140385,-0.009162971749901772,-0.004276053514331579
1775341733762824400,2.835824462890625,0.009773836471140385,-0.007330377586185932,-0.0030543238390237093
1775341733779611400,2.852611328125,0.009773836471140385,-0.006719512399286032,-0.001832594396546483
1775341733796398300,2.8693984375,0.009773836471140385,-0.008552107028663158,-0.002443459117785096
1775341733813185300,2.886185302734375,0.009773836471140385,-0.007941242307424545,-0.003665188793092966
1775341733829972500,2.902972412109375,0.010384701192378998,-0.007330377586185932,-0.002443459117785096
1775341733846759400,2.919759521484375,0.009773836471140385,-0.007941242307424545,-0.003665188793092966
1775341733863546400,2.93654638671875,0.010384701192378998,-0.007941242307424545,-0.004276053514331579
1775341733880333300,2.953333251953125,0.009773836471140385,-0.008552107028663158,-0.002443459117785096
1775341733897120500,2.97012060546875,0.009162971749901772,-0.007941242307424545,-0.0030543238390237093
1775341733913907500,2.986907470703125,0.010384701192378998,-0.008552107028663158,-0.004276053514331579
1775341733930694400,3.0036943359375,0.009773836471140385,-0.007941242307424545,-0.004276053514331579
1775341733947481300,3.0204814453125,0.009773836471140385,-0.008552107028663158,-0.001221729558892548
1775341733964268500,3.0372685546875,0.010384701192378998,-0.008552107028663158,-0.003665188793092966
1775341733981055500,3.054055419921875,0.010384701192378998,-0.008552107028663158,-0.003665188793092966
1775341733997842400,3.070842529296875,0.010384701192378998,-0.007941242307424545,-0.002443459117785096
1775341734014629400,3.08762939453125,0.009773836471140385,-0.007330377586185932,-0.003665188793092966
1775341734031416600,3.10441650390625,0.010384701192378998,-0.007330377586185932,-0.003665188793092966
1775341734048203500,3.12120361328125,0.010384701192378998,-0.007941242307424545,-0.003665188793092966
1775341734064990500,3.137990478515625,0.009162971749901772,-0.007941242307424545,-0.0030543238390237093
1775341734081777400,3.15477734375,0.009773836471140385,-0.007941242307424545,-0.003665188793092966
1775341734098564600,3.171564697265625,0.010384701192378998,-0.007941242307424545,-0.002443459117785096
1775341734115351600,3.1883515625,0.010384701192378998,-0.007941242307424545,-0.0030543238390237093
1775341734132138500,3.205138427734375,0.009162971749901772,-0.007330377586185932,-0.0030543238390237093
1775341734148925400,3.221925537109375,0.009773836471140385,-0.008552107028663158,-0.003665188793092966
1775341734165712600,3.238712646484375,0.010384701192378998,-0.008552107028663158,-0.003665188793092966
1775341734182499600,3.25549951171875,0.010384701192378998,-0.008552107028663158,-0.0030543238390237093
1775341734199286500,3.27228662109375,0.009773836471140385,-0.008552107028663158,-0.002443459117785096
1775341734216073500,3.289073486328125,0.010384701192378998,-0.007941242307424545,-0.0030543238390237093
1775341734232860700,3.305860595703125,0.009773836471140385,-0.008552107028663158,-0.0030543238390237093
1775341734249647600,3.322647705078125,0.010384701192378998,-0.007941242307424545,-0.003665188793092966
1775341734266434600,3.3394345703125,0.009773836471140385,-0.008552107028663158,-0.003665188793092966
1775341734283221800,3.3562216796875,0.009773836471140385,-0.008552107028663158,-0.004276053514331579
1775341734300008700,3.3730087890625,0.009773836471140385,-0.007941242307424545,-0.003665188793092966
1775341734316795600,3.389795654296875,0.009773836471140385,-0.008552107028663158,-0.004276053514331579
1775341734333582600,3.40658251953125,0.009773836471140385,-0.007330377586185932,-0.002443459117785096
1775341734350369800,3.423369873046875,0.010384701192378998,-0.008552107028663158,-0.0030543238390237093
1775341734367156700,3.44015673828125,0.010384701192378998,-0.007941242307424545,-0.002443459117785096
1775341734383943700,3.456943603515625,0.009773836471140385,-0.007330377586185932,-0.0030543238390237093
1775341734400730600,3.473730712890625,0.008552107028663158,-0.007941242307424545,-0.0030543238390237093
1775341734417517600,3.490517578125,0.009162971749901772,-0.008552107028663158,-0.001832594396546483
1775341734434304800,3.5073046875,0.009162971749901772,-0.006719512399286032,-0.004886918235570192
1775341734451091700,3.524091796875,0.010995565913617611,-0.007941242307424545,-0.003665188793092966
1775341734467878700,3.540878662109375,0.009162971749901772,-0.008552107028663158,-0.0030543238390237093
1775341734484665900,3.557665771484375,0.009773836471140385,-0.007941242307424545,-0.004276053514331579
1775341734501452800,3.574452880859375,0.009162971749901772,-0.008552107028663158,-0.0030543238390237093
1775341734518239700,3.59123974609375,0.009773836471140385,-0.007941242307424545,-0.0030543238390237093
1775341734535026700,3.608026611328125,0.009162971749901772,-0.007941242307424545,-0.0030543238390237093
1775341734551814000,3.62481396484375,0.010995565913617611,-0.009162971749901772,-0.003665188793092966
1775341734568600800,3.641600830078125,0.009773836471140385,-0.007330377586185932,-0.002443459117785096
1775341734585387800,3.6583876953125,0.009162971749901772,-0.007330377586185932,-0.002443459117785096
1775341734602175000,3.675175048828125,0.009773836471140385,-0.007330377586185932,-0.003665188793092966
1775341734618962000,3.6919619140625,0.010384701192378998,-0.007330377586185932,-0.003665188793092966
1775341734635748900,3.708748779296875,0.010384701192378998,-0.007941242307424545,-0.003665188793092966
1775341734652535800,3.725535888671875,0.010384701192378998,-0.007941242307424545,-0.003665188793092966
1775341734669323000,3.742322998046875,0.003665188793092966,-0.004276053514331579,0.003665188793092966
1775341734686110000,3.75910986328125,0.020769402384757996,-0.017104214057326317,-0.0030543238390237093
1775341734702897000,3.77589697265625,0.000610864779446274,0.002443459117785096,-0.011606430634856224
1775341734719683800,3.792683837890625,0.01649334840476513,-0.017104214057326317,-0.007941242307424545
1775341734736471000,3.809470947265625,0.004276053514331579,0,0.007330377586185932
1775341734753258000,3.826258056640625,0.014660755172371864,-0.015271619893610477,-0.010384701192378998
1775341734770045000,3.843044921875,0.007941242307424545,-0.002443459117785096,-0.014049889519810677
1775341734786832100,3.85983203125,0.008552107028663158,-0.010995565913617611,0.006719512399286032
1775341734803619000,3.876619140625,0.014660755172371864,-0.009162971749901772,0
1775341734820406000,3.893406005859375,0.002443459117785096,-0.006108647678047419,-0.011606430634856224
1775341734837193200,3.910193115234375,0.01649334840476513,-0.010995565913617611,-0.004276053514331579
1775341734853980200,3.926980224609375,0.0030543238390237093,-0.006108647678047419,0.006719512399286032
1775341734870767000,3.94376708984375,0.017715077847242355,-0.010995565913617611,-0.007330377586185932
1775341734887554000,3.960553955078125,0.001832594396546483,-0.0030543238390237093,-0.010995565913617611
1775341734904341200,3.97734130859375,0.018325943499803543,-0.013439024798572063,0.001221729558892548
1775341734921128200,3.994128173828125,0.004276053514331579,-0.004276053514331579,0.002443459117785096
1775341734937915100,4.0109150390625,0.01588248461484909,-0.012217295356094837,-0.009773836471140385
1775341734954702300,4.027702392578125,0.0054977829568088055,-0.006108647678047419,-0.006719512399286032
1775341734971489300,4.0444892578125,0.014049889519810677,-0.010384701192378998,0.0030543238390237093
1775341734988276200,4.061276123046875,0.006108647678047419,-0.006108647678047419,-0.0030543238390237093
1775341735005063200,4.078063232421875,0.011606430634856224,-0.008552107028663158,-0.0054977829568088055
1775341735021850400,4.094850341796875,0.009162971749901772,-0.006719512399286032,-0.003665188793092966
1775341735038637300,4.11163720703125,0.011606430634856224,-0.007330377586185932,-0.002443459117785096
1775341735055424300,4.12842431640625,0.009162971749901772,-0.009162971749901772,-0.004276053514331579
1775341735072211500,4.14521142578125,0.010995565913617611,-0.007330377586185932,-0.0054977829568088055
1775341735088998400,4.161998291015625,0.009773836471140385,-0.008552107028663158,-0.003665188793092966
1775341735105785300,4.178785400390625,0.010384701192378998,-0.006719512399286032,-0.001832594396546483
1775341735122572500,4.195572509765625,0.009162971749901772,-0.008552107028663158,-0.002443459117785096
1775341735139359500,4.212359375,0.010384701192378998,-0.008552107028663158,-0.003665188793092966
1775341735156146400,4.229146484375,0.007941242307424545,-0.007330377586185932,-0.0030543238390237093
1775341735172933400,4.245933349609375,0.011606430634856224,-0.007941242307424545,-0.004276053514331579
1775341735189720600,4.262720458984375,0.009162971749901772,-0.006719512399286032,-0.004276053514331579
1775341735206507500,4.279507568359375,0.010995565913617611,-0.008552107028663158,-0.002443459117785096
1775341735223294500,4.29629443359375,0.008552107028663158,-0.007330377586185932,-0.003665188793092966
1775341735240081700,4.31308154296875,0.010995565913617611,-0.007330377586185932,-0.004276053514331579
1775341735256868600,4.32986865234375,0.008552107028663158,-0.007941242307424545,-0.004276053514331579
1775341735273655600,4.346655517578125,0.010995565913617611,-0.007330377586185932,-0.004276053514331579
1775341735290442800,4.36344287109375,0.010384701192378998,-0.006719512399286032,-0.0030543238390237093
1775341735307229700,4.380229736328125,0.010995565913617611,-0.007941242307424545,-0.004276053514331579
1775341735324016600,4.3970166015625,0.008552107028663158,-0.007941242307424545,-0.0054977829568088055
1775341735340803800,4.413803955078125,0.011606430634856224,-0.008552107028663158,-0.004276053514331579
1775341735357590800,4.4305908203125,0.009162971749901772,-0.007330377586185932,-0.0054977829568088055
1775341735374377700,4.447377685546875,0.012217295356094837,-0.009773836471140385,-0.003665188793092966
1775341735391165000,4.4641650390625,0.009162971749901772,-0.006719512399286032,-0.0030543238390237093
1775341735407952000,4.480951904296875,0.010384701192378998,-0.007941242307424545,-0.004276053514331579
1775341735424738800,4.49773876953125,0.007941242307424545,-0.006719512399286032,-0.003665188793092966
1775341735441525800,4.51452587890625,0.010995565913617611,-0.007941242307424545,-0.003665188793092966
1775341735458313000,4.53131298828125,0.007941242307424545,-0.006108647678047419,-0.006108647678047419
1775341735475100000,4.548099853515625,0.011606430634856224,-0.007330377586185932,-0.006719512399286032
1775341735491886800,4.564886962890625,0.009162971749901772,-0.007941242307424545,-0.004886918235570192
1775341735508674000,4.581674072265625,0.011606430634856224,-0.006719512399286032,-0.003665188793092966
1775341735525461000,4.5984609375,0.007941242307424545,-0.007330377586185932,-0.003665188793092966
1775341735542248000,4.615248046875,0.011606430634856224,-0.009162971749901772,-0.0030543238390237093
1775341735559035100,4.63203515625,0.009162971749901772,-0.009162971749901772,-0.001221729558892548
1775341735575822000,4.648822021484375,0.009773836471140385,-0.007941242307424545,-0.003665188793092966
1775341735592609000,4.665609130859375,0.009773836471140385,-0.008552107028663158,-0.0054977829568088055
1775341735609396200,4.682396240234375,0.009773836471140385,-0.007941242307424545,-0.0054977829568088055
1775341735626183200,4.69918310546875,0.008552107028663158,-0.006108647678047419,-0.0054977829568088055
1775341735642970000,4.71597021484375,0.008552107028663158,-0.007330377586185932,-0.009162971749901772
1775341735659757300,4.73275732421875,0.010384701192378998,-0.006719512399286032,-0.011606430634856224
1775341735676544300,4.749544189453125,0.010384701192378998,-0.009773836471140385,-0.020769402384757996
1775341735693331200,4.766331298828125,0.01282816007733345,-0.008552107028663158,-0.024434590712189674
1775341735710118400,4.783118408203125,0.008552107028663158,-0.006108647678047419,-0.02260199747979641
1775341735726905300,4.7999052734375,0.009773836471140385,-0.006719512399286032,-0.010384701192378998
1775341735743692300,4.8166923828125,0.01282816007733345,-0.0054977829568088055,-0.01649334840476513
1775341735760479500,4.8334794921875,0.007330377586185932,-0.007941242307424545,-0.025045456364750862
1775341735777266400,4.850266357421875,0.007330377586185932,-0.004886918235570192,-0.023212861269712448
1775341735794053400,4.867053466796875,0.010995565913617611,-0.007941242307424545,-0.023823726922273636
1775341735810840600,4.883840576171875,0.009162971749901772,-0.007330377586185932,-0.02871064469218254
1775341735827627500,4.90062744140625,0.0054977829568088055,-0.007330377586185932,-0.02260199747979641
1775341735844414500,4.91741455078125,0.010384701192378998,-0.007330377586185932,-0.007330377586185932
1775341735861201700,4.93420166015625,0.007330377586185932,-0.006719512399286032,0.001221729558892548
1775341735877988600,4.950988525390625,0.010384701192378998,-0.009773836471140385,-0.004276053514331579
1775341735894775600,4.967775634765625,0.0054977829568088055,-0.003665188793092966,-0.0030543238390237093
1775341735911562800,4.984562744140625,0.010384701192378998,-0.009162971749901772,-0.002443459117785096
1775341735928349700,5.001349609375,0.006719512399286032,-0.006108647678047419,-0.012217295356094837
1775341735945136600,5.01813671875,0.009162971749901772,-0.006719512399286032,-0.010384701192378998
1775341735961923800,5.034923828125,0.004276053514331579,-0.006108647678047419,-0.023823726922273636
1775341735978710800,5.051710693359375,0.009162971749901772,-0.007330377586185932,-0.017715077847242355
1775341735995497700,5.068497802734375,0.007330377586185932,-0.004886918235570192,-0.020769402384757996
1775341736012285000,5.085284912109375,0.007330377586185932,-0.006108647678047419,-0.010995565913617611
1775341736029072000,5.10207177734375,0.006108647678047419,-0.0054977829568088055,-0.01282816007733345
1775341736045859000,5.118859130859375,0.006719512399286032,-0.007941242307424545,-0.01282816007733345
1775341736062646000,5.13564599609375,0.006719512399286032,-0.006719512399286032,-0.008552107028663158
1775341736079433000,5.152432861328125,0.006108647678047419,-0.006719512399286032,-0.01282816007733345
1775341736096220200,5.16922021484375,0.006108647678047419,-0.006719512399286032,-0.030543239787220955
1775341736113007000,5.186007080078125,0.0054977829568088055,-0.006108647678047419,-0.056199558079242706
1775341736129794000,5.2027939453125,0.002443459117785096,-0.004886918235570192,-0.09834922850131989
1775341736146581200,5.219581298828125,0.002443459117785096,-0.006719512399286032,-0.0513126403093338
1775341736163368200,5.2363681640625,-0.006108647678047419,-0.001221729558892548,-0.06963858753442764
1775341736180155100,5.253155029296875,-0.000610864779446274,-0.004276053514331579,-0.10384701192378998
1775341736196942300,5.2699423828125,-0.006108647678047419,-0.004886918235570192,-0.11117739230394363
1775341736213729300,5.286729248046875,-0.014049889519810677,-0.001832594396546483,-0.1588248461484909
1775341736230516500,5.3035166015625,-0.002443459117785096,-0.003665188793092966,-0.13011419773101807
1775341736247303400,5.320303466796875,-0.01588248461484909,-0.001832594396546483,-0.08857539296150208
1775341736264090400,5.33709033203125,-0.01588248461484909,0.002443459117785096,-0.14538581669330597
1775341736280877600,5.353877685546875,-0.017715077847242355,-0.001832594396546483,-0.20647229254245758
1775341736297664500,5.37066455078125,-0.014660755172371864,-0.0030543238390237093,-0.1899789422750473
1775341736314451500,5.387451416015625,-0.021380268037319183,0,-0.2632827162742615
1775341736331238700,5.40423876953125,-0.014049889519810677,-0.000610864779446274,-0.35124725103378296
1775341736348025600,5.421025634765625,-0.013439024798572063,-0.0030543238390237093,-0.37201663851737976
1775341736364812800,5.437812744140625,-0.018325943499803543,0.0030543238390237093,-0.42394015192985535
1775341736381599700,5.454599853515625,-0.007330377586185932,0.000610864779446274,-0.5418370366096497
1775341736398386700,5.47138671875,-0.01954767294228077,0.009773836471140385,-0.9321796298027039
1775341736415174000,5.488173828125,-0.024434590712189674,0.024434590712189674,-1.7580687999725342
1775341736431960800,5.5049609375,-0.039706211537122726,0.0256563201546669,-2.2846343517303467
1775341736448748000,5.521748046875,-0.03909534588456154,0.023212861269712448,-2.5778493881225586
1775341736465535000,5.538534912109375,-0.039706211537122726,0.0256563201546669,-2.6529858112335205
1775341736482322000,5.555322021484375,-0.02871064469218254,0.020158538594841957,-2.428187608718872
1775341736499109000,5.572109130859375,-0.017715077847242355,0.017715077847242355,-2.0580034255981445
1775341736515896000,5.58889599609375,-0.009162971749901772,0.004276053514331579,-1.6383392810821533
1775341736532683000,5.60568310546875,-0.007941242307424545,0.010384701192378998,-1.2699878215789795
1775341736549470200,5.62247021484375,-0.003665188793092966,0.004276053514331579,-0.9896009564399719
1775341736566257200,5.639257080078125,-0.011606430634856224,0.0030543238390237093,-0.9224058389663696
1775341736583044400,5.65604443359375,-0.014049889519810677,0.006108647678047419,-1.0439679622650146
1775341736599831300,5.672831298828125,-0.027488915249705315,0.007941242307424545,-1.2186752557754517
1775341736616618500,5.689618408203125,-0.03481929376721382,0.01893680728971958,-1.4172062873840332
1775341736633405400,5.706405517578125,-0.03237583488225937,0.01893680728971958,-1.581528902053833
1775341736650192400,5.7231923828125,-0.046425722539424896,0.02932151034474373,-1.775783896446228
1775341736666979600,5.7399794921875,-0.024434590712189674,0.05558869615197182,-1.9285000562667847
1775341736683766500,5.7567666015625,0.11117739230394363,-0.05803215503692627,1.4135410785675049
1775341736700553500,5.773553466796875,-0.12095122784376144,0.12217295914888382,-0.842382550239563
1775341736717340700,5.790340576171875,0.13744457066059113,-0.05925388261675835,0.039706211537122726
1775341736734127600,5.807127685546875,-0.10140355676412582,0.059864748269319534,0.002443459117785096
1775341736750914800,5.823914794921875,0.09101885557174683,-0.06414080411195755,-0.006108647678047419
1775341736767701800,5.84070166015625,-0.033597562462091446,0.031154103577136993,-0.003665188793092966
1775341736784488700,5.85748876953125,0.025045456364750862,-0.029932374134659767,-0.030543239787220955
1775341736801276000,5.87427587890625,0.01893680728971958,-0.0030543238390237093,0.012217295356094837
1775341736818062800,5.891062744140625,-0.009773836471140385,-0.000610864779446274,-0.0409279391169548
1775341736834850000,5.90785009765625,0.03481929376721382,-0.0256563201546669,-0.012217295356094837
1775341736851637000,5.924636962890625,-0.007941242307424545,0.01282816007733345,0.017715077847242355
1775341736868424000,5.941423828125,0.029932374134659767,-0.024434590712189674,-0.05803215503692627
1775341736885211100,5.958211181640625,-0.004276053514331579,0.011606430634856224,0.02871064469218254
1775341736901998000,5.974998046875,0.015271619893610477,-0.01893680728971958,-0.026878049597144127
1775341736918785300,5.991785400390625,0.0030543238390237093,0,0.009162971749901772
1775341736935572200,6.008572265625,0.006719512399286032,-0.007330377586185932,-0.004886918235570192
1775341736952359400,6.025359375,0.006719512399286032,-0.009773836471140385,-0.01954767294228077
1775341736969146400,6.042146484375,0.01282816007733345,-0.0054977829568088055,0.01954767294228077
1775341736985933300,6.058933349609375,0.01649334840476513,-0.01649334840476513,-0.033597562462091446
1775341737002720500,6.075720458984375,0.014049889519810677,-0.0054977829568088055,0.01282816007733345
1775341737019507500,6.092507568359375,0.01893680728971958,-0.01954767294228077,-0.0054977829568088055
1775341737036294700,6.109294677734375,0.012217295356094837,-0.014660755172371864,0.021991131827235222
1775341737053081600,6.12608154296875,0.01649334840476513,-0.017715077847242355,0.013439024798572063
1775341737069868800,6.142868896484375,0.007330377586185932,-0.011606430634856224,-0.011606430634856224
1775341737086655700,6.15965576171875,0.017104214057326317,-0.012217295356094837,0.021380268037319183
1775341737103442700,6.176442626953125,0.007330377586185932,-0.01282816007733345,0.03848448023200035
1775341737120230000,6.19322998046875,0.0054977829568088055,-0.002443459117785096,-0.015271619893610477
1775341737137017000,6.21001708984375,0.004276053514331579,-0.0030543238390237093,-0.0030543238390237093
1775341737153804000,6.226803955078125,-0.006719512399286032,0.001221729558892548,-0.06963858753442764
1775341737170591000,6.243591064453125,0,0.003665188793092966,-0.053756099194288254
1775341737187378200,6.260378173828125,-0.006108647678047419,-0.001221729558892548,-0.013439024798572063
1775341737204165000,6.2771650390625,0.013439024798572063,-0.009162971749901772,0.01954767294228077
1775341737220952300,6.293952392578125,-0.009162971749901772,0.0054977829568088055,-0.03298669680953026
1775341737237739300,6.3107392578125,0.020158538594841957,-0.010384701192378998,0.011606430634856224
1775341737254526500,6.3275263671875,-0.000610864779446274,-0.004276053514331579,0.004886918235570192
1775341737271313400,6.3443134765625,0.017715077847242355,-0.009162971749901772,-0.05192350596189499
1775341737288100600,6.3611005859375,0.008552107028663158,-0.008552107028663158,0.017715077847242355
1775341737304887600,6.377887451171875,0.023823726922273636,-0.017715077847242355,-0.006719512399286032
1775341737321674800,6.3946748046875,0.007330377586185932,-0.006108647678047419,-0.010995565913617611
1775341737338461700,6.411461669921875,0.026878049597144127,-0.020769402384757996,-0.004276053514331579
1775341737355249000,6.428248779296875,0.02626718580722809,-0.01588248461484909,-0.01588248461484909
1775341737372035800,6.445035888671875,0.0030543238390237093,-0.006719512399286032,0.009162971749901772
1775341737388823000,6.461822998046875,0.033597562462091446,-0.021380268037319183,-0.02626718580722809
1775341737405610000,6.47860986328125,-0.001221729558892548,-0.0054977829568088055,0.010384701192378998
1775341737422397200,6.495397216796875,0.031154103577136993,-0.02260199747979641,0.03298669680953026
1775341737439184100,6.51218408203125,-0.007330377586185932,0.001832594396546483,-0.028099779039621353
1775341737455971300,6.528971435546875,0.014049889519810677,-0.009773836471140385,-0.013439024798572063
1775341737472758300,6.54575830078125,-0.006719512399286032,0.002443459117785096,-0.01954767294228077
1775341737489545500,6.56254541015625,0.009162971749901772,-0.0030543238390237093,-0.001221729558892548
1775341737506332400,6.57933251953125,-0.006719512399286032,0.006108647678047419,-0.001221729558892548
1775341737523119600,6.59611962890625,0.009773836471140385,-0.004276053514331579,-0.017104214057326317
1775341737539906600,6.612906494140625,-0.01282816007733345,0.004276053514331579,-0.011606430634856224
1775341737556693800,6.62969384765625,0.017715077847242355,-0.011606430634856224,0.001832594396546483
1775341737573480700,6.646480712890625,0.001221729558892548,-0.007941242307424545,-0.017715077847242355
1775341737590268000,6.663267822265625,0.01588248461484909,-0.010995565913617611,-0.001832594396546483
1775341737607054800,6.680054931640625,0.013439024798572063,-0.013439024798572063,-0.0054977829568088055
1775341737623842000,6.696842041015625,0.027488915249705315,-0.018325943499803543,-0.001221729558892548
1775341737640629000,6.71362890625,0.025045456364750862,-0.014049889519810677,-0.01954767294228077
1775341737657416200,6.730416259765625,0.01954767294228077,-0.012217295356094837,-0.001221729558892548
1775341737674203100,6.747203125,0.0256563201546669,-0.01649334840476513,-0.009162971749901772
1775341737690990300,6.763990234375,0.010384701192378998,-0.010995565913617611,0.017104214057326317
1775341737707777300,6.78077734375,0.01588248461484909,-0.01649334840476513,0.01588248461484909
1775341737724564500,6.797564453125,0.001221729558892548,-0.0054977829568088055,0.009773836471140385
1775341737741351700,6.8143515625,0.008552107028663158,-0.008552107028663158,-0.007941242307424545
1775341737758138600,6.831138671875,-0.011606430634856224,0.009162971749901772,-0.05864302068948746
1775341737774925800,6.84792578125,0.004886918235570192,0.000610864779446274,0.05070177838206291
1775341737791712800,6.864712646484375,-0.002443459117785096,0.007330377586185932,-0.033597562462091446
1775341737808500000,6.8815,0.003665188793092966,0.001221729558892548,-0.018325943499803543
1775341737825287000,6.898286865234375,-0.007330377586185932,0.002443459117785096,0.007941242307424545
1775341737842074000,6.91507421875,0.007330377586185932,-0.008552107028663158,-0.018325943499803543
1775341737858861000,6.931861083984375,0.01649334840476513,-0.01282816007733345,-0.004276053514331579
1775341737875648300,6.948648193359375,0.01588248461484909,-0.01588248461484909,-0.009162971749901772
1775341737892435200,6.965435302734375,0.020158538594841957,-0.010995565913617611,-0.007330377586185932
1775341737909222400,6.982222412109375,0.02871064469218254,-0.020158538594841957,-0.008552107028663158
1775341737926009300,6.99900927734375,0.02626718580722809,-0.020158538594841957,-0.000610864779446274
1775341737942796500,7.015796630859375,0.014049889519810677,-0.014660755172371864,-0.014049889519810677
1775341737959583700,7.032583740234375,0.017104214057326317,-0.017104214057326317,0.02260199747979641
1775341737976370700,7.04937060546875,0.013439024798572063,-0.013439024798572063,0.029932374134659767
1775341737993158000,7.066157958984375,0.007330377586185932,-0.009773836471140385,0.001221729558892548
1775341738009944800,7.08294482421875,0.004886918235570192,-0.002443459117785096,-0.001221729558892548
1775341738026732000,7.09973193359375,-0.001221729558892548,0.000610864779446274,-0.03237583488225937
1775341738043519000,7.11651904296875,-0.0054977829568088055,0.013439024798572063,-0.07147117704153061
1775341738060306200,7.13330615234375,-0.001221729558892548,0.0030543238390237093,0.0256563201546669
1775341738077093000,7.150093017578125,0.004886918235570192,-0.004886918235570192,0.007941242307424545
1775341738093880300,7.16688037109375,-0.001221729558892548,0,-0.0256563201546669
1775341738110667300,7.183667236328125,0.012217295356094837,-0.014049889519810677,-0.0030543238390237093
1775341738127454500,7.200454345703125,0.018325943499803543,-0.014049889519810677,0.006719512399286032
1775341738144241700,7.21724169921875,0.01893680728971958,-0.01649334840476513,-0.020769402384757996
1775341738161028600,7.234028564453125,0.017104214057326317,-0.014049889519810677,0.0030543238390237093
1775341738177815800,7.25081591796875,0.023823726922273636,-0.015271619893610477,-0.0030543238390237093
1775341738194602800,7.267602783203125,0.021991131827235222,-0.01588248461484909,-0.0054977829568088055
1775341738211390000,7.284389892578125,0.011606430634856224,-0.010995565913617611,0.012217295356094837
1775341738228177000,7.301177001953125,0.0030543238390237093,-0.006719512399286032,-0.010995565913617611
1775341738244964000,7.317964111328125,0.009162971749901772,-0.007941242307424545,0.023823726922273636
1775341738261751000,7.3347509765625,-0.001832594396546483,-0.001832594396546483,-0.002443459117785096
1775341738278538200,7.351538330078125,-0.001221729558892548,0.001221729558892548,-0.008552107028663158
1775341738295325400,7.368325439453125,-0.000610864779446274,0.0030543238390237093,0.014660755172371864
1775341738312112400,7.3851123046875,0.007941242307424545,-0.0030543238390237093,-0.03543015569448471
1775341738328899600,7.401899658203125,0.001832594396546483,-0.006719512399286032,0.027488915249705315
1775341738345686500,7.4186865234375,0.013439024798572063,-0.008552107028663158,0.008552107028663158
1775341738362473700,7.4354736328125,0.004886918235570192,-0.010995565913617611,-0.01893680728971958
1775341738379260700,7.4522607421875,0.027488915249705315,-0.020158538594841957,0.010384701192378998
1775341738396048000,7.4690478515625,0.012217295356094837,-0.01282816007733345,-0.010384701192378998
1775341738412835000,7.4858349609375,0.025045456364750862,-0.014049889519810677,-0.007941242307424545
1775341738429622000,7.5026220703125,0.015271619893610477,-0.010995565913617611,0.004886918235570192
1775341738446409200,7.5194091796875,0.021991131827235222,-0.01649334840476513,0.007941242307424545
1775341738463196200,7.536196044921875,0.010995565913617611,-0.01282816007733345,0.024434590712189674
1775341738479983400,7.5529833984375,0.007941242307424545,-0.010995565913617611,-0.001221729558892548
1775341738496770300,7.569770263671875,0.003665188793092966,-0.0054977829568088055,0.01282816007733345
1775341738513557500,7.5865576171875,0.006719512399286032,-0.004276053514331579,-0.003665188793092966
1775341738530344700,7.6033447265625,0.003665188793092966,-0.001221729558892548,-0.017104214057326317
1775341738547131600,7.620131591796875,0.006719512399286032,-0.003665188793092966,-0.037262752652168274
1775341738563918800,7.6369189453125,-0.001221729558892548,0.001832594396546483,-0.04520399495959282
1775341738580705800,7.653705810546875,0.006108647678047419,-0.006719512399286032,0.03298669680953026
1775341738597493000,7.670492919921875,0.007330377586185932,-0.006108647678047419,-0.018325943499803543
1775341738614280000,7.687280029296875,0.004276053514331579,-0.007330377586185932,-0.014660755172371864
1775341738631067100,7.704067138671875,0.017715077847242355,-0.015271619893610477,0.012217295356094837
1775341738647854300,7.720854248046875,0.013439024798572063,-0.008552107028663158,-0.007330377586185932
1775341738664641300,7.737641357421875,0.015271619893610477,-0.008552107028663158,-0.013439024798572063
1775341738681428500,7.754428466796875,0.01649334840476513,-0.01282816007733345,0.010995565913617611
1775341738698215400,7.77121533203125,0.018325943499803543,-0.013439024798572063,0.010384701192378998
1775341738715002600,7.788002685546875,0.009162971749901772,-0.009773836471140385,0.004886918235570192
1775341738731789800,7.804789794921875,0.01282816007733345,-0.009162971749901772,0.0054977829568088055
1775341738748576800,7.82157666015625,0.002443459117785096,-0.002443459117785096,-0.01588248461484909
1775341738765364000,7.838364013671875,0.003665188793092966,0,-0.010384701192378998
1775341738782151000,7.85515087890625,-0.001221729558892548,0.0030543238390237093,0.010384701192378998
1775341738798938000,7.871938232421875,0.001832594396546483,0.001221729558892548,0.0030543238390237093
1775341738815725300,7.888725341796875,-0.000610864779446274,0.006719512399286032,-0.04276053607463837
1775341738832512300,7.90551220703125,0.002443459117785096,-0.002443459117785096,0.01588248461484909
1775341738849299500,7.922299560546875,0.0054977829568088055,-0.001832594396546483,-0.004276053514331579
1775341738866086400,7.93908642578125,0.010995565913617611,-0.0054977829568088055,-0.013439024798572063
1775341738882873600,7.95587353515625,0.017715077847242355,-0.009773836471140385,-0.001832594396546483
1775341738899660500,7.97266064453125,0.01893680728971958,-0.01282816007733345,-0.010995565913617611
1775341738916447700,7.98944775390625,0.018325943499803543,-0.010995565913617611,0.001221729558892548
1775341738933235000,8.00623486328125,0.01649334840476513,-0.013439024798572063,-0.01282816007733345
1775341738950022000,8.02302197265625,0.023212861269712448,-0.01649334840476513,0.000610864779446274
1775341738966809000,8.03980908203125,0.014660755172371864,-0.014049889519810677,-0.013439024798572063
1775341738983596000,8.056595947265626,0.020769402384757996,-0.020158538594841957,0.009773836471140385
1775341739000383200,8.07338330078125,0.01649334840476513,-0.014660755172371864,0.029932374134659767
1775341739017170400,8.09017041015625,0.014660755172371864,-0.015271619893610477,0.021991131827235222
1775341739033957400,8.106957275390625,0.01282816007733345,-0.01649334840476513,0.024434590712189674
1775341739050744600,8.12374462890625,0.009773836471140385,-0.008552107028663158,-0.011606430634856224
1775341739067531800,8.14053173828125,0.009162971749901772,-0.009773836471140385,0.02871064469218254
1775341739084318700,8.157318603515625,0.010384701192378998,-0.004276053514331579,-0.028099779039621353
1775341739101106000,8.17410595703125,0.003665188793092966,-0.001221729558892548,-0.030543239787220955
1775341739117892900,8.190892822265624,0.009773836471140385,-0.007941242307424545,-0.010384701192378998
1775341739134680000,8.20768017578125,-0.002443459117785096,-0.003665188793092966,-0.049480047076940536
1775341739151467300,8.22446728515625,0.004276053514331579,-0.004276053514331579,-0.021380268037319183
1775341739168254200,8.241254150390626,0.0030543238390237093,-0.006108647678047419,0.012217295356094837
1775341739185041400,8.25804150390625,0.011606430634856224,-0.007941242307424545,-0.028099779039621353
1775341739201828400,8.274828369140625,0.004276053514331579,-0.006108647678047419,0.01954767294228077
1775341739218615600,8.291615478515626,0.013439024798572063,-0.010384701192378998,-0.004886918235570192
1775341739235402800,8.30840283203125,0.003665188793092966,-0.0030543238390237093,-0.02626718580722809
1775341739252189700,8.325189697265625,0.014660755172371864,-0.013439024798572063,0.006719512399286032
1775341739268977000,8.341976806640625,0.011606430634856224,-0.01588248461484909,0.012217295356094837
1775341739285764000,8.35876416015625,0.012217295356094837,-0.010995565913617611,-0.024434590712189674
1775341739302551000,8.375551025390624,0.012217295356094837,-0.014049889519810677,0.008552107028663158
1775341739319338200,8.392338134765625,0.017104214057326317,-0.014049889519810677,-0.01893680728971958
1775341739336125200,8.409125244140625,0.013439024798572063,-0.014660755172371864,0.006719512399286032
1775341739352912400,8.425912353515624,0.018325943499803543,-0.01649334840476513,0.009773836471140385
1775341739369699600,8.442699462890625,0.01282816007733345,-0.01649334840476513,0.004276053514331579
1775341739386486500,8.459486572265625,0.010995565913617611,-0.010995565913617611,-0.006719512399286032
1775341739403273700,8.476273681640626,0.013439024798572063,-0.014660755172371864,0.01588248461484909
1775341739420061000,8.49306103515625,0.014660755172371864,-0.01588248461484909,0.06047561392188072
1775341739436847900,8.509847900390625,0.01649334840476513,-0.007941242307424545,-0.04214967042207718
1775341739453635000,8.526635009765625,0.008552107028663158,-0.004886918235570192,0.003665188793092966
1775341739470422000,8.543422119140626,0.015271619893610477,-0.007941242307424545,0.012217295356094837
1775341739487209200,8.560209228515625,0.01649334840476513,-0.002443459117785096,-0.02260199747979641
1775341739503996400,8.576996337890625,0.001221729558892548,0.000610864779446274,-0.02260199747979641
1775341739520783400,8.593783447265626,0.014660755172371864,-0.017715077847242355,0.004886918235570192
1775341739537570600,8.610570556640624,0.006719512399286032,-0.010384701192378998,0.06352993845939636
1775341739554357800,8.627357666015625,0.015271619893610477,-0.014660755172371864,0.027488915249705315
1775341739571144700,8.644144775390625,0.0030543238390237093,-0.021991131827235222,0.06841685622930527
1775341739587932000,8.660931884765626,0.025045456364750862,-0.021380268037319183,0.10323614627122879
1775341739604718800,8.67771875,0.000610864779446274,-0.014049889519810677,-0.006108647678047419
1775341739621506000,8.694506103515625,0.018325943499803543,-0.010384701192378998,0.023823726922273636
1775341739638293200,8.711293212890626,0.013439024798572063,-0.007941242307424545,0.040317077189683914
1775341739655080200,8.728080078125,0.01649334840476513,-0.006108647678047419,0.006719512399286032
1775341739671867400,8.744867431640625,0.01282816007733345,-0.0030543238390237093,0.025045456364750862
1775341739688654600,8.761654541015625,0.004276053514331579,0,-0.017715077847242355
1775341739705441500,8.778441650390626,0.01282816007733345,-0.007330377586185932,0.03848448023200035
1775341739722228700,8.795228759765624,-0.000610864779446274,-0.009162971749901772,-0.003665188793092966
1775341739739015700,8.812015625,0,-0.000610864779446274,0.01649334840476513
1775341739755803000,8.828802978515625,0.006108647678047419,-0.0054977829568088055,-0.007941242307424545
1775341739772590000,8.845590087890624,0.000610864779446274,0.001221729558892548,-0.014660755172371864
1775341739789377000,8.862376953125,0.001221729558892548,0.000610864779446274,-0.026878049597144127
1775341739806164200,8.879164306640625,-0.000610864779446274,0.001832594396546483,-0.11178825795650482
1775341739822951400,8.895951416015626,0.000610864779446274,-0.004276053514331579,0.040317077189683914
1775341739839738400,8.91273828125,0.0030543238390237093,-0.007330377586185932,-0.040317077189683914
1775341739856525600,8.929525634765625,-0.0030543238390237093,-0.003665188793092966,-0.08613193035125732
1775341739873312800,8.946312744140625,-0.0030543238390237093,-0.004276053514331579,-0.11056652665138245
1775341739890099700,8.963099609375,0.000610864779446274,-0.004276053514331579,-0.009162971749901772
1775341739906887000,8.979886962890625,0.01588248461484909,-0.015271619893610477,0.04764745384454727
1775341739923674000,8.996674072265625,0.001221729558892548,0.003665188793092966,-0.05436696484684944
1775341739940461000,9.0134609375,0.017104214057326317,-0.007941242307424545,0.010384701192378998
1775341739957248300,9.030248291015624,0.01588248461484909,-0.011606430634856224,-0.006108647678047419
1775341739974035200,9.04703515625,0.008552107028663158,0.001221729558892548,-0.033597562462091446
1775341739990822400,9.063822509765625,0.01954767294228077,-0.01649334840476513,-0.0054977829568088055
1775341740007609600,9.080609619140626,0.01649334840476513,-0.009773836471140385,0.014660755172371864
1775341740024396500,9.097396484375,0.01588248461484909,-0.010995565913617611,-0.013439024798572063
1775341740041183700,9.114183837890625,0.010384701192378998,-0.004276053514331579,0.000610864779446274
1775341740057971000,9.130970947265626,0.011606430634856224,0.000610864779446274,-0.01893680728971958
1775341740074758000,9.1477578125,0.007941242307424545,-0.004276053514331579,-0.014660755172371864
1775341740091545000,9.164545166015625,0.015271619893610477,-0.006719512399286032,0.017104214057326317
1775341740108332300,9.181332275390625,0.0030543238390237093,-0.003665188793092966,-0.011606430634856224
1775341740125119200,9.198119140625,0.007330377586185932,-0.006108647678047419,-0.009162971749901772
1775341740141906400,9.214906494140624,-0.001832594396546483,-0.0030543238390237093,-0.000610864779446274
1775341740158693600,9.231693603515625,0.009162971749901772,-0.010995565913617611,0.001832594396546483
1775341740175480600,9.24848046875,-0.001221729558892548,-0.003665188793092966,-0.01649334840476513
1775341740192267800,9.265267822265624,0.010995565913617611,-0.010384701192378998,-0.004886918235570192
1775341740209054700,9.2820546875,0.009162971749901772,-0.007941242307424545,0.012217295356094837
1775341740225842000,9.298842041015625,0.017715077847242355,-0.014049889519810677,-0.021991131827235222
1775341740242629000,9.315629150390626,0.013439024798572063,-0.009162971749901772,-0.001221729558892548
1775341740259416000,9.332416015625,0.017104214057326317,-0.014660755172371864,0.001832594396546483
1775341740276203300,9.349203369140625,0.018325943499803543,-0.014049889519810677,0.002443459117785096
1775341740292990500,9.365990478515625,0.018325943499803543,-0.017715077847242355,0.05070177838206291
1775341740309777400,9.38277734375,0.01282816007733345,-0.010995565913617611,-0.004276053514331579
1775341740326564600,9.399564697265625,0.008552107028663158,-0.007941242307424545,0
1775341740343351800,9.416351806640625,0.012217295356094837,-0.009162971749901772,0.01649334840476513
1775341740360138800,9.433138671875,0.000610864779446274,0.001221729558892548,-0.020158538594841957
1775341740376926000,9.449926025390624,0.000610864779446274,0.004276053514331579,-0.08063415437936783
1775341740393713200,9.466713134765625,0.004276053514331579,-0.002443459117785096,0.02260199747979641
1775341740410500000,9.4835,0.007941242307424545,-0.003665188793092966,-0.015271619893610477
1775341740427287300,9.500287353515626,-0.001221729558892548,-0.001832594396546483,-0.011606430634856224
1775341740444074200,9.51707421875,0.011606430634856224,-0.013439024798572063,0.020769402384757996
1775341740460861400,9.533861328125,0.009773836471140385,-0.010384701192378998,0.004276053514331579
1775341740477648600,9.550648681640626,0.01588248461484909,-0.006108647678047419,-0.010995565913617611
1775341740494435800,9.567435791015624,0.015271619893610477,-0.011606430634856224,0.013439024798572063
1775341740511222800,9.584222900390625,0.020769402384757996,-0.015271619893610477,0.002443459117785096
1775341740528010000,9.601010009765625,0.012217295356094837,-0.008552107028663158,0.009162971749901772
1775341740544797200,9.617797119140626,0.010995565913617611,-0.010384701192378998,0.014049889519810677
1775341740561584000,9.634584228515624,0.006719512399286032,-0.010384701192378998,0.01893680728971958
1775341740578371300,9.651371337890625,0.010995565913617611,-0.007941242307424545,0.011606430634856224
1775341740595158500,9.668158447265625,-0.001832594396546483,-0.001221729558892548,-0.021991131827235222
1775341740611945500,9.684945556640624,0.010384701192378998,-0.007330377586185932,0.002443459117785096
1775341740628732700,9.701732666015625,0.002443459117785096,0.000610864779446274,-0.033597562462091446
1775341740645520000,9.718519775390625,0.009773836471140385,-0.0054977829568088055,0.004886918235570192
1775341740662306800,9.735306884765626,0.002443459117785096,-0.002443459117785096,-0.02260199747979641
1775341740679094000,9.752093994140624,0.01588248461484909,-0.01649334840476513,0.013439024798572063
1775341740695881000,9.768880859375,0.011606430634856224,-0.01282816007733345,0.009162971749901772
1775341740712668200,9.785668212890625,0.01893680728971958,-0.014049889519810677,-0.000610864779446274
1775341740729455400,9.802455322265626,0.015271619893610477,-0.014660755172371864,0.010995565913617611
1775341740746242600,9.81924267578125,0.01649334840476513,-0.013439024798572063,0.021991131827235222
1775341740763029500,9.836029541015625,0.01588248461484909,-0.014660755172371864,0.028099779039621353
1775341740779816700,9.852816650390626,0.011606430634856224,-0.014049889519810677,0.0054977829568088055
1775341740796604000,9.86960400390625,0.009162971749901772,-0.008552107028663158,0.010995565913617611
1775341740813390800,9.886390869140625,0.009773836471140385,-0.001221729558892548,-0.021380268037319183
1775341740830178000,9.903177978515625,0.001221729558892548,-0.002443459117785096,-0.002443459117785096
1775341740846965200,9.91996533203125,0.007941242307424545,-0.002443459117785096,0.014660755172371864
1775341740863752200,9.936752197265625,-0.009162971749901772,0.006108647678047419,-0.06108647957444191
1775341740880539400,9.953539306640625,0.003665188793092966,0.004276053514331579,-0.07147117704153061
1775341740897326600,9.97032666015625,-0.007330377586185932,0.002443459117785096,0.05742128938436508
1775341740914113500,9.987113525390624,0.003665188793092966,0.003665188793092966,-0.05070177838206291
1775341740930900700,10.003900634765625,-0.003665188793092966,0.001832594396546483,0.0054977829568088055
1775341740947687700,10.020687744140625,0.01282816007733345,-0.007941242307424545,0.01893680728971958
1775341740964475000,10.037474853515626,0.002443459117785096,-0.003665188793092966,-0.017715077847242355
1775341740981262000,10.054261962890624,0.01954767294228077,-0.014049889519810677,0.008552107028663158
1775341740998049300,10.07104931640625,0.010995565913617611,-0.014660755172371864,0.006108647678047419
1775341741014836200,10.087836181640625,0.021991131827235222,-0.014660755172371864,-0.003665188793092966
1775341741031623400,10.10462353515625,0.009773836471140385,-0.010995565913617611,-0.003665188793092966
1775341741048410600,10.12141064453125,0.025045456364750862,-0.017715077847242355,0.000610864779446274
1775341741065197600,10.138197509765625,0.006719512399286032,-0.013439024798572063,0.009773836471140385
1775341741081984800,10.15498486328125,0.02626718580722809,-0.020158538594841957,-0.014049889519810677
1775341741098772000,10.17177197265625,0.004276053514331579,-0.003665188793092966,0.008552107028663158
1775341741115559000,10.188558837890625,0.0256563201546669,-0.021991131827235222,0.001832594396546483
1775341741132346000,10.20534619140625,0.006108647678047419,-0.010384701192378998,0.012217295356094837
1775341741149133300,10.22213330078125,0.028099779039621353,-0.020158538594841957,0.023212861269712448
1775341741165920300,10.238920166015625,0.006108647678047419,-0.010995565913617611,0.000610864779446274
1775341741182707500,10.25570751953125,0.017715077847242355,-0.015271619893610477,0.027488915249705315
1775341741199494700,10.27249462890625,0.004276053514331579,-0.011606430634856224,0.02260199747979641
1775341741216281600,10.289281494140624,0.013439024798572063,-0.010995565913617611,-0.011606430634856224
1775341741233068800,10.30606884765625,0.004886918235570192,-0.007330377586185932,-0.034208428114652634
1775341741249856000,10.32285595703125,0.009162971749901772,-0.006719512399286032,-0.03237583488225937
1775341741266643000,10.339642822265626,0.003665188793092966,-0.007330377586185932,-0.029932374134659767
1775341741283430100,10.35643017578125,0.003665188793092966,-0.008552107028663158,0.028099779039621353
1775341741300217300,10.37321728515625,0.0030543238390237093,-0.0054977829568088055,-0.033597562462091446
1775341741317004300,10.39000439453125,0.009773836471140385,-0.009773836471140385,-0.001221729558892548
1775341741333791500,10.40679150390625,0.0054977829568088055,-0.003665188793092966,-0.004886918235570192
1775341741350578700,10.42357861328125,0.015271619893610477,-0.009162971749901772,-0.011606430634856224
1775341741367366000,10.440365966796875,0.009162971749901772,-0.009773836471140385,0.009162971749901772
1775341741384152800,10.45715283203125,0.010384701192378998,-0.007330377586185932,-0.003665188793092966
1775341741400940000,10.47393994140625,0.008552107028663158,-0.008552107028663158,-0.004276053514331579
1775341741417727200,10.490727294921875,0.017104214057326317,-0.014660755172371864,-0.002443459117785096
1775341741434514200,10.50751416015625,0.018325943499803543,-0.015271619893610477,0.024434590712189674
1775341741451301400,10.52430126953125,0.010384701192378998,-0.012217295356094837,0.01588248461484909
1775341741468088600,10.541088623046875,0.01893680728971958,-0.015271619893610477,0.015271619893610477
1775341741484875500,10.55787548828125,0.01588248461484909,-0.01588248461484909,0.036651886999607086
1775341741501662700,10.574662841796876,0.031154103577136993,-0.028099779039621353,0.07941242307424545
1775341741518450000,10.591449951171874,-0.001221729558892548,0,-0.07147117704153061
1775341741535236900,10.60823681640625,0.010995565913617611,-0.010384701192378998,0.03848448023200035
1775341741552024000,10.625024169921875,0.024434590712189674,-0.025045456364750862,-0.000610864779446274
1775341741568811300,10.641811279296874,0.000610864779446274,-0.003665188793092966,-0.02260199747979641
1775341741585598200,10.65859814453125,0.010995565913617611,-0.014660755172371864,0.08429934084415436
1775341741602385400,10.675385498046875,0.008552107028663158,-0.010384701192378998,0.009773836471140385
1775341741619172600,10.692172607421876,0.004886918235570192,-0.007330377586185932,-0.017104214057326317
1775341741635959600,10.70895947265625,0.01588248461484909,-0.015271619893610477,0.05497783049941063
1775341741652746800,10.725746826171875,0.0054977829568088055,-0.006719512399286032,0.08918625861406326
1775341741669534000,10.742533935546875,0.023212861269712448,-0.012217295356094837,-0.002443459117785096
1775341741686321200,10.759321044921874,0.014049889519810677,-0.006108647678047419,0.01649334840476513
1775341741703108000,10.776108154296875,0.014660755172371864,-0.007330377586185932,-0.0030543238390237093
1775341741719895300,10.792895263671875,0.012217295356094837,-0.010384701192378998,0.003665188793092966
1775341741736682500,10.8096826171875,0.012217295356094837,-0.012217295356094837,0.0030543238390237093
1775341741753469400,10.826469482421874,0.004886918235570192,-0.006719512399286032,-0.014049889519810677
1775341741770256600,10.843256591796875,0.006108647678047419,-0.007941242307424545,0.004886918235570192
1775341741787043800,10.8600439453125,0.0054977829568088055,-0.0054977829568088055,-0.001832594396546483
1775341741803831000,10.8768310546875,0.004886918235570192,0,-0.010384701192378998
1775341741820618000,10.893617919921875,0.008552107028663158,-0.000610864779446274,-0.015271619893610477
1775341741837405200,10.9104052734375,-0.003665188793092966,0.001832594396546483,-0.03848448023200035
1775341741854192400,10.9271923828125,0.004276053514331579,-0.001832594396546483,-0.08368847519159317
1775341741870979300,10.943979248046874,0.000610864779446274,0.000610864779446274,-0.046425722539424896
1775341741887766500,10.9607666015625,-0.0054977829568088055,0.004276053514331579,-0.04581485688686371
1775341741904553700,10.9775537109375,0,-0.002443459117785096,-0.1081230640411377
1775341741921340700,10.994340576171876,0.001221729558892548,-0.004886918235570192,0.001221729558892548
1775341741938128000,11.0111279296875,0.001832594396546483,-0.001832594396546483,-0.04581485688686371
1775341741954915000,11.0279150390625,0.0054977829568088055,-0.001832594396546483,-0.033597562462091446
1775341741971702000,11.044701904296875,0.017715077847242355,-0.009162971749901772,0.024434590712189674
1775341741988489200,11.0614892578125,0.001832594396546483,-0.0054977829568088055,-0.027488915249705315
1775341742005276400,11.0782763671875,0.023212861269712448,-0.011606430634856224,-0.021380268037319183
1775341742022063400,11.0950634765625,0.010995565913617611,-0.008552107028663158,0.009773836471140385
1775341742038850600,11.1118505859375,0.020158538594841957,-0.01282816007733345,-0.0054977829568088055
1775341742055637800,11.1286376953125,0.018325943499803543,-0.009162971749901772,-0.001832594396546483
1775341742072425000,11.145425048828125,0.009773836471140385,-0.004276053514331579,0.001221729558892548
1775341742089212000,11.1622119140625,0.011606430634856224,-0.001832594396546483,-0.006108647678047419
1775341742105999000,11.1789990234375,0.010995565913617611,-0.004276053514331579,0.0054977829568088055
1775341742122786300,11.195786376953125,0.006719512399286032,0.001221729558892548,-0.012217295356094837
1775341742139573200,11.2125732421875,0.0054977829568088055,-0.001832594396546483,-0.010384701192378998
1775341742156360400,11.2293603515625,0.000610864779446274,-0.001832594396546483,-0.0030543238390237093
1775341742173147600,11.246147705078124,-0.001832594396546483,-0.003665188793092966,-0.008552107028663158
1775341742189934800,11.262934814453125,-0.004276053514331579,-0.002443459117785096,-0.02626718580722809
1775341742206721800,11.2797216796875,0.010384701192378998,-0.014660755172371864,0.004276053514331579
1775341742223509000,11.296509033203124,-0.004276053514331579,0.000610864779446274,0
1775341742240296200,11.313296142578125,0.020769402384757996,-0.017104214057326317,-0.007330377586185932
1775341742257083100,11.330083251953125,0.01649334840476513,-0.010384701192378998,0.012217295356094837
1775341742273870300,11.346870361328126,0.023212861269712448,-0.013439024798572063,-0.0054977829568088055
1775341742290657500,11.363657470703124,0.009773836471140385,-0.006108647678047419,-0.014049889519810677
1775341742307444500,11.380444580078125,0.028099779039621353,-0.020769402384757996,-0.0054977829568088055
1775341742324231700,11.397231689453125,0.015271619893610477,-0.013439024798572063,0.000610864779446274
1775341742341019000,11.414018798828126,0.009773836471140385,-0.006719512399286032,0.004886918235570192
1775341742357805800,11.430805908203125,0.006719512399286032,-0.010995565913617611,0.009773836471140385
1775341742374593000,11.447593017578125,0.002443459117785096,-0.0030543238390237093,0.014049889519810677
1775341742391380200,11.464380126953126,-0.002443459117785096,0.004276053514331579,-0.0256563201546669
1775341742408167400,11.48116748046875,-0.000610864779446274,0.004276053514331579,0.01588248461484909
1775341742424954400,11.497954345703125,-0.004276053514331579,0.004276053514331579,-0.014660755172371864
1775341742441741600,11.514741455078125,-0.006719512399286032,0.001221729558892548,-0.011606430634856224
1775341742458528800,11.53152880859375,0.01282816007733345,-0.009773836471140385,-0.000610864779446274
1775341742475315700,11.548315673828125,-0.009162971749901772,0.001221729558892548,-0.009162971749901772
1775341742492103000,11.56510302734375,0.021380268037319183,-0.012217295356094837,-0.004886918235570192
1775341742508890000,11.58189013671875,0,-0.004886918235570192,-0.011606430634856224
1775341742525677000,11.598677001953124,0.03787361457943916,-0.02626718580722809,0.006108647678047419
1775341742542464300,11.61546435546875,0.015271619893610477,-0.013439024798572063,0
1775341742559251500,11.63225146484375,0.027488915249705315,-0.02260199747979641,0.009773836471140385
1775341742576038700,11.64903857421875,0.01893680728971958,-0.014049889519810677,-0.008552107028663158
1775341742592825600,11.66582568359375,0.027488915249705315,-0.023212861269712448,-0.001832594396546483
1775341742609612800,11.68261279296875,0.01954767294228077,-0.023212861269712448,0.10018182545900345
1775341742626400000,11.69939990234375,0.010384701192378998,-0.014049889519810677,0
1775341742643187000,11.71618701171875,0.014049889519810677,-0.012217295356094837,0.013439024798572063
1775341742659974100,11.73297412109375,0.006719512399286032,-0.002443459117785096,0.010384701192378998
1775341742676761300,11.74976123046875,-0.001832594396546483,0.004276053514331579,-0.029932374134659767
1775341742693548500,11.766548583984376,-0.002443459117785096,0.009773836471140385,-0.07513637095689774
1775341742710335500,11.78333544921875,-0.000610864779446274,0.007941242307424545,-0.056810423731803894
1775341742727122700,11.800122802734375,0.001832594396546483,0.0030543238390237093,0.01649334840476513
1775341742743910000,11.816909912109375,0.003665188793092966,-0.006108647678047419,-0.009162971749901772
1775341742760697000,11.833697021484374,0.0030543238390237093,-0.003665188793092966,-0.023212861269712448
1775341742777484000,11.850484130859375,0.008552107028663158,-0.0054977829568088055,0.000610864779446274
1775341742794271200,11.867271240234375,0.018325943499803543,-0.010384701192378998,-0.011606430634856224
1775341742811058400,11.884058349609376,0.023212861269712448,-0.013439024798572063,-0.0030543238390237093
1775341742827845600,11.900845703125,0.020158538594841957,-0.01588248461484909,-0.003665188793092966
1775341742844632600,11.917632568359375,0.018325943499803543,-0.013439024798572063,-0.007330377586185932
1775341742861419800,11.934419677734375,0.014660755172371864,-0.01588248461484909,0.01649334840476513
1775341742878207000,11.95120703125,0.009162971749901772,-0.009162971749901772,-0.010995565913617611
1775341742894994000,11.967993896484375,0,-0.001832594396546483,-0.007330377586185932
1775341742911781000,11.984781005859375,0.001832594396546483,-0.0030543238390237093,0.009162971749901772
1775341742928568300,12.001568359375,-0.001221729558892548,0.004276053514331579,-0.013439024798572063
1775341742945355500,12.01835546875,0.006719512399286032,0,-0.017715077847242355
1775341742962142500,12.035142578125,0.000610864779446274,-0.001832594396546483,0.003665188793092966
1775341742978929700,12.0519296875,0.008552107028663158,-0.009773836471140385,-0.000610864779446274
1775341742995716900,12.068716796875,0.006108647678047419,-0.0054977829568088055,-0.01282816007733345
1775341743012504000,12.085504150390625,0.017104214057326317,-0.012217295356094837,-0.004276053514331579
1775341743029291000,12.102291015625,0.010995565913617611,-0.009773836471140385,0.001832594396546483
1775341743046078200,12.119078125,0.017104214057326317,-0.013439024798572063,-0.008552107028663158
1775341743062865400,12.135865478515624,0.015271619893610477,-0.01282816007733345,-0.004886918235570192
1775341743079652600,12.152652587890625,0.015271619893610477,-0.010995565913617611,-0.009162971749901772
1775341743096439600,12.169439453125,0.010384701192378998,-0.009773836471140385,0
1775341743113226800,12.186226806640626,0.009162971749901772,-0.011606430634856224,0.0030543238390237093
1775341743130014000,12.203013916015625,0.009773836471140385,-0.010995565913617611,-0.007330377586185932
1775341743146801000,12.21980078125,0.012217295356094837,-0.01282816007733345,0
1775341743163588000,12.236588134765626,0.01282816007733345,-0.010995565913617611,0.0030543238390237093
1775341743180375300,12.253375244140624,0.009773836471140385,-0.006719512399286032,0.002443459117785096
1775341743197162500,12.27016259765625,0.010995565913617611,-0.009162971749901772,-0.012217295356094837
1775341743213949400,12.286949462890625,0.006108647678047419,-0.007941242307424545,-0.001832594396546483
1775341743230736600,12.303736572265626,0.011606430634856224,-0.010995565913617611,-0.000610864779446274
1775341743247523800,12.32052392578125,0.004886918235570192,-0.006108647678047419,-0.0030543238390237093
1775341743264310800,12.337310791015625,0.009162971749901772,-0.007330377586185932,-0.004276053514331579
1775341743281098000,12.354097900390625,0.007330377586185932,-0.004886918235570192,-0.003665188793092966
1775341743297885200,12.37088525390625,0.014660755172371864,-0.009162971749901772,-0.0054977829568088055
1775341743314672400,12.38767236328125,0.01282816007733345,-0.006719512399286032,-0.0054977829568088055
1775341743331459300,12.404459228515625,0.014049889519810677,-0.012217295356094837,-0.008552107028663158
1775341743348246500,12.42124658203125,0.01282816007733345,-0.014049889519810677,-0.000610864779446274
1775341743365033700,12.43803369140625,0.015271619893610477,-0.012217295356094837,-0.003665188793092966
1775341743381821000,12.454821044921875,0.013439024798572063,-0.01282816007733345,-0.0054977829568088055
1775341743398608000,12.47160791015625,0.014049889519810677,-0.010995565913617611,0.002443459117785096
1775341743415395000,12.48839501953125,0.009773836471140385,-0.014049889519810677,0.000610864779446274
1775341743432182300,12.505182373046875,0.01282816007733345,-0.01954767294228077,0.014660755172371864
1775341743448969200,12.52196923828125,0.006108647678047419,-0.006719512399286032,-0.001832594396546483
1775341743465756400,12.53875634765625,0.01282816007733345,-0.007941242307424545,-0.008552107028663158
1775341743482543600,12.555543701171874,0.010384701192378998,-0.007941242307424545,-0.023823726922273636
1775341743499330800,12.572330810546875,0.009773836471140385,-0.0030543238390237093,-0.014660755172371864
1775341743516117800,12.58911767578125,0.013439024798572063,-0.010384701192378998,0.011606430634856224
1775341743532905000,12.605905029296874,0.007330377586185932,-0.0030543238390237093,0.001221729558892548
1775341743549692200,12.622692138671875,0.007330377586185932,-0.004276053514331579,-0.002443459117785096
1775341743566479400,12.639479248046875,0.009162971749901772,-0.001221729558892548,-0.008552107028663158
1775341743583266300,12.656266357421876,0.010995565913617611,-0.007941242307424545,-0.000610864779446274
1775341743600053500,12.673053466796874,0.006108647678047419,-0.0054977829568088055,0.006108647678047419
1775341743616840700,12.6898408203125,0.011606430634856224,-0.007330377586185932,-0.017715077847242355
1775341743633627600,12.706627685546875,0.006719512399286032,-0.012217295356094837,0.009162971749901772
1775341743650414800,12.723414794921876,0.020158538594841957,-0.018325943499803543,0.010995565913617611
1775341743667202000,12.7402021484375,0.011606430634856224,-0.015271619893610477,0.014660755172371864
1775341743683989200,12.7569892578125,0.012217295356094837,-0.01893680728971958,0.08307760953903198
1775341743700776200,12.773776123046876,0.014049889519810677,-0.017715077847242355,-0.007941242307424545
1775341743717563400,12.7905634765625,0.007941242307424545,-0.020769402384757996,-0.004886918235570192
1775341743734350600,12.8073505859375,0.009162971749901772,-0.020158538594841957,0.050090912729501724
1775341743751137800,12.8241376953125,0.017104214057326317,-0.024434590712189674,0.11117739230394363
1775341743767924700,12.8409248046875,0.023212861269712448,-0.017715077847242355,0.0818558782339096
1775341743784712000,12.8577119140625,0.01893680728971958,-0.014049889519810677,0.009162971749901772
1775341743801499100,12.8744990234375,0.02871064469218254,-0.01282816007733345,0.014660755172371864
1775341743818286000,12.8912861328125,0.009773836471140385,-0.006108647678047419,0.02871064469218254
1775341743835073300,12.9080732421875,0.02260199747979641,-0.010384701192378998,-0.000610864779446274
1775341743851860500,12.924860595703125,-0.002443459117785096,-0.000610864779446274,-0.01588248461484909
1775341743868647700,12.941647705078125,0.007941242307424545,-0.007330377586185932,0.015271619893610477
1775341743885435000,12.958434814453126,-0.006108647678047419,-0.000610864779446274,-0.001221729558892548
1775341743902221800,12.975221923828125,0.001832594396546483,-0.002443459117785096,-0.0054977829568088055
1775341743919009000,12.992009033203125,-0.006719512399286032,0.006108647678047419,0.000610864779446274
1775341743935796200,13.008796142578126,-0.000610864779446274,0.004276053514331579,-0.0922405794262886
1775341743952583200,13.025583251953124,0.002443459117785096,0.006719512399286032,-0.06230820715427399
1775341743969370400,13.042370361328125,0.009773836471140385,-0.002443459117785096,-0.003665188793092966
1775341743986157600,13.059157470703125,0.009162971749901772,-0.01588248461484909,-0.014049889519810677
1775341744002944500,13.075944580078126,-0.000610864779446274,-0.010995565913617611,-0.031154103577136993
1775341744019731700,13.092731689453124,0.014660755172371864,-0.006719512399286032,-0.056810423731803894
1775341744036519000,13.109518798828125,0.006108647678047419,-0.0030543238390237093,-0.10323614627122879
1775341744053306000,13.12630615234375,0.01649334840476513,-0.012217295356094837,-0.02871064469218254
1775341744070093000,13.143093017578124,0.006108647678047419,0.000610864779446274,-0.023212861269712448
1775341744086880300,13.15988037109375,0.023212861269712448,-0.009773836471140385,0.0054977829568088055
1775341744103667500,13.17666748046875,0.006719512399286032,0.008552107028663158,-0.004276053514331579
1775341744120454700,13.19345458984375,0.01282816007733345,-0.000610864779446274,-0.0513126403093338
1775341744137241600,13.21024169921875,0.007330377586185932,0.000610864779446274,0.0256563201546669
1775341744154028800,13.22702880859375,0.008552107028663158,-0.003665188793092966,-0.008552107028663158
1775341744170816000,13.24381591796875,-0.002443459117785096,-0.0030543238390237093,-0.013439024798572063
1775341744187603000,13.26060302734375,0.006719512399286032,-0.006719512399286032,0.018325943499803543
1775341744204390100,13.27739013671875,-0.003665188793092966,-0.006108647678047419,-0.015271619893610477
1775341744221177300,13.29417724609375,0.007941242307424545,-0.007330377586185932,-0.0054977829568088055
1775341744237964500,13.310964599609376,0.001832594396546483,-0.009162971749901772,0.003665188793092966
1775341744254751500,13.32775146484375,0.01954767294228077,-0.013439024798572063,-0.017104214057326317
1775341744271538700,13.34453857421875,0,-0.004886918235570192,-0.014049889519810677
1775341744288326000,13.361325927734375,0.02932151034474373,-0.017715077847242355,-0.01588248461484909
1775341744305113000,13.378113037109374,0.001221729558892548,0.000610864779446274,-0.01893680728971958
1775341744321900000,13.394900146484375,0.0360410213470459,-0.01893680728971958,-0.021380268037319183
1775341744338687200,13.411687255859375,0.009162971749901772,-0.004886918235570192,-0.001221729558892548
1775341744355474400,13.428474365234376,0.01893680728971958,-0.012217295356094837,0.002443459117785096
1775341744372261600,13.44526171875,-0.001832594396546483,-0.006719512399286032,0.004886918235570192
1775341744389048600,13.462048583984375,0.015271619893610477,-0.009773836471140385,-0.012217295356094837
1775341744405835800,13.478835693359375,-0.008552107028663158,0.000610864779446274,0.006719512399286032
1775341744422623000,13.495623046875,0.007941242307424545,-0.0030543238390237093,-0.010995565913617611
1775341744439410000,13.512409912109375,-0.007941242307424545,0.004886918235570192,-0.004886918235570192
1775341744456197000,13.529197021484375,0.010384701192378998,-0.001832594396546483,0.001832594396546483
1775341744472984300,13.545984375,0.000610864779446274,0.003665188793092966,-0.009773836471140385
1775341744489771500,13.562771484375,0.006719512399286032,-0.004886918235570192,-0.0054977829568088055
1775341744506558500,13.579558349609375,0.009162971749901772,-0.006108647678047419,0.010384701192378998
1775341744523345700,13.596345703125,0.012217295356094837,-0.007330377586185932,-0.009162971749901772
1775341744540132900,13.6131328125,0.010995565913617611,-0.013439024798572063,-0.010995565913617611
1775341744556919800,13.629919921875,0.020769402384757996,-0.018325943499803543,0.01649334840476513
1775341744573707000,13.64670703125,0.020769402384757996,-0.01649334840476513,-0.0054977829568088055
1775341744590494200,13.663494140625,0.01649334840476513,-0.012217295356094837,-0.013439024798572063
1775341744607281400,13.680281494140624,0.014660755172371864,-0.014049889519810677,0.006719512399286032
1775341744624068400,13.697068359375,0.020158538594841957,-0.01588248461484909,-0.006719512399286032
1775341744640855600,13.71385546875,0.012217295356094837,-0.011606430634856224,0.009773836471140385
1775341744657642800,13.730642822265626,0.015271619893610477,-0.015271619893610477,0.027488915249705315
1775341744674430000,13.747429931640625,-0.000610864779446274,-0.003665188793092966,0.008552107028663158
1775341744691217000,13.764216796875,0.008552107028663158,-0.003665188793092966,-0.0030543238390237093
1775341744708004000,13.781004150390626,-0.007330377586185932,0.003665188793092966,-0.03298669680953026
1775341744724791300,13.797791259765624,0.007941242307424545,0.004276053514331579,-0.03848448023200035
1775341744741578500,13.81457861328125,-0.007941242307424545,0.006108647678047419,-0.014049889519810677
1775341744758365400,13.831365478515625,0.004276053514331579,-0.0030543238390237093,0.004886918235570192
1775341744775152600,13.848152587890626,-0.004276053514331579,-0.001832594396546483,-0.020158538594841957
1775341744791939800,13.86493994140625,0.009773836471140385,-0.011606430634856224,-0.009773836471140385
1775341744808727000,13.88172705078125,0.010384701192378998,-0.009773836471140385,-0.001221729558892548
1775341744825514000,13.898513916015625,0.021380268037319183,-0.01588248461484909,-0.012217295356094837
1775341744842301200,13.91530126953125,0.014049889519810677,-0.012217295356094837,-0.000610864779446274
1775341744859088400,13.93208837890625,0.029932374134659767,-0.020158538594841957,-0.006108647678047419
1775341744875875300,13.948875244140625,0.01649334840476513,-0.010995565913617611,-0.010384701192378998
1775341744892662500,13.96566259765625,0.02626718580722809,-0.014660755172371864,-0.007941242307424545
1775341744909449700,13.98244970703125,0.009162971749901772,-0.01282816007733345,0.008552107028663158
1775341744926237000,13.99923681640625,0.021991131827235222,-0.013439024798572063,0.037262752652168274
1775341744943023900,14.01602392578125,-0.002443459117785096,-0.004276053514331579,0.015271619893610477
1775341744959811000,14.03281103515625,0.010995565913617611,-0.002443459117785096,-0.021991131827235222
1775341744976598300,14.049598388671875,-0.009773836471140385,0.008552107028663158,-0.03787361457943916
1775341744993385200,14.06638525390625,0.004886918235570192,0.0054977829568088055,-0.037262752652168274
1775341745010172400,14.08317236328125,-0.002443459117785096,0.004886918235570192,-0.01282816007733345
1775341745026959600,14.099959716796874,0.011606430634856224,-0.0054977829568088055,0.012217295356094837
1775341745043746800,14.116746826171875,0.0030543238390237093,-0.001221729558892548,-0.01893680728971958
1775341745060533800,14.13353369140625,0.008552107028663158,-0.007941242307424545,-0.004276053514331579
1775341745077321000,14.150321044921874,0.0256563201546669,-0.01649334840476513,0
1775341745094108200,14.167108154296875,0.0054977829568088055,-0.004276053514331579,-0.01282816007733345
1775341745110895000,14.18389501953125,0.026878049597144127,-0.015271619893610477,-0.004886918235570192
1775341745127682300,14.200682373046876,0.000610864779446274,-0.006719512399286032,0
1775341745144469500,14.217469482421874,0.030543239787220955,-0.01954767294228077,0.000610864779446274
1775341745161256700,14.234256591796875,0.001221729558892548,-0.0054977829568088055,-0.014660755172371864
1775341745178043600,14.251043701171875,0.023212861269712448,-0.015271619893610477,0.008552107028663158
1775341745194830800,14.267830810546876,0.000610864779446274,-0.0054977829568088055,-0.012217295356094837
1775341745211618000,14.2846181640625,0.018325943499803543,-0.014049889519810677,-0.000610864779446274
1775341745228405200,14.3014052734375,0.011606430634856224,-0.01282816007733345,0.004276053514331579
1775341745245192200,14.318192138671876,0.010995565913617611,-0.009162971749901772,-0.011606430634856224
1775341745261979400,14.3349794921875,0.009773836471140385,-0.009773836471140385,-0.008552107028663158
1775341745278766600,14.3517666015625,0.0054977829568088055,-0.009162971749901772,-0.003665188793092966
1775341745295553500,14.368553466796875,0.008552107028663158,-0.009162971749901772,0.006108647678047419
1775341745312340700,14.3853408203125,0.006108647678047419,-0.007941242307424545,-0.0030543238390237093
1775341745329128000,14.4021279296875,0.009773836471140385,-0.007330377586185932,-0.000610864779446274
1775341745345915000,14.418914794921875,0.008552107028663158,-0.009773836471140385,0.006108647678047419
1775341745362702000,14.4357021484375,0.010995565913617611,-0.010384701192378998,0.01282816007733345
1775341745379489300,14.4524892578125,0.010995565913617611,-0.01282816007733345,0.009162971749901772
1775341745396276500,14.4692763671875,0.009773836471140385,-0.014660755172371864,0.009773836471140385
1775341745413063400,14.4860634765625,0.01649334840476513,-0.015271619893610477,0.01282816007733345
1775341745429850600,14.5028505859375,0.010384701192378998,-0.014049889519810677,-0.009773836471140385
1775341745446637800,14.519637939453125,0.012217295356094837,-0.009773836471140385,-0.011606430634856224
1775341745463424800,14.5364248046875,0.011606430634856224,-0.007941242307424545,0.0054977829568088055
1775341745480212000,14.5532119140625,0.015271619893610477,-0.010384701192378998,-0.028099779039621353
1775341745496999200,14.569999267578124,0.007941242307424545,-0.010995565913617611,-0.014660755172371864
1775341745513786400,14.586786376953125,0.014049889519810677,-0.014660755172371864,0.021380268037319183
1775341745530573300,14.6035732421875,0.004886918235570192,-0.008552107028663158,0.02626718580722809
1775341745547360500,14.620360595703126,0.011606430634856224,-0.007941242307424545,-0.01588248461484909
1775341745564147700,14.637147705078124,0.01588248461484909,-0.006719512399286032,-0.003665188793092966
1775341745580934700,14.6539345703125,0.017715077847242355,-0.009162971749901772,0.017715077847242355
1775341745597721900,14.670721923828125,0.003665188793092966,-0.001221729558892548,-0.014660755172371864
1775341745614509000,14.687509033203124,0.008552107028663158,-0.004276053514331579,-0.03298669680953026
1775341745631296300,14.704296142578125,0.010995565913617611,-0.006719512399286032,-0.01893680728971958
1775341745648083200,14.721083251953125,0.01649334840476513,-0.009773836471140385,0.001221729558892548
1775341745664870400,14.737870361328126,0,-0.001832594396546483,0.001832594396546483
1775341745681657600,14.75465771484375,0.013439024798572063,-0.009773836471140385,-0.046425722539424896
1775341745698444800,14.77144482421875,0.002443459117785096,-0.007941242307424545,-0.004276053514331579
1775341745715231700,14.788231689453125,0.021380268037319183,-0.01954767294228077,0.012217295356094837
1775341745732019000,14.80501904296875,-0.000610864779446274,-0.006108647678047419,-0.009773836471140385
1775341745748806100,14.82180615234375,0.01893680728971958,-0.014660755172371864,0.003665188793092966
1775341745765593000,14.838593017578125,0.004276053514331579,-0.012217295356094837,0.050090912729501724
1775341745782380300,14.85538037109375,0.014660755172371864,-0.009773836471140385,0.01649334840476513
1775341745799167500,14.87216748046875,0.007941242307424545,-0.007941242307424545,-0.011606430634856224
1775341745815954700,14.88895458984375,0.017104214057326317,-0.011606430634856224,0.05070177838206291
1775341745832741600,14.90574169921875,0.020769402384757996,-0.01954767294228077,0.16554436087608337
1775341745849528800,14.92252880859375,0.020769402384757996,-0.02260199747979641,0.08674279600381851
1775341745866316000,14.93931591796875,0.0256563201546669,-0.0256563201546669,0.03298669680953026
1775341745883103000,14.95610302734375,0.017104214057326317,-0.021991131827235222,0.017715077847242355
1775341745899890200,14.97289013671875,0.01893680728971958,-0.018325943499803543,-0.007330377586185932
1775341745916677400,14.989677490234374,0.008552107028663158,-0.014049889519810677,-0.011606430634856224
1775341745933464600,15.006464599609375,0.01282816007733345,-0.009162971749901772,-0.001832594396546483
1775341745950251500,15.02325146484375,-0.000610864779446274,0,-0.01282816007733345
1775341745967038700,15.040038818359376,0.013439024798572063,0.000610864779446274,-0.008552107028663158
1775341745983826000,15.056825927734375,-0.009162971749901772,0.007941242307424545,-0.02260199747979641
1775341746000612900,15.07361279296875,-0.004886918235570192,0.008552107028663158,-0.0256563201546669
1775341746017400000,15.090400146484376,-0.014049889519810677,0.01588248461484909,-0.15638138353824615
1775341746034187300,15.107187255859374,0.001832594396546483,0,-0.026878049597144127
1775341746050974200,15.12397412109375,-0.009773836471140385,0.006108647678047419,0.011606430634856224
1775341746067761400,15.140761474609375,0.004886918235570192,-0.007330377586185932,-0.02871064469218254
1775341746084548600,15.157548583984376,-0.006108647678047419,0.000610864779446274,-0.09896009415388107
1775341746101335800,15.174335693359374,0.01588248461484909,-0.02260199747979641,0.014660755172371864
1775341746118122800,15.191122802734375,0.009773836471140385,-0.014049889519810677,0.023823726922273636
1775341746134910000,15.207909912109375,0.024434590712189674,-0.014660755172371864,-0.04459312930703163
1775341746151697200,15.224697265625,0.014049889519810677,-0.01282816007733345,0.010995565913617611
1775341746168484000,15.241484130859375,0.01954767294228077,-0.009162971749901772,-0.017715077847242355
1775341746185271300,15.258271240234375,0.01282816007733345,-0.006719512399286032,-0.017104214057326317
1775341746202058500,15.27505859375,0.01954767294228077,-0.003665188793092966,0.012217295356094837
1775341746218845400,15.291845458984374,0.0054977829568088055,-0.004276053514331579,-0.02626718580722809
1775341746235632600,15.308632568359375,0.011606430634856224,0.001221729558892548,-0.002443459117785096
1775341746252419800,15.325419921875,-0.003665188793092966,0.006108647678047419,-0.018325943499803543
1775341746269207000,15.34220703125,0.010995565913617611,-0.0030543238390237093,-0.0030543238390237093
1775341746285994000,15.358993896484375,-0.004276053514331579,0.011606430634856224,-0.0054977829568088055
1775341746302781200,15.37578125,0,0.001221729558892548,-0.039706211537122726
1775341746319568400,15.392568359375,0.002443459117785096,-0.004886918235570192,0.025045456364750862
1775341746336355600,15.40935546875,0.004276053514331579,-0.003665188793092966,-0.012217295356094837
1775341746353142500,15.426142578125,0,-0.002443459117785096,-0.018325943499803543
1775341746369929700,15.4429296875,0.015271619893610477,-0.01649334840476513,0.006719512399286032
1775341746386717000,15.459717041015624,0.0054977829568088055,-0.010384701192378998,-0.003665188793092966
1775341746403503900,15.47650390625,0.023212861269712448,-0.014660755172371864,-0.001832594396546483
1775341746420291000,15.493291015625,0.012217295356094837,-0.012217295356094837,-0.014660755172371864
1775341746437078300,15.510078369140626,0.029932374134659767,-0.02260199747979641,0.012217295356094837
1775341746453865500,15.526865478515624,0.017104214057326317,-0.014660755172371864,-0.020769402384757996
1775341746470652400,15.54365234375,0.021991131827235222,-0.01588248461484909,-0.01649334840476513
1775341746487439600,15.560439697265625,0.01588248461484909,-0.01282816007733345,0.008552107028663158
1775341746504226800,15.577226806640626,0.018325943499803543,-0.01282816007733345,0.007941242307424545
1775341746521013800,15.594013671875,0.001221729558892548,-0.001221729558892548,-0.025045456364750862
1775341746537801000,15.610801025390625,0.01282816007733345,-0.011606430634856224,0.017104214057326317
1775341746554588200,15.627588134765626,-0.003665188793092966,-0.001221729558892548,-0.001221729558892548
1775341746571375000,15.644375,0.007941242307424545,-0.004276053514331579,-0.014049889519810677
1775341746588162300,15.661162353515625,-0.0030543238390237093,-0.002443459117785096,0.0030543238390237093
1775341746604949500,15.677949462890625,0.008552107028663158,-0.006719512399286032,0.015271619893610477
1775341746621736700,15.69473681640625,0.004276053514331579,-0.001221729558892548,-0.020158538594841957
1775341746638523600,15.711523681640625,0.012217295356094837,-0.008552107028663158,-0.01649334840476513
1775341746655310800,15.728310791015625,0.01282816007733345,-0.014049889519810677,0.02260199747979641
1775341746672098000,15.74509814453125,0.020769402384757996,-0.013439024798572063,-0.017104214057326317
1775341746688885000,15.761885009765624,0.008552107028663158,-0.0054977829568088055,-0.001221729558892548
1775341746705672200,15.778672119140625,0.025045456364750862,-0.014660755172371864,0.0054977829568088055
1775341746722459400,15.79545947265625,0.009773836471140385,-0.008552107028663158,-0.000610864779446274
1775341746739246300,15.812246337890626,0.017715077847242355,-0.01282816007733345,0.020769402384757996
1775341746756033500,15.829033447265624,0.001221729558892548,-0.002443459117785096,-0.01282816007733345
1775341746772820700,15.84582080078125,0.010384701192378998,-0.004276053514331579,-0.006108647678047419
1775341746789607700,15.862607666015625,0.002443459117785096,-0.003665188793092966,-0.01282816007733345
1775341746806395000,15.879394775390624,0.000610864779446274,0.0054977829568088055,-0.028099779039621353
1775341746823182000,15.89618212890625,0.009773836471140385,-0.004886918235570192,-0.007330377586185932
1775341746839969300,15.91296923828125,0.0030543238390237093,0.000610864779446274,0.008552107028663158
1775341746856756200,15.929756103515626,0.010995565913617611,-0.004886918235570192,-0.012217295356094837
1775341746873543400,15.94654345703125,0.007330377586185932,-0.009773836471140385,-0.004886918235570192
1775341746890330600,15.96333056640625,0.02260199747979641,-0.01588248461484909,0.0054977829568088055
1775341746907117600,15.98011767578125,0.014049889519810677,-0.015271619893610477,-0.007941242307424545
1775341746923904800,15.99690478515625,0.0256563201546669,-0.020158538594841957,0.025045456364750862
1775341746940692000,16.01369189453125,0.013439024798572063,-0.017104214057326317,0.03787361457943916
1775341746957479200,16.030479248046873,0.01954767294228077,-0.018325943499803543,0.028099779039621353
1775341746974266000,16.04726611328125,0.007330377586185932,-0.009162971749901772,0.004886918235570192
1775341746991053300,16.06405322265625,0.012217295356094837,-0.009773836471140385,-0.001832594396546483
1775341747007840500,16.080840576171877,0.0030543238390237093,-0.000610864779446274,0.002443459117785096
1775341747024627500,16.09762744140625,0.004276053514331579,0,-0.007941242307424545
1775341747041414700,16.11441455078125,-0.007330377586185932,0.0054977829568088055,-0.06047561392188072
1775341747058201900,16.131201904296876,0.001221729558892548,0.0030543238390237093,-0.046425722539424896
1775341747074988800,16.14798876953125,0.001832594396546483,-0.007330377586185932,0.02871064469218254
1775341747091776000,16.16477587890625,0.007330377586185932,-0.008552107028663158,-0.006108647678047419
1775341747108563200,16.181563232421876,-0.001832594396546483,-0.001832594396546483,-0.010995565913617611
1775341747125350100,16.19835009765625,0.011606430634856224,-0.009773836471140385,0.014049889519810677
1775341747142137300,16.215137451171874,0.017715077847242355,-0.015271619893610477,0.000610864779446274
1775341747158924500,16.231924560546876,0.01649334840476513,-0.009162971749901772,-0.01588248461484909
1775341747175711500,16.24871142578125,0.02260199747979641,-0.01649334840476513,0.004886918235570192
1775341747192498700,16.265498779296873,0.01893680728971958,-0.015271619893610477,0.023823726922273636
1775341747209286000,16.282285888671876,0.011606430634856224,-0.008552107028663158,-0.009162971749901772
1775341747226073000,16.299072998046874,0.010995565913617611,-0.009773836471140385,0.011606430634856224
1775341747242860000,16.315860107421877,0.0030543238390237093,-0.002443459117785096,-0.004886918235570192
1775341747259647200,16.332647216796875,0.004886918235570192,-0.002443459117785096,-0.008552107028663158
1775341747276434400,16.349434326171874,0.002443459117785096,0,-0.020158538594841957
1775341747293221400,16.366221435546876,0.004276053514331579,-0.001832594396546483,-0.014049889519810677
1775341747310008600,16.383008544921875,0.004886918235570192,0,-0.013439024798572063
1775341747326795800,16.399795654296874,0.006108647678047419,-0.0030543238390237093,-0.006719512399286032
1775341747343583000,16.4165830078125,0,-0.004276053514331579,-0.003665188793092966
1775341747360370000,16.433369873046875,0.006719512399286032,-0.007330377586185932,-0.001832594396546483
1775341747377157000,16.4501572265625,0.004886918235570192,-0.006719512399286032,-0.002443459117785096
1775341747393944300,16.4669443359375,0.017104214057326317,-0.009162971749901772,-0.000610864779446274
1775341747410731300,16.483731201171874,0.013439024798572063,-0.010384701192378998,-0.007941242307424545
1775341747427518500,16.5005185546875,0.01649334840476513,-0.012217295356094837,-0.006719512399286032
1775341747444305700,16.5173056640625,0.004886918235570192,-0.010384701192378998,0.0030543238390237093
1775341747461092600,16.534092529296874,0.02626718580722809,-0.021380268037319183,-0.010384701192378998
1775341747477879800,16.5508798828125,0.017104214057326317,-0.01588248461484909,-0.014660755172371864
1775341747494667000,16.5676669921875,0.017104214057326317,-0.017715077847242355,0.010384701192378998
1775341747511454000,16.584453857421874,0.01954767294228077,-0.013439024798572063,0.001832594396546483
1775341747528241200,16.6012412109375,0.014660755172371864,-0.010995565913617611,-0.001221729558892548
1775341747545028400,16.6180283203125,0.02260199747979641,-0.017715077847242355,0.04214967042207718
1775341747561815300,16.634815185546874,0.009162971749901772,-0.010995565913617611,0.0030543238390237093
1775341747578602500,16.6516025390625,0.012217295356094837,-0.010384701192378998,-0.01649334840476513
1775341747595389700,16.6683896484375,0.0054977829568088055,-0.008552107028663158,-0.009773836471140385
1775341747612176600,16.6851767578125,0.0054977829568088055,-0.007941242307424545,0.004886918235570192
1775341747628963800,16.7019638671875,-0.000610864779446274,-0.004276053514331579,-0.017715077847242355
1775341747645751000,16.7187509765625,0.0030543238390237093,-0.000610864779446274,-0.02626718580722809
1775341747662538200,16.735538330078125,-0.001221729558892548,0.001221729558892548,-0.053145237267017365
1775341747679325200,16.7523251953125,0.006719512399286032,-0.001221729558892548,-0.000610864779446274
1775341747696112400,16.7691123046875,0.004886918235570192,-0.0030543238390237093,0.014049889519810677
1775341747712899600,16.785899658203125,0.009773836471140385,-0.004886918235570192,-0.02626718580722809
1775341747729686500,16.8026865234375,0.01893680728971958,-0.01282816007733345,0.002443459117785096
1775341747746473700,16.8194736328125,0.01893680728971958,-0.017104214057326317,-0.001221729558892548
1775341747763261000,16.836260986328124,0.017715077847242355,-0.01649334840476513,0.007330377586185932
1775341747780048000,16.8530478515625,0.015271619893610477,-0.015271619893610477,-0.002443459117785096
1775341747796835000,16.8698349609375,0.017715077847242355,-0.013439024798572063,0.011606430634856224
1775341747813622300,16.886622314453124,0.023823726922273636,-0.01893680728971958,0.03543015569448471
1775341747830409200,16.9034091796875,0.0030543238390237093,-0.007941242307424545,-0.001221729558892548
1775341747847196400,16.920196533203125,0.009162971749901772,-0.006719512399286032,-0.008552107028663158
1775341747863983600,16.936983642578124,-0.002443459117785096,-0.001221729558892548,-0.020158538594841957
1775341747880770600,16.9537705078125,0.006719512399286032,0.002443459117785096,-0.08002328872680664
1775341747897557800,16.970557861328125,-0.001221729558892548,0.002443459117785096,-0.01954767294228077
1775341747914345000,16.987344970703123,0.013439024798572063,-0.003665188793092966,0.015271619893610477
1775341747931132200,17.004132080078126,-0.0030543238390237093,0,-0.014660755172371864
1775341747947919000,17.020919189453124,0.012217295356094837,-0.007330377586185932,-0.007941242307424545
1775341747964706300,17.037706298828127,-0.0030543238390237093,-0.008552107028663158,0.007941242307424545
1775341747981493500,17.054493408203125,0.023212861269712448,-0.021991131827235222,-0.010384701192378998
1775341747998280400,17.071280517578124,0.003665188793092966,-0.007330377586185932,-0.006108647678047419
1775341748015067600,17.088067626953126,0.025045456364750862,-0.020769402384757996,0.0030543238390237093
1775341748031854800,17.104854736328125,0.011606430634856224,-0.010995565913617611,0.001832594396546483
1775341748048641800,17.121641845703124,0.025045456364750862,-0.024434590712189674,0.06719512492418289
1775341748065429000,17.138428955078126,0.01588248461484909,-0.015271619893610477,0.0256563201546669
1775341748082216200,17.15521630859375,0.020769402384757996,-0.014049889519810677,0.040317077189683914
1775341748099003100,17.172003173828124,0.009773836471140385,-0.01282816007733345,0.08368847519159317
1775341748115790300,17.188790283203126,0.021380268037319183,-0.013439024798572063,0.017715077847242355
1775341748132577500,17.20557763671875,0.006108647678047419,-0.006108647678047419,0.014049889519810677
1775341748149364500,17.222364501953123,0.008552107028663158,-0.006108647678047419,0.047036588191986084
1775341748166151700,17.239151611328126,0.010384701192378998,-0.007941242307424545,0.008552107028663158
1775341748182939000,17.25593896484375,0.011606430634856224,-0.010384701192378998,-0.009162971749901772
1775341748199725800,17.272725830078127,0.0030543238390237093,-0.006108647678047419,0
1775341748216513000,17.289512939453125,0.010384701192378998,-0.011606430634856224,-0.01282816007733345
1775341748233300200,17.30630029296875,0.004886918235570192,-0.0054977829568088055,-0.001221729558892548
1775341748250087200,17.323087158203126,0.006719512399286032,-0.007941242307424545,-0.003665188793092966
1775341748266874400,17.339874267578125,0.003665188793092966,-0.004886918235570192,-0.01649334840476513
1775341748283661600,17.35666162109375,0.004886918235570192,-0.004276053514331579,0.000610864779446274
1775341748300448800,17.37344873046875,0,0.006108647678047419,-0.08796452730894089
1775341748317235700,17.390235595703125,-0.001221729558892548,0.003665188793092966,-0.037262752652168274
1775341748334023000,17.40702294921875,0.001832594396546483,-0.002443459117785096,-0.08368847519159317
1775341748350810000,17.42381005859375,0.012217295356094837,-0.010995565913617611,0.011606430634856224
1775341748367597000,17.44059716796875,0.001832594396546483,-0.001221729558892548,-0.05070177838206291
1775341748384384300,17.45738427734375,0.01954767294228077,-0.017715077847242355,0.004276053514331579
1775341748401171500,17.47417138671875,0.010995565913617611,-0.010384701192378998,-0.010384701192378998
1775341748417958400,17.49095849609375,0.01893680728971958,-0.014049889519810677,-0.012217295356094837
1775341748434745600,17.50774560546875,0.009773836471140385,-0.004276053514331579,-0.01649334840476513
1775341748451532800,17.52453271484375,0.01282816007733345,-0.006108647678047419,0.02260199747979641
1775341748468319700,17.54131982421875,0.021991131827235222,-0.010995565913617611,-0.023823726922273636
1775341748485107000,17.55810693359375,-0.001832594396546483,0.002443459117785096,-0.004886918235570192
1775341748501894100,17.57489404296875,0.0054977829568088055,-0.006719512399286032,0.004886918235570192
1775341748518681000,17.59168115234375,0.007330377586185932,-0.003665188793092966,0.014660755172371864
1775341748535468300,17.60846826171875,-0.009162971749901772,0.010384701192378998,-0.06719512492418289
1775341748552255500,17.62525537109375,-0.000610864779446274,-0.0030543238390237093,0.01893680728971958
1775341748569042400,17.64204248046875,0.001832594396546483,0,-0.020769402384757996
1775341748585829600,17.65882958984375,-0.003665188793092966,-0.002443459117785096,-0.02626718580722809
1775341748602616800,17.675616943359376,0.0054977829568088055,-0.004276053514331579,0.010995565913617611
1775341748619403800,17.69240380859375,0.003665188793092966,-0.006719512399286032,-0.010995565913617611
1775341748636191000,17.70919091796875,0.008552107028663158,-0.009773836471140385,0.001221729558892548
1775341748652978200,17.725978271484376,0.014660755172371864,-0.014049889519810677,0.011606430634856224
1775341748669765000,17.74276513671875,0.015271619893610477,-0.013439024798572063,-0.024434590712189674
1775341748686552300,17.75955224609375,0.023823726922273636,-0.020158538594841957,0.01893680728971958
1775341748703339500,17.776339599609376,0.02626718580722809,-0.017715077847242355,0.01649334840476513
1775341748720126700,17.793126708984374,0.02260199747979641,-0.01282816007733345,-0.017104214057326317
1775341748736913700,17.80991357421875,0.01649334840476513,-0.012217295356094837,0.002443459117785096
1775341748753700900,17.826700927734375,0.028099779039621353,-0.01893680728971958,0.01588248461484909
1775341748770487800,17.84348779296875,0,-0.001221729558892548,-0.003665188793092966
1775341748787275000,17.86027490234375,0.011606430634856224,-0.009773836471140385,-0.003665188793092966
1775341748804062200,17.877062255859375,0.001832594396546483,-0.006108647678047419,0.01649334840476513
1775341748820849400,17.893849365234374,0.0030543238390237093,0.002443459117785096,-0.01588248461484909
1775341748837636400,17.91063623046875,-0.004886918235570192,-0.000610864779446274,0.006108647678047419
1775341748854423600,17.927423583984375,-0.001832594396546483,-0.001221729558892548,0.020158538594841957
1775341748871210500,17.94421044921875,-0.007330377586185932,0.001832594396546483,-0.017715077847242355
1775341748887997700,17.960997802734376,0.003665188793092966,-0.0030543238390237093,-0.027488915249705315
1775341748904785000,17.977784912109374,-0.006719512399286032,-0.001832594396546483,0.01649334840476513
1775341748921571800,17.99457177734375,0.01893680728971958,-0.01588248461484909,0
1775341748938359000,18.011359130859375,0.0030543238390237093,-0.004886918235570192,-0.008552107028663158
1775341748955146200,18.028146240234374,0.024434590712189674,-0.017104214057326317,0.008552107028663158
1775341748971933400,18.044933349609376,0.021380268037319183,-0.014049889519810677,-0.008552107028663158
1775341748988720400,18.061720458984375,0.0256563201546669,-0.01649334840476513,-0.001221729558892548
1775341749005507600,18.078507568359374,0.021991131827235222,-0.015271619893610477,0.001832594396546483
1775341749022294800,18.095294677734376,0.012217295356094837,-0.012217295356094837,-0.001832594396546483
1775341749039081700,18.112081787109375,0.027488915249705315,-0.018325943499803543,-0.001221729558892548
1775341749055869000,18.128868896484374,0.012217295356094837,-0.01282816007733345,0.027488915249705315
1775341749072656100,18.14565625,0.01282816007733345,-0.010384701192378998,0.02260199747979641
1775341749089443000,18.162443115234375,0.0030543238390237093,-0.004886918235570192,-0.011606430634856224
1775341749106230300,18.179230224609373,0.001832594396546483,-0.001832594396546483,-0.02626718580722809
1775341749123017500,18.196017578125,0.000610864779446274,-0.000610864779446274,-0.03909534588456154
1775341749139804400,18.212804443359374,0.002443459117785096,-0.003665188793092966,0.043982263654470444
1775341749156591600,18.229591552734377,0.0030543238390237093,-0.001832594396546483,-0.01893680728971958
1775341749173378600,18.246378662109375,-0.001832594396546483,-0.004276053514331579,0.002443459117785096
1775341749190165800,18.263165771484374,0.008552107028663158,-0.010995565913617611,0.017715077847242355
1775341749206953000,18.279952880859376,0.010995565913617611,-0.008552107028663158,-0.018325943499803543
1775341749223740200,18.296740234375,0.015271619893610477,-0.010384701192378998,0.007941242307424545
1775341749240527000,18.313527099609374,0.01588248461484909,-0.010995565913617611,0.0030543238390237093
1775341749257314300,18.330314208984376,0.012217295356094837,-0.010384701192378998,-0.014660755172371864
1775341749274101500,18.3471015625,0.01954767294228077,-0.014049889519810677,0.000610864779446274
1775341749290888400,18.363888427734373,0.011606430634856224,-0.010995565913617611,0.002443459117785096
1775341749307675600,18.380675537109376,0.013439024798572063,-0.009162971749901772,0.004886918235570192
1775341749324462800,18.397462890625,0.010995565913617611,-0.007330377586185932,-0.010384701192378998
1775341749341249800,18.414249755859377,0.007941242307424545,-0.008552107028663158,0.000610864779446274
1775341749358037000,18.431037109375,0.014660755172371864,-0.008552107028663158,0
1775341749374824000,18.447823974609374,0.003665188793092966,-0.0054977829568088055,-0.003665188793092966
1775341749391611100,18.464611083984376,0.007941242307424545,-0.0054977829568088055,0.001832594396546483
1775341749408398300,18.4813984375,0.007941242307424545,-0.006108647678047419,-0.018325943499803543
1775341749425185300,18.498185302734374,0.007941242307424545,-0.004276053514331579,-0.002443459117785096
1775341749441972500,18.514972412109376,0.01588248461484909,-0.012217295356094837,0.008552107028663158
1775341749458759700,18.531759765625,0.006108647678047419,-0.002443459117785096,-0.015271619893610477
1775341749475547000,18.548546875,0.014049889519810677,-0.0054977829568088055,0
1775341749492333800,18.565333740234376,0.009162971749901772,-0.004886918235570192,0.000610864779446274
1775341749509121000,18.58212109375,0.014660755172371864,-0.0054977829568088055,-0.009773836471140385
1775341749525908200,18.598908203125,0.002443459117785096,0,-0.007330377586185932
1775341749542695200,18.615695068359376,0.007330377586185932,0.000610864779446274,-0.010995565913617611
1775341749559482400,18.632482421875,-0.004886918235570192,0.001832594396546483,-0.000610864779446274
1775341749576269300,18.649269287109377,0.004886918235570192,-0.004276053514331579,0.000610864779446274
1775341749593056500,18.666056396484375,0.000610864779446274,-0.002443459117785096,-0.010995565913617611
1775341749609843700,18.68284375,0.009162971749901772,-0.004886918235570192,-0.0054977829568088055
1775341749626630700,18.699630615234376,0.0030543238390237093,-0.006108647678047419,-0.001221729558892548
1775341749643417900,18.71641796875,0.009773836471140385,-0.008552107028663158,-0.0030543238390237093
1775341749660205000,18.733205078125,0.008552107028663158,-0.006108647678047419,-0.0054977829568088055
1775341749676992000,18.749991943359376,0.017104214057326317,-0.015271619893610477,-0.001832594396546483
1775341749693779200,18.766779296875,0.011606430634856224,-0.010384701192378998,-0.004276053514331579
1775341749710566400,18.78356640625,0.020158538594841957,-0.017104214057326317,-0.0030543238390237093
1775341749727353300,18.800353271484376,0.01649334840476513,-0.01588248461484909,0.001221729558892548
1775341749744140500,18.817140625,0.023823726922273636,-0.01893680728971958,-0.006719512399286032
1775341749760927700,18.833927734375,0.01893680728971958,-0.014660755172371864,-0.007941242307424545
1775341749777714700,18.850714599609375,0.014049889519810677,-0.014049889519810677,-0.001832594396546483
1775341749794502000,18.867501953125,0.023212861269712448,-0.018325943499803543,0.003665188793092966
1775341749811289000,18.8842890625,0.010995565913617611,-0.012217295356094837,-0.010995565913617611
1775341749828076000,18.901075927734375,0.026878049597144127,-0.021991131827235222,0.021991131827235222
1775341749844863200,18.91786328125,0.010995565913617611,-0.014660755172371864,0.05436696484684944
1775341749861650200,18.934650146484376,0.017715077847242355,-0.018325943499803543,0.011606430634856224
1775341749878437400,18.951437255859375,0.006719512399286032,-0.006719512399286032,0.008552107028663158
1775341749895224600,18.968224609375,0.015271619893610477,-0.008552107028663158,-0.015271619893610477
1775341749912011800,18.98501171875,0.0054977829568088055,-0.009773836471140385,0
1775341749928798700,19.001798828125,0.007941242307424545,-0.007941242307424545,0.004276053514331579
1775341749945586000,19.0185859375,0.001221729558892548,-0.0030543238390237093,-0.014660755172371864
1775341749962373000,19.035373046875,0.0030543238390237093,-0.004276053514331579,-0.009773836471140385
1775341749979160000,19.05216015625,0.010384701192378998,-0.004276053514331579,-0.043982263654470444
1775341749995947300,19.068947265625,0,-0.000610864779446274,-0.040317077189683914
1775341750012734500,19.085734375,0.012217295356094837,-0.009162971749901772,0.004276053514331579
1775341750029521400,19.102521484375,0.001832594396546483,0.000610864779446274,-0.0360410213470459
1775341750046308600,19.11930859375,0.013439024798572063,-0.012217295356094837,0.001832594396546483
1775341750063095600,19.136095458984375,0.01954767294228077,-0.017715077847242355,0.017715077847242355
1775341750079882800,19.1528828125,0.017104214057326317,-0.014660755172371864,0.0409279391169548
1775341750096670000,19.169669921875,0.014660755172371864,-0.013439024798572063,0.020158538594841957
1775341750113457000,19.186456787109375,0.014660755172371864,-0.008552107028663158,-0.020769402384757996
1775341750130244000,19.203244140625,0.013439024798572063,-0.012217295356094837,0.018325943499803543
1775341750147031300,19.22003125,0.0256563201546669,-0.017104214057326317,-0.000610864779446274
1775341750163818200,19.236818359375,0.006108647678047419,-0.001221729558892548,-0.02626718580722809
1775341750180605400,19.25360546875,0.01282816007733345,-0.008552107028663158,0.02932151034474373
1775341750197392600,19.270392578125,0.017715077847242355,-0.009162971749901772,-0.020769402384757996
1775341750214179600,19.2871796875,-0.0030543238390237093,-0.000610864779446274,-0.011606430634856224
1775341750230966800,19.303966796875,0.009162971749901772,-0.014049889519810677,0.025045456364750862
1775341750247753700,19.320753662109375,0.002443459117785096,-0.006719512399286032,-0.013439024798572063
1775341750264541000,19.337541015625,0,-0.01282816007733345,0.01893680728971958
1775341750281328000,19.354328125,0.01954767294228077,-0.020769402384757996,0.059864748269319534
1775341750298115000,19.371114990234375,0.013439024798572063,-0.01893680728971958,0.10873392969369888
1775341750314902300,19.38790234375,0.012217295356094837,-0.02260199747979641,0.05864302068948746
1775341750331689500,19.404689453125,0.03298669680953026,-0.024434590712189674,0.02626718580722809
1775341750348476400,19.421476318359375,0.010384701192378998,-0.017104214057326317,0.021991131827235222
1775341750365263600,19.438263671875,0.037262752652168274,-0.01649334840476513,-0.008552107028663158
1775341750382050800,19.45505078125,0.008552107028663158,-0.001221729558892548,0.010995565913617611
1775341750398837800,19.471837646484374,0.021380268037319183,-0.009162971749901772,0.006108647678047419
1775341750415625000,19.488625,-0.002443459117785096,0.001832594396546483,0.006108647678047419
1775341750432412200,19.505412109375,-0.004886918235570192,0.001221729558892548,0.006108647678047419
1775341750449199000,19.52219921875,0.004276053514331579,0,-0.013439024798572063
1775341750465986300,19.538986328125,-0.012217295356094837,0.006719512399286032,-0.013439024798572063
1775341750482773200,19.555773193359375,-0.0030543238390237093,0.006719512399286032,-0.1233946830034256
1775341750499560400,19.572560546875,-0.004886918235570192,0.007330377586185932,-0.0513126403093338
1775341750516347600,19.58934765625,0.008552107028663158,-0.001221729558892548,-0.01282816007733345
1775341750533134800,19.606134765625,0.008552107028663158,-0.01282816007733345,-0.030543239787220955
1775341750549921800,19.622921875,-0.001832594396546483,-0.004276053514331579,-0.12644900381565094
1775341750566709000,19.639708984375,0.002443459117785096,-0.007941242307424545,-0.01893680728971958
1775341750583496000,19.656495849609374,0.008552107028663158,-0.014660755172371864,-0.004276053514331579
1775341750600283100,19.673283203125,0.009162971749901772,-0.006719512399286032,0
1775341750617070300,19.6900703125,0.0030543238390237093,0.0030543238390237093,-0.04886918142437935
1775341750633857300,19.706857177734374,0.01282816007733345,0.001221729558892548,-0.05558869615197182
1775341750650644500,19.72364453125,-0.0030543238390237093,0.0030543238390237093,-0.002443459117785096
1775341750667431700,19.740431640625,0.02260199747979641,-0.006719512399286032,0.0054977829568088055
1775341750684218600,19.757218505859374,0.003665188793092966,0.000610864779446274,-0.02871064469218254
1775341750701005800,19.774005859375,0.009162971749901772,-0.009773836471140385,0.010995565913617611
1775341750717792800,19.790792724609375,0.01893680728971958,-0.014049889519810677,-0.002443459117785096
1775341750734580000,19.807580078125,0.003665188793092966,-0.004886918235570192,-0.021991131827235222
1775341750751367200,19.8243671875,0.020158538594841957,-0.01588248461484909,0.010384701192378998
1775341750768154000,19.841154052734375,0.000610864779446274,-0.009162971749901772,0.001832594396546483
1775341750784941300,19.85794140625,0.023212861269712448,-0.013439024798572063,-0.013439024798572063
1775341750801728500,19.874728515625,0.001221729558892548,-0.004886918235570192,0
1775341750818515500,19.891515380859374,0.020158538594841957,-0.01282816007733345,0.008552107028663158
1775341750835302700,19.908302734375,0,-0.003665188793092966,0.001221729558892548
1775341750852089900,19.92508984375,0.014660755172371864,-0.0054977829568088055,-0.0054977829568088055
1775341750868876800,19.941876708984374,0.001221729558892548,-0.002443459117785096,-0.0030543238390237093
1775341750885664000,19.9586640625,0.010384701192378998,-0.004276053514331579,0.000610864779446274
1775341750902451200,19.975451171875,0.001832594396546483,-0.001221729558892548,0.007330377586185932
