time,seconds_elapsed,z,y,x
1775714901759515400,0.059515380859375,-0.4551037748739123,-8.182392263376713,5.386252893605828
1775714901769529300,0.069529296875,-0.46067624124400314,-8.170402550375462,5.403949878337979
1775714901779543300,0.079543212890625,-0.47110867833327497,-8.158572411850095,5.420899844095111
1775714901789557200,0.08955712890625,-0.48681989607568826,-8.145998176959157,5.438392246165871
1775714901799571200,0.0995712890625,-0.5061299420276656,-8.131459948518872,5.45835074608922
1775714901809585400,0.10958544921875,-0.5252573979543522,-8.11454680764079,5.48166323261559
1775714901819599400,0.119599365234375,-0.5417647345105185,-8.095013255131244,5.508869219449162
1775714901829613600,0.129613525390625,-0.5555130546821281,-8.07282655776441,5.539969291111826
1775714901839626200,0.139626220703125,-0.566706612337008,-8.048273131266235,5.574455498081446
1775714901849640400,0.149640380859375,-0.576579004390724,-8.023001911887526,5.609757697609067
1775714901859654400,0.159654296875,-0.5870637196565046,-7.999338712227344,5.64236992740035
1775714901869668400,0.16966845703125,-0.6000615867869928,-7.97944743232131,5.669103036025166
1775714901879682300,0.179682373046875,-0.6145457104198634,-7.964679486778378,5.688285875400901
1775714901889696300,0.1896962890625,-0.6276808671291917,-7.9539920885473485,5.70179008461833
1775714901899710500,0.19971044921875,-0.640657983732596,-7.944797559222579,5.713154359197616
1775714901909724200,0.20972412109375,-0.6524030012577772,-7.93356655563414,5.72741552426219
1775714901919737300,0.2197373046875,-0.6581774930059909,-7.919704034498333,5.745907458764314
1775714901929751300,0.229751220703125,-0.6546055528033524,-7.904424632301926,5.767318495583534
1775714901939765200,0.23976513671875,-0.6429867189411074,-7.892072515729069,5.78551057035625
1775714901949779200,0.249779296875,-0.6321025560289621,-7.888827250197529,5.791136593544483
1775714901959793400,0.25979345703125,-0.6232558902937918,-7.889909784737229,5.79061870715022
1775714901969807400,0.269807373046875,-0.6173729697350412,-7.8902049682915205,5.790845501643419
1775714901979821600,0.279821533203125,-0.6175321788847447,-7.889836134979128,5.7913329928994175
1775714901989835300,0.289835205078125,-0.6209769855763763,-7.888964028319716,5.7921530771106475
1775714901999848400,0.299848388671875,-0.6236646172251552,-7.887591570922732,5.79373420882225
1775714902009862400,0.3098623046875,-0.6214692991379648,-7.887271837449073,5.794403486385941
1775714902019876400,0.31987646484375,-0.6083851419635117,-7.891265875521301,5.790350996124744
1775714902029890300,0.329890380859375,-0.5821843501171097,-7.8968802082717415,5.785390158846974
1775714902039904300,0.339904296875,-0.5474955697800964,-7.900041302651166,5.784461353564262
1775714902049918500,0.34991845703125,-0.5138753319900483,-7.8987302200526,5.7893350970804685
1775714902059932200,0.35993212890625,-0.48488947600238025,-7.894479576870799,5.797624786520004
1775714902069946400,0.3699462890625,-0.4613989294953644,-7.890264005002379,5.805275009012222
1775714902079960300,0.379960205078125,-0.4482799567358568,-7.889287853446603,5.807631801271438
1775714902089973500,0.389973388671875,-0.4430130857162177,-7.892663467359542,5.803447209063172
1775714902099987200,0.3999873046875,-0.44379722183123227,-7.899255705231428,5.794411669692397
1775714902110001400,0.41000146484375,-0.451979322710447,-7.906958534693717,5.7832619146466255
1775714902120015400,0.420015380859375,-0.471355090842396,-7.916887223511933,5.76811052274406
1775714902130029300,0.430029296875,-0.5025216153373941,-7.930214322596788,5.747136123776436
1775714902140043300,0.440043212890625,-0.538385102009587,-7.945635763612389,5.722533012917637
1775714902150057200,0.45005712890625,-0.570629083010368,-7.96018100631535,5.699150383764505
1775714902160071400,0.460071533203125,-0.5950361963730305,-7.971387459984421,5.680959478035569
1775714902170085400,0.47008544921875,-0.6114497536985203,-7.979458538237213,5.667870279359817
1775714902180098300,0.480098388671875,-0.6199973268892616,-7.983142779707908,5.661749750652909
1775714902190112300,0.4901123046875,-0.6212285491846501,-7.983367820635437,5.6612984997540705
1775714902200126500,0.50012646484375,-0.6176653768103569,-7.982213389903307,5.6633145157516
1775714902210140200,0.51014013671875,-0.6120129405392334,-7.980179838249087,5.666793005517125
1775714902220154400,0.520154296875,-0.6055970456149429,-7.9782164292216295,5.670246945363282
1775714902230168300,0.530168212890625,-0.5991789952661841,-7.977423817539215,5.6720449346959585
1775714902240182300,0.540182373046875,-0.5927693108869716,-7.977753487884998,5.672251855444908
1775714902250196200,0.5501962890625,-0.5868241022143512,-7.97737647126615,5.673402779045701
1775714902260210200,0.560210205078125,-0.5822381261309608,-7.974742031109333,5.677576849859952
1775714902270225000,0.570224853515625,-0.5793005383091047,-7.970107941567897,5.684379515612125
1775714902280237800,0.58023779296875,-0.5755693158915266,-7.965313108506798,5.69147561135292
1775714902290252000,0.590251953125,-0.5676488616231828,-7.96217714856863,5.696655644339323
1775714902300266000,0.600265869140625,-0.5557429909804835,-7.960532888492941,5.700125950798392
1775714902310280000,0.610280029296875,-0.5409646701740101,-7.959897513198852,5.702435396784543
1775714902320294000,0.6202939453125,-0.5250645057307556,-7.960288558343052,5.703377646070718
1775714902330307800,0.630307861328125,-0.5096540975658223,-7.961942755290865,5.702466376444697
1775714902340322000,0.640322021484375,-0.4966491796400398,-7.96456316692233,5.699952347797155
1775714902350335700,0.650335693359375,-0.4879977076834067,-7.967181240466236,5.6970396752208465
1775714902360350000,0.660349853515625,-0.48418026828709987,-7.9685753251731395,5.695417626976966
1775714902370363000,0.67036279296875,-0.4851541548205539,-7.967823630023002,5.696385595226287
1775714902380376800,0.680376953125,-0.4912861913021654,-7.965390849918126,5.699261442923546
1775714902390390800,0.690390869140625,-0.49836730866953727,-7.962804340556263,5.702257117608189
1775714902400405000,0.700405029296875,-0.5028162143697962,-7.961347712007164,5.703903715771436
1775714902410419000,0.7104189453125,-0.506240635860525,-7.961455848556756,5.70344895774126
1775714902420433000,0.720432861328125,-0.5102541823508218,-7.962852271351218,5.7011400962769985
1775714902430446800,0.73044677734375,-0.5144707771325484,-7.965215493351221,5.697461115503311
1775714902440460800,0.740460693359375,-0.5186281890729442,-7.967993725892901,5.693198781883717
1775714902450475000,0.75047509765625,-0.5233175159329548,-7.969683578675985,5.690402429163456
1775714902460489000,0.760489013671875,-0.5299012051722034,-7.968767632874846,5.691076967424154
1775714902470502000,0.770501953125,-0.5386906608274207,-7.964660197556018,5.6959980572134254
1775714902480515800,0.780515869140625,-0.548194475297071,-7.95779381891787,5.704678791797161
1775714902490530000,0.790530029296875,-0.5581482620239258,-7.949408267888426,5.715397754210233
1775714902500543700,0.800543701171875,-0.5668656022910028,-7.94128867431879,5.725815687850117
1775714902510558000,0.810557861328125,-0.5737889718133956,-7.9348308764815325,5.734074982151389
1775714902520572000,0.820572021484375,-0.5794411523561924,-7.930414229083061,5.739613911578059
1775714902530586000,0.830586181640625,-0.584466615835391,-7.92733847489953,5.743351929062604
1775714902540599800,0.840599853515625,-0.5899018291592598,-7.924414696407317,5.746831003350019
1775714902550613800,0.85061376953125,-0.5952297827163711,-7.920914579331875,5.751103858363628
1775714902560628000,0.8606279296875,-0.6007386457983404,-7.916834032019972,5.7561482822716235
1775714902570642000,0.870641845703125,-0.6063109660379589,-7.912152596205472,5.761996423777938
1775714902580654800,0.88065478515625,-0.6122703493664041,-7.906986591744422,5.768454806137084
1775714902590668800,0.890668701171875,-0.6178674021884799,-7.901954442796111,5.77474835332334
1775714902600683000,0.90068310546875,-0.6216937555436045,-7.89656690453887,5.781704163810611
1775714902610697000,0.910697021484375,-0.6234174375310539,-7.891019207283854,5.789086090755462
1775714902620711000,0.9207109375,-0.6237832751687615,-7.886206838566064,5.7956040943473575
1775714902630724900,0.930724853515625,-0.6236627175290137,-7.883048082274198,5.799914943283796
1775714902640739000,0.940739013671875,-0.6228569541040807,-7.882128629341721,5.80124940675795
1775714902650753000,0.9507529296875,-0.6211744809098542,-7.882207539796829,5.801321887472271
1775714902660766700,0.9607666015625,-0.620316695036739,-7.882459468731284,5.801071127581596
1775714902670781000,0.970781005859375,-0.6213073865745217,-7.882759912982583,5.800555579274892
1775714902680795000,0.980794921875,-0.6225686386819929,-7.883062110799551,5.800010804873705
1775714902690807800,0.990807861328125,-0.6235061387278139,-7.88319362822473,5.799730818888545
1775714902700821800,1.00082177734375,-0.6246310511045158,-7.882624888426065,5.800384314361215
1775714902710836000,1.0108359375,-0.6276644274510443,-7.8819035884141915,5.801036056268215
1775714902720850000,1.020849853515625,-0.6324339799404144,-7.881245416766404,5.801411319321393
1775714902730863900,1.03086376953125,-0.6367638258382677,-7.879548549720645,5.803242626401782
1775714902740877800,1.0408779296875,-0.6398791813798248,-7.876932814264297,5.806449898010492
1775714902750892000,1.05089208984375,-0.6432921316284685,-7.874217710086703,5.80975478477478
1775714902760906000,1.060906005859375,-0.6478384698212146,-7.8714868238180875,5.812950365945697
1775714902770919700,1.070919677734375,-0.6528627277240157,-7.868519206184148,5.816406059357524
1775714902780934000,1.080933837890625,-0.6558723578687757,-7.865278616827726,5.820447443702816
1775714902790947800,1.09094775390625,-0.6543498244766146,-7.862133304539323,5.824868182754516
1775714902800962000,1.100962158203125,-0.6492126807838678,-7.859792294371128,5.8285997704982755
1775714902810974700,1.110974609375,-0.641716041418165,-7.8588278332531445,5.830729183742403
1775714902820989000,1.120989013671875,-0.6323983241051435,-7.859521076214313,5.830812185850739
1775714902831003000,1.1310029296875,-0.6213033679865301,-7.861571579003334,5.829242744576931
1775714902841017000,1.14101708984375,-0.6092180125910789,-7.8646736366719,5.826331241044402
1775714902851030800,1.15103076171875,-0.5971163636479526,-7.868092505204677,5.822970240178704
1775714902861045000,1.161044921875,-0.5858384887104854,-7.871012776565551,5.820163950586319
1775714902871059000,1.171058837890625,-0.5765680446052923,-7.873492318421602,5.81773701570034
1775714902881073000,1.181072998046875,-0.5689341156607494,-7.875569124695658,5.8156783296048635
1775714902891086800,1.1910869140625,-0.5608849204462021,-7.8767066042929885,5.81492020471394
1775714902901100800,1.201100830078125,-0.5523292004816234,-7.876795451620221,5.815619877415895
1775714902911115000,1.211114990234375,-0.5438253568347543,-7.875012075334787,5.818835916852951
1775714902921129000,1.22112890625,-0.5361952272824942,-7.871480394077301,5.824318732178211
1775714902931142000,1.231141845703125,-0.5289988860376179,-7.867543054628372,5.830293130412698
1775714902941155800,1.24115576171875,-0.5209257254255936,-7.864849577760696,5.8346536637097595
1775714902951170000,1.251170166015625,-0.5126191213838756,-7.864614599961042,5.835706972154974
1775714902961184000,1.26118408203125,-0.5046946119949222,-7.866884298458695,5.833336735892296
1775714902971198000,1.271197998046875,-0.49649764234013855,-7.87099582543075,5.8284928029924625
1775714902981212000,1.2812119140625,-0.48696818197257813,-7.8764763026684514,5.821887705639004
1775714902991225900,1.291225830078125,-0.47571412630211557,-7.882955727815627,5.814041083791851
1775714903001240000,1.301239990234375,-0.4647698307005688,-7.889774175658822,5.805671899375319
1775714903011253800,1.311253662109375,-0.45631914201304313,-7.8961174072057005,5.797713049325346
1775714903021268000,1.32126806640625,-0.4497393982965499,-7.901544692951441,5.790830304074287
1775714903031282000,1.331281982421875,-0.44345662823263554,-7.9063862877637145,5.784703345626593
1775714903041296100,1.341296142578125,-0.435904641950503,-7.911060124793648,5.778883261170983
1775714903051309800,1.351309814453125,-0.4253017071325332,-7.915670833459496,5.773357191225886
1775714903061323000,1.361322998046875,-0.41104507211260494,-7.9198349674016235,5.768679262542724
1775714903071337000,1.3713369140625,-0.39350718693230297,-7.923556033751368,5.76478868484497
1775714903081351000,1.381350830078125,-0.3738522730654105,-7.9268936537414785,5.761509517043828
1775714903091364900,1.39136474609375,-0.3521356408957392,-7.93043410282731,5.758004139271378
1775714903101378800,1.40137890625,-0.32702834337446834,-7.934567257109284,5.7537885674029585
1775714903111393000,1.41139306640625,-0.29812622014749796,-7.9393083141565315,5.748816039687394
1775714903121407000,1.421406982421875,-0.2685241502239369,-7.945330058664083,5.741952583658695
1775714903131421000,1.4314208984375,-0.23893209023773668,-7.952826551899314,5.732871451580524
1775714903141435000,1.441434814453125,-0.2080888794129714,-7.960764943683147,5.723052652877569
1775714903151449000,1.451448974609375,-0.17579492179062217,-7.968391785299778,5.713512086594104
1775714903161463000,1.461463134765625,-0.1422083944739308,-7.975489634606242,5.704536752977967
1775714903171476700,1.471476806640625,-0.10823797327303326,-7.982491622322797,5.695482508906721
1775714903181491000,1.481490966796875,-0.07447334487650077,-7.990055335575342,5.685405351528525
1775714903191505000,1.4915048828125,-0.042388527359650464,-7.998363145193457,5.674045753124356
1775714903201517800,1.501517822265625,-0.01353610904290108,-8.006987181153892,5.662011031937599
1775714903211531800,1.51153173828125,0.01245428688925458,-8.015439367678761,5.650041192680597
1775714903221546000,1.5215458984375,0.036957595201965884,-8.023619167003035,5.638311007398366
1775714903231560000,1.531559814453125,0.06071249858345836,-8.031624778804183,5.626696557450294
1775714903241574000,1.541573974609375,0.08261566630117595,-8.039607594251633,5.615005535134673
1775714903251587800,1.551587890625,0.10111159199182874,-8.04809777469933,5.6025248237460845
1775714903261602000,1.56160205078125,0.11469315902809611,-8.057257232710718,5.589080235761403
1775714903271616000,1.571615966796875,0.12350623302091844,-8.066314983913301,5.575814511474967
1775714903281630000,1.5816298828125,0.12930736618088556,-8.074650850582122,5.563603264677524
1775714903291644200,1.59164404296875,0.13203710167203098,-8.082163710430263,5.552619513848423
1775714903301658000,1.601658203125,0.13257762915636412,-8.088172010934352,5.543849931937456
1775714903311672000,1.611672119140625,0.13349342882703058,-8.092823636132477,5.537037329313159
1775714903321686000,1.62168603515625,0.13562588341161608,-8.097085969752072,5.5307496273458
1775714903331700000,1.631699951171875,0.13830140449749306,-8.10162361318171,5.524031717267632
1775714903341714200,1.641714111328125,0.14079913959736004,-8.107008228829503,5.516065268433094
1775714903351727000,1.65172705078125,0.1417175787496846,-8.113698666378856,5.506195616325735
1775714903361741000,1.661740966796875,0.1409038968797773,-8.121645241469144,5.494491150006652
1775714903371755000,1.671755126953125,0.14065789536261,-8.13043761973381,5.481479108220339
1775714903381769000,1.68176904296875,0.14092460174108853,-8.139756652221083,5.467621847781539
1775714903391783000,1.691782958984375,0.1401034215513151,-8.149183821257948,5.4535810474693776
1775714903401797000,1.701797119140625,0.13685177194476128,-8.158894483411311,5.4391252366155385
1775714903411811000,1.71181103515625,0.12962837829617782,-8.16891318860054,5.424244478347897
1775714903421825000,1.721824951171875,0.11738158526131882,-8.179374376860261,5.408739450702071
1775714903431839000,1.7318388671875,0.1002977913909126,-8.190707671779395,5.391904635757207
1775714903441853000,1.74185302734375,0.07878591541256755,-8.203251511532068,5.373158434233069
1775714903451867100,1.7518671875,0.052895888282079244,-8.216528926256299,5.353152588036656
1775714903461880800,1.761880859375,0.024499052262702024,-8.230200308734178,5.33231321362555
1775714903471895000,1.77189501953125,-0.005146767754328902,-8.244591237658263,5.310090860423445
1775714903481909000,1.781908935546875,-0.035338999290496574,-8.2591773968935,5.287260019934177
1775714903491923200,1.791923095703125,-0.06452403339536394,-8.27266173236668,5.26586242711842
1775714903501937200,1.801937255859375,-0.09223735326314345,-8.284311253628134,5.247099858981371
1775714903511950000,1.8119501953125,-0.11792961106551811,-8.294177983126044,5.230974653610587
1775714903521964000,1.821964111328125,-0.1414859254182782,-8.30300893983543,5.216361606368422
1775714903531978200,1.831978271484375,-0.16332005562093108,-8.310766129833459,5.2033530717134475
1775714903541992000,1.841991943359375,-0.1832585539358668,-8.316687336575985,5.193216877624392
1775714903552006000,1.852005859375,-0.20080977352177723,-8.321063067442179,5.18555554921627
1775714903562020000,1.86202001953125,-0.21514670723630114,-8.324991639062763,5.178665789702534
1775714903572034000,1.872033935546875,-0.22696334695927797,-8.329034776973725,5.171659710332751
1775714903582048000,1.882048095703125,-0.2388542574948631,-8.33420896474123,5.162780238306522
1775714903592062000,1.89206201171875,-0.25097020895797756,-8.34077197651863,5.15159424290359
1775714903602076200,1.902076171875,-0.26186544125340877,-8.34838478960991,5.138705535236001
1775714903612090000,1.912090087890625,-0.27210845671780404,-8.35627057442367,5.125336935096978
1775714903622103800,1.922103759765625,-0.28121781024346126,-8.363872866120934,5.11242893820703
1775714903632118000,1.932117919921875,-0.2895381688158959,-8.3706872223109,5.100798706167936
1775714903642132000,1.942132080078125,-0.29669907342121005,-8.376448854577541,5.090920286232233
1775714903652146200,1.952146240234375,-0.3012287892727181,-8.3814500238657,5.082417246302962
1775714903662160100,1.96216015625,-0.30241392567036673,-8.385814064294099,5.075141117820143
1775714903672174000,1.972174072265625,-0.30009191246358674,-8.389373802602291,5.069394098600745
1775714903682188000,1.98218798828125,-0.29518287843829016,-8.391617197614908,5.065965877717733
1775714903692202000,1.992201904296875,-0.2890422202588059,-8.392603870564699,5.06468577477932
1775714903702216200,2.00221630859375,-0.2829774037945084,-8.393001929971575,5.064369548436999
1775714903712229000,2.01222900390625,-0.27589445979623123,-8.393019465628266,5.064730782964825
1775714903722243000,2.0222431640625,-0.26700158029915766,-8.392797347310186,5.065573079007864
1775714903732257000,2.032257080078125,-0.25716128215044737,-8.391790216094256,5.067750423046946
1775714903742271000,2.04227099609375,-0.24737930832654237,-8.390239479520917,5.070805718964338
1775714903752285000,2.052284912109375,-0.23816415633885188,-8.388847732901572,5.073548295670747
1775714903762299100,2.062299072265625,-0.2290404272279702,-8.38732329981327,5.076486102688312
1775714903772313000,2.07231298828125,-0.22001056867931038,-8.384705226269364,5.081211962166428
1775714903782327000,2.0823271484375,-0.2119050036350265,-8.380900573289393,5.087826411870122
1775714903792341000,2.092341064453125,-0.20510734285153448,-8.375890051651,5.096350494587421
1775714903802355000,2.10235498046875,-0.19851788145862517,-8.370067629107833,5.106165201637149
1775714903812369200,2.112369140625,-0.19055035491185263,-8.363658931109308,5.116958982852101
1775714903822382800,2.1223828125,-0.1804323723329231,-8.356744621676206,5.128612595766782
1775714903832397000,2.13239697265625,-0.16780037937276066,-8.349546819126605,5.140748439240455
1775714903842411000,2.142410888671875,-0.15084293356207198,-8.342908988547325,5.152039064061642
1775714903852425200,2.15242529296875,-0.12893390235914848,-8.337801436275242,5.1608934016466135
1775714903862439200,2.162439208984375,-0.1043955820985604,-8.334297812068462,5.167105700290203
1775714903872452900,2.172452880859375,-0.07934487360273487,-8.332260168761014,5.170836703512072
1775714903882467000,2.182467041015625,-0.05402367760245688,-8.331414950108528,5.172524218207597
1775714903892481000,2.19248095703125,-0.029901105385774278,-8.331535946139693,5.172525387251377
1775714903902495200,2.2024951171875,-0.00643502545809024,-8.33271668035686,5.170704017043113
1775714903912508000,2.2125078125,0.018196637925045795,-8.333726149660349,5.169048651051521
1775714903922522000,2.222522216796875,0.04468867122791707,-8.333631457114219,5.169038714179396
1775714903932536000,2.2325361328125,0.07258659041498322,-8.332676932868361,5.1702644565820695
1775714903942550000,2.242550048828125,0.10180994038637727,-8.33167097069621,5.171388492175937
1775714903952564000,2.25256396484375,0.13154059599251486,-8.33098298843205,5.171828052636981
1775714903962578200,2.262578125,0.16108318168064578,-8.33023596945703,5.172195132383704
1775714903972592000,2.272592041015625,0.18975752403372897,-8.329197274059057,5.172894220563769
1775714903982605800,2.282605712890625,0.21707990378858522,-8.326738190469145,5.1757770825237035
1775714903992620000,2.2926201171875,0.2435281127911061,-8.321706041520834,5.182692561000585
1775714904002634000,2.302634033203125,0.2681317351065576,-8.314052311897278,5.193748208022117
1775714904012648200,2.312648193359375,0.28956628066552803,-8.304127130210398,5.208455947810411
1775714904022662000,2.322661865234375,0.30794823372084645,-8.292247891846298,5.226297893971204
1775714904032676000,2.332676025390625,0.32297311316691335,-8.279836154040694,5.245034743145108
1775714904042690000,2.34268994140625,0.33546529579758644,-8.26747585416138,5.263711971086264
1775714904052704000,2.3527041015625,0.34903142780270424,-8.253986842513084,5.283960393866896
1775714904062718200,2.36271826171875,0.3652827437711879,-8.239341062045098,5.3056753820687526
1775714904072732000,2.37273193359375,0.3840907219525426,-8.22430365191102,5.327633531376719
1775714904082746000,2.38274609375,0.4049470474984497,-8.20951524810195,5.34885576762557
1775714904092760000,2.392760009765625,0.42927875753734257,-8.194698202720284,5.369641950544715
1775714904102774000,2.40277392578125,0.45819322878923263,-8.178855905944108,5.3913616149216885
1775714904112788000,2.4127880859375,0.49091425271723416,-8.160543419662117,5.416172815573215
1775714904122802000,2.422802001953125,0.5270474962415174,-8.139002618983387,5.445112494331598
1775714904132816100,2.432816162109375,0.5655826863409951,-8.114350992807745,5.4779392436563965
1775714904142830000,2.442830078125,0.605726699876599,-8.087945800963043,5.512587947711348
1775714904152844000,2.452843994140625,0.6461417489059269,-8.062087137085198,5.545777685129642
1775714904162858000,2.46285791015625,0.6849247032213955,-8.039424054378271,5.573952809256315
1775714904172871200,2.47287109375,0.7205497780278325,-8.020859639161825,5.596161133933067
1775714904182884900,2.482884765625,0.7512311128217727,-8.005289729586243,5.614389449062943
1775714904192899000,2.492899169921875,0.7757027793206274,-7.991270556584,5.631009159952402
1775714904202913000,2.5029130859375,0.7945909465987235,-7.978109461715817,5.647016291901469
1775714904212927000,2.512927001953125,0.8093111074771732,-7.965482035332918,5.662728824818134
1775714904222941000,2.52294091796875,0.8213758584760129,-7.9535782470494505,5.677704275631904
1775714904232955000,2.532954833984375,0.8329161472093314,-7.941862090292573,5.692406170201301
1775714904242969000,2.542968994140625,0.8437220572534948,-7.929663118454814,5.707799554166197
1775714904252983000,2.552983154296875,0.8545164960555732,-7.9173238613635295,5.723301074680686
1775714904262997500,2.56299755859375,0.8670767024211585,-7.90656222885251,5.736272199934721
1775714904273011200,2.57301123046875,0.8821150624033063,-7.899504127034544,5.743702642196417
1775714904283025200,2.583025146484375,0.9001847529053687,-7.896937491416931,5.744427449339628
1775714904293039400,2.593039306640625,0.9198447082735598,-7.898391197356581,5.739309960195422
1775714904303053300,2.60305322265625,0.9394689347412437,-7.902879156425595,5.729946504044532
1775714904313067300,2.6130673828125,0.9599174101386219,-7.908748340719938,5.718446620386839
1775714904323081200,2.623081298828125,0.9798710877563804,-7.915205554035306,5.706113793036342
1775714904333095400,2.633095458984375,0.9971181367639451,-7.922504478871822,5.692984262350201
1775714904343109400,2.643109375,1.0102855883076787,-7.931619513219594,5.677951528391242
1775714904353748200,2.653748291015625,1.020414622003585,-7.94335963537395,5.65969574073255
1775714904363762400,2.663762451171875,1.0267331575006247,-7.955786570748686,5.641067028108239
1775714904373776100,2.673776123046875,1.0282226654060185,-7.96930013231635,5.62168778937757
1775714904383790300,2.683790283203125,1.0240319357179104,-7.984421713602543,5.600959474125504
1775714904393804300,2.69380419921875,1.0159173105843364,-8.001932235851884,5.577399150317907
1775714904403818500,2.703818603515625,1.0071793659206478,-8.021713625642656,5.5505041291296475
1775714904413832200,2.713832275390625,1.0018293101295828,-8.041938667547702,5.52213435921371
1775714904423846100,2.72384619140625,1.0026280592918395,-8.061103971266746,5.49397092552483
1775714904433860400,2.7338603515625,1.0099486845035106,-8.078098360687493,5.4676066502124065
1775714904443874300,2.743874267578125,1.0254955054644495,-8.092044468453526,5.444038727620244
1775714904453888300,2.75388818359375,1.0497580592572688,-8.103313465964794,5.422608401578665
1775714904463902200,2.763902099609375,1.0836910162582993,-8.11154294964969,5.4035979961603875
1775714904473916400,2.77391650390625,1.126522661442682,-8.116676805406808,5.387103957477212
1775714904483930400,2.783930419921875,1.1766522816155105,-8.119083282026647,5.372744008213282
1775714904493943300,2.793943359375,1.2322870020106433,-8.118547275453805,5.3610693525105715
1775714904503957200,2.803957275390625,1.2899619229964912,-8.115668505147099,5.351853780397772
1775714904513971500,2.813971435546875,1.3450453661844133,-8.112482276326418,5.343115762668848
1775714904523985400,2.8239853515625,1.3942588944256304,-8.110454569891095,5.333572858297824
1775714904533999000,2.8339990234375,1.4360595160618423,-8.109905119314789,5.323307484871148
1775714904544013300,2.844013427734375,1.4689809579327702,-8.111329014638066,5.312140194168687
1775714904554027300,2.85402734375,1.4929678365893662,-8.113605142876505,5.301966590678692
1775714904564041500,2.86404150390625,1.5104161072574556,-8.115821649882196,5.293628970444202
1775714904574055200,2.87405517578125,1.5221904239423572,-8.118198315885662,5.286605355417728
1775714904584069400,2.8840693359375,1.5264068725936113,-8.121098128980398,5.280933155000209
1775714904594083300,2.894083251953125,1.524330796971917,-8.12439600148201,5.27645571732521
1775714904604097300,2.90409716796875,1.5173964676640928,-8.128089595302939,5.27276270802617
1775714904614111200,2.914111328125,1.5070336252123115,-8.132012321704625,5.26968636932075
1775714904624125200,2.924125244140625,1.4955151829846203,-8.136657517161964,5.265795207101107
1775714904634139400,2.934139404296875,1.4846499439686536,-8.142670493841171,5.259574140629172
1775714904644153300,2.9441533203125,1.4750253526635466,-8.149987538856267,5.250939583274722
1775714904654167300,2.954167236328125,1.467228999698907,-8.158050433802604,5.24059296130538
1775714904664181200,2.96418115234375,1.4621309459075331,-8.166016882637143,5.229597520038485
1775714904674195200,2.9741953125,1.45843954404369,-8.172917748066782,5.219843018743395
1775714904684209400,2.98420947265625,1.45376293053478,-8.17939308156073,5.2109974489867685
1775714904694223400,2.994223388671875,1.4482069038428365,-8.186631800642608,5.201165206280351
1775714904704237300,3.0042373046875,1.4425029931128024,-8.195064697945117,5.189459570917487
1775714904714251300,3.014251220703125,1.437957897029072,-8.203662430420517,5.177119729304313
1775714904724265200,3.02426513671875,1.4326814179308711,-8.21278038737774,5.164109441083669
1775714904734279400,3.034279541015625,1.424361917874962,-8.222633088350296,5.150715706503391
1775714904744293000,3.044293212890625,1.4119149626255034,-8.232115202444792,5.138983183133602
1775714904754307300,3.054307373046875,1.3953374834425747,-8.241508469212055,5.128443084418773
1775714904764321300,3.0643212890625,1.3755183919899165,-8.251838140046596,5.117175840473175
1775714904774335500,3.07433544921875,1.3534941917084156,-8.264125374689698,5.103199922090768
1775714904784349200,3.08434912109375,1.3296090198606252,-8.278380694535374,5.086348156011105
1775714904794363100,3.094363037109375,1.3051089309848845,-8.292297576206922,5.069995571625232
1775714904804377300,3.10437744140625,1.2806846838243304,-8.303235149806737,5.058310979050398
1775714904814391300,3.114391357421875,1.2593182167991994,-8.308588785794377,5.054885096254944
1775714904824405200,3.1244052734375,1.2446085773147642,-8.30699654816687,5.061140064996481
1775714904834419200,3.134419189453125,1.2374082905471324,-8.299992222362755,5.074377732232213
1775714904844433400,3.144433349609375,1.2379143403731285,-8.289963580301404,5.090621595546603
1775714904854447400,3.154447265625,1.2478136569663882,-8.277825983262062,5.1079263660907746
1775714904864461000,3.1644609375,1.267082274929434,-8.264059908238053,5.12544740973413
1775714904874475300,3.174475341796875,1.2915356020539999,-8.250702414014935,5.1408407936990255
1775714904884489200,3.1844892578125,1.3180816636741162,-8.238386537799238,5.153838222438097
1775714904894503400,3.19450341796875,1.3427052327990532,-8.228131685766577,5.1638540050178765
1775714904904517000,3.20451708984375,1.3590503645308314,-8.221664535579086,5.169874580481648
1775714904914531300,3.21453125,1.36386507133618,-8.217844100508094,5.174681103980541
1775714904924545300,3.224545166015625,1.3557003234505653,-8.214627476549149,5.181928006368875
1775714904934559200,3.234559326171875,1.3359789932839572,-8.211474565476179,5.1920361434072255
1775714904944573400,3.244573486328125,1.3086296524569392,-8.208107719391585,5.204311103090643
1775714904954587100,3.254587158203125,1.2777234959311783,-8.20397164250016,5.21849218865633
1775714904964601300,3.264601318359375,1.2481022646494209,-8.199542720142006,5.232604885160923
1775714904974615300,3.274615234375,1.2230841432489454,-8.194507648584246,5.246380312535166
1775714904984629500,3.28462939453125,1.2025932169493287,-8.189901031571626,5.258298129343986
1775714904994643200,3.294643310546875,1.1869501690723,-8.186306806471944,5.267440051698684
1775714905004657200,3.3046572265625,1.176737694876641,-8.182902550986409,5.275015455389022
1775714905014671400,3.31467138671875,1.1698189284641296,-8.179916228651999,5.281182161325216
1775714905024685300,3.324685302734375,1.1643291719414293,-8.177074867746233,5.286793571466207
1775714905034699300,3.33469921875,1.1596602302823216,-8.173700422877072,5.293035096204281
1775714905044713200,3.344713134765625,1.1561449156377464,-8.170332407748699,5.298997804000973
1775714905054727400,3.3547275390625,1.1544817316658795,-8.166949779573082,5.304574727350473
1775714905064741400,3.364741455078125,1.1558140762481839,-8.163532080084085,5.30954199436903
1775714905074755000,3.374755126953125,1.160931273131445,-8.16063285151124,5.31288019888103
1775714905084769300,3.384769287109375,1.1702016441714018,-8.157900796198845,5.315041760829091
1775714905094783200,3.394783203125,1.1831197240639477,-8.15438431251049,5.31757858583033
1775714905104796400,3.40479638671875,1.1998019057303666,-8.149222984224558,5.321749149513244
1775714905114811100,3.41481103515625,1.219443960115686,-8.142649451053142,5.327343023997545
1775714905124825300,3.424825439453125,1.2395910414136946,-8.135388520139456,5.33378562426567
1775714905134838300,3.43483837890625,1.2576834552042186,-8.127718423902987,5.341237693837285
1775714905144852500,3.4448525390625,1.271381871819496,-8.119359760880469,5.350697596099972
1775714905154866200,3.4548662109375,1.278524290920049,-8.110376243957877,5.362607814124226
1775714905164880400,3.46488037109375,1.2805378226995467,-8.101267054829002,5.37587996815145
1775714905174894300,3.474894287109375,1.2766384771734476,-8.09356714797616,5.388389321112633
1775714905184908300,3.484908203125,1.2660989629805088,-8.088069719603658,5.399122312051057
1775714905194922200,3.494922119140625,1.2502009904943405,-8.085203224256635,5.407112726283073
1775714905204936200,3.504936279296875,1.2300243177756667,-8.084778276842831,5.412376345899701
1775714905214950400,3.514950439453125,1.2061087507896124,-8.086271145749091,5.415524580797553
1775714905224964400,3.52496435546875,1.1792572034168989,-8.088752441170811,5.417732319974899
1775714905234978300,3.534978271484375,1.1502755121476949,-8.091939839035271,5.419200054439902
1775714905244992300,3.5449921875,1.1171785675793886,-8.095536402222514,5.420755467188358
1775714905255006200,3.555006103515625,1.079141828521341,-8.0988810364753,5.423467064234614
1775714905265020400,3.5650205078125,1.037672776927054,-8.101928149086236,5.427007513320445
1775714905275034000,3.5750341796875,0.9971076884351671,-8.104172128620743,5.4312593255460255
1775714905285048300,3.58504833984375,0.963851753912866,-8.105216669237613,5.435701107385754
1775714905295062300,3.595062255859375,0.9402555550742894,-8.10492557733655,5.440265638822317
1775714905305076500,3.605076416015625,0.9255950154285877,-8.102933526736498,5.4457420244067904
1775714905315090200,3.615090087890625,0.9165811033677309,-8.099110169056058,5.452950932872295
1775714905325104000,3.625104248046875,0.9100088853705673,-8.092661139047145,5.463617872837186
1775714905335118300,3.635118408203125,0.9060711075302212,-8.082799670246242,5.478847590672969
1775714905345132300,3.64513232421875,0.9056747286237776,-8.069830298557877,5.4979994503885505
1775714905355146500,3.655146484375,0.9106743635419756,-8.055265182110666,5.518492787840962
1775714905365160200,3.66516015625,0.9228184633873403,-8.042304578250645,5.535350983661413
1775714905375174400,3.67517431640625,0.9387656818427145,-8.03254598530233,5.54682748644352
1775714905385188400,3.685188232421875,0.9555146451350301,-8.023589356386662,5.556924517565966
1775714905395202300,3.695202392578125,0.9736071319907903,-8.013066793328523,5.568955147099494
1775714905405216300,3.70521630859375,0.9938760130375623,-7.9984397175610065,5.586373314890265
1775714905415230200,3.715230224609375,1.016235655818507,-7.979094381099939,5.609964618358016
1775714905425244400,3.725244384765625,1.0414124749120324,-7.956325499930977,5.637618348959088
1775714905435258400,3.73525830078125,1.0693162347514182,-7.9319848394006485,5.666619402515888
1775714905445272300,3.745272216796875,1.09852800844945,-7.908917267546057,5.693208718755841
1775714905455286300,3.755286376953125,1.1259744529753923,-7.888838356113434,5.715660789060593
1775714905465300200,3.76530029296875,1.1499420424096285,-7.871975484117865,5.73411005346477
1775714905475314400,3.775314453125,1.1722806424025445,-7.858447894024849,5.748124550291895
1775714905485328100,3.785328125,1.1953067132029682,-7.848655983328819,5.756755600515008
1775714905495342300,3.79534228515625,1.2180127582687883,-7.842375295624136,5.76055499279797
1775714905505356300,3.805356201171875,1.2379641708642244,-7.839796969568729,5.75981031191051
1775714905515370500,3.81537060546875,1.2543285918183624,-7.840209057500958,5.755708721810579
1775714905525384200,3.82538427734375,1.26623179557994,-7.840845017316937,5.752234323698282
1775714905535398100,3.835398193359375,1.275562226244062,-7.83813575835824,5.753864555248618
1775714905545412400,3.845412353515625,1.2852170665569602,-7.832184740999341,5.759819664260744
1775714905555426300,3.85542626953125,1.2971544648490845,-7.8252336066871875,5.766584920611977
1775714905565440300,3.865440185546875,1.3115544538624584,-7.818927200019359,5.771881273454428
1775714905575454200,3.8754541015625,1.3262204003356397,-7.8143036318719385,5.7747886853337285
1775714905585468400,3.885468505859375,1.3374322608321905,-7.812479923576116,5.774671196433902
1775714905595482400,3.895482421875,1.3427895500816405,-7.813727293288707,5.7717374810695645
1775714905605496300,3.905496337890625,1.3417900176502764,-7.817749388411641,5.76652354581356
1775714905615510300,3.91551025390625,1.3357603820972144,-7.82493140887022,5.758175404185057
1775714905625524200,3.925524169921875,1.3269447690874336,-7.835928603702783,5.74524344189763
1775714905635538400,3.935538330078125,1.3162297521971165,-7.84951172337532,5.729143955489993
1775714905645552400,3.945552490234375,1.3031968137532473,-7.864230569079518,5.711913419225811
1775714905655566300,3.95556640625,1.2884690540902315,-7.879297789829969,5.694463102731108
1775714905665580300,3.965580322265625,1.272111355137825,-7.893850046795606,5.677963803350925
1775714905675594200,3.97559423828125,1.2558166384190321,-7.907426152205467,5.662678555935621
1775714905685608400,3.9856083984375,1.240466655204445,-7.920204969757795,5.648185335680842
1775714905695622100,3.9956220703125,1.2252595145266503,-7.931990100097655,5.6349500065326685
1775714905705636400,4.00563623046875,1.2102220313273369,-7.942148506018519,5.623881500029563
1775714905715650300,4.015650390625,1.1945599134236573,-7.950084559714794,5.616010912784934
1775714905725664300,4.025664306640625,1.177096445186436,-7.955907566779851,5.61144871943593
1775714905735678200,4.03567822265625,1.1574229727495462,-7.961354726269841,5.6078159158915275
1775714905745692200,4.045692138671875,1.1389593144938348,-7.967541890472173,5.602805394253134
1775714905755706400,4.055706298828125,1.1245228659275919,-7.9740955498993396,5.596392604601383
1775714905765720300,4.06572021484375,1.1137861486621201,-7.98103090212047,5.588651196694374
1775714905775734300,4.075734375,1.1059361658141016,-7.987288793471455,5.581262255486846
1775714905785748200,4.085748291015625,1.1003542740285397,-7.991424870362877,5.576444626072049
1775714905795762200,4.09576220703125,1.0956708654526621,-7.993606890577078,5.574239224982262
1775714905805776400,4.1057763671875,1.0899159551877529,-7.995198543682694,5.573083040684462
1775714905815790000,4.1157900390625,1.0828845221810042,-7.997138571834563,5.571669082233309
1775714905825804300,4.12580419921875,1.0749730914693325,-8.000113788253069,5.5689305971801275
1775714905835818200,4.135818359375,1.0670385721430182,-8.004311239942908,5.564421595323085
1775714905845832400,4.14583251953125,1.0603508380074054,-8.008613321051001,5.559511611449718
1775714905855846400,4.155846435546875,1.0535233300749212,-8.012061415678263,5.5558384758949275
1775714905865860000,4.165860107421875,1.0450400177594275,-8.014668383306264,5.553682759165763
1775714905875874300,4.175874267578125,1.036496572754532,-8.015760270196198,5.5537090626508
1775714905885888300,4.18588818359375,1.0277425537388771,-8.01434046652615,5.557379860118031
1775714905895902500,4.19590234375,1.0181903700828552,-8.010095668563245,5.56525220092833
1775714905905916200,4.205916259765625,1.0078720243599266,-8.00412010128498,5.575719818928837
1775714905915930400,4.215930419921875,0.9972044268079101,-7.997654120141267,5.5869011381566525
1775714905925944300,4.2259443359375,0.9864446209277957,-7.991910023531317,5.597025641807914
1775714905935958300,4.235958251953125,0.9749947869569062,-7.987867470142245,5.604798613896966
1775714905945972200,4.24597216796875,0.9619221740897744,-7.986289845561981,5.609301186013221
1775714905955986200,4.255986083984375,0.9443896592043339,-7.988096018201112,5.609709182292223
1775714905966000400,4.26600048828125,0.9215247703149915,-7.9930925113141535,5.60639435865581
1775714905976014300,4.276014404296875,0.8953530218999832,-7.9998723807126275,5.600961812213063
1775714905986028300,4.2860283203125,0.8681319105625152,-8.007792652317882,5.593924168661236
1775714905996042200,4.296042236328125,0.8430974956143646,-8.01629686129093,5.585567259204387
1775714906006057200,4.30605712890625,0.8204738681349902,-8.02478587269485,5.57674097867012
1775714906016070400,4.3160703125,0.8016952987112105,-8.033467191800474,5.566963681021332
1775714906026084000,4.326083984375,0.7894634475171566,-8.042962165376544,5.554987412023544
1775714906036099000,4.33609912109375,0.7841728668283671,-8.053108880859613,5.5410196769475935
1775714906046112300,4.3461123046875,0.7834337388988584,-8.06311121943593,5.526558020874858
1775714906056127200,4.356127197265625,0.7858902652055024,-8.071945683276653,5.513298141807318
1775714906066141400,4.366141357421875,0.7891802466616034,-8.078772898948191,5.502817664325237
1775714906076155100,4.376155029296875,0.7906085989642888,-8.083156228598952,5.496173988527059
1775714906086169300,4.38616943359375,0.7892922556687146,-8.086169438940287,5.491926267954707
1775714906096183300,4.396183349609375,0.7866263243950903,-8.089298969137667,5.487700759214163
1775714906106197200,4.406197265625,0.7846724869135767,-8.093600465723872,5.481635175564885
1775714906116211200,4.416211181640625,0.7845824705425649,-8.098591113618015,5.474271368798613
1775714906126225200,4.42622509765625,0.7868611560642719,-8.1033584741503,5.466884181156754
1775714906136239400,4.4362392578125,0.7898821113206446,-8.10736946335733,5.46049535690248
1775714906146253300,4.44625341796875,0.7937930742193013,-8.11055861478746,5.455192574319243
1775714906156267500,4.456267578125,0.800123811610788,-8.113392961430549,5.450049366211891
1775714906166281200,4.46628125,0.8087675021197647,-8.116331352970004,5.444397039538622
1775714906176295200,4.476295166015625,0.8188362569957971,-8.119689431226252,5.437883127599954
1775714906186309400,4.486309326171875,0.8290949084207415,-8.123260859972238,5.430986938345432
1775714906196323300,4.4963232421875,0.8384043693620711,-8.12689249447286,5.4241205597072835
1775714906206337300,4.506337158203125,0.8453469550415873,-8.130794762608408,5.41718988366127
1775714906216351200,4.516351318359375,0.8487332364790141,-8.13554984818101,5.409515695771574
1775714906226365400,4.526365478515625,0.846482900268957,-8.141810662141442,5.400439239868521
1775714906236379400,4.53637939453125,0.8362526712208985,-8.150166402554511,5.389422755813598
1775714906246393000,4.54639306640625,0.8204773752663284,-8.160607132548094,5.376027267667651
1775714906256407300,4.5564072265625,0.8038918589074164,-8.172149101781844,5.3609828432708975
1775714906266421200,4.566421142578125,0.788242965811491,-8.183693409103155,5.345674214980006
1775714906276435500,4.576435546875,0.774668467836827,-8.193992100277542,5.33186488533616
1775714906286449200,4.58644921875,0.7629010923493653,-8.202406292879582,5.320612254437804
1775714906296463400,4.59646337890625,0.7522288916874676,-8.208802715918422,5.312260605677962
1775714906306477300,4.606477294921875,0.7420585030678659,-8.213627944117784,5.306230677863955
1775714906316491300,4.6164912109375,0.7315762720201164,-8.217598016792536,5.301533459958434
1775714906326505200,4.626505126953125,0.722726464479789,-8.22070182802677,5.297935727727413
1775714906336519200,4.636519287109375,0.7163031534340232,-8.223502856922149,5.294458407005667
1775714906346533400,4.646533447265625,0.7129183333013206,-8.226081182977557,5.290911528179049
1775714906356547300,4.65654736328125,0.7126199348766357,-8.22840524201095,5.287334838736057
1775714906366561300,4.666561279296875,0.7146051904097199,-8.230012677207588,5.284563620457053
1775714906376575200,4.6765751953125,0.7172237754102796,-8.230368651038408,5.2836541043967005
1775714906386589200,4.686589111328125,0.7196522446662187,-8.229327617552876,5.2849441442072385
1775714906396603400,4.696603271484375,0.7218780309569091,-8.22801244330108,5.286690111091732
1775714906406617300,4.706617431640625,0.7245990534186363,-8.227973280334473,5.28637680735886
1775714906416631300,4.71663134765625,0.7276273882638663,-8.230089249575137,5.282669185012579
1775714906426645200,4.726645263671875,0.730321888044849,-8.234645013183355,5.27518788934648
1775714906436659500,4.736659423828125,0.732428724130988,-8.241023316043615,5.2649295301824806
1775714906446673400,4.74667333984375,0.7351797033395617,-8.247658224013447,5.254146854883432
1775714906456687000,4.75668701171875,0.7385622584499418,-8.253761217063666,5.244075542724132
1775714906466701300,4.766701416015625,0.7422168354347348,-8.259167460021375,5.235042925962805
1775714906476715300,4.77671533203125,0.7465957811713219,-8.263704518929124,5.227252418217063
1775714906486729500,4.7867294921875,0.7524477951351553,-8.26611800981164,5.22259494780004
1775714906496743200,4.7967431640625,0.7603568877592682,-8.265399047887325,5.222587349015474
1775714906506757400,4.80675732421875,0.7697169829092919,-8.262553595328331,5.2257157101690765
1775714906516771300,4.816771240234375,0.7783967676449567,-8.258884551426767,5.230229388201236
1775714906526785300,4.826785400390625,0.7863564944777637,-8.255217261090873,5.234825483819842
1775714906536799200,4.83679931640625,0.7936035429965704,-8.252671083739399,5.237748093268275
1775714906546813200,4.846813232421875,0.7993452284537256,-8.25244896542132,5.237224361655116
1775714906556827400,4.856827392578125,0.8027135358430445,-8.25614022115469,5.2308858062833545
1775714906566841300,4.86684130859375,0.8036769009824841,-8.264523434096574,5.21748447291851
1775714906576855300,4.876855224609375,0.80247702367343,-8.276800147345662,5.198169531595707
1775714906586869200,4.886869140625,0.7998609228909015,-8.29065857682824,5.176447529131174
1775714906596883200,4.89688330078125,0.7955202633380889,-8.304971764340996,5.154124638164043
1775714906606897400,4.9068974609375,0.7893909668028354,-8.319039452660084,5.132333662116527
1775714906616911000,4.9169111328125,0.7827510173317045,-8.332532555961608,5.1114194689035415
1775714906626925300,4.92692529296875,0.7767216740395874,-8.346168282604218,5.090046426007151
1775714906636939300,4.936939208984375,0.7715517971210182,-8.361852758470176,5.065025966519117
1775714906646953500,4.946953369140625,0.7667261305302381,-8.380371580979228,5.035064543497562
1775714906656967400,4.956967529296875,0.7620084543585777,-8.401333704987168,5.000732065784931
1775714906666981000,4.966981201171875,0.7569863884128629,-8.42359872828722,4.963902510559558
1775714906676995300,4.976995361328125,0.749916011635214,-8.445227791771293,4.928097037684918
1775714906687009300,4.98700927734375,0.740831299360469,-8.464650869643688,4.896045656646788
1775714906697023500,4.9970234375,0.733259402801469,-8.480800040411948,4.869160864591598
1775714906707037200,5.007037109375,0.7288814069129527,-8.493438572710753,4.847743982553482
1775714906717051400,5.017051513671875,0.7265835782993585,-8.503836048084496,4.829826633068919
1775714906727065300,5.0270654296875,0.725751292193681,-8.512759359252453,4.814208500437438
1775714906737079300,5.037079345703125,0.7269283731490374,-8.520143039762972,4.800953297545015
1775714906747093200,5.04709326171875,0.7293934480883181,-8.526147833135724,4.789902326698601
1775714906757107200,5.057107177734375,0.7312993547748774,-8.530876615223288,4.781184474974871
1775714906767121400,5.067121337890625,0.7315432465333491,-8.535113814401626,4.773580429711938
1775714906777135400,5.07713525390625,0.7305445908848196,-8.539494221442938,4.765893090079724
1775714906787149300,5.0871494140625,0.7277193773962557,-8.543860599958895,4.7584909971296785
1775714906797163300,5.097163330078125,0.7215660423982888,-8.547799692973493,4.752349133373797
1775714906807177200,5.10717724609375,0.7118426668938249,-8.551338388493656,4.747448794111609
1775714906817191400,5.11719140625,0.6995945221520959,-8.554679515615105,4.743248127551377
1775714906827205000,5.127205078125,0.6844693606693297,-8.558033502218127,4.739404896126687
1775714906837219300,5.13721923828125,0.6656801237210631,-8.561761582830547,4.735344807080924
1775714906847234300,5.147234375,0.6423324928160756,-8.566452370995282,4.730083525551855
1775714906857248300,5.157248291015625,0.6155219350408763,-8.572166656988859,4.723291088932752
1775714906867262500,5.167262451171875,0.5870508601749316,-8.57844792921543,4.715504672840237
1775714906877276200,5.177276123046875,0.5591652935793623,-8.58501386360228,4.70693792002499
1775714906887290000,5.1872900390625,0.5353032103462144,-8.591723590373993,4.697459313061833
1775714906897304300,5.19730419921875,0.517968957979232,-8.59775234914422,4.688363860197365
1775714906907318300,5.207318359375,0.5075743686823174,-8.60262141648531,4.680561077491939
1775714906917332200,5.217332275390625,0.5034434794226661,-8.6061811547935,4.674462176094949
1775714906927346200,5.22734619140625,0.5051275235194712,-8.60843857833147,4.670120055237412
1775714906937360400,5.2373603515625,0.5115908377820626,-8.609524620002508,4.66741108853966
1775714906947374300,5.247374267578125,0.5213023036530241,-8.608549052968621,4.6681370647266505
1775714906957388300,5.25738818359375,0.5336693985993042,-8.604815127137304,4.673618711008131
1775714906967402200,5.26740234375,0.5484340927392244,-8.598152162116765,4.684165239463746
1775714906977416200,5.277416259765625,0.5678650616571307,-8.588100139179826,4.7002629723057145
1775714906987430400,5.287430419921875,0.5945872835617512,-8.575040751120447,4.720753679409623
1775714906997444400,5.2974443359375,0.6292096110664308,-8.560083420485258,4.743357140883803
1775714907007458300,5.307458251953125,0.671386737864837,-8.543482998818158,4.767446749262511
1775714907017472300,5.31747216796875,0.7186883680701255,-8.525556881505251,4.792573007212579
1775714907027486200,5.327486328125,0.7669831009659915,-8.507212831041217,4.817619477924704
1775714907037500400,5.33750048828125,0.8141310019142926,-8.487984983479976,4.8437277326494454
1775714907047514000,5.34751416015625,0.8607735106237232,-8.467090079489349,4.872146894665062
1775714907057528300,5.3575283203125,0.9084785339981317,-8.445119655221701,4.901533440408111
1775714907067542300,5.367542236328125,0.9567083849642425,-8.42257289237082,4.931061148187518
1775714907077556500,5.377556396484375,1.0045696218136697,-8.399521102607249,4.960774149405956
1775714907087570200,5.387570068359375,1.0520519423481076,-8.376863280597329,4.989162624022364
1775714907097584000,5.397584228515625,1.0998193634342401,-8.35435100453794,5.016531692463159
1775714907107598300,5.407598388671875,1.1484986386682838,-8.331452944031357,5.0436324653565885
1775714907117612300,5.4176123046875,1.1963402209691703,-8.30955324691236,5.068577521520853
1775714907127626200,5.427626220703125,1.2416878675624727,-8.289463814085721,5.090520473259687
1775714907137640200,5.43764013671875,1.2824522780187426,-8.270955512970685,5.1104772196173665
1775714907147654400,5.447654296875,1.3184690555565057,-8.254037695917487,5.1286324695110315
1775714907157668400,5.45766845703125,1.3501174087516963,-8.239943119591475,5.143043856701254
1775714907167682300,5.467682373046875,1.3752588642708956,-8.23042125800848,5.151621715432405
1775714907177696300,5.4776962890625,1.3905027567625046,-8.226128529250621,5.154385334926843
1775714907187710200,5.487710205078125,1.3942320064187048,-8.226638816860318,5.152562211152911
1775714907197724400,5.497724365234375,1.3877116647392511,-8.230633439454436,5.14793981204927
1775714907207738400,5.50773828125,1.3728938887052238,-8.237175992965698,5.141447527420521
1775714907217752300,5.51775244140625,1.3538859675049781,-8.245757358828186,5.132722369173169
1775714907227766300,5.527766357421875,1.3339867965534329,-8.255762035492062,5.121837987065315
1775714907237780200,5.5377802734375,1.3145654722467064,-8.266237836799025,5.109950565394759
1775714907247794400,5.54779443359375,1.297976010365039,-8.275699492627382,5.098866861322522
1775714907257808100,5.55780810546875,1.2870653247721493,-8.283631454670429,5.088739435061812
1775714907267822000,5.567822021484375,1.2836204450152813,-8.289412960681318,5.080188464337587
1775714907277836000,5.5778359375,1.2862754895687103,-8.29280435668528,5.073980257347226
1775714907287850200,5.587850341796875,1.2926476549491286,-8.29442815849483,5.069708571377396
1775714907297864000,5.597864013671875,1.3043246487393974,-8.293920793494582,5.067547593951225
1775714907307878100,5.607878173828125,1.323209528081864,-8.291034424403309,5.0673704838186495
1775714907317892000,5.61789208984375,1.348784114321321,-8.286683243456482,5.067745162349939
1775714907327906000,5.627906005859375,1.3790239158928395,-8.282461241847276,5.066510067597031
1775714907337920000,5.637919921875,1.4123887176170944,-8.2793597687006,5.062388603752852
1775714907347934000,5.647933837890625,1.447958920431137,-8.277671084961295,5.055093186047673
1775714907357948200,5.6579482421875,1.4851060171730814,-8.277667577829957,5.044313433358073
1775714907367963100,5.667963134765625,1.5215888047873973,-8.279870640832184,5.029798585793376
1775714907377977000,5.67797705078125,1.5544652384728193,-8.285168162718415,5.010986333295703
1775714907387991000,5.687990966796875,1.5829669642053543,-8.293844805648922,4.987658064678311
1775714907398005000,5.6980048828125,1.6059059412442147,-8.305068210452795,4.961582543179393
1775714907408019000,5.70801904296875,1.6216003539822994,-8.317018175965547,4.936400171127915
1775714907418033200,5.718033203125,1.6315015702717006,-8.327574056771397,4.9152942547351115
1775714907428046800,5.728046875,1.6372021200008688,-8.336386308780313,4.898427583347261
1775714907438061000,5.73806103515625,1.638738828048855,-8.34498696386516,4.883246380828321
1775714907448075000,5.748074951171875,1.6351134771585463,-8.354996901226043,4.867321958726644
1775714907458089200,5.758089111328125,1.6272262310400605,-8.367278290650248,4.848830901007354
1775714907468103000,5.76810302734375,1.6147247691243887,-8.382464169344306,4.826733050967753
1775714907478116900,5.778116943359375,1.594576591847837,-8.401316753852367,4.800583295188844
1775714907488131000,5.788131103515625,1.5662448158547282,-8.422508594962954,4.772696340353787
1775714907498145000,5.79814501953125,1.5314349298886953,-8.44387170098722,4.746169860216975
1775714907508159000,5.808158935546875,1.4927037788257003,-8.463512805524468,4.72347316750139
1775714907518173000,5.8181728515625,1.4531652569025755,-8.479461485284567,4.707168806171417
1775714907528187100,5.828187255859375,1.4134126538373528,-8.491493283861875,4.697569203177094
1775714907538201000,5.838201171875,1.3753133709371088,-8.499436351820826,4.694517414391041
1775714907548215000,5.848215087890625,1.3407919465236364,-8.502884446448087,4.6982574777022
1775714907558229000,5.85822900390625,1.3094805701978505,-8.50218769635558,4.7083372654289
1775714907568243000,5.868242919921875,1.281276073846221,-8.498482996618748,4.722764726971089
1775714907578257200,5.878257080078125,1.2569482727974652,-8.492761111840606,4.739563593819737
1775714907588271000,5.88827099609375,1.2387279948435723,-8.485483229792118,4.757362577621638
1775714907598285000,5.89828515625,1.2283439634732902,-8.476184655570984,4.776594224575161
1775714907608299000,5.908299072265625,1.2246860254876315,-8.463795714119076,4.799447276896238
1775714907618313000,5.91831298828125,1.222836598228663,-8.448526248794794,4.826748540797829
1775714907628327200,5.9283271484375,1.2175916833125053,-8.431590896084904,4.857586162132025
1775714907638340900,5.9383408203125,1.20971291276142,-8.412856384998559,4.891914548191428
1775714907648355000,5.94835498046875,1.2020691200099884,-8.393182547235488,4.927462246912717
1775714907658369000,5.958369140625,1.1961774316228926,-8.375179273033142,4.959425657406449
1775714907668383200,5.96838330078125,1.1935053628694265,-8.361077682444453,4.983806065425276
1775714907678397000,5.97839697265625,1.192520881876722,-8.3520012265414,4.999236274269223
1775714907688411000,5.988410888671875,1.1907910624094307,-8.348845392858982,5.004917242515087
1775714907698425000,5.998425048828125,1.1873000054232776,-8.351481586581468,5.00134873637855
1775714907708439000,6.00843896484375,1.1819652933318168,-8.359149929252267,4.98978689340055
1775714907718453000,6.018452880859375,1.1747030472438782,-8.371122106596827,4.97139666570723
1775714907728467000,6.028467041015625,1.1661823255274444,-8.384603519460558,4.950639124360681
1775714907738481200,6.038481201171875,1.1536628895636647,-8.398183132001757,4.930515204742551
1775714907748495000,6.0484951171875,1.1373334668576716,-8.41196089746356,4.910779407659173
1775714907758509000,6.058509033203125,1.1222161964204163,-8.42587134939432,4.890366441966593
1775714907768523000,6.06852294921875,1.1113017845004796,-8.439484864205122,4.869344112204015
1775714907778538000,6.0785380859375,1.1047342426784337,-8.451784958329796,4.849460431082546
1775714907788552000,6.088552001953125,1.1016874223284423,-8.461471655085683,4.833235564729571
1775714907798566100,6.098566162109375,1.1022679256301373,-8.466393329396844,4.824476796473562
1775714907808579800,6.108579833984375,1.104573206897825,-8.46544698845744,4.82560872311294
1775714907818594000,6.118593994140625,1.105766069944203,-8.459564360159636,4.835641164566576
1775714907828608000,6.12860791015625,1.1060196063138543,-8.450270462113618,4.851807870991528
1775714907838622200,6.138622314453125,1.105306197347492,-8.439161623600125,4.8712648511335255
1775714907848636200,6.14863623046875,1.103752903490886,-8.426989539769291,4.892644616031647
1775714907858649900,6.15864990234375,1.10103860303089,-8.413644320505856,4.916166945916414
1775714907868664000,6.1686640625,1.0942337453216313,-8.400335341599583,4.940387779459357
1775714907878678000,6.178677978515625,1.0818874739676714,-8.388033493909239,4.963952194920182
1775714907888692200,6.188692138671875,1.0650979594692587,-8.376743453609944,4.986593650317192
1775714907898706000,6.198705810546875,1.044536671347171,-8.367511514884233,5.00640309715867
1775714907908720000,6.20872021484375,1.0219728112310171,-8.361391570699215,5.021262812638282
1775714907918734000,6.218734130859375,1.0003750927332788,-8.358124677857756,5.031043617418408
1775714907928748000,6.228748046875,0.9816282336220145,-8.356776770380138,5.036971838423609
1775714907938762000,6.238761962890625,0.964719915049523,-8.356374034798145,5.040902163609862
1775714907948776000,6.24877587890625,0.9502808361347764,-8.35544932116866,5.045177356711029
1775714907958790100,6.2587900390625,0.9401409887839108,-8.35282131075263,5.05142355762422
1775714907968804000,6.26880419921875,0.9373463165640831,-8.348606907927989,5.058903684246539
1775714907978818000,6.278818115234375,0.9448105149649083,-8.342884438627959,5.066952550667524
1775714907988832000,6.28883203125,0.9620046647414564,-8.335050091740488,5.076601253500581
1775714907998846000,6.298845947265625,0.9883233473464846,-8.323319906458257,5.090773571237921
1775714908008860200,6.308860107421875,1.0212055531855673,-8.307012330257892,5.110877617111802
1775714908018873900,6.318873779296875,1.0571402784630655,-8.286915298646688,5.136131300833821
1775714908028888000,6.32888818359375,1.0968855019394308,-8.263583522897958,5.165304203826189
1775714908038902000,6.338902099609375,1.1418920069448648,-8.238391798496245,5.1957086944401265
1775714908048916200,6.348916259765625,1.1906191399086266,-8.213298273772,5.2244180715739725
1775714908058930200,6.35893017578125,1.2402305083610117,-8.189622214630246,5.249985059028863
1775714908068944000,6.36894384765625,1.2867699950873852,-8.167984967839717,5.272441805508732
1775714908078958000,6.3789580078125,1.3264938104495405,-8.149930840232967,5.290504700943828
1775714908088972000,6.388971923828125,1.357153737129271,-8.136186392518878,5.303867455863952
1775714908098986200,6.398986328125,1.3820467708453534,-8.1258871168226,5.3132203906208275
1775714908109000000,6.409,1.4047873027026652,-8.11850109822452,5.318544800513982
1775714908119014100,6.41901416015625,1.4271449727222323,-8.113490576586127,5.320237575906515
1775714908129028000,6.429028076171875,1.449127233558148,-8.110101518669724,5.31946308440268
1775714908139042000,6.4390419921875,1.470818110232055,-8.107728359797596,5.317123827800154
1775714908149056000,6.449055908203125,1.4914103780142962,-8.106457609209418,5.31332794264853
1775714908159070000,6.459070068359375,1.5096131203114986,-8.106355902400612,5.308340801885723
1775714908169084200,6.469084228515625,1.5243722980260848,-8.106394480845331,5.304060348087549
1775714908179099100,6.47909912109375,1.5365909974776208,-8.105038390061258,5.302605473104119
1775714908189113000,6.489113037109375,1.547016968293488,-8.10246064852774,5.303515573686361
1775714908199127000,6.499126953125,1.555582552064955,-8.100045404079555,5.304700984078646
1775714908209141000,6.50914111328125,1.561461088709533,-8.098643720588088,5.305110149401426
1775714908219155200,6.5191552734375,1.566000047313422,-8.09738992113471,5.305684734418988
1775714908229169200,6.529169189453125,1.5704862528167665,-8.095870164221525,5.306677837109565
1775714908239182800,6.539182861328125,1.5756617557585237,-8.094671894347668,5.306970098054409
1775714908249197000,6.549197021484375,1.581619056727737,-8.094233502930402,5.305870027858019
1775714908259211500,6.55921142578125,1.5881876214630901,-8.093731983149052,5.304672342506051
1775714908269225500,6.5692255859375,1.594340298873931,-8.093115897077322,5.303766918098926
1775714908279239400,6.579239501953125,1.5992282170459626,-8.092662308090924,5.302988334941864
1775714908289253400,6.58925341796875,1.602682595283538,-8.092422069594264,5.302311458593606
1775714908299267600,6.599267578125,1.6055891303800045,-8.092140330043435,5.301863130304217
1775714908309281300,6.60928125,1.60746252303645,-8.0916265353024,5.302078818881512
1775714908319295500,6.61929541015625,1.6070692859351634,-8.091480404829978,5.302420764186978
1775714908329309400,6.629309326171875,1.6068692333184182,-8.092714915060997,5.300595886847376
1775714908339323600,6.63932373046875,1.6072335365861654,-8.096521906128526,5.294669419407844
1775714908349337300,6.64933740234375,1.6065075603991745,-8.10359871264696,5.2840527483254665
1775714908359351300,6.659351318359375,1.6044428829543291,-8.113531493118405,5.269417489251494
1775714908369365500,6.669365478515625,1.6017496983475983,-8.124930839011073,5.252646971714496
1775714908379379500,6.67937939453125,1.59814246763587,-8.13597479559481,5.236628149327635
1775714908389393700,6.6893935546875,1.5947349972799418,-8.144949544689059,5.2236973560839886
1775714908399407400,6.699407470703125,1.5937414561979473,-8.152130396103859,5.212787255012989
1775714908409421600,6.709421630859375,1.5954789475150406,-8.157737714591622,5.2034740677446125
1775714908419435500,6.719435546875,1.5987020012147724,-8.161697850394248,5.196266912844777
1775714908429449500,6.729449462890625,1.6028918541200459,-8.164350995251535,5.190810401004552
1775714908439463400,6.73946337890625,1.6088111611664295,-8.165533483034372,5.187119145271182
1775714908449477400,6.749477294921875,1.615679731761664,-8.1655206235528,5.185003176030516
1775714908459491600,6.75949169921875,1.6229022303611038,-8.164579543310403,5.184229269048571
1775714908469505500,6.769505615234375,1.6297257927708326,-8.162100001454354,5.185993940633535
1775714908479519500,6.77951953125,1.6348882901005446,-8.15755534376204,5.191512996315955
1775714908489533400,6.789533447265625,1.638144807678461,-8.1507848267138,5.201113768354058
1775714908499547400,6.79954736328125,1.6401654998511075,-8.141714216029644,5.214668246454
1775714908509561600,6.8095615234375,1.6410808611303567,-8.130516530188917,5.231823379394411
1775714908519575300,6.8195751953125,1.6418004075765609,-8.117087724295258,5.2524055641740555
1775714908529589500,6.829589599609375,1.6438094093114137,-8.10231159544587,5.274547253355384
1775714908539603500,6.839603515625,1.647624583685398,-8.088035817334056,5.295222961637378
1775714908549618400,6.849618408203125,1.6524559493646025,-8.07538501007557,5.312998272302746
1775714908559632600,6.859632568359375,1.657150098530203,-8.064503550577163,5.328039774090051
1775714908569646300,6.869646240234375,1.66159480297938,-8.054834973999858,5.3412651663661
1775714908579660300,6.879660400390625,1.6645783488348125,-8.04535812060237,5.354601033279299
1775714908589674500,6.889674560546875,1.6642334809198975,-8.034944863137602,5.3703246721118685
1775714908599688400,6.8996884765625,1.6603081241697073,-8.022557090729475,5.3900207217067475
1775714908609702400,6.909702392578125,1.654173420806974,-8.007847012853622,5.413728929552436
1775714908619716400,6.91971630859375,1.6469775179535149,-7.9922396938771,5.438929421782493
1775714908629730600,6.92973046875,1.6391921247743069,-7.9774168032765385,5.462991265371442
1775714908639744500,6.93974462890625,1.6307020904570817,-7.964093795844912,5.484924864760041
1775714908649758500,6.949758544921875,1.6220586191438138,-7.95305626900196,5.503470575276017
1775714908659772400,6.9597724609375,1.6123552635140717,-7.9450144168436525,5.517917033779621
1775714908669786400,6.969786376953125,1.5987012705624102,-7.940377989214658,5.528557085737586
1775714908679800600,6.979800537109375,1.5803095815643666,-7.938427439668774,5.5366416079938405
1775714908689814500,6.989814453125,1.5588228491604328,-7.937384652617573,5.5442211033374065
1775714908699828500,6.999828369140625,1.5363646413758396,-7.935974785819649,5.552501440426707
1775714908709842400,7.009842529296875,1.5138821759328245,-7.9333117040902374,5.562474552908539
1775714908719856400,7.0198564453125,1.491718421050161,-7.929073920390009,5.574489400351047
1775714908729870600,7.02987060546875,1.4694560280986129,-7.924229987490176,5.587275232166052
1775714908739884300,7.03988427734375,1.445395353553444,-7.9196771464914075,5.599992674919963
1775714908749898500,7.0498984375,1.4202642732977866,-7.915500737589597,5.612313811832666
1775714908759912400,7.059912353515625,1.395477914826572,-7.911962042069435,5.623509159585833
1775714908769926700,7.0699267578125,1.3695175441399217,-7.909720985144376,5.633038035431504
1775714908779940400,7.0799404296875,1.3406851251482963,-7.909363842269777,5.640469646736979
1775714908789954300,7.089954345703125,1.3091399400666355,-7.910030781745911,5.64694030405581
1775714908799968500,7.099968505859375,1.2742368228591978,-7.910693629568815,5.653991391611099
1775714908809982500,7.109982421875,1.2376407841287553,-7.909296622252464,5.664068548989295
1775714908819996400,7.119996337890625,1.200635214749351,-7.903816729536652,5.679663008484244
1775714908830010400,7.13001025390625,1.1634828573103992,-7.89376879825294,5.70132305162847
1775714908840024600,7.140024658203125,1.1269509698573499,-7.879816845268011,5.727901261952519
1775714908850038500,7.15003857421875,1.092030755384639,-7.863837770369648,5.756555109506845
1775714908860052200,7.16005224609375,1.0592133584100751,-7.84817024563849,5.784000750315189
1775714908870066400,7.17006640625,1.0309748867236077,-7.833586424490809,5.808820134273171
1775714908880080400,7.180080322265625,1.0110742544673383,-7.818266690284013,5.8329076968252656
1775714908890095400,7.190095458984375,1.0006026909440755,-7.80163645800054,5.856933884578943
1775714908900109600,7.200109619140625,0.9977463516648858,-7.783705079990625,5.881227783358097
1775714908910123300,7.210123291015625,0.9988943526562303,-7.764898088189959,5.905840831089019
1775714908920137500,7.220137451171875,0.9989321273833512,-7.745375057074427,5.931414248284697
1775714908930151400,7.2301513671875,0.9946294617533683,-7.724819175779819,5.95888034735918
1775714908940165600,7.24016552734375,0.98597963376455,-7.703747746178507,5.987530103260278
1775714908950179300,7.250179443359375,0.9739843678053468,-7.6834771115660665,6.015476094806194
1775714908960193300,7.260193359375,0.9587895751524717,-7.665283283227682,6.04107113931179
1775714908970207500,7.27020751953125,0.9407070251688361,-7.650118447321653,6.06309767768085
1775714908980221400,7.280221435546875,0.9218991565853357,-7.637519077989459,6.08184154111743
1775714908990235600,7.290235595703125,0.9030567281451076,-7.625284450316428,6.099995037445425
1775714909000249300,7.300249267578125,0.8869479624524712,-7.611613652360439,6.119397657051682
1775714909010263600,7.310263671875,0.8770829865202308,-7.595614703717827,6.14066373244226
1775714909020277500,7.320277587890625,0.8737141676742582,-7.577906028547883,6.162980193668604
1775714909030291500,7.33029150390625,0.8758737568609416,-7.560490198844671,6.184027657872438
1775714909040305400,7.340305419921875,0.8816202646236866,-7.5458759825587265,6.201037244862317
1775714909050319400,7.3503193359375,0.8885599276937544,-7.535128378573059,6.213108206406235
1775714909060333600,7.36033349609375,0.8954561169482768,-7.528454307636618,6.22020371762514
1775714909070347500,7.370347412109375,0.9017644233122467,-7.524564898982644,6.223996680167317
1775714909080361500,7.380361572265625,0.9079353670321404,-7.5208531849831335,6.227583306482434
1775714909090375400,7.39037548828125,0.9151075967490673,-7.516372240176796,6.231943839779496
1775714909100389400,7.400389404296875,0.9239088889725505,-7.511842195531726,6.236106220155954
1775714909110403600,7.410403564453125,0.9325251069527118,-7.5082818727016445,6.2391112471908325
1775714909120417300,7.420417236328125,0.9400761799193919,-7.505232422003149,6.241645149582624
1775714909130431500,7.430431396484375,0.9471981407538056,-7.501235461321473,6.245374399238824
1775714909140445400,7.440445556640625,0.9548715979911386,-7.495865458720922,6.2506485402494665
1775714909150459600,7.450459716796875,0.9642277476184069,-7.489523396217822,6.256814077141881
1775714909160473300,7.460473388671875,0.976076006322354,-7.482778013610839,6.263041573354601
1775714909170487300,7.4704873046875,0.990035192765668,-7.47731331846416,6.267375218644738
1775714909180501500,7.48050146484375,1.0059945400502532,-7.4744099982380865,6.2682993477523326
1775714909190515500,7.490515380859375,1.0251369743503629,-7.472702609798311,6.267234348869323
1775714909200529700,7.50052978515625,1.0491470146868378,-7.469272635349631,6.267348915159702
1775714909210543400,7.51054345703125,1.0783004092611372,-7.462785611417889,6.270125978657603
1775714909220558300,7.520558349609375,1.1094906434252858,-7.4548846290349955,6.274080853763222
1775714909230572500,7.530572509765625,1.1396397710386663,-7.448366625443101,6.276418941321968
1775714909240586500,7.54058642578125,1.166342703720927,-7.4454790873080485,6.274941269984841
1775714909250600700,7.5506005859375,1.1893642444767056,-7.447867443749308,6.267780876836181
1775714909260614400,7.560614501953125,1.2076679629303515,-7.456012756282091,6.254583541610836
1775714909270628000,7.570628173828125,1.220603943805769,-7.469006677889824,6.236541104441881
1775714909280642300,7.580642333984375,1.2272697583705185,-7.484067468899488,6.217149590751529
1775714909290656000,7.590656005859375,1.2287516674913466,-7.497933497166633,6.200124806192517
1775714909300670200,7.600670166015625,1.2272555837146937,-7.509087343865633,6.186909935310482
1775714909310684200,7.61068408203125,1.2243291018087417,-7.517463542544841,6.177307994228601
1775714909320698400,7.620698486328125,1.2204250070422886,-7.522661695709824,6.1717521136671305
1775714909330712000,7.630712158203125,1.215869754890725,-7.525068756851553,6.169716808447242
1775714909340726000,7.64072607421875,1.2094254010569303,-7.526047831016778,6.1697910427272316
1775714909350740200,7.650740234375,1.2001332565765828,-7.526165904438495,6.171460437244177
1775714909360754200,7.660754150390625,1.1889301639083771,-7.5255392969727515,6.174388891911506
1775714909370768100,7.67076806640625,1.1775527375865726,-7.524102542167902,6.178319801619649
1775714909380782000,7.680781982421875,1.1664202990017831,-7.521956762310862,6.183041569444537
1775714909390796300,7.69079638671875,1.157160230160132,-7.518706820604205,6.188731305518746
1775714909400810200,7.700810302734375,1.1495113228421658,-7.513505744829773,6.1964680372506376
1775714909410824000,7.710823974609375,1.1435404317390172,-7.506600787746906,6.205934953776001
1775714909420838100,7.720838134765625,1.1384073066342622,-7.5000108879625795,6.214841313809156
1775714909430852000,7.73085205078125,1.1335488337524235,-7.494629779446124,6.222216226491332
1775714909440866300,7.7408662109375,1.1287570694312452,-7.489462605941295,6.22930706153512
1775714909450880000,7.7508798828125,1.1245923509672284,-7.484720379850268,6.2357531689345835
1775714909460894200,7.760894287109375,1.1202000342924148,-7.481510185632109,6.240397195348144
1775714909470908200,7.770908203125,1.1129808236286043,-7.479696414208412,6.243861656588315
1775714909480922000,7.780922119140625,1.102325354905799,-7.478584069052338,6.247082372200489
1775714909490936300,7.790936279296875,1.087788076313585,-7.4785039895534515,6.249724411141872
1775714909500950000,7.800949951171875,1.069786847937852,-7.479996273937821,6.251046015134453
1775714909510964200,7.810964111328125,1.0515822059445084,-7.482300459226965,6.251379192611575
1775714909520978200,7.820978271484375,1.0352778446145354,-7.485080445334315,6.25077245889008
1775714909530992400,7.830992431640625,1.0231815294336526,-7.487192322921753,6.2502329451859
1775714909541006000,7.841006103515625,1.0161549917977302,-7.487604995375872,6.2508846870929
1775714909551020000,7.85102001953125,1.0126463260896503,-7.486566299977898,6.252698458516598
1775714909561035300,7.86103515625,1.0122596648596227,-7.484369666716456,6.2553907663404935
1775714909571049200,7.87104931640625,1.0142256311703473,-7.48188135703206,6.258050340938568
1775714909581063200,7.881063232421875,1.016893096813932,-7.479885214778781,6.2600055666595695
1775714909591077000,7.8910771484375,1.022228174231574,-7.476983063596487,6.262601428371667
1775714909601091000,7.901091064453125,1.0288019265986978,-7.472547711497545,6.266818169283867
1775714909611105300,7.911105224609375,1.0337580877013504,-7.467349558332562,6.272195186147093
1775714909621119200,7.921119140625,1.036779042957723,-7.462849324303865,6.27705080948472
1775714909631133200,7.93113330078125,1.0383666044101119,-7.458861715972423,6.281524155506491
1775714909641147100,7.941147216796875,1.0392677910335362,-7.455245863562822,6.285669584748149
1775714909651161000,7.9511611328125,1.0404153536334633,-7.452764568141102,6.288420344761014
1775714909661175300,7.96117529296875,1.042823291558027,-7.451545840001105,6.289464300855994
1775714909671189000,7.97118896484375,1.0478933613639325,-7.450837983992695,6.289461962768435
1775714909681203200,7.981203125,1.0552711966555566,-7.450230665749311,6.288947583505511
1775714909691217200,7.991217041015625,1.0648996604181826,-7.4487518253684035,6.289074424755573
1775714909701231400,8.0012314453125,1.076886377744749,-7.445332372313738,6.2910822574466465
1775714909711245000,8.0112451171875,1.0915228058625013,-7.439519302120805,6.295437530046701
1775714909721259000,8.021259033203124,1.1091100466098636,-7.431517781972885,6.301811156731843
1775714909731273200,8.031273193359375,1.12840102253519,-7.421385679537058,6.3103212109237905
1775714909741287200,8.041287109375,1.147758122499287,-7.409909176754951,6.320307182887196
1775714909751301000,8.051301025390625,1.167464108966291,-7.398321030291915,6.330264513278007
1775714909761315000,8.061315185546874,1.186475975689292,-7.388364284422993,6.3383525426656
1775714909771329300,8.071329345703125,1.2033336600530893,-7.381793673861027,6.34282822677493
1775714909781343200,8.08134326171875,1.2169777891978621,-7.37878455517292,6.3437295595288274
1775714909791357200,8.091357177734375,1.2287398309230804,-7.377132111790776,6.343381769004464
1775714909801371100,8.10137109375,1.2406550173833966,-7.375678990373015,6.342753407973051
1775714909811385000,8.111385009765625,1.2530441049657761,-7.373809104847908,6.342490957644581
1775714909821399300,8.1213994140625,1.2655083036109804,-7.371057760313152,6.3432163493096825
1775714909831413200,8.131413330078125,1.2773388805277646,-7.367437816250324,6.345050578999519
1775714909841427200,8.14142724609375,1.2892466143339871,-7.362939920309185,6.347862713810801
1775714909851441200,8.151441162109375,1.3031174649067223,-7.357481654903292,6.351356401145458
1775714909861455000,8.161455078125,1.3201231063738466,-7.350778942394256,6.3556041217178105
1775714909871469300,8.17146923828125,1.3413145090930163,-7.342949856203794,6.360215999427437
1775714909881484300,8.181484375,1.3650886217817664,-7.334737323653697,6.364633815869689
1775714909891498000,8.191498046875,1.387390323830396,-7.327064304807782,6.368644805076718
1775714909901512200,8.20151220703125,1.4057554170824587,-7.3198022048503155,6.372970851582289
1775714909911526100,8.211526123046875,1.4188212348826228,-7.312355980497598,6.378620255646109
1775714909921540400,8.221540283203124,1.4286787581607698,-7.302965636339783,6.387171810892224
1775714909931554000,8.231553955078125,1.4379874153845011,-7.290377372923493,6.399453200316429
1775714909941568300,8.241568359375,1.4479222416825592,-7.2743790088027716,6.415398957467079
1775714909951582200,8.251582275390625,1.4605559516757727,-7.254867083603143,6.434601086065173
1775714909961596200,8.26159619140625,1.4760399365335701,-7.233736617290973,6.454825543448329
1775714909971610000,8.271610107421875,1.4938088174581527,-7.212547698789835,6.474417548146843
1775714909981624000,8.2816240234375,1.513502528965473,-7.192598551216721,6.4920122415482995
1775714909991638300,8.29163818359375,1.536041400770843,-7.174032382434606,6.507241959384084
1775714910001652200,8.30165234375,1.5620388885974883,-7.157271217247843,6.519498798888922
1775714910011666200,8.311666259765625,1.5910979559518397,-7.141963758000731,6.52925505374968
1775714910021680000,8.32168017578125,1.6228899554014204,-7.127448325914144,6.537285215470194
1775714910031694000,8.331694091796875,1.656542488025874,-7.112923541477322,6.544662466239929
1775714910041708300,8.341708251953126,1.689609329716861,-7.098418630784749,6.551950285160541
1775714910051722000,8.351721923828125,1.7214837467528878,-7.08571638559997,6.55739861369431
1775714910061736200,8.361736083984376,1.7529260559819637,-7.077225620630383,6.5582379871278995
1775714910071750100,8.371750244140625,1.7833138877220451,-7.0751301096558565,6.55230684351325
1775714910081764000,8.38176416015625,1.8121873693764208,-7.080320079514384,6.538762886807322
1775714910091778300,8.3917783203125,1.840105450002104,-7.091992397129535,6.518285331445932
1775714910101792000,8.4017919921875,1.8684242203831671,-7.1090592672646045,6.491583787003159
1775714910111806200,8.41180615234375,1.897791915295273,-7.130549214538932,6.459415793848037
1775714910121820200,8.421820068359375,1.9284272920556365,-7.154955341520905,6.423252009055018
1775714910131834400,8.43183447265625,1.960935476950556,-7.178981529274583,6.386497272631526
1775714910141848000,8.44184814453125,1.994997613289207,-7.20063981885314,6.351468044826388
1775714910151862300,8.4518623046875,2.029134276168793,-7.219274376696347,6.319418125092983
1775714910161876200,8.461876220703125,2.0609962721146644,-7.234815644699335,6.291273980626464
1775714910171890200,8.47189013671875,2.089787920704484,-7.248783379775285,6.265647371938824
1775714910181904100,8.481904052734375,2.115067907911539,-7.263633742904663,6.239911457657814
1775714910191919000,8.491919189453125,2.1344227428533133,-7.281642277804017,6.212272340103984
1775714910201933000,8.50193310546875,2.1460535594142973,-7.304102531415223,6.181822256782651
1775714910211947300,8.511947265625,2.14872511671111,-7.330393156969547,6.149692842072248
1775714910221961200,8.521961181640625,2.1438827912464737,-7.3595216362982985,6.116501935610175
1775714910231975200,8.53197509765625,2.1322005367591976,-7.390795895484089,6.082779114228487
1775714910241989000,8.541989013671875,2.1117574681892988,-7.423551333138346,6.049937167334556
1775714910252003000,8.552003173828124,2.0816708113528786,-7.4574582789152855,6.018583997693658
1775714910262017300,8.562017333984375,2.0428106270827353,-7.492488091242313,5.988315700680017
1775714910272030500,8.572030517578124,1.997121035183966,-7.528552507314085,5.958423251241445
1775714910282044700,8.582044677734375,1.947646956310421,-7.566055431756377,5.92721153589785
1775714910292058600,8.59205859375,1.897475104431063,-7.605859618878364,5.892441251289844
1775714910302072800,8.60207275390625,1.8512324086941778,-7.64704678479135,5.85371375348866
1775714910312086500,8.61208642578125,1.8120964762225746,-7.688689877778291,5.811260513162613
1775714910322100700,8.622100830078125,1.7797135251425205,-7.730786559751629,5.76523759765625
1775714910332114700,8.63211474609375,1.755796496851742,-7.773521539628505,5.7148880511224265
1775714910342128600,8.642128662109375,1.7398717824891208,-7.817609687680005,5.659348534730077
1775714910352142600,8.652142578125,1.7292555497981608,-7.863132836970687,5.599215260806679
1775714910362156500,8.662156494140625,1.7237452619440852,-7.909512310829758,5.535223557889461
1775714910372170800,8.672170654296876,1.7237627976007759,-7.954765995529294,5.469985654303431
1775714910382184700,8.682184814453125,1.7280799301475285,-7.996060128948092,5.408065496963262
1775714910392198700,8.69219873046875,1.7342044043771923,-8.03071409370005,5.3544876360327
1775714910402212600,8.702212646484375,1.7415411770060658,-8.057344326472283,5.311933273419737
1775714910412226600,8.7122265625,1.751856965445727,-8.075731047034264,5.280525743243098
1775714910422240800,8.72224072265625,1.76360117925331,-8.088582345300912,5.256893523243069
1775714910432254500,8.73225439453125,1.7738246132344007,-8.098457842627168,5.238217464345693
1775714910442268700,8.7422685546875,1.7814523316338657,-8.106254195591807,5.223551225611567
1775714910452282600,8.75228271484375,1.785684123984724,-8.112742388567328,5.212018024206161
1775714910462296800,8.762296875,1.7842809791885315,-8.118896235021948,5.202908835077285
1775714910472310800,8.772310791015625,1.775112607218325,-8.125075215917825,5.196395507660508
1775714910482324500,8.782324462890625,1.7582850987970828,-8.131698433449865,5.191752650290727
1775714910492338700,8.792338623046875,1.735027118936926,-8.137775707536935,5.190052276113629
1775714910502353700,8.802353759765625,1.707862487027049,-8.14200063175559,5.192435956379771
1775714910512367600,8.81236767578125,1.6800579497784376,-8.145330652961134,5.1962856175452465
1775714910522381800,8.8223818359375,1.6535646412588656,-8.14964676259458,5.198015802338719
1775714910532395500,8.8323955078125,1.6279688661009073,-8.156929320818186,5.194667660954594
1775714910542409700,8.84240966796875,1.600934144181013,-8.16960175538659,5.183145565465092
1775714910552423700,8.852423583984375,1.5715819390989838,-8.187815457469224,5.163353069758415
1775714910562438000,8.86243798828125,1.5418126776486634,-8.209431076949834,5.137942734169959
1775714910572451600,8.87245166015625,1.5160373081400988,-8.232914243867993,5.107951500532031
1775714910582465500,8.882465576171874,1.4963685849435626,-8.25638221321702,5.075768309807777
1775714910592479700,8.892479736328125,1.4836610790617764,-8.278294185295701,5.043705530592799
1775714910602493700,8.90249365234375,1.4804314494907855,-8.297049154648183,5.0137517063558095
1775714910612507600,8.912507568359375,1.4878934559345245,-8.3119199760437,4.986836811423301
1775714910622521600,8.922521484375,1.503115721116215,-8.324349249505996,4.96147557567358
1775714910632535800,8.932535888671875,1.5205381266906857,-8.335693065819143,4.93706126538515
1775714910642549800,8.9425498046875,1.5350341234244405,-8.34739168691933,4.912748077383637
1775714910652563500,8.9525634765625,1.5433099304690956,-8.360661502858996,4.887525081060827
1775714910662577700,8.96257763671875,1.5446441016823051,-8.37557616339624,4.8614995361834765
1775714910672591600,8.972591552734375,1.5418446802221237,-8.391268238046765,4.835258010467887
1775714910682605800,8.982605712890624,1.5389396064303815,-8.405722879856825,4.8110184722244735
1775714910692619500,8.99261962890625,1.5373950073368847,-8.417875089943408,4.790216214953363
1775714910702633700,9.0026337890625,1.5368918801203368,-8.427934711664914,4.772657469648123
1775714910712647700,9.012647705078125,1.5381249290466308,-8.436415539762377,4.7572550255939365
1775714910722661600,9.02266162109375,1.5425759171061217,-8.44467483406365,4.741129820223152
1775714910732675600,9.032675537109375,1.5491959197677672,-8.45427502157986,4.721823938989639
1775714910742689500,9.042689453125,1.5563981062315404,-8.465566230922937,4.6991716699376695
1775714910752703700,9.052703857421875,1.562515712329,-8.477287063854932,4.675954460479319
1775714910762717700,9.0627177734375,1.565558148764819,-8.487820732828974,4.655781441022455
1775714910772732000,9.07273193359375,1.5653268242269753,-8.496007546415925,4.64089980597198
1775714910782745600,9.08274560546875,1.563475351141393,-8.501427817898989,4.631591294878721
1775714910792759600,9.092759521484375,1.5614157882630824,-8.504013158217072,4.627540558183193
1775714910802773800,9.102773681640626,1.5597830724947153,-8.50476485336721,4.626708491273224
1775714910812787700,9.11278759765625,1.5589344928413629,-8.505759709623456,4.625165645745397
1775714910822802700,9.122802734375,1.5593132630258797,-8.506956810453534,4.622837787319719
1775714910832816600,9.132816650390625,1.5614539283163844,-8.507674018812178,4.620793129749596
1775714910842830600,9.14283056640625,1.5646400110065937,-8.507731886479258,4.61960947292298
1775714910852844800,9.1528447265625,1.5677539052434264,-8.506309160199761,4.621171023151279
1775714910862858800,9.162858642578126,1.5706560564257204,-8.503208856096863,4.625889576105773
1775714910872872700,9.172872802734375,1.5726280871510505,-8.499096160081029,4.632777289792895
1775714910882886700,9.18288671875,1.5721908647775649,-8.494329384070634,4.641654423731565
1775714910892900600,9.192900634765625,1.5693166245155035,-8.488946521988511,4.652463110254705
1775714910902914800,9.202914794921876,1.5659053547672928,-8.48268044733107,4.665022439837456
1775714910912928500,9.212928466796875,1.5633856270313262,-8.4744948027879,4.680724451360106
1775714910922942700,9.222942626953126,1.5604717854112387,-8.46470464565754,4.699371868684888
1775714910932956700,9.232956787109375,1.5563509060889482,-8.455036069080233,4.718107548815012
1775714910942971000,9.242970947265626,1.5507602464750407,-8.447122227215766,4.734095391541719
1775714910952984600,9.252984619140625,1.5413039974741636,-8.442569970738887,4.745294538687169
1775714910962998500,9.26299853515625,1.5276590646117925,-8.44110983505845,4.752295357359945
1775714910973012700,9.2730126953125,1.512592428383231,-8.44071878991425,4.757804476170241
1775714910983026700,9.283026611328125,1.4968867635987697,-8.439965925720333,4.764103284053504
1775714910993040600,9.29304052734375,1.4798409362517297,-8.43849819125533,4.772025601485371
1775714911003054600,9.3030546875,1.4621321149513125,-8.43624193676114,4.78146504548192
1775714911013068800,9.31306884765625,1.445326672231406,-8.433808572134375,4.79085568190068
1775714911023082800,9.323082763671875,1.4299401563987135,-8.431870882070063,4.7988738609224555
1775714911033096400,9.333096435546874,1.4181421665772795,-8.430436465352773,4.804892682820558
1775714911043110700,9.343110595703125,1.4108295054763555,-8.42965905123949,4.808409166508913
1775714911053124600,9.35312451171875,1.407531048452854,-8.42887579190731,4.810749592155218
1775714911063138800,9.363138916015625,1.4067515885129571,-8.427373570650815,4.813607904195785
1775714911073152800,9.37315283203125,1.4076608123123644,-8.424449792158603,4.818460020402074
1775714911083166700,9.383166748046875,1.4099516997285186,-8.418863516458869,4.827538814392685
1775714911093180700,9.3931806640625,1.4139979063794017,-8.41005769419074,4.84168541316688
1775714911103194600,9.403194580078125,1.419604201953858,-8.39877466815412,4.85959954778105
1775714911113208800,9.413208740234374,1.426421626883745,-8.38672884105146,4.878372637312114
1775714911123222500,9.423222412109375,1.4353456687040627,-8.375503098160028,4.895008422553539
1775714911133237500,9.433237548828124,1.4455992055624722,-8.366391570943593,4.90755752300322
1775714911143251700,9.443251708984375,1.4543398536399006,-8.359530453002453,4.916661451435089
1775714911153265700,9.453265625,1.4614812498271463,-8.353686403149366,4.924467156749963
1775714911163280000,9.46327978515625,1.4675624694369733,-8.348596386533975,4.931283851027488
1775714911173293600,9.47329345703125,1.4733254168778658,-8.344404195541143,4.936659114325046
1775714911183307500,9.4833076171875,1.4783888377472758,-8.340879528546333,4.9411026497304436
1775714911193321700,9.49332177734375,1.4813593779906629,-8.338232813429832,4.9446810927391045
1775714911203335700,9.503335693359375,1.4806491838946938,-8.336773262271285,4.947350604209303
1775714911213349600,9.513349609375,1.4762106169253586,-8.335331246769428,4.951102650219202
1775714911223363600,9.523363525390625,1.4681182036235927,-8.333402909055351,4.956752054283022
1775714911233377800,9.533377685546874,1.458219471552223,-8.331393907320498,4.963049693122506
1775714911243391700,9.543391845703125,1.4490781337194143,-8.329555001455544,4.9688136634767055
1775714911253405700,9.55340576171875,1.4401086453221736,-8.32889390719831,4.972525961998104
1775714911263419600,9.563419677734375,1.4302363628663122,-8.330279808598757,4.973051447176933
1775714911273434400,9.573434326171874,1.4206971117570995,-8.33279149915874,4.971581374624371
1775714911283448600,9.583448486328125,1.4120840355820954,-8.334688857212662,4.970853060349822
1775714911293462500,9.593462646484374,1.4034079771734773,-8.33465670850873,4.973360659256577
1775714911303476200,9.603476318359375,1.3941647864013909,-8.332449553853273,4.979654206442833
1775714911313490400,9.613490478515626,1.3831747519619761,-8.328935408252477,4.98859271517992
1775714911323504400,9.62350439453125,1.3684402702972291,-8.325581421649456,4.998248432275653
1775714911333518600,9.6335185546875,1.3505752355217933,-8.323475973802804,5.006604757210612
1775714911343532300,9.6435322265625,1.3311913206160069,-8.323020631250738,5.012551682916284
1775714911353546500,9.65354638671875,1.311511345373094,-8.323623273319006,5.016731598949432
1775714911363560400,9.663560546875,1.2914679436452685,-8.325292667835951,5.019163210010528
1775714911373574400,9.673574462890626,1.2705889678761362,-8.327994328010082,5.020011351272464
1775714911383588400,9.68358837890625,1.247231034772843,-8.330971297994255,5.020929050639271
1775714911393602300,9.693602294921876,1.2196244312491267,-8.333433888715506,5.023624281072617
1775714911403616500,9.703616455078125,1.1900524459365756,-8.334083292534947,5.0296337506204845
1775714911413630500,9.71363037109375,1.162845070863515,-8.332320374515652,5.0389106975316995
1775714911423644400,9.72364453125,1.1407489013243466,-8.328583526074885,5.050127672594785
1775714911433659400,9.733659423828126,1.1233304412726313,-8.32423234512806,5.061190918400883
1775714911443673300,9.74367333984375,1.1076367591869085,-8.321421379360556,5.069265503785014
1775714911453687600,9.7536875,1.0925596015643328,-8.321325517770648,5.072696062755584
1775714911463701500,9.763701416015625,1.0801511516943574,-8.324033607685566,5.070908594816923
1775714911473715200,9.773715087890626,1.0721065961223095,-8.328440902733803,5.065377848696708
1775714911483729400,9.7837294921875,1.0695081040617078,-8.333087267234921,5.058280583912134
1775714911493743400,9.793743408203126,1.0717894929971545,-8.336544714212417,5.052093419709801
1775714911503757600,9.803757568359375,1.0758198444917797,-8.337865733683108,5.049059166580438
1775714911513771500,9.813771484375,1.078668000464514,-8.337000641286373,5.049879250791669
1775714911523785500,9.823785400390625,1.078174883185327,-8.33459884084165,5.053950445753336
1775714911533799400,9.83379931640625,1.073728352105245,-8.331236670932173,5.06043337803185
1775714911543813400,9.8438134765625,1.066471805105731,-8.327332649230957,5.068388720950484
1775714911553827600,9.85382763671875,1.0582244204379618,-8.323544362863897,5.076331788909435
1775714911563841300,9.86384130859375,1.051008936101198,-8.320431199279428,5.082932210087776
1775714911573855500,9.87385546875,1.0452258957203477,-8.317780977031589,5.088461202642321
1775714911583869400,9.883869384765624,1.0399930365681647,-8.315432952600718,5.093364756774902
1775714911593883400,9.89388330078125,1.0335825119387358,-8.313162669581175,5.098372355803847
1775714911603897300,9.9038974609375,1.0231099985674024,-8.310424184527992,5.104946473497152
1775714911613911300,9.913911376953125,1.0022469510197638,-8.307294069808721,5.114169059872627
1775714911623925500,9.923925537109374,0.9669893943514675,-8.3039003357172,5.126456294515728
1775714911633939500,9.933939453125,0.9166531456906348,-8.301119180566072,5.140186713704466
1775714911643953400,9.943953369140624,0.8513033792279661,-8.300555116942524,5.152324895265698
1775714911653967400,9.95396728515625,0.7742033345431089,-8.304233513194323,5.158554145044088
1775714911663981300,9.963981201171874,0.6925314518980682,-8.313497016102074,5.155244582104682
1775714911673995500,9.97399560546875,0.6147467128846794,-8.329187337186932,5.139756505593657
1775714911684009200,9.98400927734375,0.5508145946675911,-8.351157176932691,5.111279768171906
1775714911694023400,9.9940234375,0.507444276029244,-8.377394026473164,5.07268612588346
1775714911704037400,10.004037353515624,0.4834270387670025,-8.404789398398995,5.02952970572412
1775714911714051600,10.014051513671875,0.47442865306884047,-8.429656128630041,4.988606743705272
1775714911724065300,10.024065185546876,0.4738028493206948,-8.450150050604343,4.953870945888758
1775714911734079500,10.03407958984375,0.47406321728993206,-8.4661747182101,4.92641361464262
1775714911744093400,10.044093505859376,0.4702993712443858,-8.478351478216052,4.905788759765029
1775714911754108400,10.0541083984375,0.4589748076209798,-8.488358492967485,4.8895302834033965
1775714911764122400,10.064122314453124,0.4372990919835865,-8.498520406019686,4.87383820875287
1775714911774136300,10.07413623046875,0.40525702676307407,-8.510336516019702,4.855956222842633
1775714911784150300,10.084150390625,0.36835181248560545,-8.524646196401118,4.833747898165881
1775714911794164500,10.09416455078125,0.3319502003487199,-8.541668058350682,4.8062546188235284
1775714911804178400,10.104178466796874,0.30196543298419565,-8.560543439212442,4.7745469366565345
1775714911814192600,10.114192626953125,0.2832537913167849,-8.57990397324264,4.7408241152748465
1775714911824206300,10.124206298828126,0.2791643117797561,-8.598340962687134,4.7075466995731
1775714911834220300,10.13422021484375,0.28949116960270327,-8.615390881687402,4.675641156746447
1775714911844234500,10.144234375,0.30926874173488467,-8.631295137783885,4.644940605795383
1775714911854248400,10.15424853515625,0.3320526012772694,-8.646440099945664,4.615104270458221
1775714911864262400,10.164262451171876,0.35451464498676355,-8.661324365344644,4.585428678640723
1775714911874276400,10.1742763671875,0.3741435110969469,-8.67636236000061,4.5553427524566645
1775714911884290600,10.18429052734375,0.389182674796693,-8.691602014708518,4.524925694622099
1775714911894304500,10.194304443359375,0.4012902420239523,-8.70720641107559,4.493763663639128
1775714911904318200,10.204318115234376,0.41389063426945355,-8.723209451371432,4.461471459582448
1775714911914332400,10.21433251953125,0.4283605467138812,-8.739494815739988,4.428104319770634
1775714911924346400,10.224346435546876,0.44591140097361054,-8.755468629941344,4.394690418207645
1775714911934360600,10.234360595703125,0.46785128397252407,-8.769173330166936,4.364985015773773
1775714911944374300,10.244374267578126,0.4956745259216055,-8.780194490396976,4.3396836935177445
1775714911954388500,10.254388427734375,0.529660528284125,-8.789503586012124,4.3167645902231335
1775714911964402400,10.26440234375,0.5680940481074154,-8.79773716135025,4.295050771065056
1775714911974416400,10.27441650390625,0.60966824057661,-8.805369848185777,4.273657562163472
1775714911984430300,10.284430419921875,0.6515393701657652,-8.812676371806859,4.2523669368535275
1775714911994444300,10.2944443359375,0.6901921222303062,-8.819896386188269,4.231242900282144
1775714912004458500,10.30445849609375,0.7232737961642444,-8.827450747090577,4.209915742354095
1775714912014472400,10.314472412109374,0.750075074654445,-8.835266973799467,4.188774462386966
1775714912024486400,10.324486328125,0.7709399488329887,-8.843008966228366,4.168600566147267
1775714912034500400,10.334500244140624,0.7874384444955735,-8.8503295183748,4.149939704819023
1775714912044514300,10.344514404296875,0.8021194424074143,-8.856532464668154,4.133865645113588
1775714912054528500,10.354528564453124,0.8158359061360358,-8.860582032319902,4.122485296182334
1775714912064543500,10.36454345703125,0.8291877012707293,-8.861693208432197,4.117431227663159
1775714912074557200,10.37455712890625,0.8424133127424865,-8.860349392607807,4.117636687107384
1775714912084571400,10.3845712890625,0.8544444537326693,-8.857802630734444,4.120636453445256
1775714912094585300,10.39458544921875,0.8626281985796987,-8.855306722265482,4.124295852735639
1775714912104599600,10.404599609375,0.8649731542706489,-8.85309021525979,4.128561693486571
1775714912114613500,10.414613525390624,0.8610417331058532,-8.851108686053752,4.13362803696543
1775714912124627500,10.42462744140625,0.8487411275245249,-8.849531061473488,4.139545152054727
1775714912134641400,10.434641357421874,0.826986537964642,-8.848401180660725,4.146357754679024
1775714912144655400,10.4446552734375,0.7988847713351249,-8.847243242797255,4.1543329713419075
1775714912154669600,10.454669677734374,0.7685547341968864,-8.84611570007205,4.162445550648868
1775714912164683300,10.464683349609375,0.7387732708521186,-8.844984650215507,4.170234012567997
1775714912174697500,10.474697509765624,0.7114067596945911,-8.843798070779442,4.177499619656801
1775714912184711400,10.48471142578125,0.6885873173821717,-8.84307735528946,4.1828479949474335
1775714912194725600,10.4947255859375,0.6728463620886206,-8.842674035185574,4.186261602783203
1775714912204739300,10.5047392578125,0.6648585782051086,-8.842109387040137,4.188727408374846
1775714912214753300,10.514753173828124,0.6636202685818076,-8.840897088640927,4.191482260040939
1775714912224767500,10.524767578125,0.6675854458857328,-8.838661876934767,4.19556456091851
1775714912234781400,10.534781494140624,0.6751596074670553,-8.83578135306239,4.200416384863853
1775714912244795400,10.54479541015625,0.6865916865855455,-8.832803214034438,4.20482251086831
1775714912254809300,10.554809326171876,0.7020226260818541,-8.830324841222167,4.207483254510164
1775714912264823600,10.564823486328125,0.7202694267164915,-8.828332790622115,4.208576894965768
1775714912274836200,10.574836181640626,0.7403059603121132,-8.826651705667375,4.208628625153005
1775714912284850400,10.584850341796875,0.7604563295457512,-8.825220796081423,4.208038550305366
1775714912294864400,10.594864501953126,0.7781754530444741,-8.824306019324064,4.206714900486171
1775714912304878600,10.604878662109375,0.7930152947798371,-8.82416398050487,4.204241203849017
1775714912314892500,10.614892578125,0.8051295109435915,-8.824931457746029,4.2003246149271725
1775714912324906200,10.62490625,0.813733965420723,-8.826859795460104,4.194612667021155
1775714912334920400,10.63492041015625,0.8195422863733023,-8.829155797442793,4.1886446985274555
1775714912344934400,10.644934326171875,0.8231307393193245,-8.831358860445022,4.183295154193043
1775714912354948600,10.654948486328125,0.8240900858707726,-8.833138729599117,4.179347585611045
1775714912364962300,10.66496240234375,0.8235313560094684,-8.833979856598377,4.177675268484652
1775714912374977300,10.674977294921876,0.8216027260344475,-8.833921988931298,4.178175034700334
1775714912384991500,10.684991455078125,0.8180351697459817,-8.833466646379232,4.1798432601735
1775714912395005400,10.69500537109375,0.8139082990743219,-8.83337896809578,4.180831394428014
1775714912405019600,10.70501953125,0.8109727570790797,-8.834075718188286,4.179932107500732
1775714912415033300,10.715033447265625,0.8095114523548632,-8.835613010758161,4.176964782127738
1775714912425047300,10.72504736328125,0.8105826617829501,-8.83761032205522,4.172525922897458
1775714912435061500,10.7350615234375,0.8152301953278481,-8.839600034567713,4.167404926621914
1775714912445075500,10.745075439453124,0.8231832001589238,-8.841346001452207,4.162136338569224
1775714912455089400,10.75508935546875,0.8337552283819765,-8.843309995001555,4.155854774081707
1775714912465103400,10.765103271484374,0.8456992756105959,-8.846012824219464,4.147682573541998
1775714912475117600,10.77511767578125,0.8595615044854581,-8.849566132786869,4.137238628678023
1775714912485131500,10.785131591796874,0.8749129490047692,-8.853526268589496,4.12553240879327
1775714912495145200,10.795145263671875,0.8909342556096613,-8.857052104628085,4.114517678304017
1775714912505159400,10.805159423828124,0.9053026073757559,-8.859155214387178,4.106847582067549
1775714912515173400,10.81517333984375,0.9147793146427721,-8.859624585464596,4.103731788134574
1775714912525187600,10.8251875,0.917430559803918,-8.85941123497486,4.103601147492229
1775714912535201300,10.835201171875,0.9132430449862032,-8.859989327123762,4.103288720542192
1775714912545215500,10.845215576171874,0.9034180357381701,-8.86249166533351,4.10005660675317
1775714912555229400,10.8552294921875,0.8899608074676245,-8.867075485992432,4.093083260609209
1775714912565243400,10.865243408203124,0.875091008985415,-8.873513994607329,4.082324258446693
1775714912575257300,10.87525732421875,0.8605930394902824,-8.880992952185869,4.069117570871114
1775714912585271300,10.885271240234376,0.8481960608623922,-8.888442683669924,4.05543566699922
1775714912595285500,10.895285400390625,0.8391186551112682,-8.895209109064936,4.04246600304991
1775714912605299500,10.905299560546876,0.8336834783200174,-8.900940930715203,4.030955890259146
1775714912615313400,10.9153134765625,0.8321692743647843,-8.905753883954882,4.020626219424605
1775714912625327400,10.925327392578126,0.8345977436207235,-8.909963026082515,4.010784624367952
1775714912635341300,10.93534130859375,0.8411150896254926,-8.913961740329862,4.000524219377339
1775714912645355500,10.94535546875,0.851185525001958,-8.918708642596005,3.987794209402799
1775714912655369500,10.955369384765625,0.8635281430941074,-8.924536325836181,3.972073200918734
1775714912665383400,10.965383544921876,0.8766924528326838,-8.931524869549273,3.953438058553636
1775714912675397400,10.9753974609375,0.8888282963063567,-8.93932706773281,3.9330405826911328
1775714912685411300,10.985411376953126,0.8992948913935571,-8.947364828237891,3.912330972139537
1775714912695425500,10.995425537109375,0.9080862467449158,-8.95559255835712,3.891417071187496
1775714912705440500,11.0054404296875,0.915546280427277,-8.963898614409565,3.870487972666323
1775714912715454500,11.015454345703125,0.923281404723972,-8.972218114465475,3.849314251734316
1775714912725468400,11.025468505859376,0.9332287251774221,-8.981082973444462,3.826173906904459
1775714912735482400,11.035482421875,0.9454740203749388,-8.99083864378333,3.8001694048151373
1775714912745496600,11.04549658203125,0.9563087181221693,-9.002045097452402,3.7708135464712975
1775714912755510300,11.05551025390625,0.9612074499491602,-9.015423049941658,3.737462773272395
1775714912765524500,11.0655244140625,0.9564357055027037,-9.03116130182147,3.7005063767969606
1775714912775538400,11.075538330078125,0.939595556795597,-9.04928966370821,3.660312898096442
1775714912785552400,11.085552490234376,0.9111316057901829,-9.069161654391884,3.618086160002649
1775714912795566300,11.09556640625,0.8748146762620658,-9.089323567932844,3.5762095505207774
1775714912805580300,11.105580322265626,0.8352939091913402,-9.109105542245507,3.5350896046251057
1775714912815594500,11.115594482421875,0.7965583742141723,-9.127962802928685,3.4951635446891185
1775714912825608400,11.1256083984375,0.7644674648832529,-9.1450951395154,3.4573476087749
1775714912835622400,11.135622314453125,0.7448394390232861,-9.159492498180269,3.423346554973721
1775714912845636400,11.14563623046875,0.7416453191570938,-9.170982444965839,3.3931440166726707
1775714912855650300,11.155650390625,0.7562209569983184,-9.180137811324,3.3650536482200026
1775714912865664500,11.16566455078125,0.7867445439472794,-9.187378283971547,3.338189022170007
1775714912875678200,11.17567822265625,0.8290529689751565,-9.193090231877564,3.312125191108882
1775714912885692400,11.1856923828125,0.8792566042322665,-9.197554225549101,3.286682706816494
1775714912895706400,11.195706298828124,0.9329801572438329,-9.201292827555537,3.2613094883680342
1775714912905720600,11.205720458984375,0.9864318345114588,-9.204525818127394,3.2363647244647145
1775714912915734500,11.215734619140624,1.0369669667452572,-9.206998345720768,3.2134497128233313
1775714912925748200,11.225748291015625,1.0834388681281357,-9.20811244444251,3.194872730386257
1775714912935762400,11.235762451171874,1.1254977023091166,-9.20747999175787,3.1821301531910895
1775714912945776400,11.2457763671875,1.16359815425314,-9.204978822591901,3.1756571577847
1775714912955790600,11.25579052734375,1.1993825843397528,-9.200248871460557,3.1760499564945697
1775714912965804300,11.26580419921875,1.2353814608946443,-9.193093154487013,3.1829645581886172
1775714912975818500,11.275818603515624,1.2731814685873686,-9.183164465668797,3.196699945813417
1775714912985832400,11.28583251953125,1.3129307106517254,-9.169969468531011,3.2184266244530675
1775714912995846400,11.295846435546874,1.3544601141311228,-9.153665983983874,3.2474948980271816
1775714913005860400,11.3058603515625,1.396174957180023,-9.135364019095897,3.2811858629658817
1775714913015874300,11.315874267578126,1.436564981365949,-9.115593735221028,3.3185271671056746
1775714913025889300,11.32588916015625,1.474005508096516,-9.09451470683515,3.359686860489845
1775714913035903500,11.335903564453124,1.5079359808795154,-9.072394060441852,3.4041441341146825
1775714913045917400,11.34591748046875,1.538444224128872,-9.049992259019612,3.4498113680511713
1775714913055931400,11.355931396484374,1.5657093938037752,-9.027979164654017,3.4949282746285197
1775714913065945300,11.3659453125,1.5912917249582708,-9.00605725570321,3.5396497521474957
1775714913075959600,11.37595947265625,1.6159386749587952,-8.983651947149633,3.5851278932526705
1775714913085973500,11.385973388671875,1.6403598533794284,-8.96070069515109,3.6311806193754075
1775714913095987200,11.3959873046875,1.6671519987151027,-8.936829990220069,3.6775092398300764
1775714913106001400,11.40600146484375,1.6979808522209525,-8.912070812016726,3.723198685598373
1775714913116015400,11.416015380859376,1.7335653758212923,-8.887121664199233,3.7661943622380494
1775714913126029600,11.426029541015625,1.772493510761112,-8.8627529466182,3.8052939082220196
1775714913136043300,11.436043212890626,1.8120606742568313,-8.839574315604567,3.8404099375277756
1775714913146057500,11.446057373046875,1.8484136980116366,-8.818948876205086,3.8703862658575177
1775714913156071400,11.456071533203126,1.8792064572907983,-8.801724769681691,3.8946921473354097
1775714913166085400,11.46608544921875,1.9054338083505629,-8.787586354213952,3.913824717828631
1775714913176099300,11.476099365234376,1.9293010061502456,-8.775310810008644,3.929640418858826
1775714913186113300,11.48611328125,1.9534246629290282,-8.762932389950752,3.94531729594022
1775714913196127500,11.49612744140625,1.9807231503516434,-8.748801573267578,3.963023925283551
1775714913206141400,11.506141357421875,2.012503167102486,-8.733242769607902,3.981291695640981
1775714913216155600,11.51615576171875,2.0474818337641656,-8.71819249999225,3.9964115233615036
1775714913226169300,11.52616943359375,2.0859851674206555,-8.70452579368949,4.006280298686027
1775714913236183300,11.536183349609376,2.129277781180292,-8.691697876298427,4.0113533641666175
1775714913246197500,11.546197509765625,2.175858330569416,-8.678931918227672,4.013993357281387
1775714913256211500,11.55621142578125,2.2221822748489677,-8.66558494539857,4.017454311390221
1775714913266225400,11.566225341796875,2.2644851469188927,-8.651212136653065,4.024801167021692
1775714913276240400,11.576240478515626,2.3006053848311305,-8.636191093131899,4.036555025440454
1775714913286254300,11.58625439453125,2.3295208059310912,-8.621984288603066,4.050323730812966
1775714913296268300,11.596268310546876,2.350064120005071,-8.610255856886505,4.063385164698958
1775714913306282200,11.6062822265625,2.3611174289390444,-8.602399882689118,4.073598807938397
1775714913316296400,11.61629638671875,2.3622785816729066,-8.599017839035392,4.080065081343054
1775714913326310400,11.626310302734375,2.351293807930499,-8.600600724312663,4.08306806255132
1775714913336324000,11.636323974609375,2.3267774985723197,-8.607256090548635,4.083090274383127
1775714913346338300,11.64633837890625,2.2906625213570893,-8.618121767956017,4.080587643912434
1775714913356352300,11.656352294921875,2.2460082638554275,-8.631402689811587,4.0773403325542805
1775714913366367200,11.6663671875,2.195071857344359,-8.64525410503149,4.075734066401422
1775714913376381400,11.67638134765625,2.139011824209243,-8.659224178194998,4.075889549224079
1775714913386395100,11.68639501953125,2.0794944902271033,-8.673324599739908,4.076708756652474
1775714913396409300,11.696409423828126,2.016385853754729,-8.688293620812892,4.076536907216906
1775714913406423300,11.70642333984375,1.9497753466412424,-8.704489553332328,4.074389666055143
1775714913416437500,11.7164375,1.8814687031343578,-8.721166547366977,4.070837526531517
1775714913426451200,11.726451171875,1.815306232049316,-8.736696709454058,4.067579401518405
1775714913436465200,11.736465087890625,1.755355182825029,-8.749518781626223,4.066326478847861
1775714913446479400,11.746479248046874,1.703980238766223,-8.758526848468184,4.068789946351945
1775714913456493300,11.756493408203125,1.6632433008387684,-8.763394162243603,4.075158604601025
1775714913466507300,11.76650732421875,1.6367114138744772,-8.764000311443208,4.084586650420725
1775714913476521200,11.776521240234375,1.6260063338562845,-8.760558646556735,4.096232080028951
1775714913486535400,11.786535400390624,1.6278285808473825,-8.754012001392244,4.109481437702477
1775714913496549400,11.79654931640625,1.6353068077735602,-8.745742770218849,4.124091854596138
1775714913506563000,11.80656298828125,1.6433913300298153,-8.737073141551017,4.139227172146738
1775714913516577300,11.816577392578125,1.6508626888237892,-8.728726168966293,4.153841096171736
1775714913526591200,11.82659130859375,1.6568768345467746,-8.720753290390968,4.168167143166065
1775714913536605400,11.83660546875,1.6607715038977562,-8.712569983935355,4.183701396906375
1775714913546619100,11.846619140625,1.6648742630414664,-8.703902693355083,4.200075316341221
1775714913556633300,11.85663330078125,1.6725605797603726,-8.695508959019184,4.214387919332087
1775714913566647300,11.866647216796874,1.6855257136650383,-8.687581088629365,4.225559009426832
1775714913576661200,11.8766611328125,1.7036958688668906,-8.678914382570982,4.236065498133003
1775714913586675500,11.886675537109374,1.7253052047371864,-8.668851253718136,4.247909080661833
1775714913596689200,11.896689208984375,1.746236641345918,-8.65819600419104,4.261066083876789
1775714913606703400,11.906703369140626,1.763085192555189,-8.648024738788605,4.2747588014036415
1775714913616717300,11.91671728515625,1.775278611434996,-8.638898598524927,4.288147567547857
1775714913626731500,11.9267314453125,1.7836873972095548,-8.6310221660614,4.300499099598825
1775714913636745200,11.9367451171875,1.7901602464854716,-8.624007318863272,4.311869803918898
1775714913646759200,11.94675927734375,1.796748392704129,-8.616405611687899,4.324307552948594
1775714913656773400,11.9567734375,1.8045920919418335,-8.607330909350514,4.339089234755933
1775714913666787300,11.966787353515626,1.8129660986639557,-8.597495744034648,4.355063925740122
1775714913676801300,11.97680126953125,1.8209229028873144,-8.587675191766023,4.371092392738163
1775714913686815200,11.986815185546876,1.8297746101237833,-8.578085525643825,4.386200237759947
1775714913696829400,11.996829345703125,1.8399455832652747,-8.569116621768474,4.39945544065237
1775714913706843400,12.006843505859376,1.8498216651134192,-8.560784262230992,4.4115182188898325
1775714913716857000,12.016857177734375,1.859298956902325,-8.552576405856012,4.423443049961328
1775714913726872300,12.026872314453126,1.8678879215493798,-8.544352767390013,4.435701643031836
1775714913736886300,12.03688623046875,1.8740797619268297,-8.535695998203755,4.449729291601479
1775714913746900200,12.046900146484376,1.879203242420405,-8.525448160433768,4.467182822966575
1775714913756914400,12.05691455078125,1.885489629213512,-8.513041098803281,4.488148454105854
1775714913766928100,12.06692822265625,1.8940161961488424,-8.498435065823793,4.512170842467248
1775714913776942300,12.0769423828125,1.904650549018383,-8.48208248143792,4.538389279568195
1775714913786956300,12.086956298828126,1.9163586685992777,-8.46490981284082,4.565444459754229
1775714913796970200,12.09697021484375,1.9274208914920687,-8.447807871392369,4.5923812742576
1775714913806984200,12.106984130859376,1.936185066575557,-8.431185822415351,4.619162605938315
1775714913816998100,12.116998046875,1.941162562727183,-8.415551615431903,4.645513144986332
1775714913827012400,12.127012451171876,1.941913527224958,-8.400599545493721,4.672183709768951
1775714913837026300,12.1370263671875,1.9398124632924794,-8.386162439340353,4.698916818393767
1775714913847040300,12.147040283203125,1.9356284556061027,-8.372651215860246,4.724660039198398
1775714913857054200,12.15705419921875,1.928791741453856,-8.360740997835993,4.7484921656846995
1775714913867068400,12.167068359375,1.9181740474581717,-8.350718200993537,4.770376080712675
1775714913877082400,12.177082275390624,1.9045139170266687,-8.342295240563153,4.79054734660387
1775714913887096300,12.187096435546875,1.8902971756257116,-8.334838494816422,4.8091190683439375
1775714913897110300,12.1971103515625,1.877773940269649,-8.3273075147897,4.827038463655114
1775714913907124200,12.207124267578125,1.8668818132467566,-8.31871095135808,4.84605003811717
1775714913917138400,12.217138427734374,1.8574194267660378,-8.308681724774837,4.866848203735053
1775714913927152400,12.22715234375,1.8502195783898234,-8.297078380742668,4.889329207873344
1775714913937166300,12.237166259765624,1.844755029373616,-8.284290795361995,4.91302280267179
1775714913947180300,12.24718017578125,1.8403611783288418,-8.270845622855424,4.937261756393313
1775714913957194200,12.2571943359375,1.8373380311153829,-8.257123386973142,4.961299050062895
1775714913967208400,12.26720849609375,1.8363006508916615,-8.243407580831647,4.984436764544248
1775714913977222100,12.27722216796875,1.8384378090508282,-8.229034187564253,5.007345346444845
1775714913987236400,12.287236328125,1.8438738626249134,-8.214172133997081,5.02969804802835
1775714913997250300,12.297250244140624,1.8509359099656342,-8.200015598350763,5.050162159386277
1775714914007264300,12.30726416015625,1.856253597857058,-8.1869667316854,5.069349674937128
1775714914017278200,12.3172783203125,1.8588233022145926,-8.174671313735843,5.088213365361094
1775714914027292200,12.327292236328125,1.8586757104374467,-8.162686276909708,5.1074692699730395
1775714914037306400,12.337306396484376,1.8570514702364802,-8.149550316482783,5.1289966266483065
1775714914047320300,12.3473203125,1.8566084026440977,-8.133819078865647,5.154064432409405
1775714914057334300,12.357334228515626,1.8581831046149133,-8.115514775890112,5.182270536196231
1775714914067348200,12.36734814453125,1.8608476476490496,-8.095718188530206,5.2121945498168465
1775714914077362200,12.377362060546876,1.8632665453590451,-8.076534180110693,5.241014401587844
1775714914087376400,12.38737646484375,1.8646559538908303,-8.059570185828209,5.26657145217061
1775714914097390000,12.39739013671875,1.862964932063967,-8.045759102618694,5.28824260123074
1775714914107404300,12.407404296875,1.8556402882643044,-8.035482623276113,5.306410126084089
1775714914117419300,12.417419189453126,1.8432383412003517,-8.028240981584787,5.321671408101916
1775714914127433200,12.42743310546875,1.8276329219199716,-8.022216898989678,5.336120789214968
1775714914137447400,12.437447509765626,1.812094138135016,-8.015846779435872,5.3509723213881255
1775714914147461000,12.447461181640625,1.7982625966593622,-8.009659030711651,5.364887449494004
1775714914157475300,12.457475341796876,1.7859937744557857,-8.003986245772243,5.377435965421795
1775714914167489300,12.4674892578125,1.7768698261491953,-7.998577664726972,5.388494535052776
1775714914177503200,12.477503173828126,1.771191488251835,-7.993348531901836,5.3981157653570175
1775714914187517400,12.487517333984375,1.7676513314269482,-7.9879504722505805,5.407254765102267
1775714914197531100,12.49753125,1.7660919731557367,-7.982084210565686,5.416422406420112
1775714914207545300,12.50754541015625,1.7649013020664452,-7.97554808679521,5.426429421171545
1775714914217559300,12.517559326171876,1.76198278427124,-7.968792182794213,5.437291006925702
1775714914227573500,12.527573486328125,1.7574474789291619,-7.962970344772934,5.4472816550642245
1775714914237587200,12.537587158203126,1.752917142023146,-7.958743082466721,5.4549143418997526
1775714914247601200,12.54760107421875,1.7496940883234142,-7.956106888744235,5.459792761591077
1775714914257615400,12.557615478515626,1.7475205436766146,-7.954644414976238,5.462617171362042
1775714914267629300,12.56762939453125,1.7443764004319906,-7.953758864313364,5.4649096662133925
1775714914277642500,12.577642578125,1.7402036447919904,-7.952397512832284,5.468220982718467
1775714914287656400,12.587656494140624,1.7358948416821658,-7.950410722929239,5.472479224684834
1775714914297670700,12.597670654296875,1.7307938652813433,-7.948219934886693,5.4772746422678225
1775714914307684600,12.6076845703125,1.7238196423545478,-7.9462267152428625,5.482364658883213
1775714914317698600,12.617698486328125,1.7167516036644577,-7.944866532805562,5.486551004657149
1775714914327712500,12.62771240234375,1.7092903278730809,-7.944761903387308,5.489032300078868
1775714914337726700,12.637726806640625,1.6990107797905802,-7.945449885651469,5.491227179774642
1775714914347740700,12.64774072265625,1.6852464583322404,-7.945475604614615,5.495431645727157
1775714914357754400,12.65775439453125,1.6696293486140668,-7.943008922240137,5.503758160045742
1775714914367768600,12.6677685546875,1.6528215678066014,-7.938501673948764,5.515322925633192
1775714914377782500,12.677782470703125,1.6361331755951045,-7.933405812114477,5.527618343582749
1775714914387796700,12.687796630859374,1.6180045214474201,-7.9291539998888965,5.539039316785336
1775714914397810700,12.697810791015625,1.596444285415858,-7.926285166454314,5.549394122061133
1775714914407824600,12.70782470703125,1.570582114406675,-7.924083857017755,5.559905579203367
1775714914417838600,12.717838623046875,1.5409532843403517,-7.922543057316541,5.570385472163558
1775714914427852500,12.7278525390625,1.5088443278960884,-7.921654584044218,5.580428727272152
1775714914437866800,12.73786669921875,1.4743237802654503,-7.921548201060294,5.589798028641939
1775714914447880400,12.74788037109375,1.4375434710092843,-7.922560592973232,5.597937495955825
1775714914457894700,12.757894775390625,1.3997509159706532,-7.923935972979664,5.605560830441117
1775714914467908600,12.76790869140625,1.360789317152649,-7.92465318133831,5.6141345975190395
1775714914477922600,12.777922607421875,1.322562462349981,-7.92373840458095,5.624551946637034
1775714914487936500,12.7879365234375,1.285748981476575,-7.920563281676173,5.637544699200988
1775714914497950500,12.797950439453125,1.251107437814772,-7.915617641967534,5.652267052036524
1775714914507964700,12.807964599609376,1.2197785258322953,-7.90893071154952,5.668451878640055
1775714914517978600,12.817978515625,1.1924128183923661,-7.900685445773601,5.685746127790212
1775714914527992600,12.82799267578125,1.1687871742635965,-7.891747521558403,5.703038623374701
1775714914538006500,12.838006591796875,1.1478543494153768,-7.882945790943503,5.719438554033637
1775714914548021500,12.848021484375,1.1291494297496973,-7.874741441699862,5.734443230941891
1775714914558035700,12.85803564453125,1.1125543418448418,-7.867088881120085,5.748175403696298
1775714914568049700,12.868049560546876,1.0973883368950337,-7.85975020879507,5.7611132112026215
1775714914578063600,12.878063720703125,1.0839623074803502,-7.852115768393873,5.774049849665165
1775714914588077600,12.88807763671875,1.0730909309845418,-7.843705082923173,5.787499698346853
1775714914598091500,12.898091552734375,1.0665517384741454,-7.8344544394969935,5.801221934229135
1775714914608105700,12.908105712890626,1.0654483803421257,-7.824141135275363,5.815326447427273
1775714914618119400,12.918119384765625,1.0702423366203904,-7.812606764826178,5.829934818494319
1775714914628133600,12.928133544921875,1.0798735768619925,-7.800121377262473,5.844858246859908
1775714914638147600,12.938147705078125,1.0929920746974646,-7.787289368218183,5.859511626112461
