time,seconds_elapsed,z,y,x
1775341521228261000,0.06626123046875,0.03229665756225586,-0.009535789489746094,0.005771830677986145
1775341521238261000,0.076260986328125,-0.03570890426635742,0.03582954406738281,-0.1333768665790558
1775341521248261000,0.08626123046875,0.03496122360229492,-0.01432037353515625,-0.03379150480031967
1775341521258261000,0.096260986328125,-0.035718679428100586,0.01032257080078125,0.0780722051858902
1775341521268261000,0.10626123046875,0.020625829696655273,-0.0024499893188476562,-0.06658613681793213
1775341521278261000,0.116260986328125,0.002771615982055664,0.0027523040771484375,-0.06875757873058319
1775341521288261000,0.12626123046875,-0.010515689849853516,-0.010386466979980469,0.07035569101572037
1775341521298261000,0.136260986328125,0.014763593673706055,-0.0005846023559570312,-0.04058077558875084
1775341521308261000,0.14626123046875,-0.018076419830322266,0.030965805053710938,-0.08479772508144379
1775341521318261000,0.156260986328125,0.02367997169494629,-0.022622108459472656,0.032121237367391586
1775341521328261000,0.16626123046875,0.0023016929626464844,0.0020732879638671875,0.023765038698911667
1775341521338261000,0.176260986328125,0.014223098754882812,-0.006218910217285156,-0.06636984646320343
1775341521348261000,0.18626123046875,-0.00153350830078125,0.012740135192871094,-0.0037293359637260437
1775341521358261000,0.196260986328125,0.0003361701965332031,-0.010581016540527344,0.04809708520770073
1775341521368261000,0.20626123046875,0.0007395744323730469,0.011014938354492188,-0.03361443802714348
1775341521378261000,0.216260986328125,-0.012417793273925781,0.004538536071777344,-0.019748494029045105
1775341521388261000,0.22626123046875,0.0043871402740478516,-0.0029735565185546875,0.03835795819759369
1775341521398261000,0.236260986328125,0.002745389938354492,0.0020284652709960938,-0.02153344824910164
1775341521408261000,0.24626123046875,-0.010905265808105469,0.006694793701171875,-0.026588978245854378
1775341521418261000,0.256260986328125,0.012932062149047852,-0.006640434265136719,0.03218011185526848
1775341521428261000,0.26626123046875,-0.015978574752807617,0.006482124328613281,0.005535002797842026
1775341521438261000,0.276260986328125,0.008153915405273438,0.0007333755493164062,-0.051188744604587555
1775341521448261000,0.28626123046875,-0.020215511322021484,-0.0027141571044921875,0.0013445354998111725
1775341521458261000,0.296260986328125,0.0074100494384765625,-0.0006017684936523438,0.020163144916296005
1775341521468261000,0.30626123046875,-0.005185365676879883,0.004384040832519531,-0.02614689990878105
1775341521478261000,0.316260986328125,-0.0165560245513916,0.011137008666992188,-0.013097178190946579
1775341521488261000,0.32626123046875,0.0027048587799072266,0.0006170272827148438,0.012462027370929718
1775341521498261000,0.336260986328125,-0.011144399642944336,-0.004488945007324219,-0.007120620459318161
1775341521508261000,0.34626123046875,0.016794443130493164,-0.00023555755615234375,-0.009689327329397202
1775341521518261000,0.356260986328125,-0.021917343139648438,0.010461807250976562,0.017066441476345062
1775341521528261000,0.36626123046875,0.009159564971923828,0.00475311279296875,-0.008918765932321548
1775341521538261000,0.376260986328125,-0.00006651878356933594,0.0012731552124023438,-0.013178441673517227
1775341521548261000,0.38626123046875,-0.005916118621826172,0.0027074813842773438,0.013992484658956528
1775341521558261000,0.396260986328125,0.0002682209014892578,-0.008205413818359375,0.017740122973918915
1775341521568261000,0.40626123046875,-0.008884906768798828,0.00281524658203125,-0.015078775584697723
1775341521578261000,0.416260986328125,-0.001897573471069336,-0.0035467147827148438,-0.007895920425653458
1775341521588261000,0.42626123046875,0.0037946701049804688,0.0007410049438476562,0.010133892297744751
1775341521598261000,0.436260986328125,0.009659767150878906,-0.007861137390136719,0.002984173595905304
1775341521608261000,0.44626123046875,-0.0008275508880615234,-0.01119232177734375,-0.011556491255760193
1775341521618261000,0.456260986328125,0.0022089481353759766,-0.006336212158203125,-0.003087203949689865
1775341521628261000,0.46626123046875,0.011226654052734375,0.004899024963378906,-0.010453689843416214
1775341521638261000,0.476260986328125,0.010902166366577148,0.0042934417724609375,-0.008338842540979385
1775341521648261000,0.48626123046875,0.011066198348999023,0.0011682510375976562,0.011766493320465088
1775341521658261000,0.496260986328125,-0.0029458999633789062,-0.0007457733154296875,0.006727028638124466
1775341521668261000,0.50626123046875,0.006441593170166016,0.00450897216796875,-0.015660934150218964
1775341521678261000,0.516260986328125,0.01786208152770996,-0.005764007568359375,-0.008802589029073715
1775341521688261000,0.52626123046875,-0.014093160629272461,0.007571220397949219,0.008928213268518448
1775341521698261000,0.536260986328125,0.01031947135925293,-0.009072303771972656,-0.0018767192959785461
1775341521708261000,0.54626123046875,-0.026938199996948242,0.001556396484375,-0.010164566338062286
1775341521718261000,0.556260986328125,0.07044363021850586,-0.036324501037597656,-0.010836917906999588
1775341521728261000,0.56626123046875,-0.09911394119262695,0.042824745178222656,-0.0034800656139850616
1775341521738261000,0.576260986328125,0.01200246810913086,-0.004948616027832031,-0.038250915706157684
1775341521748261000,0.58626123046875,0.08568120002746582,-0.017486572265625,0.02535931020975113
1775341521758261000,0.596260986328125,-0.13501858711242676,0.0331878662109375,0.0299251526594162
1775341521768261000,0.60626123046875,0.048323869705200195,-0.016672134399414062,-0.07357694208621979
1775341521778261000,0.616260986328125,-0.016134023666381836,-0.0134429931640625,0.03172307088971138
1775341521788261000,0.62626123046875,-0.061754465103149414,0.03767108917236328,0.025520842522382736
1775341521798261000,0.636260986328125,0.10561609268188477,-0.025217056274414062,-0.06463219225406647
1775341521808261000,0.64626123046875,-0.04640841484069824,0.008162498474121094,0.024008475244045258
1775341521818261000,0.656260986328125,0.0108642578125,-0.0008192062377929688,0.03434250131249428
1775341521828261000,0.66626123046875,-0.0215299129486084,0.02691650390625,-0.040454715490341187
1775341521838261000,0.676260986328125,0.05638742446899414,-0.02013397216796875,0.004892017692327499
1775341521848261000,0.68626123046875,-0.03974580764770508,0.014193534851074219,0.04632280766963959
1775341521858261000,0.696260986328125,0.03925490379333496,-0.017874717712402344,-0.04937578737735748
1775341521868261000,0.70626123046875,-0.019012928009033203,0.010531425476074219,-0.015235703438520432
1775341521878261000,0.716260986328125,-0.051962852478027344,0.010545730590820312,0.03097621724009514
1775341521888261000,0.72626123046875,0.0518341064453125,-0.027492523193359375,-0.033493779599666595
1775341521898261000,0.736260986328125,-0.03407692909240723,0.01988506317138672,-0.008109994232654572
1775341521908261000,0.74626123046875,0.04299116134643555,-0.017807960510253906,0.020695626735687256
1775341521918261000,0.756260986328125,-0.04036092758178711,0.02538776397705078,-0.014595229178667068
1775341521928261000,0.76626123046875,0.0026493072509765625,-0.0025358200073242188,-0.007033608853816986
1775341521938261000,0.776260986328125,0.007182598114013672,-0.0009326934814453125,0.028321128338575363
1775341521948261000,0.78626123046875,0.01394796371459961,-0.00957489013671875,0.008083552122116089
1775341521958261000,0.796260986328125,-0.006266355514526367,-0.007435798645019531,-0.009915642440319061
1775341521968261000,0.80626123046875,-0.008190393447875977,0.0034704208374023438,0.006674494594335556
1775341521978261000,0.816260986328125,0.01235508918762207,-0.0032176971435546875,0.020311817526817322
1775341521988261000,0.82626123046875,-0.008511066436767578,0.009645462036132812,0.008649952709674835
1775341521998261000,0.836260986328125,0.019838333129882812,-0.0090789794921875,-0.019836068153381348
1775341522008261000,0.84626123046875,-0.004416942596435547,0.0031824111938476562,0.014377530664205551
1775341522018261000,0.856260986328125,-0.009512662887573242,-0.00457763671875,0.004018440842628479
1775341522028261000,0.86626123046875,0.014737844467163086,0.0044612884521484375,-0.020358044654130936
1775341522038261000,0.876260986328125,-0.0035648345947265625,-0.009108543395996094,0.01220301166176796
1775341522048261000,0.88626123046875,-0.004183530807495117,0.011785507202148438,0.00007649138569831848
1775341522058261000,0.896260986328125,-0.0050084590911865234,-0.009103775024414062,-0.022926099598407745
1775341522068261000,0.90626123046875,-0.019539594650268555,0.000579833984375,0.0014465861022472382
1775341522078261000,0.916260986328125,0.008420944213867188,0.0021200180053710938,0.0034415535628795624
1775341522088261000,0.92626123046875,-0.0025060176849365234,0.009374618530273438,-0.021592553704977036
1775341522098261000,0.936260986328125,-0.011530399322509766,0.0034589767456054688,-0.025248274207115173
1775341522108261000,0.94626123046875,0.006784677505493164,0.0011816024780273438,0.016350287944078445
1775341522118261000,0.956260986328125,0.0008153915405273438,-0.00232696533203125,0.003033030778169632
1775341522128261000,0.96626123046875,0.01640009880065918,-0.00035953521728515625,-0.007937699556350708
1775341522138261000,0.976260986328125,-0.008208751678466797,0.00553131103515625,0.009060751646757126
1775341522148261000,0.98626123046875,0.014322519302368164,-0.013027191162109375,0.004012133926153183
1775341522158261000,0.996260986328125,0.0051250457763671875,0.0038852691650390625,-0.001223202794790268
1775341522168261000,1.00626123046875,0.010763883590698242,-0.0016622543334960938,0.00907381996512413
1775341522178261000,1.016260986328125,-0.002880573272705078,0.005337715148925781,0.0004519633948802948
1775341522188261000,1.02626123046875,0.021390199661254883,-0.008681297302246094,-0.016595561057329178
1775341522198261000,1.036260986328125,-0.03746843338012695,0.009797096252441406,0.00788310170173645
1775341522208261000,1.04626123046875,0.021394014358520508,-0.010721206665039062,0.0030756965279579163
1775341522218261000,1.056260986328125,-0.0011496543884277344,-0.0018606185913085938,-0.003602389246225357
1775341522228261000,1.06626123046875,-0.008246183395385742,0.010778427124023438,-0.0025197938084602356
1775341522238261000,1.076260986328125,0.01710343360900879,-0.008787155151367188,-0.003073994070291519
1775341522248261000,1.08626123046875,-0.013089179992675781,0.009787559509277344,-0.014592103660106659
1775341522258261000,1.096260986328125,-0.009678363800048828,0.009566307067871094,0.018435362726449966
1775341522268261000,1.10626123046875,0.009041547775268555,-0.0019083023071289062,0.0030355826020240784
1775341522278261000,1.116260986328125,0.0075986385345458984,-0.010039329528808594,-0.012616928666830063
1775341522288261000,1.12626123046875,-0.006847858428955078,0.0036878585815429688,0.0016382783651351929
1775341522298261000,1.136260986328125,0.030257701873779297,0.0011234283447265625,0.008703667670488358
1775341522308261000,1.14626123046875,-0.008648395538330078,0.015284538269042969,0.016237668693065643
1775341522318261000,1.156260986328125,0.025689125061035156,0.004695892333984375,-0.006069902330636978
1775341522328261000,1.16626123046875,-0.01139974594116211,-0.009545326232910156,0.002957705408334732
1775341522338261000,1.176260986328125,-0.01723337173461914,-0.004141807556152344,0.00027748197317123413
1775341522348261000,1.18626123046875,0.0024776458740234375,0.0140380859375,-0.0034133270382881165
1775341522358261000,1.196260986328125,-0.01654672622680664,0.009998321533203125,0.013902474194765091
1775341522368261000,1.20626123046875,0.005667686462402344,-0.0013837814331054688,-0.0015970468521118164
1775341522378261000,1.216260986328125,-0.013332605361938477,0.004366874694824219,-0.02336234226822853
1775341522388261000,1.22626123046875,0.005407094955444336,0.0027141571044921875,-0.007704459130764008
1775341522398261000,1.236260986328125,0.01028585433959961,0.005427360534667969,-0.00807473435997963
1775341522408261000,1.24626123046875,-0.0179293155670166,0.010255813598632812,0.017080336809158325
1775341522418261000,1.256260986328125,0.02922654151916504,-0.013314247131347656,-0.000021208077669143677
1775341522428261000,1.26626123046875,-0.024889707565307617,0.01762104034423828,-0.00979004055261612
1775341522438261000,1.276260986328125,0.008159399032592773,-0.013093948364257812,-0.016491707414388657
1775341522448261000,1.28626123046875,-0.015061616897583008,-0.005298614501953125,0.012711156159639359
1775341522458261000,1.296260986328125,-0.007411956787109375,0.004586219787597656,0.028936032205820084
1775341522468261000,1.30626123046875,-0.003248453140258789,0.004311561584472656,-0.010826986283063889
1775341522478261000,1.316260986328125,-0.00996708869934082,0.004058837890625,-0.021218903362751007
1775341522488261000,1.32626123046875,0.011633872985839844,-0.000705718994140625,0.02138829603791237
1775341522498261000,1.336260986328125,0.0040340423583984375,-0.007580757141113281,0.006916407495737076
1775341522508261000,1.34626123046875,-0.0011446475982666016,0.018707275390625,-0.0028598755598068237
1775341522518261000,1.356260986328125,-0.005303382873535156,-0.0028858184814453125,-0.0027199983596801758
1775341522528261000,1.36626123046875,-0.012972354888916016,0.008909225463867188,-0.020437374711036682
1775341522538261000,1.376260986328125,0.018564939498901367,-0.003983497619628906,-0.006582912057638168
1775341522548261000,1.38626123046875,-0.021518945693969727,-0.0009918212890625,0.0064290352165699005
1775341522558261000,1.396260986328125,0.02187514305114746,-0.00476837158203125,-0.009241774678230286
1775341522568261000,1.40626123046875,-0.0102081298828125,0.006159782409667969,-0.009614210575819016
1775341522578261000,1.416260986328125,-0.012377023696899414,0.0027484893798828125,-0.007550574839115143
1775341522588261000,1.42626123046875,0.02783942222595215,-0.01603984832763672,0.010599613189697266
1775341522598261000,1.436260986328125,-0.028406858444213867,0.010522842407226562,0.014820549637079239
1775341522608261000,1.44626123046875,0.036157846450805664,-0.010212898254394531,-0.004198331385850906
1775341522618261000,1.456260986328125,-0.027102231979370117,0.007437705993652344,-0.010062191635370255
1775341522628261000,1.46626123046875,0.04762387275695801,0.032566070556640625,-0.020441100001335144
1775341522638261000,1.476260986328125,-0.018795490264892578,-0.022894859313964844,0.02485320344567299
1775341522648261000,1.48626123046875,-0.026174068450927734,0.014109611511230469,0.015302013605833054
1775341522658261000,1.496260986328125,0.05217242240905762,-0.022451400756835938,-0.0078144371509552
1775341522668261000,1.50626123046875,-0.06624364852905273,0.01889514923095703,0.016391530632972717
1775341522678261000,1.516260986328125,0.020502805709838867,-0.023929595947265625,-0.010297883301973343
1775341522688261000,1.52626123046875,-0.025248289108276367,0.021714210510253906,-0.01017000898718834
1775341522698261000,1.536260986328125,0.01361536979675293,0.006314277648925781,-0.00276242196559906
1775341522708261000,1.54626123046875,-0.02989029884338379,0.021758079528808594,-0.03210875764489174
1775341522718261000,1.556260986328125,0.025744915008544922,-0.021596908569335938,-0.006427854299545288
1775341522728261000,1.56626123046875,0.015529155731201172,0.0035448074340820312,0.004826851189136505
1775341522738261000,1.576260986328125,0.04128408432006836,0.0094146728515625,0.043762411922216415
1775341522748261000,1.58626123046875,-0.1748802661895752,0.04388236999511719,-0.03832057863473892
1775341522758261000,1.596260986328125,0.13208580017089844,-0.025208473205566406,-0.0796399638056755
1775341522768261000,1.60626123046875,0.07084298133850098,-0.08785152435302734,0.15997548401355743
1775341522778261000,1.616260986328125,-0.24140691757202148,0.08959388732910156,0.07331159710884094
1775341522788261000,1.62626123046875,0.09051227569580078,-0.053109169006347656,-0.14077706634998322
1775341522798261000,1.636260986328125,-0.10397863388061523,0.04760551452636719,0.06486579775810242
1775341522808261000,1.64626123046875,0.1386706829071045,-0.06252861022949219,0.09175726026296616
1775341522818261000,1.656260986328125,-0.10486388206481934,0.06389141082763672,-0.06264165043830872
1775341522828261000,1.66626123046875,0.17381978034973145,-0.03563976287841797,0.005706902593374252
1775341522838261000,1.676260986328125,-0.045377492904663086,-0.0040988922119140625,0.09559454023838043
1775341522848261000,1.68626123046875,-0.04040098190307617,0.035475730895996094,-0.13253064453601837
1775341522858261000,1.696260986328125,0.09109616279602051,-0.043999671936035156,-0.10435718297958374
1775341522868261000,1.70626123046875,-0.1087956428527832,0.041100502014160156,0.09884219616651535
1775341522878261000,1.716260986328125,0.1530759334564209,-0.07624340057373047,-0.012792129069566727
1775341522888261000,1.72626123046875,-0.14713215827941895,0.06812763214111328,-0.06901511549949646
1775341522898261000,1.736260986328125,0.11913132667541504,-0.06305122375488281,0.03333364054560661
1775341522908261000,1.74626123046875,-0.1423954963684082,0.06970024108886719,-0.00934373214840889
1775341522918261000,1.756260986328125,0.09241271018981934,-0.03989219665527344,-0.03646566718816757
1775341522928261000,1.76626123046875,-0.026973485946655273,0.016653060913085938,0.10290738195180893
1775341522938261000,1.776260986328125,0.011316299438476562,-0.014145851135253906,0.04368329793214798
1775341522948261000,1.78626123046875,-0.034905433654785156,0.012854576110839844,-0.06921368837356567
1775341522958261000,1.796260986328125,0.01639580726623535,-0.00818634033203125,0.004080791026353836
1775341522968261000,1.80626123046875,-0.018685102462768555,-0.0040740966796875,0.07122740149497986
1775341522978261000,1.816260986328125,0.01242518424987793,0.006949424743652344,-0.028965117409825325
1775341522988261000,1.82626123046875,-0.003248453140258789,-0.011736869812011719,-0.0011202171444892883
1775341522998261000,1.836260986328125,-0.048592567443847656,0.007613182067871094,0.030646033585071564
1775341523008261000,1.84626123046875,0.029184341430664062,-0.017531394958496094,-0.05643538385629654
1775341523018261000,1.856260986328125,-0.06395339965820312,0.03965187072753906,-0.05465500056743622
1775341523028261000,1.86626123046875,0.10874295234680176,-0.045441627502441406,0.035419464111328125
1775341523038261000,1.876260986328125,-0.05305790901184082,0.020015716552734375,0.0001511014997959137
1775341523048261000,1.88626123046875,0.08761405944824219,-0.013324737548828125,-0.057269059121608734
1775341523058261000,1.896260986328125,-0.04714632034301758,0.0019903182983398438,0.020197350531816483
1775341523068261000,1.90626123046875,0.03478264808654785,-0.009454727172851562,-0.005282726138830185
1775341523078261000,1.916260986328125,0.018213987350463867,-0.02396392822265625,-0.016202755272388458
1775341523088261000,1.92626123046875,-0.0901949405670166,0.04222583770751953,0.021023303270339966
1775341523098261000,1.936260986328125,0.05780339241027832,-0.030381202697753906,0.005039166659116745
1775341523108261000,1.94626123046875,-0.10073995590209961,0.026750564575195312,0.037108827382326126
1775341523118261000,1.956260986328125,0.04562067985534668,-0.030142784118652344,0.022253863513469696
1775341523128261000,1.96626123046875,-0.06180882453918457,0.026045799255371094,0.0001062154769897461
1775341523138261000,1.976260986328125,0.05202889442443848,-0.043206214904785156,-0.009583253413438797
1775341523148261000,1.98626123046875,-0.02802109718322754,0.020623207092285156,0.025769833475351334
1775341523158261000,1.996260986328125,0.052817583084106445,-0.0033550262451171875,-0.02445787377655506
1775341523168261000,2.00626123046875,0.044901132583618164,-0.001049041748046875,-0.03132851421833038
1775341523178261000,2.016260986328125,-0.057068824768066406,-0.00025081634521484375,-0.030417609959840775
1775341523188261000,2.02626123046875,0.061608314514160156,-0.015323638916015625,-0.038025982677936554
1775341523198261000,2.036260986328125,0.0003380775451660156,0.005462646484375,0.012767825275659561
1775341523208261000,2.04626123046875,-0.028512239456176758,0.0045623779296875,0.0037121735513210297
1775341523218261000,2.056260986328125,-0.002023935317993164,0.011483192443847656,-0.027378378435969353
1775341523228261000,2.06626123046875,-0.01619696617126465,-0.0067539215087890625,0.004503529518842697
1775341523238261000,2.076260986328125,-0.026239871978759766,0.014638900756835938,0.0027752555906772614
1775341523248261000,2.08626123046875,0.08389782905578613,-0.04561424255371094,0.058356400579214096
1775341523258261000,2.096260986328125,-0.082366943359375,0.03209495544433594,0.05868406966328621
1775341523268261000,2.10626123046875,0.0604856014251709,-0.0068454742431640625,-0.10692507773637772
1775341523278261000,2.116260986328125,-0.006232738494873047,-0.0031518936157226562,0.0050833746790885925
1775341523288261000,2.12626123046875,0.019255399703979492,-0.020280838012695312,0.08118677139282227
1775341523298261000,2.136260986328125,0.06006121635437012,-0.01619243621826172,-0.008157823234796524
1775341523308261000,2.14626123046875,-0.06650376319885254,0.026554107666015625,0.004971325397491455
1775341523318261000,2.156260986328125,0.05881214141845703,-0.02996540069580078,-0.026407063007354736
1775341523328261000,2.16626123046875,-0.06499195098876953,0.03520774841308594,-0.07342945039272308
1775341523338261000,2.176260986328125,0.03565716743469238,-0.020949363708496094,0.0026153922080993652
1775341523348261000,2.18626123046875,-0.009053707122802734,-0.017900466918945312,0.04938023164868355
1775341523358261000,2.196260986328125,-0.00501251220703125,0.007115364074707031,-0.04117761179804802
1775341523368261000,2.20626123046875,-0.010353803634643555,0.011332511901855469,-0.03214316815137863
1775341523378261000,2.216260986328125,0.020752429962158203,-0.0059719085693359375,-0.0012587867677211761
1775341523388261000,2.22626123046875,0.019872665405273438,-0.014218330383300781,0.00770660862326622
1775341523398261000,2.236260986328125,-0.07152915000915527,0.03499603271484375,0.015629492700099945
1775341523408261000,2.24626123046875,0.10047078132629395,-0.05045890808105469,0.04443296790122986
1775341523418261000,2.256260986328125,-0.09991288185119629,0.04491424560546875,0.02424323558807373
1775341523428261000,2.26626123046875,0.06271934509277344,-0.03510284423828125,-0.03414728119969368
1775341523438261000,2.276260986328125,-0.010358810424804688,0.0038557052612304688,0.013538513332605362
1775341523448261000,2.28626123046875,-0.017634153366088867,0.008104324340820312,0.046127598732709885
1775341523458261000,2.296260986328125,0.03594565391540527,-0.016618728637695312,0.01745057851076126
1775341523468261000,2.30626123046875,-0.058329105377197266,0.013397216796875,-0.0010001249611377716
1775341523478261000,2.316260986328125,0.03198361396789551,0.0013856887817382812,-0.047710370272397995
1775341523488261000,2.32626123046875,0.04690194129943848,-0.005107879638671875,-0.029626062139868736
1775341523498261000,2.336260986328125,-0.01627945899963379,0.013531684875488281,0.03993484005331993
1775341523508261000,2.34626123046875,-0.0011060237884521484,0.00693511962890625,0.011204812675714493
1775341523518261000,2.356260986328125,-0.02595806121826172,0.006432533264160156,-0.038193583488464355
1775341523528261000,2.36626123046875,0.04484701156616211,-0.024356842041015625,-0.019297096878290176
1775341523538261000,2.376260986328125,0.015877246856689453,-0.001129150390625,0.0257268063724041
1775341523548261000,2.38626123046875,0.0020842552185058594,0.006378173828125,0.0066495053470134735
1775341523558261000,2.396260986328125,-0.03588294982910156,0.01836109161376953,0.009781058877706528
1775341523568261000,2.40626123046875,-0.10662627220153809,0.017424583435058594,-0.03157441318035126
1775341523578261000,2.416260986328125,0.13673663139343262,-0.05731201171875,-0.006254509091377258
1775341523588261000,2.42626123046875,-0.0579524040222168,0.031459808349609375,0.08854368329048157
1775341523598261000,2.436260986328125,0.006522178649902344,0.01599597930908203,-0.051932334899902344
1775341523608261000,2.44626123046875,0.06095075607299805,0.00037479400634765625,-0.06532786041498184
1775341523618261000,2.456260986328125,0.004687309265136719,-0.006588935852050781,0.052236683666706085
1775341523628261000,2.46626123046875,0.05916285514831543,-0.020478248596191406,-0.0400380976498127
1775341523638261000,2.476260986328125,-0.04993581771850586,0.034534454345703125,-0.08186511695384979
1775341523648261000,2.48626123046875,0.06791043281555176,-0.052642822265625,0.05032952502369881
1775341523658261000,2.496260986328125,-0.1364285945892334,0.04940319061279297,0.0010462328791618347
1775341523668261000,2.50626123046875,0.012611865997314453,0.012965202331542969,-0.11134570837020874
1775341523678261000,2.516260986328125,-0.029973745346069336,0.0020751953125,0.03480621799826622
1775341523688261000,2.52626123046875,0.02330946922302246,-0.006451606750488281,0.07080698013305664
1775341523698261000,2.536260986328125,0.02396368980407715,-0.009129524230957031,-0.025323227047920227
1775341523708261000,2.54626123046875,0.010908842086791992,-0.015290260314941406,0.08463110029697418
1775341523718261000,2.556260986328125,-0.07832741737365723,0.006915092468261719,0.01893606409430504
1775341523728261000,2.56626123046875,-0.024840593338012695,0.04608154296875,-0.15401123464107513
1775341523738261000,2.576260986328125,0.08700942993164062,-0.039811134338378906,0.09886585921049118
1775341523748261000,2.58626123046875,-0.02406620979309082,0.007388114929199219,0.21850848197937012
1775341523758261000,2.596260986328125,0.0796821117401123,-0.00624847412109375,-0.021241262555122375
1775341523768261000,2.60626123046875,-0.05562448501586914,0.006234169006347656,-0.06031964719295502
1775341523778261000,2.616260986328125,0.052631378173828125,-0.0033473968505859375,-0.04882923513650894
1775341523788261000,2.62626123046875,-0.05034780502319336,-0.0056667327880859375,-0.0469694621860981
1775341523798261000,2.636260986328125,-0.06870579719543457,0.015189170837402344,-0.015608739107847214
1775341523808261000,2.64626123046875,0.14891767501831055,-0.036108970642089844,0.06336759030818939
1775341523818261000,2.656260986328125,-0.19333887100219727,0.061102867126464844,0.017827540636062622
1775341523828261000,2.66626123046875,0.048253774642944336,-0.023349761962890625,-0.1738208532333374
1775341523838261000,2.676260986328125,-0.01517629623413086,-0.0058765411376953125,-0.060514532029628754
1775341523848261000,2.68626123046875,-0.026388883590698242,-0.02251434326171875,0.10950816422700882
1775341523858261000,2.696260986328125,0.07269454002380371,-0.0030164718627929688,-0.047799643129110336
1775341523868261000,2.70626123046875,-0.017108440399169922,0.03174304962158203,0.007950007915496826
1775341523878261000,2.716260986328125,-0.025194644927978516,-0.020234107971191406,0.061209920793771744
1775341523888261000,2.72626123046875,0.0704047679901123,0.019354820251464844,-0.07056465744972229
1775341523898261000,2.736260986328125,0.00015115737915039062,-0.02123260498046875,0.08367520570755005
1775341523908261000,2.74626123046875,-0.04918217658996582,0.02654743194580078,0.13985605537891388
1775341523918261000,2.756260986328125,0.09023642539978027,-0.0166778564453125,-0.05008241906762123
1775341523928261000,2.76626123046875,-0.1617262363433838,0.04069042205810547,-0.007171373814344406
1775341523938261000,2.776260986328125,0.0696568489074707,-0.07483863830566406,-0.008852481842041016
1775341523948261000,2.78626123046875,-0.051772117614746094,0.007426261901855469,-0.09553752839565277
1775341523958261000,2.796260986328125,-0.009227514266967773,-0.0028514862060546875,-0.05960843339562416
1775341523968261000,2.80626123046875,0.0015077590942382812,0.0018367767333984375,0.003207489848136902
1775341523978261000,2.816260986328125,-0.06929826736450195,0.02256011962890625,0.05083747208118439
1775341523988261000,2.82626123046875,0.11241817474365234,-0.03093719482421875,0.0003806762397289276
1775341523998261000,2.836260986328125,-0.003761768341064453,0.02730560302734375,-0.03529113531112671
1775341524008261000,2.84626123046875,0.05079507827758789,-0.004375457763671875,0.03070976212620735
1775341524018261000,2.856260986328125,-0.03492236137390137,-0.00881195068359375,0.004353806376457214
1775341524028261000,2.86626123046875,-0.001552581787109375,0.009869575500488281,-0.031049801036715508
1775341524038261000,2.876260986328125,0.018490314483642578,-0.01482391357421875,0.04940347746014595
1775341524048261000,2.88626123046875,-0.06126117706298828,0.05093860626220703,0.014184381812810898
1775341524058261000,2.896260986328125,0.06997466087341309,-0.026869773864746094,-0.052403733134269714
1775341524068261000,2.90626123046875,-0.08594655990600586,0.02449321746826172,0.12676924467086792
1775341524078261000,2.916260986328125,0.034531354904174805,-0.03914833068847656,0.11638925969600677
1775341524088261000,2.92626123046875,-0.028871774673461914,0.023702621459960938,-0.09947444498538971
1775341524098261000,2.936260986328125,0.02598285675048828,0.00030612945556640625,-0.09994477778673172
1775341524108261000,2.94626123046875,0.011718511581420898,-0.013261795043945312,-0.016334272921085358
1775341524118261000,2.956260986328125,0.004316568374633789,0.0015230178833007812,0.03935294598340988
1775341524128261000,2.96626123046875,0.01529383659362793,-0.008146286010742188,0.010667860507965088
1775341524138261000,2.976260986328125,0.049063682556152344,0.008489608764648438,-0.09226386249065399
1775341524148261000,2.98626123046875,-0.006451606750488281,-0.016399383544921875,-0.04488208517432213
1775341524158261000,2.996260986328125,-0.03736519813537598,-0.027153968811035156,-0.000033367425203323364
1775341524168261000,3.00626123046875,0.0007693767547607422,0.0019025802612304688,-0.023618564009666443
1775341524178261000,3.016260986328125,-0.011065244674682617,0.03881072998046875,0.06775614619255066
1775341524188261000,3.02626123046875,-0.09748029708862305,0.013554573059082031,0.07515609264373779
1775341524198261000,3.036260986328125,0.20705318450927734,-0.032975196838378906,-0.08216069638729095
1775341524208261000,3.04626123046875,-0.24540948867797852,0.08856964111328125,0.0775456354022026
1775341524218261000,3.056260986328125,0.25168561935424805,-0.09253883361816406,0.08675727993249893
1775341524228261000,3.06626123046875,-0.15865755081176758,0.0742349624633789,-0.07533353567123413
1775341524238261000,3.076260986328125,0.0357966423034668,-0.008806228637695312,0.03205869719386101
1775341524248261000,3.08626123046875,0.09249448776245117,-0.0646677017211914,0.10362958908081055
1775341524258261000,3.096260986328125,-0.08712506294250488,0.08931636810302734,-0.12464798986911774
1775341524268261000,3.10626123046875,0.09126400947570801,-0.04974937438964844,-0.040633831173181534
1775341524278261000,3.116260986328125,-0.13632869720458984,0.007716178894042969,0.05379566177725792
1775341524288261000,3.12626123046875,-0.034699440002441406,0.027982711791992188,-0.15243270993232727
1775341524298261000,3.136260986328125,0.05598640441894531,-0.031084060668945312,0.0086405910551548
1775341524308261000,3.14626123046875,-0.07051324844360352,0.013743400573730469,0.1084446907043457
1775341524318261000,3.156260986328125,0.031484127044677734,0.01432037353515625,-0.06045312434434891
1775341524328261000,3.16626123046875,0.014696598052978516,-0.0044155120849609375,-0.05358058586716652
1775341524338261000,3.176260986328125,0.004450082778930664,0.00461578369140625,0.043655313551425934
1775341524348261000,3.18626123046875,0.08613324165344238,-0.05365562438964844,0.03439672291278839
1775341524358261000,3.196260986328125,-0.09597134590148926,0.015891075134277344,-0.026017146185040474
1775341524368261000,3.20626123046875,0.07203245162963867,-0.01214599609375,0.012783750891685486
1775341524378261000,3.216260986328125,-0.02389049530029297,0.0059299468994140625,0.08940844237804413
1775341524388261000,3.22626123046875,-0.05746865272521973,0.020781517028808594,-0.014265544712543488
1775341524398261000,3.236260986328125,0.04524660110473633,0.0048923492431640625,-0.025257233530282974
1775341524408261000,3.24626123046875,-0.020044565200805664,-0.007397651672363281,0.05986509099602699
1775341524418261000,3.256260986328125,-0.027341842651367188,0.019159317016601562,-0.037771597504615784
1775341524428261000,3.26626123046875,0.0370180606842041,-0.01456451416015625,-0.1069670170545578
1775341524438261000,3.276260986328125,-0.011516094207763672,0.0025186538696289062,0.04091599956154823
1775341524448261000,3.28626123046875,0.07202506065368652,-0.033416748046875,0.02245550975203514
1775341524458261000,3.296260986328125,-0.02277350425720215,0.015564918518066406,-0.08152084052562714
1775341524468261000,3.30626123046875,0.015490055084228516,-0.003849029541015625,0.04422774165868759
1775341524478261000,3.316260986328125,0.031812191009521484,-0.04080772399902344,0.009396489709615707
1775341524488261000,3.32626123046875,-0.07834982872009277,0.03780174255371094,-0.016452405601739883
1775341524498261000,3.336260986328125,-0.016161680221557617,-0.031208038330078125,0.09222012758255005
1775341524508261000,3.34626123046875,-0.00973200798034668,-0.005848884582519531,0.02918277308344841
1775341524518261000,3.356260986328125,-0.011687517166137695,-0.0036115646362304688,-0.06215659901499748
1775341524528261000,3.36626123046875,-0.06748819351196289,0.001285552978515625,0.03948524594306946
1775341524538261000,3.376260986328125,0.06962299346923828,-0.04402446746826172,0.074041947722435
1775341524548261000,3.38626123046875,-0.06594252586364746,0.0900583267211914,-0.03183397650718689
1775341524558261000,3.396260986328125,0.04995846748352051,-0.08336067199707031,-0.01836755871772766
1775341524568261000,3.40626123046875,-0.07002806663513184,-0.0029134750366210938,0.03200453147292137
1775341524578261000,3.416260986328125,0.11843371391296387,0.001678466796875,-0.047198668122291565
1775341524588261000,3.42626123046875,-0.03259587287902832,0.025170326232910156,-0.07335416972637177
1775341524598261000,3.436260986328125,-0.006551027297973633,-0.02654552459716797,0.02636708691716194
1775341524608261000,3.44626123046875,0.01825547218322754,-0.014300346374511719,0.017798777669668198
1775341524618261000,3.456260986328125,-0.0416264533996582,0.03458881378173828,-0.055759213864803314
1775341524628261000,3.46626123046875,0.01981329917907715,-0.015463829040527344,-0.019079551100730896
1775341524638261000,3.476260986328125,-0.026496410369873047,0.006412506103515625,0.03218759968876839
1775341524648261000,3.48626123046875,-0.0010695457458496094,-0.0021038055419921875,0.0010717548429965973
1775341524658261000,3.496260986328125,-0.02402496337890625,0.021590232849121094,-0.02614397183060646
1775341524668261000,3.50626123046875,0.016689777374267578,-0.0187225341796875,0.02829965204000473
1775341524678261000,3.516260986328125,0.03311729431152344,-0.00878143310546875,0.02834879234433174
1775341524688261000,3.52626123046875,0.036782264709472656,-0.011995315551757812,-0.020035572350025177
1775341524698261000,3.536260986328125,-0.019648075103759766,0.018842697143554688,0.006980709731578827
1775341524708261000,3.54626123046875,0.002351999282836914,-0.007756233215332031,0.019874420017004013
1775341524718261000,3.556260986328125,0.013110876083374023,-0.0008630752563476562,-0.01964477077126503
1775341524728261000,3.56626123046875,-0.008401870727539062,0.0016946792602539062,-0.011842548847198486
1775341524738261000,3.576260986328125,-0.014448881149291992,-0.002040863037109375,0.006667308509349823
1775341524748261000,3.58626123046875,-0.009273529052734375,0.005103111267089844,-0.01818298175930977
1775341524758261000,3.596260986328125,-0.013024568557739258,0.019471168518066406,-0.026752319186925888
1775341524768261000,3.60626123046875,0.057668447494506836,-0.019354820251464844,-0.013891000300645828
1775341524778261000,3.616260986328125,-0.020739316940307617,0.014226913452148438,-0.0074381157755851746
1775341524788261000,3.62626123046875,0.0341639518737793,-0.006314277648925781,-0.02004285342991352
1775341524798261000,3.636260986328125,-0.02322697639465332,0.007925987243652344,0.01732121780514717
1775341524808261000,3.64626123046875,0.01457357406616211,-0.015707015991210938,0.030865706503391266
1775341524818261000,3.656260986328125,0.002720355987548828,0.0029287338256835938,-0.004710782319307327
1775341524828261000,3.66626123046875,0.0062906742095947266,-0.004756927490234375,0.015725888311862946
1775341524838261000,3.676260986328125,-0.013147115707397461,0.0067539215087890625,0.0486132949590683
1775341524848261000,3.68626123046875,-0.009265899658203125,0.008934974670410156,0.010467585176229477
1775341524858261000,3.696260986328125,0.015102624893188477,-0.018312454223632812,-0.022434178739786148
1775341524868261000,3.70626123046875,-0.030013561248779297,0.027391433715820312,0.014134958386421204
1775341524878261000,3.716260986328125,0.1331183910369873,-0.016735076904296875,0.03660871088504791
1775341524888261000,3.72626123046875,-0.2082509994506836,0.07416915893554688,-0.023727506399154663
1775341524898261000,3.736260986328125,0.15194082260131836,-0.06741905212402344,-0.029291369020938873
1775341524908261000,3.74626123046875,-0.12331700325012207,0.03517341613769531,0.03072430193424225
1775341524918261000,3.756260986328125,0.061553239822387695,-0.028463363647460938,-0.025040360167622566
1775341524928261000,3.76626123046875,0.0019447803497314453,0.015763282775878906,-0.022440848872065544
1775341524938261000,3.776260986328125,-0.02402186393737793,0.010731697082519531,0.023938722908496857
1775341524948261000,3.78626123046875,-0.010999441146850586,0.0017118453979492188,-0.026305340230464935
1775341524958261000,3.796260986328125,0.01452183723449707,0.0032091140747070312,0.006372720003128052
1775341524968261000,3.80626123046875,0.0053501129150390625,-0.010409355163574219,0.06288662552833557
1775341524978261000,3.816260986328125,-0.03348255157470703,0.014449119567871094,0.010413188487291336
1775341524988261000,3.82626123046875,0.025976181030273438,-0.007052421569824219,-0.015208747237920761
1775341524998261000,3.836260986328125,-0.038823604583740234,-0.00011730194091796875,0.043041907250881195
1775341525008261000,3.84626123046875,0.022628068923950195,-0.017972946166992188,0.0175124891102314
1775341525018261000,3.856260986328125,-0.00011658668518066406,0.0030908584594726562,-0.02570687234401703
1775341525028261000,3.86626123046875,-0.014739751815795898,0.007126808166503906,0.00224907323718071
1775341525038261000,3.876260986328125,-0.0024900436401367188,0.0005693435668945312,0.001253422349691391
1775341525048261000,3.88626123046875,-0.027301788330078125,-0.0017862319946289062,-0.044229429215192795
1775341525058261000,3.896260986328125,0.005805253982543945,-0.0038881301879882812,-0.018526986241340637
1775341525068261000,3.90626123046875,0.011951446533203125,-0.010753631591796875,0.012827865779399872
1775341525078261000,3.916260986328125,-0.03928184509277344,0.019936561584472656,-0.03208722174167633
1775341525088261000,3.92626123046875,0.062744140625,-0.0034170150756835938,-0.03642699867486954
1775341525098261000,3.936260986328125,-0.02996349334716797,0.0009260177612304688,0.0050025321543216705
1775341525108261000,3.94626123046875,0.0072362422943115234,-0.010161399841308594,0.012143559753894806
1775341525118261000,3.956260986328125,0.008237123489379883,0.025702476501464844,0.005531668663024902
1775341525128261000,3.96626123046875,-0.0007653236389160156,0.006093025207519531,0.02531597763299942
1775341525138261000,3.976260986328125,-0.02366471290588379,0.01236724853515625,0.01217438280582428
1775341525148261000,3.98626123046875,0.012784004211425781,-0.01830005645751953,0.003287367522716522
1775341525158261000,3.996260986328125,-0.020625591278076172,0.014872550964355469,0.01658792421221733
1775341525168261000,4.00626123046875,-0.0006561279296875,-0.0022401809692382812,0.023570261895656586
1775341525178261000,4.016260986328125,-0.011998176574707031,0.0016012191772460938,-0.0077356137335300446
1775341525188261000,4.02626123046875,0.0041277408599853516,-0.0012035369873046875,-0.007489897310733795
1775341525198261000,4.036260986328125,0.006291389465332031,-0.019062042236328125,-0.002606350928544998
1775341525208261000,4.04626123046875,0.02874612808227539,-0.006415367126464844,-0.033347927033901215
1775341525218261000,4.056260986328125,-0.0070607662200927734,0.004103660583496094,-0.01743728667497635
1775341525228261000,4.06626123046875,0.011992692947387695,0.0014896392822265625,0.005400650203227997
1775341525238261000,4.076260986328125,0.014633655548095703,0.0063076019287109375,-0.011324126273393631
1775341525248261000,4.08626123046875,-0.008209228515625,0.014635086059570312,-0.04418475180864334
1775341525258261000,4.096260986328125,0.01221013069152832,-0.01538848876953125,0.0067262351512908936
1775341525268261000,4.10626123046875,-0.034467458724975586,0.00018978118896484375,0.02876744046807289
1775341525278261000,4.116260986328125,0.028164148330688477,-0.0051403045654296875,-0.001074962317943573
1775341525288261000,4.12626123046875,-0.021502256393432617,0.019924163818359375,0.005615510046482086
1775341525298261000,4.136260986328125,0.0063741207122802734,-0.016091346740722656,0.022473376244306564
1775341525308261000,4.14626123046875,0.009252309799194336,0.00043964385986328125,0.0036861300468444824
1775341525318261000,4.156260986328125,-0.0032889842987060547,0.00112152099609375,-0.0027741603553295135
1775341525328261000,4.16626123046875,0.05372929573059082,-0.0073490142822265625,0.0011922717094421387
1775341525338261000,4.176260986328125,-0.019698381423950195,-0.000194549560546875,0.0017213672399520874
1775341525348261000,4.18626123046875,-0.0003604888916015625,0.010908126831054688,-0.035560399293899536
1775341525358261000,4.196260986328125,0.01233816146850586,-0.0015850067138671875,-0.014070279896259308
1775341525368261000,4.20626123046875,-0.02086162567138672,0.005618095397949219,0.016210678964853287
1775341525378261000,4.216260986328125,0.029294729232788086,-0.02015972137451172,-0.005454234778881073
1775341525388261000,4.22626123046875,-0.03921866416931152,0.01611042022705078,-0.024367956444621086
1775341525398261000,4.236260986328125,0.04161524772644043,-0.011014938354492188,-0.014016564935445786
1775341525408261000,4.24626123046875,-0.0547337532043457,0.013635635375976562,0.0025651976466178894
1775341525418261000,4.256260986328125,0.030942440032958984,0.0157012939453125,-0.004119031131267548
1775341525428261000,4.26626123046875,0.02791881561279297,0.004513740539550781,0.02189510315656662
1775341525438261000,4.276260986328125,-0.09488248825073242,-0.0030260086059570312,0.01854647323489189
1775341525448261000,4.28626123046875,0.07079076766967773,-0.022100448608398438,-0.01642148196697235
1775341525458261000,4.296260986328125,-0.05918431282043457,0.02297496795654297,0.01260683685541153
1775341525468261000,4.30626123046875,0.05463266372680664,-0.007320404052734375,0.0023646987974643707
1775341525478261000,4.316260986328125,-0.006378173828125,0.004809379577636719,-0.003913566470146179
1775341525488261000,4.32626123046875,0.04557681083679199,-0.009401321411132812,-0.018172673881053925
1775341525498261000,4.336260986328125,-0.05891299247741699,0.013825416564941406,-0.00031810998916625977
1775341525508261000,4.34626123046875,0.10486578941345215,-0.02405834197998047,0.005133945494890213
1775341525518261000,4.356260986328125,-0.07042050361633301,0.01694965362548828,-0.008015278726816177
1775341525528261000,4.36626123046875,0.007819890975952148,0.005064964294433594,-0.03575877100229263
1775341525538261000,4.376260986328125,0.04106307029724121,-0.04050445556640625,0.03724343329668045
1775341525548261000,4.38626123046875,-0.08510756492614746,0.04718589782714844,0.015847504138946533
1775341525558261000,4.396260986328125,0.07426714897155762,-0.014746665954589844,-0.0634072944521904
1775341525568261000,4.40626123046875,-0.008955240249633789,-0.011057853698730469,0.04021464288234711
1775341525578261000,4.416260986328125,-0.020468473434448242,0.041332244873046875,0.03478184714913368
1775341525588261000,4.42626123046875,0.020554304122924805,-0.029557228088378906,-0.04392997547984123
1775341525598261000,4.436260986328125,-0.012764692306518555,0.008637428283691406,0.010931428521871567
1775341525608261000,4.44626123046875,-0.026183366775512695,0.04139900207519531,0.062332600355148315
1775341525618261000,4.456260986328125,-0.022953510284423828,-0.06537246704101562,0.007103689014911652
1775341525628261000,4.46626123046875,0.02871417999267578,-0.028189659118652344,0.010862994939088821
1775341525638261000,4.476260986328125,-0.0025548934936523438,0.05606842041015625,-0.0007260888814926147
1775341525648261000,4.48626123046875,0.056093692779541016,-0.04499053955078125,-0.05594494566321373
1775341525658261000,4.496260986328125,-0.03609943389892578,0.018360137939453125,-0.0084405317902565
1775341525668261000,4.50626123046875,0.02136707305908203,0.048145294189453125,0.03573672100901604
1775341525678261000,4.516260986328125,-0.0007376670837402344,-0.04360771179199219,-0.010800521820783615
1775341525688261000,4.52626123046875,-0.058837890625,0.026988983154296875,0.0033659078180789948
1775341525698261000,4.536260986328125,0.10533452033996582,0.013247489929199219,0.0263172909617424
1775341525708261000,4.54626123046875,-0.04722476005554199,0.035073280334472656,-0.009910248219966888
1775341525718261000,4.556260986328125,0.019290685653686523,-0.007396697998046875,-0.02427280694246292
1775341525728261000,4.56626123046875,0.031708478927612305,-0.0010652542114257812,0.024097375571727753
1775341525738261000,4.576260986328125,-0.053134918212890625,-0.0294647216796875,-0.025654828175902367
1775341525748261000,4.58626123046875,0.049320220947265625,0.03441333770751953,-0.04296816885471344
1775341525758261000,4.596260986328125,0.014690160751342773,0.0026769638061523438,0.029073208570480347
1775341525768261000,4.60626123046875,-0.07271122932434082,0.009038925170898438,0.006700702011585236
1775341525778261000,4.616260986328125,0.07456278800964355,-0.10498428344726562,-0.048802681267261505
1775341525788261000,4.62626123046875,-0.0623018741607666,0.08315277099609375,0.03200868144631386
1775341525798261000,4.636260986328125,0.12263345718383789,-0.05324363708496094,-0.03214613348245621
1775341525808261000,4.64626123046875,-0.03441309928894043,-0.011461257934570312,-0.020966317504644394
1775341525818261000,4.656260986328125,0.007725715637207031,0.004715919494628906,0.010909847915172577
1775341525828261000,4.66626123046875,-0.03512454032897949,-0.02789306640625,0.03041709214448929
1775341525838261000,4.676260986328125,0.06029057502746582,0.034328460693359375,-0.01568152755498886
1775341525848261000,4.68626123046875,-0.0900263786315918,-0.018349647521972656,0.035534195601940155
1775341525858261000,4.696260986328125,-0.0498044490814209,-0.05468559265136719,-0.017140939831733704
1775341525868261000,4.70626123046875,0.10702681541442871,0.023416519165039062,0.014789562672376633
1775341525878261000,4.716260986328125,-0.18203973770141602,0.06744384765625,0.028843559324741364
1775341525888261000,4.72626123046875,0.1712791919708252,-0.0928487777709961,-0.019758988171815872
1775341525898261000,4.736260986328125,-0.20799732208251953,0.08457279205322266,-0.025999220088124275
1775341525908261000,4.74626123046875,0.16061615943908691,-0.037430763244628906,-0.058488186448812485
1775341525918261000,4.756260986328125,-0.06310462951660156,0.012518882751464844,0.028863541781902313
1775341525928261000,4.76626123046875,-0.0032002925872802734,0.022482872009277344,0.005939297378063202
1775341525938261000,4.776260986328125,0.09399056434631348,-0.048201560974121094,-0.03729649633169174
1775341525948261000,4.78626123046875,-0.07071352005004883,0.035971641540527344,-0.009258117526769638
1775341525958261000,4.796260986328125,0.08520746231079102,-0.06280326843261719,0.010623279958963394
1775341525968261000,4.80626123046875,-0.11475276947021484,0.05327129364013672,0.007935840636491776
1775341525978261000,4.816260986328125,0.059027671813964844,-0.053755760192871094,0.015384461730718613
1775341525988261000,4.82626123046875,-0.09206914901733398,0.04369926452636719,0.011295672506093979
1775341525998261000,4.836260986328125,-0.019788742065429688,-0.006962776184082031,-0.006632428616285324
1775341526008261000,4.84626123046875,-0.05498027801513672,0.016028404235839844,0.05433787778019905
1775341526018261000,4.856260986328125,0.1036825180053711,0.0035400390625,0.03576076030731201
1775341526028261000,4.86626123046875,-0.07340264320373535,0.047237396240234375,-0.004185512661933899
1775341526038261000,4.876260986328125,-0.026067733764648438,-0.07789230346679688,-0.026242880150675774
1775341526048261000,4.88626123046875,-0.045836448669433594,-0.06198692321777344,-0.017195694148540497
1775341526058261000,4.896260986328125,0.017569541931152344,0.0646963119506836,-0.005522046238183975
1775341526068261000,4.90626123046875,0.09495234489440918,-0.028008460998535156,0.03730310499668121
1775341526078261000,4.916260986328125,-0.01133275032043457,0.05294990539550781,0.02486070618033409
1775341526088261000,4.92626123046875,0.1778576374053955,-0.05868053436279297,0.008237123489379883
1775341526098261000,4.936260986328125,-0.05263495445251465,0.021345138549804688,-0.030029181391000748
1775341526108261000,4.94626123046875,-0.0380706787109375,0.0063323974609375,-0.14012302458286285
1775341526118261000,4.956260986328125,0.05984950065612793,0.06384658813476562,0.029464997351169586
1775341526128261000,4.96626123046875,0.002023458480834961,-0.07387638092041016,0.18675822019577026
1775341526138261000,4.976260986328125,-0.10633158683776855,0.08780193328857422,-0.03524048253893852
1775341526148261000,4.98626123046875,0.19339394569396973,-0.053279876708984375,-0.035712625831365585
1775341526158261000,4.996260986328125,-0.2879364490509033,0.08801746368408203,0.056327883154153824
1775341526168261000,5.00626123046875,0.2030794620513916,-0.11826801300048828,-0.16789910197257996
1775341526178261000,5.016260986328125,0.06739354133605957,0.011821746826171875,0.06614892184734344
1775341526188261000,5.02626123046875,-0.06439089775085449,0.04064655303955078,0.13684725761413574
1775341526198261000,5.036260986328125,0.14589452743530273,-0.10835075378417969,-0.20423370599746704
1775341526208261000,5.04626123046875,-0.03439664840698242,0.09737300872802734,-0.05352146178483963
1775341526218261000,5.056260986328125,0.11315608024597168,-0.04816246032714844,0.12031514197587967
1775341526228261000,5.06626123046875,-0.054682254791259766,0.018039703369140625,-0.040046319365501404
1775341526238261000,5.076260986328125,0.0016252994537353516,-0.012522697448730469,-0.042285796254873276
1775341526248261000,5.08626123046875,0.013573408126831055,-0.004538536071777344,0.10502985119819641
1775341526258261000,5.096260986328125,-0.2644917964935303,0.0725545883178711,-0.06912526488304138
1775341526268261000,5.10626123046875,0.18621444702148438,-0.02751922607421875,-0.048839978873729706
1775341526278261000,5.116260986328125,-0.13390326499938965,-0.040917396545410156,0.23511768877506256
1775341526288261000,5.12626123046875,-0.05665731430053711,0.03238868713378906,-0.051084909588098526
1775341526298261000,5.136260986328125,0.13358402252197266,-0.1259136199951172,-0.14945277571678162
1775341526308261000,5.14626123046875,-0.04933452606201172,0.053040504455566406,0.14928483963012695
1775341526318261000,5.156260986328125,0.2150735855102539,-0.0076236724853515625,-0.030408449470996857
1775341526328261000,5.16626123046875,-0.0458981990814209,-0.013043403625488281,-0.18249841034412384
1775341526338261000,5.176260986328125,-0.050688982009887695,0.027365684509277344,0.11440481245517731
1775341526348261000,5.18626123046875,0.1112825870513916,-0.08449554443359375,0.010136086493730545
1775341526358261000,5.196260986328125,-0.1954967975616455,0.09096717834472656,-0.15807713568210602
1775341526368261000,5.20626123046875,0.13516879081726074,-0.0534515380859375,0.0717279389500618
1775341526378261000,5.216260986328125,-0.30692076683044434,0.10003376007080078,0.1509893238544464
1775341526388261000,5.22626123046875,0.11127853393554688,-0.044429779052734375,-0.15165962278842926
1775341526398261000,5.236260986328125,-0.043807029724121094,0.004367828369140625,-0.006258312612771988
1775341526408261000,5.24626123046875,-0.21228837966918945,0.02603626251220703,0.13817346096038818
1775341526418261000,5.256260986328125,0.24973177909851074,0.0031080245971679688,-0.11533612012863159
1775341526428261000,5.26626123046875,-0.15943622589111328,0.04619026184082031,-0.07331922650337219
1775341526438261000,5.276260986328125,0.1390516757965088,0.04606151580810547,0.018930494785308838
1775341526448261000,5.28626123046875,-0.20383334159851074,0.06786060333251953,-0.02412559650838375
1775341526458261000,5.296260986328125,0.2969636917114258,-0.15541839599609375,-0.05163271352648735
1775341526468261000,5.30626123046875,-0.6632030010223389,0.3359708786010742,0.13874521851539612
1775341526478261000,5.316260986328125,0.14260196685791016,-0.01938629150390625,0.022583890706300735
1775341526488261000,5.32626123046875,-0.2191910743713379,0.07705116271972656,-0.02272944338619709
1775341526498261000,5.336260986328125,0.11921381950378418,0.054488182067871094,0.08584261685609818
1775341526508261000,5.34626123046875,-0.4464195966720581,0.35873985290527344,0.0701017826795578
1775341526518261000,5.356260986328125,-0.4223899841308594,0.38640403747558594,-0.025318177416920662
1775341526528261000,5.36626123046875,-0.29534435272216797,0.425079345703125,0.07041127979755402
1775341526538261000,5.376260986328125,-0.41950511932373047,0.4489173889160156,0.05141832306981087
1775341526548261000,5.38626123046875,-0.2386031150817871,0.5802431106567383,-0.014893859624862671
1775341526558261000,5.396260986328125,0.38341522216796875,0.5874147415161133,0.12537209689617157
1775341526568261000,5.40626123046875,-0.3543393611907959,0.35326290130615234,0.23518216609954834
1775341526578261000,5.416260986328125,-0.09049677848815918,0.6623039245605469,0.038757577538490295
1775341526588261000,5.42626123046875,0.35770750045776367,0.5980224609375,-0.10555735975503922
1775341526598261000,5.436260986328125,0.08191847801208496,0.7335424423217773,0.07201303541660309
1775341526608261000,5.44626123046875,-1.1621739864349365,1.051095962524414,0.15435555577278137
1775341526618261000,5.456260986328125,0.9887130260467529,0.4453697204589844,-0.224185973405838
1775341526628261000,5.46626123046875,-1.3823219537734985,1.3883752822875977,0.00018316134810447693
1775341526638261000,5.476260986328125,0.4356038570404053,0.6284151077270508,0.07107488811016083
1775341526648261000,5.48626123046875,-1.0636169910430908,1.0806999206542969,0.1125740259885788
1775341526658261000,5.496260986328125,-0.4643747806549072,1.0328474044799805,-0.12291540950536728
1775341526668261000,5.50626123046875,0.3027503490447998,0.35764312744140625,-0.007376043125987053
1775341526678261000,5.516260986328125,-0.2247157096862793,0.3347434997558594,0.01695205271244049
1775341526688261000,5.52626123046875,-0.7878522872924805,0.5002651214599609,-0.04972422122955322
1775341526698261000,5.536260986328125,-3.3158810138702393,1.3549013137817383,0.4264255166053772
1775341526708261000,5.54626123046875,-3.3908891677856445,1.5239143371582031,0.31131815910339355
1775341526718261000,5.556260986328125,-5.250674247741699,1.8981056213378906,0.26453128457069397
1775341526728261000,5.56626123046875,-8.154136657714844,2.9819793701171875,0.5354365706443787
1775341526738261000,5.576260986328125,-4.332808971405029,1.0782337188720703,0.3345567584037781
1775341526748261000,5.58626123046875,-3.7325243949890137,0.0644989013671875,0.056925006210803986
1775341526758261000,5.596260986328125,-2.116339683532715,-0.6021957397460938,-0.023284941911697388
1775341526768261000,5.60626123046875,-1.0217359066009521,-1.3574247360229492,0.03838609531521797
1775341526778261000,5.616260986328125,-1.6040706634521484,-1.1690692901611328,-0.4193864166736603
1775341526788261000,5.62626123046875,-0.7124853134155273,-1.7762737274169922,-0.44197946786880493
1775341526798261000,5.636260986328125,-0.29857397079467773,-1.597640037536621,-0.17784680426120758
1775341526808261000,5.64626123046875,-0.856076717376709,-1.479701042175293,-0.06879621744155884
1775341526818261000,5.656260986328125,0.21546125411987305,-2.1441831588745117,-0.09374574571847916
1775341526828261000,5.66626123046875,-0.9044032096862793,-1.673095703125,-0.33391398191452026
1775341526838261000,5.676260986328125,0.05830192565917969,-1.9484248161315918,-0.3744174838066101
1775341526848261000,5.68626123046875,-0.9722461700439453,-1.5835886001586914,-0.12299398332834244
1775341526858261000,5.696260986328125,0.13882875442504883,-2.054751396179199,-0.27990230917930603
1775341526868261000,5.70626123046875,0.12073612213134766,-1.854515552520752,-0.374994158744812
1775341526878261000,5.716260986328125,1.5780324935913086,-2.333925724029541,-0.06631314754486084
1775341526888261000,5.72626123046875,1.9059014320373535,-2.721749782562256,-0.13389399647712708
1775341526898261000,5.736260986328125,1.9037609100341797,-2.229275703430176,-0.4763106405735016
1775341526908261000,5.74626123046875,2.4520387649536133,-2.3891654014587402,0.05853280425071716
1775341526918261000,5.756260986328125,1.7915468215942383,-2.4246435165405273,0.5496925115585327
1775341526928261000,5.76626123046875,22.004085540771484,-14.557576179504395,-3.3567488193511963
1775341526938261000,5.776260986328125,21.514829635620117,-5.964829921722412,2.3134138584136963
1775341526948261000,5.78626123046875,-28.77474594116211,10.32109260559082,0.7636290788650513
1775341526958261000,5.796260986328125,3.313011646270752,-1.474905014038086,-2.4651548862457275
1775341526968261000,5.80626123046875,-6.109977722167969,1.773622989654541,0.3696613311767578
1775341526978261000,5.816260986328125,11.954343795776367,-4.884641647338867,1.0157190561294556
1775341526988261000,5.82626123046875,6.263155460357666,-3.05472469329834,0.08529956638813019
1775341526998261000,5.836260986328125,-11.867107391357422,4.776845932006836,-0.29322192072868347
1775341527008261000,5.84626123046875,3.3239364624023438,-1.381359577178955,-1.344238519668579
1775341527018261000,5.856260986328125,2.2315611839294434,-0.9266009330749512,0.8901596069335938
1775341527028261000,5.86626123046875,0.9152007102966309,-0.7673511505126953,0.7732669711112976
1775341527038261000,5.876260986328125,-2.8852555751800537,1.7565670013427734,-1.0899765491485596
1775341527048261000,5.88626123046875,1.0632333755493164,-0.23028802871704102,-0.5960901975631714
1775341527058261000,5.896260986328125,1.4198966026306152,-0.5663890838623047,0.9325286746025085
1775341527068261000,5.90626123046875,-0.6506357192993164,0.43099164962768555,-0.08771546185016632
1775341527078261000,5.916260986328125,0.5032930374145508,0.30629968643188477,-0.9786835312843323
1775341527088261000,5.92626123046875,-0.23384666442871094,0.21241331100463867,0.4483279585838318
1775341527098261000,5.936260986328125,1.1764631271362305,-0.6162557601928711,0.5085753202438354
1775341527108261000,5.94626123046875,-1.0973386764526367,0.579012393951416,-0.47970685362815857
1775341527118261000,5.956260986328125,0.5469279289245605,-0.18002891540527344,-0.4142220616340637
1775341527128261000,5.96626123046875,0.07454872131347656,-0.014500617980957031,0.5586782097816467
1775341527138261000,5.976260986328125,-0.4548912048339844,0.03854036331176758,0.06409800052642822
1775341527148261000,5.98626123046875,0.7610883712768555,-0.3157353401184082,-0.43611574172973633
1775341527158261000,5.996260986328125,-0.6806364059448242,0.10829734802246094,0.3292442858219147
1775341527168261000,6.00626123046875,0.021121978759765625,-0.21660280227661133,0.2641695439815521
1775341527178261000,6.016260986328125,0.19729948043823242,-0.28902435302734375,-0.340364933013916
1775341527188261000,6.02626123046875,-0.3041343688964844,-0.1634817123413086,-0.02869546413421631
1775341527198261000,6.036260986328125,-0.011889457702636719,-0.5566835403442383,0.136434406042099
1775341527208261000,6.04626123046875,-0.23245954513549805,-0.2370462417602539,-0.3287102282047272
1775341527218261000,6.056260986328125,-0.23606252670288086,-0.2588324546813965,-0.2306005358695984
1775341527228261000,6.06626123046875,-0.21474075317382812,-0.42929553985595703,0.23298783600330353
1775341527238261000,6.076260986328125,-0.4236125946044922,-0.39506006240844727,-0.10001601278781891
1775341527248261000,6.08626123046875,-0.10710287094116211,-0.47161293029785156,-0.37905678153038025
1775341527258261000,6.096260986328125,-0.1289377212524414,-0.4155874252319336,0.07263139635324478
1775341527268261000,6.10626123046875,-0.41397857666015625,-0.3410911560058594,0.1726870834827423
1775341527278261000,6.116260986328125,-0.03423929214477539,-0.4126729965209961,-0.17043523490428925
1775341527288261000,6.12626123046875,-0.41231298446655273,-0.17719507217407227,0.037890031933784485
1775341527298261000,6.136260986328125,0.1415872573852539,-0.3328418731689453,0.3185287117958069
1775341527308261000,6.14626123046875,-0.2699737548828125,-0.12649154663085938,0.1213662177324295
1775341527318261000,6.156260986328125,0.13611602783203125,-0.2045903205871582,0.002318277955055237
1775341527328261000,6.16626123046875,-0.07232332229614258,-0.1264629364013672,0.2968658208847046
1775341527338261000,6.176260986328125,0.0023484230041503906,-0.12926769256591797,0.1515175700187683
1775341527348261000,6.18626123046875,0.19748210906982422,-0.032990455627441406,-0.09780068695545197
1775341527358261000,6.196260986328125,-0.038585662841796875,0.03211641311645508,0.1261739730834961
1775341527368261000,6.20626123046875,0.2293248176574707,-0.032624244689941406,0.10178794711828232
1775341527378261000,6.216260986328125,0.05761528015136719,0.08599376678466797,-0.12250399589538574
1775341527388261000,6.22626123046875,0.07003259658813477,0.09202003479003906,-0.07016393542289734
1775341527398261000,6.236260986328125,0.10844802856445312,0.054945945739746094,0.0187046080827713
1775341527408261000,6.24626123046875,0.3616495132446289,-0.05319023132324219,-0.19090010225772858
1775341527418261000,6.256260986328125,-0.23399782180786133,0.30522966384887695,-0.21679992973804474
1775341527428261000,6.26626123046875,0.4737210273742676,0.02115154266357422,0.016870781779289246
1775341527438261000,6.276260986328125,-0.002692699432373047,0.20456552505493164,-0.041663482785224915
1775341527448261000,6.28626123046875,0.13655900955200195,0.08872175216674805,-0.247191920876503
1775341527458261000,6.296260986328125,0.21440553665161133,0.011120796203613281,-0.02972741425037384
1775341527468261000,6.30626123046875,-0.0799860954284668,0.1374378204345703,0.047803282737731934
1775341527478261000,6.316260986328125,0.22896623611450195,0.007228374481201172,-0.12285581231117249
1775341527488261000,6.32626123046875,-0.13036584854125977,-0.07534408569335938,-0.0667911022901535
1775341527498261000,6.336260986328125,0.335451602935791,-0.40586280822753906,-0.036996543407440186
1775341527508261000,6.34626123046875,-0.27467870712280273,-0.025308609008789062,-0.09529075026512146
1775341527518261000,6.356260986328125,0.1629786491394043,-0.355191707611084,0.0004718303680419922
1775341527528261000,6.36626123046875,-0.37105464935302734,-0.1102442741394043,0.1539948582649231
1775341527538261000,6.376260986328125,-0.32204389572143555,-0.3499941825866699,-0.003119170665740967
1775341527548261000,6.38626123046875,0.04021263122558594,-0.5421242713928223,-0.10780856013298035
1775341527558261000,6.396260986328125,-0.8615131378173828,-0.17845487594604492,0.15921810269355774
1775341527568261000,6.40626123046875,0.1024637222290039,-0.8729329109191895,0.025027289986610413
1775341527578261000,6.416260986328125,-0.016819477081298828,-0.6593270301818848,-0.10767848789691925
1775341527588261000,6.42626123046875,-1.1591687202453613,-0.44628286361694336,0.26125484704971313
1775341527598261000,6.436260986328125,0.08316230773925781,-0.9024763107299805,0.17473295331001282
1775341527608261000,6.44626123046875,-0.39960289001464844,-0.6864762306213379,-0.16750165820121765
1775341527618261000,6.456260986328125,-0.6465945243835449,-0.730684757232666,-0.023641005158424377
1775341527628261000,6.46626123046875,-0.38936948776245117,-0.901768684387207,0.17112982273101807
1775341527638261000,6.476260986328125,-0.4907550811767578,-0.7727246284484863,-0.032615646719932556
1775341527648261000,6.48626123046875,-0.5928144454956055,-0.6724538803100586,-0.03540024161338806
1775341527658261000,6.496260986328125,-0.39809703826904297,-0.6618499755859375,0.1567326784133911
1775341527668261000,6.50626123046875,-0.5567812919616699,-0.6510720252990723,0.055423885583877563
1775341527678261000,6.516260986328125,-0.5960264205932617,-0.7335152626037598,-0.21309421956539154
1775341527688261000,6.52626123046875,-0.6158976554870605,-0.7815170288085938,0.05588817596435547
1775341527698261000,6.536260986328125,-0.4754638671875,-0.8454222679138184,0.08843275904655457
1775341527708261000,6.54626123046875,-0.6015052795410156,-0.7295627593994141,-0.2264723926782608
1775341527718261000,6.556260986328125,-0.3031473159790039,-0.8192276954650879,-0.13702765107154846
1775341527728261000,6.56626123046875,-0.20059871673583984,-0.7672209739685059,0.18022958934307098
1775341527738261000,6.576260986328125,-0.8430352210998535,-0.5898771286010742,-0.09318269789218903
1775341527748261000,6.58626123046875,-0.14378118515014648,-0.6913399696350098,-0.12829247117042542
1775341527758261000,6.596260986328125,-0.45251893997192383,-0.5922188758850098,0.2008117139339447
1775341527768261000,6.60626123046875,-0.6055150032043457,-0.46555662155151367,-0.09430621564388275
1775341527778261000,6.616260986328125,-0.4097747802734375,-0.5170278549194336,-0.3469359278678894
1775341527788261000,6.62626123046875,-0.1214146614074707,-0.3485555648803711,0.1675894558429718
1775341527798261000,6.636260986328125,-0.05001068115234375,-0.18234920501708984,0.24538972973823547
1775341527808261000,6.64626123046875,0.3263521194458008,-0.020380496978759766,0.08603303134441376
1775341527818261000,6.656260986328125,-0.6484246253967285,-0.05558967590332031,-0.3318411707878113
1775341527828261000,6.66626123046875,0.5638213157653809,-0.48363733291625977,-0.40256983041763306
1775341527838261000,6.676260986328125,-0.2455902099609375,0.05691814422607422,0.3755531907081604
1775341527848261000,6.68626123046875,-0.6409673690795898,0.052286624908447266,-0.0574706494808197
1775341527858261000,6.696260986328125,0.5176620483398438,-0.12574434280395508,-0.5305514335632324
1775341527868261000,6.70626123046875,-0.09533548355102539,-0.13074827194213867,0.14167670905590057
1775341527878261000,6.716260986328125,0.3834347724914551,-0.10841751098632812,0.16177603602409363
1775341527888261000,6.72626123046875,-0.6185617446899414,0.2766404151916504,-0.5748492479324341
1775341527898261000,6.736260986328125,0.14383697509765625,-0.12407732009887695,-0.06746987998485565
1775341527908261000,6.74626123046875,0.46565771102905273,-0.04832744598388672,0.4368188977241516
1775341527918261000,6.756260986328125,-0.5766086578369141,0.2868361473083496,-0.28436487913131714
1775341527928261000,6.76626123046875,0.7539730072021484,-0.12795352935791016,0.044337064027786255
1775341527938261000,6.776260986328125,-0.5175447463989258,0.21073675155639648,0.6932779550552368
1775341527948261000,6.78626123046875,0.4534635543823242,0.061923980712890625,0.07235419750213623
1775341527958261000,6.796260986328125,0.03542184829711914,-0.2665424346923828,0.018782839179039
1775341527968261000,6.80626123046875,-0.49779748916625977,0.0992426872253418,0.4651007056236267
1775341527978261000,6.816260986328125,1.073387622833252,-0.07152414321899414,0.09142409265041351
1775341527988261000,6.82626123046875,-0.45391845703125,0.1710190773010254,-0.31676268577575684
1775341527998261000,6.836260986328125,0.047955989837646484,-0.36614990234375,-0.3821359872817993
1775341528008261000,6.84626123046875,-0.12465620040893555,-0.08734703063964844,0.21135614812374115
1775341528018261000,6.856260986328125,-0.029564380645751953,0.17133426666259766,0.14729449152946472
1775341528028261000,6.86626123046875,0.41761112213134766,0.05434894561767578,-0.5068594217300415
1775341528038261000,6.876260986328125,-0.16425609588623047,0.21713972091674805,-0.23447629809379578
1775341528048261000,6.88626123046875,0.3699073791503906,0.29413652420043945,0.20183932781219482
1775341528058261000,6.896260986328125,0.023369789123535156,0.13292789459228516,-0.16587796807289124
1775341528068261000,6.90626123046875,0.3363018035888672,0.07576894760131836,-0.3154999017715454
1775341528078261000,6.916260986328125,-0.04098701477050781,0.3536715507507324,0.13977448642253876
1775341528088261000,6.92626123046875,0.5825405120849609,0.251218318939209,0.07655985653400421
1775341528098261000,6.936260986328125,0.3108506202697754,0.03906393051147461,-0.20492886006832123
1775341528108261000,6.94626123046875,0.057901859283447266,0.373629093170166,-0.09441967308521271
1775341528118261000,6.956260986328125,0.3737907409667969,0.15377092361450195,0.19890636205673218
1775341528128261000,6.96626123046875,0.11614322662353516,0.495481014251709,0.3551342785358429
1775341528138261000,6.976260986328125,0.34679174423217773,0.4947657585144043,0.09538783878087997
1775341528148261000,6.98626123046875,0.4051027297973633,0.39714765548706055,0.013063192367553711
1775341528158261000,6.996260986328125,0.42656612396240234,0.6346344947814941,-0.02246926724910736
1775341528168261000,7.00626123046875,0.40896034240722656,0.16250181198120117,0.012012481689453125
1775341528178261000,7.016260986328125,0.2359633445739746,0.5470728874206543,0.002285301685333252
1775341528188261000,7.02626123046875,0.1335620880126953,0.0037164688110351562,-0.10094445943832397
1775341528198261000,7.036260986328125,0.5666003227233887,0.49036312103271484,-0.03281043469905853
1775341528208261000,7.04626123046875,-0.15219831466674805,0.606717586517334,0.10359614342451096
1775341528218261000,7.056260986328125,0.8030924797058105,0.16194868087768555,-0.022499442100524902
1775341528228261000,7.06626123046875,-0.3757815361022949,0.25189685821533203,0.05795491486787796
1775341528238261000,7.076260986328125,0.1989884376525879,0.32773447036743164,0.040261879563331604
1775341528248261000,7.08626123046875,0.3964419364929199,0.0754852294921875,0.061411917209625244
1775341528258261000,7.096260986328125,-0.11831855773925781,0.05603361129760742,-0.24330607056617737
1775341528268261000,7.10626123046875,0.2669181823730469,0.11429500579833984,-0.23319092392921448
1775341528278261000,7.116260986328125,0.23907995223999023,0.27135610580444336,0.0829099714756012
1775341528288261000,7.12626123046875,0.39484596252441406,0.405487060546875,0.043548583984375
1775341528298261000,7.136260986328125,-0.13540124893188477,0.053185462951660156,0.001508176326751709
1775341528308261000,7.14626123046875,-0.037909507751464844,0.11803817749023438,0.19979187846183777
1775341528318261000,7.156260986328125,0.09827804565429688,-0.1117253303527832,0.08078888803720474
1775341528328261000,7.16626123046875,-0.08957624435424805,-0.12648773193359375,-0.1603488326072693
1775341528338261000,7.176260986328125,0.21465444564819336,0.05283832550048828,-0.00727255642414093
1775341528348261000,7.18626123046875,0.21648597717285156,-0.02316761016845703,0.27417683601379395
1775341528358261000,7.196260986328125,0.07626914978027344,0.16826391220092773,0.1682744026184082
1775341528368261000,7.20626123046875,-0.285097599029541,-0.15533208847045898,0.013834550976753235
1775341528378261000,7.216260986328125,0.0012726783752441406,-0.1691899299621582,0.09100282937288284
1775341528388261000,7.22626123046875,-0.25573205947875977,-0.07638978958129883,0.006953790783882141
1775341528398261000,7.236260986328125,0.14571762084960938,-0.042153358459472656,-0.10827918350696564
1775341528408261000,7.24626123046875,-0.15695714950561523,0.11470603942871094,0.018582433462142944
1775341528418261000,7.256260986328125,0.06781148910522461,0.023168087005615234,0.14776566624641418
1775341528428261000,7.26626123046875,0.17968463897705078,-0.13576698303222656,-0.1325315535068512
1775341528438261000,7.276260986328125,-0.1697859764099121,0.18510150909423828,-0.3033786714076996
1775341528448261000,7.28626123046875,0.05893898010253906,-0.3400917053222656,-0.022240430116653442
1775341528458261000,7.296260986328125,-0.4437570571899414,-0.13769245147705078,0.24212318658828735
1775341528468261000,7.30626123046875,0.5325841903686523,0.21676969528198242,-0.2634490132331848
1775341528478261000,7.316260986328125,0.03562641143798828,0.07433700561523438,-0.07623457908630371
1775341528488261000,7.32626123046875,0.27867889404296875,0.10630273818969727,0.33941930532455444
1775341528498261000,7.336260986328125,-0.28558969497680664,0.06745624542236328,-0.11279170215129852
1775341528508261000,7.34626123046875,0.46933507919311523,0.04100608825683594,-0.11207586526870728
1775341528518261000,7.356260986328125,-0.08695220947265625,0.20851802825927734,0.12336403131484985
1775341528528261000,7.36626123046875,0.071533203125,-0.025153160095214844,-0.19175370037555695
1775341528538261000,7.376260986328125,0.07860755920410156,0.06251907348632812,-0.13443632423877716
1775341528548261000,7.38626123046875,0.16294145584106445,0.2668914794921875,0.2632296681404114
1775341528558261000,7.396260986328125,0.02790069580078125,-0.03262519836425781,0.06718192994594574
1775341528568261000,7.40626123046875,0.19673395156860352,0.0862569808959961,-0.0939580649137497
1775341528578261000,7.416260986328125,0.11099529266357422,0.22989273071289062,0.0941128060221672
1775341528588261000,7.42626123046875,0.03240537643432617,-0.020157337188720703,-0.012862250208854675
1775341528598261000,7.436260986328125,-0.30773448944091797,-0.004315853118896484,-0.14504314959049225
1775341528608261000,7.44626123046875,0.4235091209411621,0.007387638092041016,-0.17223545908927917
1775341528618261000,7.456260986328125,-0.1422863006591797,0.1604013442993164,0.0678279921412468
1775341528628261000,7.46626123046875,0.20433759689331055,0.040877342224121094,0.05056697130203247
1775341528638261000,7.476260986328125,-0.19637298583984375,-0.0013175010681152344,0.08575041592121124
1775341528648261000,7.48626123046875,-0.18581390380859375,-0.26099681854248047,-0.008517533540725708
1775341528658261000,7.496260986328125,0.1979389190673828,0.28565502166748047,0.12006625533103943
1775341528668261000,7.50626123046875,0.1581401824951172,0.03208303451538086,0.034366071224212646
1775341528678261000,7.516260986328125,0.13073301315307617,0.07283926010131836,0.01910853385925293
1775341528688261000,7.52626123046875,0.09067106246948242,0.21973896026611328,-0.12962399423122406
1775341528698261000,7.536260986328125,0.5726361274719238,-0.03080606460571289,0.18454253673553467
1775341528708261000,7.54626123046875,-0.746147632598877,-0.00863790512084961,0.20592451095581055
1775341528718261000,7.556260986328125,0.3687891960144043,0.03737783432006836,-0.13833779096603394
1775341528728261000,7.56626123046875,0.03687286376953125,0.1513500213623047,0.14455169439315796
1775341528738261000,7.576260986328125,0.12356710433959961,0.2099604606628418,-0.0008406192064285278
1775341528748261000,7.58626123046875,0.16878795623779297,0.08065557479858398,-0.2964153289794922
1775341528758261000,7.596260986328125,0.09750604629516602,0.08912897109985352,0.08738045394420624
1775341528768261000,7.60626123046875,0.041384220123291016,0.17886590957641602,-0.05140696465969086
1775341528778261000,7.616260986328125,0.2581319808959961,0.047987937927246094,-0.3022373914718628
1775341528788261000,7.62626123046875,-0.0548243522644043,0.26294565200805664,0.1622989922761917
1775341528798261000,7.636260986328125,0.38553810119628906,0.11724090576171875,0.016694113612174988
1775341528808261000,7.64626123046875,0.21733856201171875,0.3478221893310547,-0.12576162815093994
1775341528818261000,7.656260986328125,0.14804935455322266,0.06641769409179688,0.054560840129852295
1775341528828261000,7.66626123046875,0.04836893081665039,0.11809635162353516,0.0675790086388588
1775341528838261000,7.676260986328125,0.08114147186279297,0.15760326385498047,-0.035166606307029724
1775341528848261000,7.68626123046875,0.14888811111450195,0.030832290649414062,0.07654022425413132
1775341528858261000,7.696260986328125,-0.14341974258422852,0.39472246170043945,0.02347598969936371
1775341528868261000,7.70626123046875,0.5825343132019043,0.011404991149902344,0.023833006620407104
1775341528878261000,7.716260986328125,-0.25188398361206055,0.1824803352355957,0.1303127110004425
1775341528888261000,7.72626123046875,0.20968341827392578,0.11103487014770508,-0.1269257813692093
1775341528898261000,7.736260986328125,0.08073234558105469,0.08413028717041016,-0.02083607017993927
1775341528908261000,7.74626123046875,-0.11063432693481445,0.09873390197753906,0.09857843071222305
1775341528918261000,7.756260986328125,0.30591535568237305,0.00994253158569336,-0.03065924346446991
1775341528928261000,7.76626123046875,-0.1572561264038086,0.1581254005432129,0.03281140327453613
1775341528938261000,7.776260986328125,0.38085126876831055,0.13351726531982422,0.11207834631204605
1775341528948261000,7.78626123046875,-0.23175382614135742,0.05823183059692383,0.058470726013183594
1775341528958261000,7.796260986328125,0.10846376419067383,-0.057978153228759766,-0.2179282307624817
1775341528968261000,7.80626123046875,0.3031163215637207,0.0723867416381836,-0.01583017408847809
1775341528978261000,7.816260986328125,-0.1379232406616211,0.10399675369262695,0.0846250131726265
1775341528988261000,7.82626123046875,0.410062313079834,0.19517946243286133,-0.038079261779785156
1775341528998261000,7.836260986328125,-0.07381820678710938,0.05017375946044922,-0.055373772978782654
1775341529008261000,7.84626123046875,-0.03419780731201172,-0.053121089935302734,-0.0036900341510772705
1775341529018261000,7.856260986328125,0.12408828735351562,0.01580810546875,-0.007386818528175354
1775341529028261000,7.86626123046875,-0.14447641372680664,0.019284725189208984,0.06028150022029877
1775341529038261000,7.876260986328125,0.06445837020874023,-0.05111217498779297,-0.14659173786640167
1775341529048261000,7.88626123046875,-0.09081315994262695,0.042539119720458984,-0.18343603610992432
1775341529058261000,7.896260986328125,0.04278755187988281,0.014971256256103516,0.31224560737609863
1775341529068261000,7.90626123046875,-0.09899616241455078,-0.17725133895874023,0.15894892811775208
1775341529078261000,7.916260986328125,0.014358997344970703,-0.06915426254272461,-0.3023163676261902
1775341529088261000,7.92626123046875,0.022644996643066406,-0.014325618743896484,0.09102696925401688
1775341529098261000,7.936260986328125,-0.06451892852783203,-0.0349273681640625,0.15659815073013306
1775341529108261000,7.94626123046875,0.06373405456542969,0.02640819549560547,-0.11986036598682404
1775341529118261000,7.956260986328125,0.019805431365966797,-0.19693613052368164,0.10593105852603912
1775341529128261000,7.96626123046875,-0.23665380477905273,0.040744781494140625,0.134488046169281
1775341529138261000,7.976260986328125,0.1969161033630371,-0.06363534927368164,-0.04381968080997467
1775341529148261000,7.98626123046875,-0.20479917526245117,-0.07690048217773438,0.030698075890541077
1775341529158261000,7.996260986328125,-0.04532432556152344,-0.02392864227294922,-0.0315253883600235
1775341529168261000,8.00626123046875,0.30991172790527344,0.09506750106811523,0.07459637522697449
1775341529178261000,8.016260986328126,-0.26033639907836914,-0.09453916549682617,0.0356619656085968
1775341529188261000,8.02626123046875,-0.0885319709777832,-0.03279447555541992,-0.21032766997814178
1775341529198261000,8.036260986328125,0.17564821243286133,-0.0011916160583496094,0.08829459547996521
1775341529208261000,8.04626123046875,-0.1515674591064453,-0.051544189453125,0.17475488781929016
1775341529218261000,8.056260986328125,-0.010218620300292969,-0.15412044525146484,-0.1995498389005661
1775341529228261000,8.06626123046875,-0.0637350082397461,0.08298635482788086,-0.009907901287078857
1775341529238261000,8.076260986328125,-0.18715429306030273,-0.13471460342407227,0.19315549731254578
1775341529248261000,8.08626123046875,0.05787038803100586,0.1440906524658203,-0.06173831224441528
1775341529258261000,8.096260986328126,0.17220354080200195,0.04026317596435547,0.013606444001197815
1775341529268261000,8.10626123046875,0.11072778701782227,0.10009193420410156,0.07479282468557358
1775341529278261000,8.116260986328125,0.03595542907714844,0.039215087890625,-0.21546106040477753
1775341529288261000,8.12626123046875,0.2712078094482422,0.20973634719848633,0.04625154286623001
1775341529298261000,8.136260986328125,-0.0055103302001953125,0.16702985763549805,0.09417165070772171
1775341529308261000,8.14626123046875,0.5434222221374512,0.4954667091369629,0.056928835809230804
1775341529318261000,8.156260986328125,-0.017142772674560547,1.058065414428711,0.4694511294364929
1775341529328261000,8.16626123046875,0.12941503524780273,0.35137462615966797,-0.16942863166332245
1775341529338261000,8.176260986328124,1.330726146697998,0.46643686294555664,-0.7209044098854065
1775341529348261000,8.18626123046875,0.13563776016235352,0.9941368103027344,0.41953349113464355
1775341529358261000,8.196260986328125,0.6452164649963379,1.234786033630371,0.15194998681545258
1775341529368261000,8.20626123046875,1.2086105346679688,1.1748085021972656,-0.3562011122703552
1775341529378261000,8.216260986328125,1.064915657043457,1.3073668479919434,0.29849696159362793
1775341529388261000,8.22626123046875,0.8594837188720703,1.4420709609985352,0.23448911309242249
1775341529398261000,8.236260986328125,1.6255626678466797,1.4385266304016113,-0.12922880053520203
1775341529408261000,8.24626123046875,0.8449034690856934,1.6085948944091797,-0.10690593719482422
1775341529418261000,8.256260986328124,1.6219444274902344,1.3587040901184082,-0.034339189529418945
1775341529428261000,8.26626123046875,0.9832024574279785,1.63163423538208,-0.18994389474391937
1775341529438261000,8.276260986328126,1.139756202697754,1.3686318397521973,-0.2360089123249054
1775341529448261000,8.28626123046875,1.2396574020385742,1.4826507568359375,-0.24818499386310577
1775341529458261000,8.296260986328125,1.2469439506530762,1.4169516563415527,-0.09305500984191895
1775341529468261000,8.30626123046875,0.9854803085327148,1.5252656936645508,-0.11298784613609314
1775341529478261000,8.316260986328125,1.198014259338379,1.5554890632629395,-0.24891023337841034
1775341529488261000,8.32626123046875,0.8782010078430176,1.19856595993042,0.08891357481479645
1775341529498261000,8.336260986328124,0.8890504837036133,1.1130433082580566,-0.010911419987678528
1775341529508261000,8.34626123046875,0.8502659797668457,1.219599723815918,-0.09158612787723541
1775341529518261000,8.356260986328126,1.1379175186157227,1.0321316719055176,0.20646639168262482
1775341529528261000,8.36626123046875,0.4498739242553711,1.3685851097106934,0.27368810772895813
1775341529538261000,8.376260986328125,0.7024364471435547,0.9893951416015625,-0.10777473449707031
1775341529548261000,8.38626123046875,1.2572202682495117,0.9863371849060059,0.06111910939216614
1775341529558261000,8.396260986328125,0.6925969123840332,1.1532726287841797,0.2437000274658203
1775341529568261000,8.40626123046875,0.6450843811035156,0.9269270896911621,-0.05403871834278107
1775341529578261000,8.416260986328124,0.5660414695739746,0.7623605728149414,-0.2276773899793625
1775341529588261000,8.42626123046875,0.8685879707336426,0.6175622940063477,0.05060520023107529
1775341529598261000,8.436260986328126,1.1124882698059082,1.065023422241211,0.2695328891277313
1775341529608261000,8.44626123046875,0.32479429244995117,1.4779138565063477,0.0026732534170150757
1775341529618261000,8.456260986328125,0.9094014167785645,0.6583003997802734,-0.08866879343986511
1775341529628261000,8.46626123046875,0.6097321510314941,0.8105192184448242,0.22418971359729767
1775341529638261000,8.476260986328125,-0.07756519317626953,0.7451910972595215,0.01533442735671997
1775341529648261000,8.48626123046875,1.566652774810791,0.480527400970459,-0.3051055073738098
1775341529658261000,8.496260986328124,-0.35177183151245117,0.933436393737793,0.19765405356884003
1775341529668261000,8.50626123046875,1.2152457237243652,0.42272043228149414,0.222035750746727
1775341529678261000,8.516260986328126,0.508552074432373,0.8459892272949219,-0.06609638035297394
1775341529688261000,8.52626123046875,-0.12142229080200195,1.0006489753723145,-0.23477332293987274
1775341529698261000,8.536260986328125,1.5078768730163574,0.2919950485229492,0.13104616105556488
1775341529708261000,8.54626123046875,-0.4253268241882324,0.9871249198913574,0.4503921568393707
1775341529718261000,8.556260986328125,0.9055685997009277,0.5950927734375,-0.3707730174064636
1775341529728261000,8.56626123046875,0.7191548347473145,0.38807106018066406,-0.03545254468917847
1775341529738261000,8.576260986328125,-0.1736011505126953,0.4629650115966797,-0.08032430708408356
1775341529748261000,8.58626123046875,1.0494270324707031,0.39148426055908203,-0.21204873919487
1775341529758261000,8.596260986328126,0.19726848602294922,0.7876477241516113,-0.02530670166015625
1775341529768261000,8.60626123046875,0.43715858459472656,0.1808638572692871,0.14426647126674652
1775341529778261000,8.616260986328125,-0.10338497161865234,0.40772056579589844,0.05113481730222702
1775341529788261000,8.62626123046875,0.16202497482299805,0.26923084259033203,-0.07100535929203033
1775341529798261000,8.636260986328125,0.28997325897216797,0.03877973556518555,0.13560546934604645
1775341529808261000,8.64626123046875,-0.22976350784301758,0.12387275695800781,0.004060909152030945
1775341529818261000,8.656260986328125,0.18227672576904297,0.00995779037475586,0.2600753605365753
1775341529828261000,8.66626123046875,-0.2470560073852539,0.13653850555419922,0.4242009222507477
1775341529838261000,8.676260986328124,-0.22215032577514648,0.08579158782958984,0.4274653196334839
1775341529848261000,8.68626123046875,0.3572807312011719,-0.010196685791015625,0.22589977085590363
1775341529858261000,8.696260986328125,-0.27756690979003906,-0.15169858932495117,-0.17133264243602753
1775341529868261000,8.70626123046875,0.3262324333190918,0.18548345565795898,-0.2741725444793701
1775341529878261000,8.716260986328125,-0.18657207489013672,-0.21159076690673828,0.21773548424243927
1775341529888261000,8.72626123046875,-0.3826484680175781,-0.14925575256347656,-0.12080900371074677
1775341529898261000,8.736260986328125,0.30987548828125,-0.5788297653198242,0.03367315232753754
1775341529908261000,8.74626123046875,-0.7372608184814453,-0.16413450241088867,0.03625217080116272
1775341529918261000,8.756260986328124,-0.4880714416503906,-0.4407539367675781,-0.3032739758491516
1775341529928261000,8.76626123046875,0.17244243621826172,-0.34733057022094727,0.0556015819311142
1775341529938261000,8.776260986328126,-0.5782275199890137,-0.3496980667114258,0.427817702293396
1775341529948261000,8.78626123046875,-0.2168889045715332,-0.5093035697937012,-0.10569357872009277
1775341529958261000,8.796260986328125,-0.78863525390625,-0.7478842735290527,-0.12091046571731567
1775341529968261000,8.80626123046875,-0.672025203704834,-0.696929931640625,0.11118641495704651
1775341529978261000,8.816260986328125,-0.4430727958679199,-0.9541721343994141,0.06551463901996613
1775341529988261000,8.82626123046875,-0.8509006500244141,-0.46857404708862305,-0.06513790786266327
1775341529998261000,8.836260986328124,-0.1472182273864746,-0.6645059585571289,0.23300567269325256
1775341530008261000,8.84626123046875,-0.731407642364502,-0.9414162635803223,0.4802683889865875
1775341530018261000,8.856260986328126,-0.9532079696655273,-0.8443317413330078,0.0572650283575058
1775341530028261000,8.86626123046875,-0.6173686981201172,-1.2827153205871582,0.11593219637870789
1775341530038261000,8.876260986328125,-1.2683615684509277,-0.9683003425598145,0.3714205026626587
1775341530048261000,8.88626123046875,-0.2963447570800781,-1.1371588706970215,0.025430232286453247
1775341530058261000,8.896260986328125,-1.0822186470031738,-0.581179141998291,-0.11351872980594635
1775341530068261000,8.90626123046875,-0.4816746711730957,-1.145357608795166,-0.07995520532131195
1775341530078261000,8.916260986328124,-0.8147969245910645,-0.8588385581970215,0.033782459795475006
1775341530088261000,8.92626123046875,-0.9174528121948242,-1.207310676574707,0.18193235993385315
1775341530098261000,8.936260986328126,-0.7483310699462891,-1.3127479553222656,-0.3139793276786804
1775341530108261000,8.94626123046875,-0.5341715812683105,-0.908111572265625,-0.34200531244277954
1775341530118261000,8.956260986328125,-0.972538948059082,-1.2470040321350098,0.01945958286523819
1775341530128261000,8.96626123046875,-1.121962547302246,-1.219362735748291,-0.002547845244407654
1775341530138261000,8.976260986328125,-0.656989574432373,-1.3090996742248535,-0.09706081449985504
1775341530148261000,8.98626123046875,-1.2459864616394043,-1.340329647064209,-0.04074050486087799
1775341530158261000,8.996260986328124,-1.0924935340881348,-1.5821828842163086,-0.1974901258945465
1775341530168261000,9.00626123046875,-1.267817497253418,-1.7610621452331543,-0.23934350907802582
1775341530178261000,9.016260986328126,-1.6155176162719727,-1.4791603088378906,-0.06892070174217224
1775341530188261000,9.02626123046875,-0.49578332901000977,-1.8210945129394531,-0.1975792795419693
1775341530198261000,9.036260986328125,-1.529296875,-1.5744290351867676,-0.3669734597206116
1775341530208261000,9.04626123046875,-1.189694881439209,-1.8102188110351562,-0.17503772675991058
1775341530218261000,9.056260986328125,-1.3257861137390137,-1.8932628631591797,0.14656729996204376
1775341530228261000,9.06626123046875,-1.61395263671875,-2.0579299926757812,0.011686503887176514
1775341530238261000,9.076260986328125,-1.823808193206787,-1.9500489234924316,-0.18764042854309082
1775341530248261000,9.08626123046875,-1.0783743858337402,-2.144679069519043,0.07668787240982056
1775341530258261000,9.096260986328126,-1.7649812698364258,-2.085113048553467,0.2561396062374115
1775341530268261000,9.10626123046875,-1.4907941818237305,-2.2666015625,0.040341027081012726
1775341530278261000,9.116260986328125,-2.0279269218444824,-2.077218532562256,0.07205817103385925
1775341530288261000,9.12626123046875,-1.6537699699401855,-2.214700698852539,0.3507489562034607
1775341530298261000,9.136260986328125,-1.072817325592041,-2.6415748596191406,0.45960158109664917
1775341530308261000,9.14626123046875,-2.3681178092956543,-2.377957820892334,-0.12833525240421295
1775341530318261000,9.156260986328125,-1.4109549522399902,-2.4321556091308594,-0.2545275092124939
1775341530328261000,9.16626123046875,-1.6474294662475586,-2.4035086631774902,0.2750931978225708
1775341530338261000,9.176260986328124,-2.316925048828125,-2.4054441452026367,-0.08413678407669067
1775341530348261000,9.18626123046875,-1.5395565032958984,-2.25156307220459,-0.37926626205444336
1775341530358261000,9.196260986328125,-1.928135871887207,-2.2163705825805664,0.2787255346775055
1775341530368261000,9.20626123046875,-1.8091659545898438,-2.191903591156006,0.12603327631950378
1775341530378261000,9.216260986328125,-1.723289966583252,-2.2120394706726074,-0.42146366834640503
1775341530388261000,9.22626123046875,-1.6609983444213867,-2.0886764526367188,-0.1947060525417328
1775341530398261000,9.236260986328125,-1.5268135070800781,-2.011719226837158,0.06501036137342453
1775341530408261000,9.24626123046875,-1.1952495574951172,-2.195969581604004,-0.28314152359962463
1775341530418261000,9.256260986328124,-1.4587182998657227,-1.796053409576416,-0.25316518545150757
1775341530428261000,9.26626123046875,-1.2517728805541992,-1.7658381462097168,0.11280539631843567
1775341530438261000,9.276260986328126,-1.155458927154541,-1.6309161186218262,0.18887048959732056
1775341530448261000,9.28626123046875,-1.354017734527588,-1.4278349876403809,0.17496876418590546
1775341530458261000,9.296260986328125,-0.8465828895568848,-1.3726792335510254,0.17802336812019348
1775341530468261000,9.30626123046875,-1.391796588897705,-1.218423843383789,-0.06176239252090454
1775341530478261000,9.316260986328125,-0.48514604568481445,-1.5535087585449219,-0.246335968375206
1775341530488261000,9.32626123046875,-1.006448745727539,-1.0221748352050781,-0.12561725080013275
1775341530498261000,9.336260986328124,-0.6611919403076172,-1.0048503875732422,0.1408974826335907
1775341530508261000,9.34626123046875,-0.4207577705383301,-0.8502106666564941,0.2933078408241272
1775341530518261000,9.356260986328126,-1.0247173309326172,-0.461885929107666,0.11422500759363174
1775341530528261000,9.36626123046875,-1.0193448066711426,-1.0414729118347168,-0.20225954055786133
1775341530538261000,9.376260986328125,0.5385079383850098,-1.012758731842041,-0.2279185801744461
1775341530548261000,9.38626123046875,-0.9448857307434082,-0.2527904510498047,-0.09337608516216278
1775341530558261000,9.396260986328125,-0.07833623886108398,-0.2424025535583496,0.4463295340538025
1775341530568261000,9.40626123046875,0.13156938552856445,-0.4600334167480469,0.3949408531188965
1775341530578261000,9.416260986328124,-0.7546558380126953,-0.11232900619506836,0.24251088500022888
1775341530588261000,9.42626123046875,-0.41230344772338867,-0.04079294204711914,-0.4721836447715759
1775341530598261000,9.436260986328126,0.08385705947875977,-0.7286314964294434,-0.20524819195270538
1775341530608261000,9.44626123046875,-0.48427820205688477,-0.043440818786621094,0.5597141981124878
1775341530618261000,9.456260986328125,0.010823249816894531,-0.18505144119262695,-0.9851343631744385
1775341530628261000,9.46626123046875,-0.08896493911743164,-0.06517696380615234,-0.5221457481384277
1775341530638261000,9.476260986328125,0.0686492919921875,-0.25682783126831055,0.5577495694160461
1775341530648261000,9.48626123046875,-0.34217309951782227,0.0416717529296875,-0.3050498366355896
1775341530658261000,9.496260986328124,-0.24061059951782227,-0.31679821014404297,-0.6947615146636963
1775341530668261000,9.50626123046875,0.08321189880371094,0.04559469223022461,0.5718622207641602
1775341530678261000,9.516260986328126,-0.23511219024658203,-0.10177183151245117,0.0926070511341095
1775341530688261000,9.52626123046875,0.30951404571533203,0.059981346130371094,-0.7013347148895264
1775341530698261000,9.536260986328125,-0.13000106811523438,0.0010366439819335938,0.18690955638885498
1775341530708261000,9.54626123046875,0.3450770378112793,-0.22222185134887695,0.35857492685317993
1775341530718261000,9.556260986328125,-0.305452823638916,-0.0604853630065918,-0.2616482377052307
1775341530728261000,9.56626123046875,0.17156696319580078,0.050486087799072266,0.022947043180465698
1775341530738261000,9.576260986328125,-0.39902830123901367,-0.09501218795776367,0.32903921604156494
1775341530748261000,9.58626123046875,0.22975969314575195,-0.14314985275268555,0.03880816698074341
1775341530758261000,9.596260986328126,-0.1929183006286621,0.11418294906616211,-0.05428977310657501
1775341530768261000,9.60626123046875,0.07135486602783203,0.03571605682373047,0.21517105400562286
1775341530778261000,9.616260986328125,0.3019580841064453,0.045044898986816406,0.1302286684513092
1775341530788261000,9.62626123046875,0.03049612045288086,0.23463916778564453,-0.38808685541152954
1775341530798261000,9.636260986328125,0.21895456314086914,0.0683126449584961,-0.034790366888046265
1775341530808261000,9.64626123046875,0.2397747039794922,0.03195953369140625,0.12550011277198792
1775341530818261000,9.656260986328125,-0.24316835403442383,0.15054845809936523,-0.2869192361831665
1775341530828261000,9.66626123046875,0.3694896697998047,-0.013100147247314453,-0.09356072545051575
1775341530838261000,9.676260986328124,-0.2885613441467285,0.2789168357849121,0.24434669315814972
1775341530848261000,9.68626123046875,0.060849666595458984,0.24196290969848633,-0.3334612250328064
1775341530858261000,9.696260986328125,0.5559134483337402,0.2340683937072754,-0.14425347745418549
1775341530868261000,9.70626123046875,-0.19319486618041992,0.24492692947387695,-0.026451244950294495
1775341530878261000,9.716260986328125,0.569429874420166,0.0395050048828125,-0.3229650855064392
1775341530888261000,9.72626123046875,0.10782718658447266,0.41556739807128906,0.012784868478775024
1775341530898261000,9.736260986328125,0.03835868835449219,0.1278061866760254,0.0558009147644043
1775341530908261000,9.74626123046875,0.19788885116577148,0.1974930763244629,0.14099735021591187
1775341530918261000,9.756260986328124,-0.08343887329101562,0.26372575759887695,-0.11014033854007721
1775341530928261000,9.76626123046875,0.2955055236816406,0.11658620834350586,-0.0330234169960022
1775341530938261000,9.776260986328126,0.33496856689453125,0.3586111068725586,0.2611546516418457
1775341530948261000,9.78626123046875,0.5418143272399902,0.6422982215881348,0.12490299344062805
1775341530958261000,9.796260986328125,0.41691017150878906,0.45398902893066406,0.1058272048830986
1775341530968261000,9.80626123046875,0.2738027572631836,0.2768993377685547,0.22425474226474762
1775341530978261000,9.816260986328125,0.3864479064941406,0.6471366882324219,0.1436077356338501
1775341530988261000,9.82626123046875,0.46186351776123047,0.5440373420715332,-0.19767333567142487
1775341530998261000,9.836260986328124,0.170684814453125,0.6874079704284668,0.12169915437698364
1775341531008261000,9.84626123046875,0.8177046775817871,0.5449337959289551,0.042419351637363434
1775341531018261000,9.856260986328126,0.43658924102783203,0.7089071273803711,-0.2010696828365326
1775341531028261000,9.86626123046875,0.41351318359375,0.5123777389526367,-0.07321186363697052
1775341531038261000,9.876260986328125,0.45699024200439453,0.2601318359375,0.15951476991176605
1775341531048261000,9.88626123046875,0.30074357986450195,0.737421989440918,-0.023453235626220703
1775341531058261000,9.896260986328125,0.6277213096618652,0.39280223846435547,-0.32127314805984497
1775341531068261000,9.90626123046875,-0.06757879257202148,0.26474523544311523,-0.04172869026660919
1775341531078261000,9.916260986328124,0.16580533981323242,0.08292007446289062,-0.055568307638168335
1775341531088261000,9.92626123046875,-0.03583526611328125,0.20967483520507812,-0.3098210096359253
1775341531098261000,9.936260986328126,0.4153475761413574,0.19185924530029297,-0.11355522274971008
1775341531108261000,9.94626123046875,0.23083162307739258,0.3174142837524414,0.0642758309841156
1775341531118261000,9.956260986328125,-0.25313806533813477,0.15089130401611328,-0.13097724318504333
1775341531128261000,9.96626123046875,0.390500545501709,-0.08162593841552734,-0.012890353798866272
1775341531138261000,9.976260986328125,-0.0769801139831543,0.1523270606994629,0.11238902062177658
1775341531148261000,9.98626123046875,0.44151926040649414,0.20249557495117188,-0.18273617327213287
1775341531158261000,9.996260986328124,0.16240978240966797,0.04745769500732422,-0.2148342877626419
1775341531168261000,10.00626123046875,-0.07449817657470703,0.024758338928222656,0.06651996076107025
1775341531178261000,10.016260986328126,0.06152009963989258,-0.019513607025146484,-0.06362234055995941
1775341531188261000,10.02626123046875,0.24905633926391602,0.0793619155883789,0.014416083693504333
1775341531198261000,10.036260986328125,-0.14410972595214844,0.1144113540649414,0.05591481924057007
1775341531208261000,10.04626123046875,0.1074223518371582,0.09936189651489258,0.06465745717287064
1775341531218261000,10.056260986328125,0.16837835311889648,0.17772912979125977,0.060920536518096924
1775341531228261000,10.06626123046875,0.10373306274414062,0.32148313522338867,-0.03914077579975128
1775341531238261000,10.076260986328125,0.14994478225708008,0.05831336975097656,0.011136874556541443
1775341531248261000,10.08626123046875,0.004822731018066406,0.09373235702514648,0.16934260725975037
1775341531258261000,10.096260986328126,0.13582324981689453,0.09763860702514648,-0.11603695154190063
1775341531268261000,10.10626123046875,-0.06036663055419922,0.11992454528808594,0.027199670672416687
1775341531278261000,10.116260986328125,0.20435571670532227,0.06770086288452148,0.2198943793773651
1775341531288261000,10.12626123046875,0.1970372200012207,0.20596551895141602,-0.14805053174495697
1775341531298261000,10.136260986328125,0.09664154052734375,0.05002784729003906,-0.1196056604385376
1775341531308261000,10.14626123046875,0.07476234436035156,0.12188100814819336,0.10969032347202301
1775341531318261000,10.156260986328125,0.17571353912353516,0.3378729820251465,0.03051808476448059
1775341531328261000,10.16626123046875,0.1119985580444336,0.15333127975463867,-0.1335369199514389
1775341531338261000,10.176260986328124,0.494143009185791,0.7216572761535645,0.1857530176639557
1775341531348261000,10.18626123046875,0.4455275535583496,1.0562310218811035,0.6320720314979553
1775341531358261000,10.196260986328125,0.2817549705505371,0.6736540794372559,-0.2815212905406952
1775341531368261000,10.20626123046875,1.474989414215088,0.8129425048828125,-0.9931542277336121
1775341531378261000,10.216260986328125,0.9881482124328613,1.0055327415466309,0.34780821204185486
1775341531388261000,10.22626123046875,1.5344858169555664,1.647066593170166,0.14928244054317474
1775341531398261000,10.236260986328125,0.6680355072021484,2.272838592529297,-0.5600101947784424
1775341531408261000,10.24626123046875,2.1527419090270996,1.9456787109375,0.6184777617454529
1775341531418261000,10.256260986328124,1.4650931358337402,2.3058929443359375,0.4159785509109497
1775341531428261000,10.26626123046875,1.6986298561096191,2.8003997802734375,-0.21455493569374084
1775341531438261000,10.276260986328126,2.035226821899414,2.3509435653686523,-0.180793896317482
1775341531448261000,10.28626123046875,1.3859343528747559,2.524318218231201,-0.012270927429199219
1775341531458261000,10.296260986328125,2.0064949989318848,2.2709269523620605,-0.4595041275024414
1775341531468261000,10.30626123046875,1.4488563537597656,2.3834352493286133,-0.31099921464920044
1775341531478261000,10.316260986328125,1.859654426574707,2.005077362060547,0.20605695247650146
1775341531488261000,10.32626123046875,1.7677984237670898,2.029971122741699,0.042663827538490295
1775341531498261000,10.336260986328124,1.358473777770996,1.8037223815917969,-0.15460054576396942
1775341531508261000,10.34626123046875,1.1875429153442383,2.0272045135498047,0.1642586588859558
1775341531518261000,10.356260986328126,1.1877107620239258,1.2696475982666016,0.38572537899017334
1775341531528261000,10.36626123046875,1.5840301513671875,1.5489978790283203,-0.15614229440689087
1775341531538261000,10.376260986328125,-0.6674723625183105,1.764188289642334,-0.16871458292007446
1775341531548261000,10.38626123046875,2.0975074768066406,0.07986783981323242,-0.11344590783119202
1775341531558261000,10.396260986328125,0.5132312774658203,0.7584857940673828,0.24883347749710083
1775341531568261000,10.40626123046875,-0.3295307159423828,1.0687346458435059,0.17753249406814575
1775341531578261000,10.416260986328124,1.3475956916809082,1.2573738098144531,-0.18044017255306244
1775341531588261000,10.42626123046875,1.010399341583252,0.16486263275146484,0.44087672233581543
1775341531598261000,10.436260986328126,0.3159303665161133,0.3787083625793457,0.050489842891693115
1775341531608261000,10.44626123046875,1.0325822830200195,1.3228168487548828,-0.46633726358413696
1775341531618261000,10.456260986328125,0.37586021423339844,0.8850092887878418,0.6967052221298218
1775341531628261000,10.46626123046875,0.7731037139892578,0.31102657318115234,0.2963389754295349
1775341531638261000,10.476260986328125,-0.043717384338378906,0.8696303367614746,-0.7289383411407471
1775341531648261000,10.48626123046875,0.4656853675842285,0.46425819396972656,0.5640559792518616
1775341531658261000,10.496260986328124,-0.3175168037414551,0.4348478317260742,0.9117659330368042
1775341531668261000,10.50626123046875,1.219736099243164,0.4010763168334961,-0.8267525434494019
1775341531678261000,10.516260986328126,-0.07345819473266602,0.777015209197998,-0.4003847539424896
1775341531688261000,10.52626123046875,0.2400035858154297,-0.0486607551574707,0.4465002417564392
1775341531698261000,10.536260986328125,0.049115657806396484,0.8076505661010742,0.004639342427253723
1775341531708261000,10.54626123046875,0.7202801704406738,0.535606861114502,-0.08392249047756195
1775341531718261000,10.556260986328125,0.3714776039123535,0.43206787109375,0.28695163130760193
1775341531728261000,10.56626123046875,-0.5456199645996094,0.2552785873413086,0.16467052698135376
1775341531738261000,10.576260986328125,0.9102764129638672,0.02664947509765625,-0.2330647110939026
1775341531748261000,10.58626123046875,-0.10291481018066406,0.037639617919921875,0.19273944199085236
1775341531758261000,10.596260986328126,0.19188261032104492,0.21870040893554688,0.2015353888273239
1775341531768261000,10.60626123046875,0.31992292404174805,0.04473876953125,-0.25255072116851807
1775341531778261000,10.616260986328125,-0.3424186706542969,-0.08424139022827148,-0.10383439064025879
1775341531788261000,10.62626123046875,0.287808895111084,-0.13088035583496094,0.1552637219429016
1775341531798261000,10.636260986328125,-0.13352298736572266,0.0019578933715820312,0.11741158366203308
1775341531808261000,10.64626123046875,-0.6331267356872559,-0.3903036117553711,-0.17178530991077423
1775341531818261000,10.656260986328125,-0.15704679489135742,-0.6325173377990723,-0.06135018169879913
1775341531828261000,10.66626123046875,-0.008895397186279297,-0.0561366081237793,-0.06152191758155823
1775341531838261000,10.676260986328124,-0.477264404296875,-0.6416640281677246,-0.20790497958660126
1775341531848261000,10.68626123046875,-0.2701578140258789,-0.4468879699707031,-0.04790842533111572
1775341531858261000,10.696260986328125,-0.33921003341674805,-0.3864755630493164,0.0238008052110672
1775341531868261000,10.70626123046875,-0.49582338333129883,-0.6581697463989258,-0.07296428084373474
1775341531878261000,10.716260986328125,-0.4143509864807129,-0.6286535263061523,-0.0006420314311981201
1775341531888261000,10.72626123046875,-0.9546761512756348,-0.6428766250610352,0.008934900164604187
1775341531898261000,10.736260986328125,-0.6526036262512207,-0.9143218994140625,0.023920655250549316
1775341531908261000,10.74626123046875,-0.48314619064331055,-0.7211465835571289,0.1415225863456726
1775341531918261000,10.756260986328124,-0.3811626434326172,-0.5680851936340332,0.20188717544078827
1775341531928261000,10.76626123046875,-1.032087802886963,-0.7705860137939453,0.1736147254705429
1775341531938261000,10.776260986328126,-0.05834484100341797,-0.7000732421875,0.2094583511352539
1775341531948261000,10.78626123046875,-1.3496999740600586,-1.0430221557617188,0.1272498369216919
1775341531958261000,10.796260986328125,-0.11193180084228516,-1.1059207916259766,-0.13560445606708527
1775341531968261000,10.80626123046875,-1.3176021575927734,-1.2397022247314453,-0.32442522048950195
1775341531978261000,10.816260986328125,-0.5577507019042969,-0.9731836318969727,-0.14960110187530518
1775341531988261000,10.82626123046875,-0.3957090377807617,-0.6740818023681641,0.25014567375183105
1775341531998261000,10.836260986328124,-1.0352373123168945,-0.9018702507019043,-0.13824622333049774
1775341532008261000,10.84626123046875,-0.2455744743347168,-1.0828757286071777,-0.22571930289268494
1775341532018261000,10.856260986328126,-1.4377937316894531,-0.9159855842590332,-0.06877562403678894
1775341532028261000,10.86626123046875,-0.5324487686157227,-1.3092546463012695,-0.042564183473587036
1775341532038261000,10.876260986328125,-0.843238353729248,-1.1312508583068848,-0.16224898397922516
1775341532048261000,10.88626123046875,-0.8106875419616699,-0.6765632629394531,0.026323765516281128
1775341532058261000,10.896260986328125,-0.5970802307128906,-1.1672353744506836,0.10321987420320511
1775341532068261000,10.90626123046875,-1.3119020462036133,-1.099245548248291,-0.2949705123901367
1775341532078261000,10.916260986328124,-0.3318629264831543,-1.4607539176940918,-0.28705325722694397
1775341532088261000,10.92626123046875,-1.7468905448913574,-1.1504597663879395,0.23706746101379395
1775341532098261000,10.936260986328126,-0.49831342697143555,-2.121645927429199,0.10057900846004486
1775341532108261000,10.94626123046875,-1.9700608253479004,-1.3041796684265137,0.056373052299022675
1775341532118261000,10.956260986328125,-0.720700740814209,-2.195364475250244,0.18423502147197723
1775341532128261000,10.96626123046875,-1.0884637832641602,-2.4320411682128906,0.22563552856445312
1775341532138261000,10.976260986328125,-3.132747173309326,-2.0394577980041504,-0.042340993881225586
1775341532148261000,10.98626123046875,-0.6477770805358887,-2.7135162353515625,-0.30681169033050537
1775341532158261000,10.996260986328124,-2.0377373695373535,-2.5793914794921875,0.03462131321430206
1775341532168261000,11.00626123046875,-2.0017991065979004,-3.2328877449035645,-0.01633477210998535
1775341532178261000,11.016260986328126,-2.619109630584717,-2.468216896057129,-0.5770630836486816
1775341532188261000,11.02626123046875,-1.33758544921875,-3.176450729370117,0.05044734477996826
1775341532198261000,11.036260986328125,-2.767519950866699,-3.293928623199463,0.44866567850112915
1775341532208261000,11.04626123046875,-2.923891067504883,-2.884251594543457,-0.39489203691482544
1775341532218261000,11.056260986328125,-2.819934844970703,-3.3154854774475098,-0.03447505831718445
1775341532228261000,11.06626123046875,-2.733520030975342,-3.1959052085876465,0.2293347418308258
1775341532238261000,11.076260986328125,-2.010936737060547,-3.471529722213745,-0.2014319896697998
1775341532248261000,11.08626123046875,-2.9121170043945312,-3.0158567428588867,-0.12032486498355865
1775341532258261000,11.096260986328126,-2.226039409637451,-3.1679258346557617,0.14319363236427307
1775341532268261000,11.10626123046875,-2.2047762870788574,-3.2179293632507324,0.2741856276988983
1775341532278261000,11.116260986328125,-2.636815071105957,-2.824432373046875,-0.04735639691352844
1775341532288261000,11.12626123046875,-1.4424571990966797,-2.879769802093506,0.006564423441886902
1775341532298261000,11.136260986328125,-2.295438289642334,-2.4284796714782715,0.3113846480846405
1775341532308261000,11.14626123046875,-1.8287529945373535,-2.539609909057617,-0.11328144371509552
1775341532318261000,11.156260986328125,-2.1014046669006348,-2.1317806243896484,-0.06115986406803131
1775341532328261000,11.16626123046875,-1.6759624481201172,-2.00201416015625,0.2614702880382538
1775341532338261000,11.176260986328124,-2.041381359100342,-1.71795654296875,0.1109783947467804
1775341532348261000,11.18626123046875,-0.6814818382263184,-2.2395381927490234,-0.12133997678756714
1775341532358261000,11.196260986328125,-0.6509504318237305,-1.9413652420043945,0.0035583525896072388
1775341532368261000,11.20626123046875,-2.4972963333129883,-1.2113914489746094,0.06542493402957916
1775341532378261000,11.216260986328125,0.28455495834350586,-2.009204387664795,-0.230314239859581
1775341532388261000,11.22626123046875,-1.5124053955078125,-1.1217389106750488,0.22238607704639435
1775341532398261000,11.236260986328125,-1.069251537322998,-1.3047313690185547,0.32563847303390503
1775341532408261000,11.24626123046875,-0.44074583053588867,-1.1193275451660156,-0.41724807024002075
1775341532418261000,11.256260986328124,-1.1536612510681152,-1.0205788612365723,0.017918094992637634
1775341532428261000,11.26626123046875,-0.47988033294677734,-1.03523588180542,0.2379826307296753
1775341532438261000,11.276260986328126,-0.41798877716064453,-0.45396995544433594,-0.32145023345947266
1775341532448261000,11.28626123046875,-0.5270075798034668,-0.7999210357666016,-0.12089140713214874
1775341532458261000,11.296260986328125,-0.44881486892700195,-0.4564027786254883,0.17472222447395325
1775341532468261000,11.30626123046875,-0.534827709197998,-0.8677997589111328,-0.37769708037376404
1775341532478261000,11.316260986328125,-0.39084386825561523,-0.3931441307067871,-0.19719849526882172
1775341532488261000,11.32626123046875,-0.34717321395874023,-0.33736133575439453,0.35038113594055176
1775341532498261000,11.336260986328124,-0.20223617553710938,-0.4007282257080078,0.10186327248811722
1775341532508261000,11.34626123046875,-0.14109516143798828,-0.13685894012451172,-0.2852504849433899
1775341532518261000,11.356260986328126,-0.0756983757019043,-0.45893096923828125,-0.17514562606811523
1775341532528261000,11.36626123046875,-0.4568042755126953,-0.18897247314453125,0.14949487149715424
1775341532538261000,11.376260986328125,0.2478628158569336,-0.19234657287597656,-0.2781907916069031
1775341532548261000,11.38626123046875,0.0003757476806640625,-0.11371707916259766,-0.10183720290660858
1775341532558261000,11.396260986328125,-0.49011707305908203,0.13838624954223633,0.1633203774690628
1775341532568261000,11.40626123046875,0.9124608039855957,0.10847949981689453,-0.06636981666088104
1775341532578261000,11.416260986328124,-0.8937735557556152,0.04222726821899414,-0.34312599897384644
1775341532588261000,11.42626123046875,0.8808293342590332,-0.08284282684326172,-0.11809782683849335
1775341532598261000,11.436260986328126,-0.13349485397338867,0.11617469787597656,0.11361008137464523
1775341532608261000,11.44626123046875,0.04955291748046875,0.2078704833984375,-0.033966064453125
1775341532618261000,11.456260986328125,0.29795026779174805,-0.058444976806640625,0.06058107316493988
1775341532628261000,11.46626123046875,-0.08826446533203125,0.2163863182067871,0.08881612122058868
1775341532638261000,11.476260986328125,0.41701555252075195,-0.0556025505065918,-0.4018321633338928
1775341532648261000,11.48626123046875,0.1221318244934082,0.3097238540649414,0.007951006293296814
1775341532658261000,11.496260986328124,-0.12446117401123047,0.10740041732788086,0.05592823028564453
1775341532668261000,11.50626123046875,0.5096063613891602,0.21044015884399414,0.17145973443984985
1775341532678261000,11.516260986328126,-0.2884531021118164,0.34160470962524414,0.17208324372768402
1775341532688261000,11.52626123046875,0.16722583770751953,-0.1884775161743164,-0.1332281231880188
1775341532698261000,11.536260986328125,-0.09997797012329102,0.20960283279418945,-0.12366296350955963
1775341532708261000,11.54626123046875,0.13762569427490234,-0.13556575775146484,0.18801170587539673
1775341532718261000,11.556260986328125,0.09052658081054688,0.08988046646118164,-0.03230363130569458
1775341532728261000,11.56626123046875,0.34503650665283203,0.1200098991394043,-0.2639763355255127
1775341532738261000,11.576260986328125,0.2375040054321289,0.1408400535583496,0.08284234255552292
1775341532748261000,11.58626123046875,-0.48931884765625,0.37588071823120117,0.14690181612968445
1775341532758261000,11.596260986328126,1.4019145965576172,-0.39596033096313477,-0.17343175411224365
1775341532768261000,11.60626123046875,-1.9774737358093262,0.681236743927002,0.1252770721912384
1775341532778261000,11.616260986328125,2.2521462440490723,-0.563237190246582,-0.481955885887146
1775341532788261000,11.62626123046875,-0.9158711433410645,0.5451593399047852,0.2281692773103714
1775341532798261000,11.636260986328125,-0.1424732208251953,0.10550689697265625,-0.18022175133228302
1775341532808261000,11.64626123046875,1.580498218536377,-0.2659449577331543,-0.2270999550819397
1775341532818261000,11.656260986328125,-1.5227270126342773,0.8751120567321777,0.1564834713935852
1775341532828261000,11.66626123046875,1.493710994720459,-0.5771398544311523,-0.2802753746509552
1775341532838261000,11.676260986328124,-0.46068525314331055,0.6075363159179688,0.14142818748950958
1775341532848261000,11.68626123046875,0.3308424949645996,0.03142499923706055,0.08742617815732956
1775341532858261000,11.696260986328125,0.9724669456481934,0.2553253173828125,-0.03623063862323761
1775341532868261000,11.70626123046875,-0.5956630706787109,0.47751617431640625,-0.07594488561153412
1775341532878261000,11.716260986328125,1.1181902885437012,-0.31564807891845703,-0.04885004460811615
1775341532888261000,11.72626123046875,-0.8858962059020996,0.3864922523498535,-0.12425993382930756
1775341532898261000,11.736260986328125,0.6512641906738281,0.2442026138305664,-0.23803552985191345
1775341532908261000,11.74626123046875,0.07033014297485352,0.23862314224243164,0.1889382004737854
1775341532918261000,11.756260986328124,0.24565935134887695,0.3322324752807617,0.18406057357788086
1775341532928261000,11.76626123046875,-0.0017266273498535156,-0.2744441032409668,-0.37640541791915894
1775341532938261000,11.776260986328126,0.06423759460449219,0.43927764892578125,-0.2210831642150879
1775341532948261000,11.78626123046875,0.42116689682006836,0.11131048202514648,0.2445850968360901
1775341532958261000,11.796260986328125,-0.17820310592651367,0.20240449905395508,0.13925813138484955
1775341532968261000,11.80626123046875,0.043398380279541016,0.027472496032714844,-0.13190466165542603
1775341532978261000,11.816260986328125,0.2750735282897949,0.10053110122680664,0.03251306712627411
1775341532988261000,11.82626123046875,0.14175939559936523,0.3741436004638672,0.3669325113296509
1775341532998261000,11.836260986328124,0.24942827224731445,-0.24301385879516602,-0.07966090738773346
1775341533008261000,11.84626123046875,-0.33403587341308594,0.13263607025146484,-0.15493856370449066
1775341533018261000,11.856260986328126,0.2662019729614258,-0.013435840606689453,0.10214124619960785
1775341533028261000,11.86626123046875,0.1080784797668457,0.24990320205688477,0.22991487383842468
1775341533038261000,11.876260986328125,-0.056902408599853516,0.27304840087890625,-0.25472429394721985
1775341533048261000,11.88626123046875,0.10540914535522461,0.07585763931274414,-0.28316789865493774
1775341533058261000,11.896260986328125,-0.16887903213500977,0.3343329429626465,0.1880958527326584
1775341533068261000,11.90626123046875,0.6171903610229492,0.12502241134643555,0.027651682496070862
1775341533078261000,11.916260986328124,-0.059351444244384766,0.23396921157836914,-0.20636042952537537
1775341533088261000,11.92626123046875,0.1302495002746582,-0.11252593994140625,0.2529735863208771
1775341533098261000,11.936260986328126,0.15523386001586914,0.20467376708984375,0.2936258614063263
1775341533108261000,11.94626123046875,0.23980093002319336,0.2756166458129883,-0.213746577501297
1775341533118261000,11.956260986328125,0.4741840362548828,0.34866809844970703,-0.11028042435646057
1775341533128261000,11.96626123046875,0.04430723190307617,0.3916316032409668,0.17405813932418823
1775341533138261000,11.976260986328125,0.24569940567016602,0.019269943237304688,0.009162738919258118
1775341533148261000,11.98626123046875,-0.028545379638671875,0.25733518600463867,-0.02265492081642151
1775341533158261000,11.996260986328124,0.25124216079711914,0.15356779098510742,0.03718617558479309
1775341533168261000,12.00626123046875,0.13463926315307617,0.40879297256469727,0.005101889371871948
1775341533178261000,12.016260986328126,0.4064912796020508,0.11932516098022461,-0.065909743309021
1775341533188261000,12.02626123046875,0.035997867584228516,0.24251317977905273,-0.07563020288944244
1775341533198261000,12.036260986328125,0.07955789566040039,0.1761460304260254,-0.10510173439979553
1775341533208261000,12.04626123046875,-0.012769699096679688,-0.0038633346557617188,0.189891517162323
1775341533218261000,12.056260986328125,-0.047150611877441406,0.14696502685546875,0.061400771141052246
1775341533228261000,12.06626123046875,0.16603994369506836,-0.015583038330078125,-0.31900542974472046
1775341533238261000,12.076260986328125,0.1404128074645996,0.24897146224975586,-0.05454327166080475
1775341533248261000,12.08626123046875,0.29559755325317383,0.16373395919799805,0.10467338562011719
1775341533258261000,12.096260986328126,-0.1502838134765625,0.3485550880432129,-0.001183152198791504
1775341533268261000,12.10626123046875,0.6438407897949219,0.5409774780273438,0.14314047992229462
1775341533278261000,12.116260986328125,-0.2510671615600586,0.349700927734375,0.2425902634859085
1775341533288261000,12.12626123046875,0.5447092056274414,0.5207109451293945,-0.42765820026397705
1775341533298261000,12.136260986328125,0.850255012512207,0.7420172691345215,-0.07139404118061066
1775341533308261000,12.14626123046875,0.3020601272583008,0.9235343933105469,0.7241118550300598
1775341533318261000,12.156260986328125,0.9379677772521973,1.060131549835205,-0.16913720965385437
1775341533328261000,12.16626123046875,0.8286247253417969,0.9232234954833984,-0.08173952996730804
