time,seconds_elapsed,z,y,x
1775705789383328000,0.043327880859375,-0.3341217041015625,-1.009613037109375,0.173828125
1775705789393341000,0.0533408203125,-0.3138580322265625,-1.0118560791015625,0.1396484375
1775705789403353900,0.063353759765625,-0.3188018798828125,-1.0127105712890625,0.1090240478515625
1775705789413366800,0.07336669921875,-0.306549072265625,-1.011627197265625,0.0921630859375
1775705789423380000,0.0833798828125,-0.2884063720703125,-1.0039520263671875,0.0877685546875
1775705789433393000,0.093392822265625,-0.2906036376953125,-0.9897613525390625,0.0858001708984375
1775705789443405800,0.10340576171875,-0.3111572265625,-0.992584228515625,0.086090087890625
1775705789453419000,0.1134189453125,-0.31512451171875,-1.014678955078125,0.0874481201171875
1775705789463432700,0.1234326171875,-0.313262939453125,-1.02978515625,0.07757568359375
1775705789473446000,0.13344580078125,-0.3659210205078125,-1.056793212890625,0.068450927734375
1775705789483459000,0.143458984375,-0.4089202880859375,-1.0805206298828125,0.07177734375
1775705789493471700,0.1534716796875,-0.4396820068359375,-1.113983154296875,0.08087158203125
1775705789503485000,0.16348486328125,-0.4488677978515625,-1.1852264404296875,0.0922393798828125
1775705789513497900,0.173497802734375,-0.383758544921875,-1.1686553955078125,0.0992889404296875
1775705789523511000,0.183510986328125,-0.3271026611328125,-1.0571136474609375,0.08355712890625
1775705789533523700,0.193523681640625,-0.3131256103515625,-0.9426116943359375,0.0523223876953125
1775705789543537000,0.203536865234375,-0.352081298828125,-0.88214111328125,0.0393218994140625
1775705789553550000,0.213550048828125,-0.3658294677734375,-0.891876220703125,0.0486602783203125
1775705789563563800,0.223563720703125,-0.4058380126953125,-0.938323974609375,0.07000732421875
1775705789573577000,0.233576904296875,-0.42767333984375,-0.984130859375,0.0716094970703125
1775705789583590000,0.24358984375,-0.404052734375,-0.977020263671875,0.0415191650390625
1775705789593602800,0.253602783203125,-0.405670166015625,-0.971832275390625,0.0132904052734375
1775705789603616000,0.263615966796875,-0.3920135498046875,-0.94598388671875,-0.00140380859375
1775705789613629000,0.27362890625,-0.40472412109375,-0.931365966796875,-0.005126953125
1775705789623641900,0.283641845703125,-0.401611328125,-0.7811279296875,-0.0100250244140625
1775705789633654800,0.29365478515625,-0.367645263671875,-0.7123565673828125,-0.050445556640625
1775705789643668000,0.30366796875,-0.3238372802734375,-0.8410186767578125,-0.1692657470703125
1775705789653682000,0.313681884765625,-0.485107421875,-0.7859344482421875,-0.1962738037109375
1775705789663694800,0.32369482421875,-0.7892608642578125,-0.6906280517578125,-0.0196380615234375
1775705789673708000,0.3337080078125,-0.911285400390625,-1.251708984375,0.1097259521484375
1775705789683720700,0.343720703125,-0.414459228515625,-2.091033935546875,0.706024169921875
1775705789693734000,0.35373388671875,-0.3377838134765625,-1.59417724609375,0.734954833984375
1775705789703746800,0.363746826171875,-0.1920928955078125,-0.9407958984375,0.1565704345703125
1775705789713760000,0.373760009765625,-0.245361328125,-0.951751708984375,-0.013824462890625
1775705789723773000,0.38377294921875,-0.373016357421875,-0.922088623046875,-0.0107879638671875
1775705789733785900,0.393785888671875,-0.357330322265625,-0.8536529541015625,-0.0302276611328125
1775705789743799000,0.403799072265625,-0.2982940673828125,-0.835723876953125,0.0055694580078125
1775705789753812700,0.413812744140625,-0.3247528076171875,-0.809478759765625,0.160064697265625
1775705789763826000,0.423825927734375,-0.252685546875,-0.93524169921875,0.2203521728515625
1775705789773839000,0.433839111328125,-0.2645263671875,-0.9864501953125,0.2235107421875
1775705789783851800,0.443851806640625,-0.22613525390625,-0.948516845703125,0.187591552734375
1775705789793865000,0.453864990234375,-0.0885772705078125,-0.914703369140625,0.0829620361328125
1775705789803878000,0.4638779296875,0.019256591796875,-0.9294586181640625,-0.132232666015625
1775705789813890800,0.473890869140625,0.0811767578125,-0.95654296875,-0.29644775390625
1775705789823903700,0.48390380859375,0.0795745849609375,-0.9543304443359375,-0.2896270751953125
1775705789833917000,0.4939169921875,0.0878448486328125,-0.9258270263671875,-0.1628875732421875
1775705789843931000,0.503930908203125,0.166290283203125,-0.952728271484375,-0.06890869140625
1775705789853943800,0.51394384765625,0.000030517578125,-0.857086181640625,0.1396942138671875
1775705789863957000,0.52395703125,-0.0479888916015625,-0.714569091796875,0.2940216064453125
1775705789873970000,0.533969970703125,-0.0980224609375,-0.6928253173828125,0.2954864501953125
1775705789883982800,0.54398291015625,-0.1627349853515625,-0.7334136962890625,0.3242950439453125
1775705789893996000,0.55399609375,-0.1543731689453125,-0.744110107421875,0.342987060546875
1775705789904009000,0.564009033203125,-0.1254730224609375,-0.7242279052734375,0.30133056640625
1775705789914022000,0.57402197265625,-0.08038330078125,-0.7167205810546875,0.247772216796875
1775705789924034800,0.584034912109375,-0.04443359375,-0.737579345703125,0.2047882080078125
1775705789934048800,0.594048828125,-0.0224151611328125,-0.7623443603515625,0.2137451171875
1775705789944062200,0.604062255859375,-0.00836181640625,-0.78564453125,0.2562255859375
1775705789954075100,0.6140751953125,0.0139617919921875,-0.8155059814453125,0.3051300048828125
1775705789964088300,0.62408837890625,0.0258941650390625,-0.8505706787109375,0.34161376953125
1775705789974101000,0.63410107421875,0.0662384033203125,-0.880218505859375,0.3851470947265625
1775705789984114200,0.6441142578125,0.07244873046875,-0.8962249755859375,0.4100189208984375
1775705789994127000,0.654127197265625,0.06591796875,-0.90313720703125,0.375701904296875
1775705790004140000,0.66414013671875,0.050201416015625,-0.92279052734375,0.3354034423828125
1775705790014153200,0.6741533203125,0.023895263671875,-0.9476776123046875,0.287811279296875
1775705790024167200,0.684167236328125,0.005706787109375,-0.96307373046875,0.2344970703125
1775705790034180000,0.69418017578125,-0.006927490234375,-0.969024658203125,0.205047607421875
1775705790044193300,0.704193359375,-0.01434326171875,-0.9771728515625,0.1822662353515625
1775705790054206200,0.714206298828125,-0.019195556640625,-0.9871978759765625,0.164459228515625
1775705790064219100,0.72421923828125,-0.003936767578125,-0.9846343994140625,0.1514129638671875
1775705790074232000,0.734232177734375,0.0219573974609375,-0.98193359375,0.139373779296875
1775705790084245200,0.744245361328125,0.0390472412109375,-0.990753173828125,0.138092041015625
1775705790094258200,0.754258056640625,0.0281524658203125,-0.9981231689453125,0.1530303955078125
1775705790104271000,0.76427099609375,-0.0058135986328125,-0.9977569580078125,0.180023193359375
1775705790114284000,0.774283935546875,-0.04400634765625,-0.998138427734375,0.19732666015625
1775705790124298000,0.784298095703125,-0.06097412109375,-0.995269775390625,0.2048797607421875
1775705790134311200,0.794311279296875,-0.0612030029296875,-0.991455078125,0.2222900390625
1775705790144324000,0.804323974609375,-0.080535888671875,-0.9915618896484375,0.229095458984375
1775705790154337300,0.814337158203125,-0.0939483642578125,-0.9930419921875,0.2277069091796875
1775705790164350200,0.82435009765625,-0.0794219970703125,-0.9878997802734375,0.23760986328125
1775705790174363100,0.834363037109375,-0.057464599609375,-0.9847869873046875,0.2477264404296875
1775705790184376300,0.844376220703125,-0.048309326171875,-0.9897918701171875,0.243621826171875
1775705790194389000,0.854388916015625,-0.03350830078125,-1.0020904541015625,0.233184814453125
1775705790204402200,0.864402099609375,-0.0079498291015625,-1.007720947265625,0.2130126953125
1775705790214416400,0.87441650390625,-0.0013427734375,-1.0077056884765625,0.1972198486328125
1775705790224429000,0.884428955078125,-0.002960205078125,-1.013671875,0.1876373291015625
1775705790234442200,0.894442138671875,0.0002899169921875,-1.008758544921875,0.1768798828125
1775705790244455200,0.904455078125,-0.000335693359375,-1.003631591796875,0.1768035888671875
1775705790254468000,0.914468017578125,0.0058441162109375,-0.9970550537109375,0.1594085693359375
1775705790264481000,0.92448095703125,0.0345916748046875,-0.98468017578125,0.140838623046875
1775705790274494200,0.934494140625,0.0433502197265625,-0.98345947265625,0.1339263916015625
1775705790284507100,0.944507080078125,0.03289794921875,-0.990234375,0.118072509765625
1775705790294520000,0.95452001953125,0.0306549072265625,-0.9929046630859375,0.1010589599609375
1775705790304534300,0.9645341796875,0.0397796630859375,-0.98516845703125,0.1159515380859375
1775705790314547000,0.974546875,0.0565643310546875,-0.9748687744140625,0.1500091552734375
1775705790324560100,0.98456005859375,0.082489013671875,-0.9755096435546875,0.18524169921875
1775705790334573300,0.9945732421875,0.0799560546875,-0.9758148193359375,0.2101287841796875
1775705790344586200,1.004586181640625,0.086090087890625,-0.9754180908203125,0.2191009521484375
1775705790354599200,1.01459912109375,0.082550048828125,-0.976287841796875,0.2289276123046875
1775705790364612000,1.024612060546875,0.0572357177734375,-0.989288330078125,0.2353515625
1775705790374625300,1.034625244140625,0.0452880859375,-1.0033111572265625,0.2385711669921875
1775705790384638000,1.044637939453125,0.05059814453125,-1.0052947998046875,0.2352294921875
1775705790394652200,1.054652099609375,0.0714111328125,-1.00396728515625,0.2418212890625
1775705790404665300,1.064665283203125,0.082061767578125,-1.0113983154296875,0.2519073486328125
1775705790414678000,1.074677978515625,0.085235595703125,-1.017974853515625,0.25653076171875
1775705790424691200,1.084691162109375,0.0880584716796875,-1.0116424560546875,0.2684173583984375
1775705790434704100,1.0947041015625,0.0848541259765625,-1.009857177734375,0.2778778076171875
1775705790444717000,1.104717041015625,0.0903778076171875,-1.008514404296875,0.2915496826171875
1775705790454730000,1.11472998046875,0.092803955078125,-1.0052032470703125,0.296966552734375
1775705790464743200,1.1247431640625,0.106414794921875,-0.9951171875,0.297576904296875
1775705790474756400,1.13475634765625,0.1231536865234375,-0.983306884765625,0.3006134033203125
1775705790484770000,1.14477001953125,0.12506103515625,-0.9769134521484375,0.3070831298828125
1775705790494783200,1.154783203125,0.117767333984375,-0.9706268310546875,0.31170654296875
1775705790504796200,1.164796142578125,0.1090850830078125,-0.9634857177734375,0.321258544921875
1775705790514809000,1.17480908203125,0.100921630859375,-0.9451751708984375,0.3135986328125
1775705790524822300,1.184822265625,0.0862274169921875,-0.928619384765625,0.3102264404296875
1775705790534835200,1.194835205078125,0.0640869140625,-0.925323486328125,0.32470703125
1775705790544848100,1.20484814453125,0.050323486328125,-0.9173583984375,0.3375396728515625
1775705790554861000,1.214861083984375,0.0502166748046875,-0.90338134765625,0.346466064453125
1775705790564874200,1.224874267578125,0.0433502197265625,-0.894012451171875,0.3420257568359375
1775705790574888200,1.23488818359375,0.0439605712890625,-0.8885498046875,0.3375244140625
1775705790584901000,1.244901123046875,0.0485992431640625,-0.8706817626953125,0.3326873779296875
1775705790594914300,1.254914306640625,0.0537261962890625,-0.853057861328125,0.3282623291015625
1775705790604927000,1.264927001953125,0.07110595703125,-0.8463592529296875,0.3521728515625
1775705790614940200,1.274940185546875,0.054412841796875,-0.82879638671875,0.3590240478515625
1775705790624953300,1.284953369140625,0.0331878662109375,-0.8124847412109375,0.3711090087890625
1775705790634966000,1.294966064453125,0.027587890625,-0.8032379150390625,0.3788909912109375
1775705790644979200,1.304979248046875,0.0297088623046875,-0.7858428955078125,0.3833160400390625
1775705790654992100,1.3149921875,0.0222625732421875,-0.7517242431640625,0.3845672607421875
1775705790665006000,1.325006103515625,0.0153656005859375,-0.718902587890625,0.3972015380859375
1775705790675019300,1.335019287109375,0.0278778076171875,-0.71380615234375,0.42376708984375
1775705790685032200,1.3450322265625,0.0301361083984375,-0.7072601318359375,0.4342498779296875
1775705790695045000,1.355045166015625,0.0010833740234375,-0.70452880859375,0.4414825439453125
1775705790705058000,1.36505810546875,-0.013336181640625,-0.7090606689453125,0.45556640625
1775705790715071200,1.3750712890625,-0.0133514404296875,-0.71173095703125,0.4710235595703125
1775705790725084200,1.385084228515625,-0.0000762939453125,-0.7077789306640625,0.5021209716796875
1775705790735097000,1.39509716796875,0.0065155029296875,-0.7097930908203125,0.5257110595703125
1775705790745110000,1.405110107421875,0.0119171142578125,-0.7201995849609375,0.5397796630859375
1775705790755124000,1.4151240234375,0.01971435546875,-0.7180023193359375,0.5321502685546875
1775705790765137200,1.42513720703125,0.02130126953125,-0.720184326171875,0.51812744140625
1775705790775150000,1.435150146484375,0.0202789306640625,-0.7342987060546875,0.5136260986328125
1775705790785163300,1.445163330078125,0.01605224609375,-0.73590087890625,0.501800537109375
1775705790795176200,1.45517626953125,0.03045654296875,-0.74810791015625,0.50616455078125
1775705790805189000,1.465189208984375,0.0510101318359375,-0.7690582275390625,0.529754638671875
1775705790815202300,1.475202392578125,0.0610504150390625,-0.7799224853515625,0.5391387939453125
1775705790825215000,1.485215087890625,0.0622711181640625,-0.7897491455078125,0.5644989013671875
1775705790835228200,1.495228271484375,0.0545806884765625,-0.8048095703125,0.60894775390625
1775705790845242400,1.505242431640625,0.0418548583984375,-0.8113555908203125,0.643463134765625
1775705790855255000,1.515255126953125,0.039459228515625,-0.8207550048828125,0.666534423828125
1775705790865268200,1.525268310546875,0.0490264892578125,-0.8325347900390625,0.685791015625
1775705790875281200,1.53528125,0.059051513671875,-0.8449554443359375,0.6930084228515625
1775705790885294000,1.545294189453125,0.0877838134765625,-0.851776123046875,0.6857757568359375
1775705790895307000,1.55530712890625,0.108612060546875,-0.8603057861328125,0.6923675537109375
1775705790905320200,1.5653203125,0.11077880859375,-0.8742218017578125,0.69927978515625
1775705790915333400,1.57533349609375,0.11004638671875,-0.874755859375,0.7077789306640625
1775705790925347000,1.58534716796875,0.0929718017578125,-0.8714599609375,0.71942138671875
1775705790935360300,1.5953603515625,0.0783233642578125,-0.871734619140625,0.7240447998046875
1775705790945372700,1.60537255859375,0.066070556640625,-0.8715972900390625,0.7219696044921875
1775705790955385600,1.615385498046875,0.0458831787109375,-0.8687744140625,0.7178802490234375
1775705790965398500,1.6253984375,0.0343017578125,-0.861236572265625,0.7103118896484375
1775705790975411700,1.63541162109375,0.0485076904296875,-0.8529205322265625,0.7094573974609375
1775705790985424600,1.645424560546875,0.0583343505859375,-0.855194091796875,0.707611083984375
1775705790995437600,1.6554375,0.0605316162109375,-0.8531646728515625,0.6980743408203125
1775705791005450500,1.665450439453125,0.0800018310546875,-0.8439178466796875,0.6855621337890625
1775705791015464400,1.67546435546875,0.1161041259765625,-0.8298187255859375,0.6774139404296875
1775705791025477600,1.6854775390625,0.130645751953125,-0.8107757568359375,0.6573028564453125
1775705791035490600,1.695490478515625,0.1312713623046875,-0.8000335693359375,0.6439056396484375
1775705791045503700,1.705503662109375,0.1364288330078125,-0.7877044677734375,0.6367034912109375
1775705791055516400,1.715516357421875,0.1341400146484375,-0.7794647216796875,0.6278839111328125
1775705791065529600,1.725529541015625,0.1212005615234375,-0.7883148193359375,0.6321563720703125
1775705791075542800,1.735542724609375,0.1252593994140625,-0.805908203125,0.6409912109375
1775705791085555500,1.745555419921875,0.126129150390625,-0.80548095703125,0.62835693359375
1775705791095568600,1.755568603515625,0.1257171630859375,-0.8031158447265625,0.612823486328125
1775705791105582600,1.76558251953125,0.1221923828125,-0.8109283447265625,0.6003570556640625
1775705791115595500,1.775595458984375,0.1199493408203125,-0.812347412109375,0.5940704345703125
1775705791125608700,1.785608642578125,0.117279052734375,-0.8091583251953125,0.584228515625
1775705791135621600,1.79562158203125,0.1045379638671875,-0.8081207275390625,0.577850341796875
1775705791145634600,1.805634521484375,0.0954132080078125,-0.8147430419921875,0.5828857421875
1775705791155647500,1.8156474609375,0.0920867919921875,-0.818817138671875,0.5880279541015625
1775705791165660700,1.82566064453125,0.0857086181640625,-0.8159332275390625,0.597991943359375
1775705791175673600,1.835673583984375,0.0718231201171875,-0.806121826171875,0.5987701416015625
1775705791185686500,1.8456865234375,0.050384521484375,-0.8024444580078125,0.6056365966796875
1775705791195700700,1.85570068359375,0.026763916015625,-0.7994384765625,0.6196746826171875
1775705791205713400,1.86571337890625,0.010101318359375,-0.799102783203125,0.6340484619140625
1775705791215726600,1.8757265625,0.0031890869140625,-0.798919677734375,0.63623046875
1775705791225739500,1.885739501953125,0.006500244140625,-0.7960968017578125,0.63067626953125
1775705791235752700,1.895752685546875,0.0090484619140625,-0.7916259765625,0.627960205078125
1775705791245765600,1.905765625,0.0188140869140625,-0.794830322265625,0.6303863525390625
1775705791255778600,1.915778564453125,0.01873779296875,-0.7944488525390625,0.6162109375
1775705791265791700,1.925791748046875,0.0206146240234375,-0.802215576171875,0.601715087890625
1775705791275805400,1.935805419921875,0.02838134765625,-0.8000335693359375,0.5883636474609375
1775705791285818600,1.945818603515625,0.04541015625,-0.7935638427734375,0.5888214111328125
1775705791295831800,1.955831787109375,0.0577392578125,-0.79534912109375,0.5977783203125
1775705791305844500,1.965844482421875,0.05853271484375,-0.80511474609375,0.6032257080078125
1775705791315857700,1.975857666015625,0.052490234375,-0.802581787109375,0.600311279296875
1775705791325870600,1.98587060546875,0.03936767578125,-0.7969818115234375,0.591278076171875
1775705791335883500,1.995883544921875,0.0281829833984375,-0.7926483154296875,0.585205078125
1775705791345896400,2.005896484375,0.0211181640625,-0.7952117919921875,0.5811614990234375
1775705791355909600,2.01590966796875,0.02923583984375,-0.7990875244140625,0.573822021484375
1775705791365923600,2.025923583984375,0.044403076171875,-0.7921142578125,0.56158447265625
1775705791375936500,2.0359365234375,0.0540008544921875,-0.786651611328125,0.5670013427734375
1775705791385949700,2.04594970703125,0.0638580322265625,-0.78662109375,0.5797576904296875
1775705791395962400,2.05596240234375,0.074920654296875,-0.7834625244140625,0.583831787109375
1775705791405975600,2.0659755859375,0.08929443359375,-0.7783660888671875,0.589111328125
1775705791415988700,2.07598876953125,0.10223388671875,-0.77740478515625,0.6031494140625
1775705791426001700,2.086001708984375,0.0986480712890625,-0.7718048095703125,0.6118316650390625
1775705791436014600,2.0960146484375,0.0852203369140625,-0.77447509765625,0.6198272705078125
1775705791446027500,2.106027587890625,0.065185546875,-0.784210205078125,0.6144256591796875
1775705791456041500,2.11604150390625,0.0553436279296875,-0.7950286865234375,0.602264404296875
1775705791466054700,2.1260546875,0.0543975830078125,-0.794769287109375,0.5848846435546875
1775705791476067600,2.136067626953125,0.0686798095703125,-0.7875213623046875,0.5733795166015625
1775705791486080800,2.146080810546875,0.0807952880859375,-0.7824249267578125,0.5606689453125
1775705791496093400,2.156093505859375,0.0895843505859375,-0.7912445068359375,0.5545196533203125
1775705791506106600,2.166106689453125,0.111541748046875,-0.79486083984375,0.5545654296875
1775705791516119600,2.17611962890625,0.1094970703125,-0.7938079833984375,0.549530029296875
1775705791526132500,2.186132568359375,0.116424560546875,-0.79644775390625,0.5489654541015625
1775705791536146700,2.196146728515625,0.1219024658203125,-0.789337158203125,0.5579833984375
1775705791546159600,2.20615966796875,0.0954132080078125,-0.7926483154296875,0.5794525146484375
1775705791556172500,2.216172607421875,0.085723876953125,-0.800872802734375,0.6068267822265625
1775705791566185500,2.226185546875,0.076263427734375,-0.7967376708984375,0.6124114990234375
1775705791576198700,2.23619873046875,0.0663909912109375,-0.79473876953125,0.5901336669921875
1775705791586211600,2.246211669921875,0.0742340087890625,-0.7968292236328125,0.5650787353515625
1775705791596224500,2.256224609375,0.0294647216796875,-0.7588348388671875,0.58587646484375
1775705791606237700,2.26623779296875,0.045867919921875,-0.787384033203125,0.5785064697265625
1775705791616250600,2.276250732421875,0.0580291748046875,-0.8360137939453125,0.53656005859375
1775705791626264600,2.2862646484375,0.0477752685546875,-0.8406829833984375,0.535064697265625
1775705791636277800,2.29627783203125,0.060302734375,-0.838470458984375,0.5442047119140625
1775705791646290400,2.30629052734375,0.0589599609375,-0.83587646484375,0.5269775390625
1775705791656303600,2.3163037109375,0.0579071044921875,-0.8350982666015625,0.5114898681640625
1775705791666316500,2.326316650390625,0.04742431640625,-0.830230712890625,0.5092010498046875
1775705791676329700,2.336329833984375,0.010650634765625,-0.8274993896484375,0.5182647705078125
1775705791686342400,2.34634228515625,-0.01068115234375,-0.826690673828125,0.5224609375
1775705791696355600,2.35635546875,-0.018157958984375,-0.820831298828125,0.5146636962890625
1775705791706368800,2.36636865234375,-0.03887939453125,-0.8214111328125,0.4978179931640625
1775705791716382500,2.376382568359375,-0.0322113037109375,-0.826751708984375,0.4824676513671875
1775705791726395600,2.386395751953125,-0.0164642333984375,-0.8321380615234375,0.4752349853515625
1775705791736408600,2.39640869140625,-0.0164337158203125,-0.8391265869140625,0.47308349609375
1775705791746421500,2.40642138671875,-0.0033111572265625,-0.843841552734375,0.4586944580078125
1775705791756434700,2.4164345703125,0.0129852294921875,-0.850189208984375,0.452850341796875
1775705791766447600,2.426447509765625,0.00604248046875,-0.8584136962890625,0.4501800537109375
1775705791776460500,2.43646044921875,-0.0016021728515625,-0.861358642578125,0.4433746337890625
1775705791786473500,2.446473388671875,-0.0140533447265625,-0.8583984375,0.455322265625
1775705791796487700,2.45648779296875,-0.029693603515625,-0.8556365966796875,0.4828948974609375
1775705791806500600,2.46650048828125,-0.0406036376953125,-0.8590850830078125,0.495452880859375
1775705791816513500,2.476513427734375,-0.0403900146484375,-0.860260009765625,0.5014190673828125
1775705791826526700,2.486526611328125,-0.025390625,-0.8627166748046875,0.5073089599609375
1775705791836539400,2.496539306640625,-0.00067138671875,-0.8726806640625,0.494537353515625
1775705791846552600,2.506552490234375,0.033721923828125,-0.8805389404296875,0.4697113037109375
1775705791856565500,2.5165654296875,0.0644989013671875,-0.890228271484375,0.4524078369140625
1775705791866578700,2.52657861328125,0.0843353271484375,-0.9017333984375,0.45062255859375
1775705791876591600,2.536591552734375,0.0956573486328125,-0.90924072265625,0.456756591796875
1775705791886605600,2.54660546875,0.0970001220703125,-0.9056396484375,0.4718170166015625
1775705791896618500,2.556618408203125,0.07855224609375,-0.90423583984375,0.485504150390625
1775705791906631400,2.56663134765625,0.057952880859375,-0.9088287353515625,0.49456787109375
1775705791916644600,2.57664453125,0.0479583740234375,-0.912139892578125,0.494873046875
1775705791926657800,2.58665771484375,0.0545501708984375,-0.9138641357421875,0.4940185546875
1775705791936670500,2.59667041015625,0.066314697265625,-0.9139862060546875,0.48968505859375
1775705791946684200,2.60668408203125,0.0641021728515625,-0.910247802734375,0.4818878173828125
1775705791956697300,2.616697265625,0.053375244140625,-0.9053192138671875,0.483856201171875
1775705791966711000,2.6267109375,0.0501708984375,-0.898773193359375,0.482696533203125
1775705791976724200,2.63672412109375,0.053619384765625,-0.8961944580078125,0.480682373046875
1775705791986737200,2.646737060546875,0.0670318603515625,-0.895721435546875,0.482818603515625
1775705791996750000,2.65675,0.068115234375,-0.892120361328125,0.4828948974609375
1775705792006763300,2.66676318359375,0.066192626953125,-0.885955810546875,0.4848785400390625
1775705792016776200,2.676776123046875,0.0637054443359375,-0.877044677734375,0.493621826171875
1775705792026789000,2.6867890625,0.0545196533203125,-0.8672332763671875,0.4964752197265625
1775705792036802000,2.696802001953125,0.0461273193359375,-0.865325927734375,0.5011749267578125
1775705792046815200,2.706815185546875,0.036285400390625,-0.8649749755859375,0.51055908203125
1775705792056829200,2.7168291015625,0.0383758544921875,-0.8636932373046875,0.5221405029296875
1775705792066842000,2.726842041015625,0.0318756103515625,-0.8575286865234375,0.5237579345703125
1775705792076855300,2.736855224609375,0.0297393798828125,-0.854949951171875,0.5226593017578125
1775705792086868000,2.746867919921875,0.0442962646484375,-0.8501129150390625,0.5173187255859375
1775705792096881200,2.756881103515625,0.0582275390625,-0.843292236328125,0.5096282958984375
1775705792106894300,2.766894287109375,0.0653228759765625,-0.8414764404296875,0.51165771484375
1775705792116907000,2.776906982421875,0.068389892578125,-0.847686767578125,0.515411376953125
1775705792126920200,2.786920166015625,0.0621337890625,-0.8560638427734375,0.5208587646484375
1775705792136933000,2.79693310546875,0.057098388671875,-0.8592529296875,0.5240478515625
1775705792146947000,2.806947021484375,0.05804443359375,-0.8564453125,0.513336181640625
1775705792156960300,2.816960205078125,0.067047119140625,-0.85064697265625,0.50360107421875
1775705792166973200,2.82697314453125,0.0701446533203125,-0.844970703125,0.4936370849609375
1775705792176986000,2.836986083984375,0.0678253173828125,-0.8430938720703125,0.4921875
1775705792186999000,2.8469990234375,0.0663604736328125,-0.8413238525390625,0.490814208984375
1775705792197012200,2.85701220703125,0.06256103515625,-0.8332977294921875,0.489990234375
1775705792207025200,2.867025146484375,0.0630340576171875,-0.8296051025390625,0.4963531494140625
1775705792217038000,2.8770380859375,0.0584869384765625,-0.8261871337890625,0.499725341796875
1775705792227052300,2.88705224609375,0.04437255859375,-0.8289031982421875,0.50372314453125
1775705792237065000,2.89706494140625,0.0366973876953125,-0.8372802734375,0.5121307373046875
1775705792247078100,2.907078125,0.041717529296875,-0.8478240966796875,0.5160675048828125
1775705792257091000,2.917091064453125,0.04132080078125,-0.8565216064453125,0.5131683349609375
1775705792267104300,2.927104248046875,0.0570068359375,-0.87213134765625,0.5223541259765625
1775705792277117200,2.9371171875,0.0530242919921875,-0.8880767822265625,0.5131378173828125
1775705792287130000,2.947130126953125,0.0501251220703125,-0.9062957763671875,0.4999542236328125
1775705792297143300,2.957143310546875,0.063232421875,-0.9205474853515625,0.4868621826171875
1775705792307157000,2.967156982421875,0.0747222900390625,-0.9327850341796875,0.4735870361328125
1775705792317170200,2.977170166015625,0.0904998779296875,-0.939849853515625,0.468109130859375
1775705792327183400,2.987183349609375,0.105987548828125,-0.939910888671875,0.471649169921875
1775705792337196000,2.997196044921875,0.1130218505859375,-0.9365081787109375,0.4756317138671875
1775705792347209200,3.007209228515625,0.1208038330078125,-0.9340972900390625,0.484527587890625
1775705792357222100,3.01722216796875,0.1255340576171875,-0.930633544921875,0.4921112060546875
1775705792367235000,3.027235107421875,0.1198883056640625,-0.9150390625,0.49383544921875
1775705792377248000,3.037248046875,0.12255859375,-0.8984527587890625,0.501708984375
1775705792387261200,3.04726123046875,0.1168670654296875,-0.8869476318359375,0.5118560791015625
1775705792397275100,3.057275146484375,0.10589599609375,-0.8726654052734375,0.5159454345703125
1775705792407288000,3.0672880859375,0.1002349853515625,-0.85491943359375,0.52044677734375
1775705792417301200,3.07730126953125,0.0928497314453125,-0.843109130859375,0.52154541015625
1775705792427314000,3.08731396484375,0.0725555419921875,-0.8281707763671875,0.513275146484375
1775705792437327000,3.0973271484375,0.0543365478515625,-0.8086090087890625,0.5094757080078125
1775705792447340300,3.10734033203125,0.037017822265625,-0.7906951904296875,0.504425048828125
1775705792457353200,3.117353271484375,0.0219268798828125,-0.78070068359375,0.5035400390625
1775705792467366100,3.1273662109375,-0.0016326904296875,-0.777435302734375,0.50372314453125
1775705792477379000,3.137379150390625,-0.0262298583984375,-0.782440185546875,0.511077880859375
1775705792487393000,3.14739306640625,-0.039276123046875,-0.7928009033203125,0.51025390625
1775705792497406200,3.15740625,-0.040740966796875,-0.796539306640625,0.4939422607421875
1775705792507419100,3.167419189453125,-0.0358734130859375,-0.8046112060546875,0.47845458984375
1775705792517432300,3.177432373046875,-0.029205322265625,-0.8245086669921875,0.4723358154296875
1775705792527445000,3.187445068359375,-0.0101165771484375,-0.841766357421875,0.474700927734375
1775705792537458200,3.197458251953125,0.000213623046875,-0.8546600341796875,0.463531494140625
1775705792547471000,3.20747119140625,0.0118560791015625,-0.8765716552734375,0.4600830078125
1775705792557484000,3.217484130859375,0.0311279296875,-0.8957061767578125,0.458465576171875
1775705792567498200,3.227498291015625,0.04486083984375,-0.9051666259765625,0.4427032470703125
1775705792577511200,3.23751123046875,0.059234619140625,-0.915496826171875,0.4344482421875
1775705792587524000,3.247524169921875,0.0752410888671875,-0.9283599853515625,0.4396209716796875
1775705792597537000,3.257537109375,0.089691162109375,-0.9391326904296875,0.4369049072265625
1775705792607550200,3.26755029296875,0.092987060546875,-0.9432830810546875,0.436920166015625
1775705792617563100,3.277563232421875,0.1038665771484375,-0.9493865966796875,0.4453125
1775705792627576000,3.287576171875,0.119598388671875,-0.9438018798828125,0.4447479248046875
1775705792637589200,3.29758935546875,0.133514404296875,-0.9313507080078125,0.4501800537109375
1775705792647602200,3.307602294921875,0.1428375244140625,-0.9121551513671875,0.4527740478515625
1775705792657616100,3.3176162109375,0.1427459716796875,-0.8946685791015625,0.459716796875
1775705792667629300,3.32762939453125,0.1361236572265625,-0.88427734375,0.476104736328125
1775705792677642000,3.33764208984375,0.1201934814453125,-0.8661956787109375,0.48291015625
1775705792687655200,3.3476552734375,0.113067626953125,-0.846435546875,0.4945526123046875
1775705792697668000,3.357668212890625,0.1007080078125,-0.8330078125,0.5117645263671875
1775705792707681300,3.367681396484375,0.09283447265625,-0.8193511962890625,0.525909423828125
1775705792717694000,3.37769384765625,0.0772705078125,-0.798919677734375,0.5293426513671875
1775705792727707100,3.38770703125,0.0687408447265625,-0.7843780517578125,0.537841796875
1775705792737720300,3.39772021484375,0.0657806396484375,-0.768646240234375,0.536163330078125
1775705792747734000,3.407734130859375,0.0623931884765625,-0.7573699951171875,0.5338134765625
1775705792757747200,3.417747314453125,0.0533447265625,-0.749267578125,0.53204345703125
1775705792767760100,3.427760009765625,0.0477752685546875,-0.739990234375,0.5259857177734375
1775705792777773000,3.43777294921875,0.044952392578125,-0.73602294921875,0.517547607421875
1775705792787786200,3.4477861328125,0.038360595703125,-0.729339599609375,0.509307861328125
1775705792797799200,3.457799072265625,0.035614013671875,-0.7210693359375,0.4984588623046875
1775705792807812000,3.46781201171875,0.040435791015625,-0.71612548828125,0.4863739013671875
1775705792817825000,3.477824951171875,0.044921875,-0.7176971435546875,0.4820404052734375
1775705792827839200,3.487839111328125,0.0476531982421875,-0.73040771484375,0.4881134033203125
1775705792837852200,3.49785205078125,0.0472412109375,-0.7432098388671875,0.4976043701171875
1775705792847865000,3.507864990234375,0.0390777587890625,-0.7547607421875,0.5164031982421875
1775705792857878300,3.517878173828125,0.02374267578125,-0.77197265625,0.537567138671875
1775705792867891200,3.52789111328125,0.007537841796875,-0.788330078125,0.55804443359375
1775705792877904100,3.537904052734375,0.0048065185546875,-0.821258544921875,0.5807952880859375
1775705792887917000,3.5479169921875,-0.0030059814453125,-0.85040283203125,0.5645599365234375
1775705792897930200,3.55793017578125,-0.0059967041015625,-0.8669586181640625,0.5334930419921875
1775705792907943200,3.567943115234375,0.011962890625,-0.8800811767578125,0.50482177734375
1775705792917957000,3.57795703125,0.0211944580078125,-0.8867950439453125,0.469970703125
1775705792927970000,3.587969970703125,0.027984619140625,-0.8983612060546875,0.444061279296875
1775705792937983000,3.59798291015625,0.02691650390625,-0.9099578857421875,0.4163818359375
1775705792947995600,3.60799560546875,0.013458251953125,-0.9139556884765625,0.3974151611328125
1775705792958008800,3.6180087890625,0.000701904296875,-0.92578125,0.3973388671875
1775705792968021500,3.628021484375,-0.0086517333984375,-0.9293365478515625,0.3940277099609375
1775705792978034700,3.63803466796875,-0.02239990234375,-0.9289398193359375,0.3900146484375
1775705792988047600,3.648047607421875,-0.0468902587890625,-0.9299163818359375,0.38446044921875
1775705792998061600,3.6580615234375,-0.0652923583984375,-0.9234619140625,0.383392333984375
1775705793008074800,3.66807470703125,-0.0639190673828125,-0.919036865234375,0.393341064453125
1775705793018087700,3.678087646484375,-0.037994384765625,-0.918914794921875,0.4122161865234375
1775705793028100600,3.6881005859375,0.0182037353515625,-0.915557861328125,0.4324951171875
1775705793038113500,3.698113525390625,0.091033935546875,-0.8932342529296875,0.4578704833984375
1775705793048126700,3.708126708984375,0.152679443359375,-0.866455078125,0.5031890869140625
1775705793058139600,3.7181396484375,0.174560546875,-0.8469696044921875,0.55340576171875
1775705793068152600,3.728152587890625,0.1662139892578125,-0.83453369140625,0.59918212890625
1775705793078165800,3.738165771484375,0.1618499755859375,-0.8463592529296875,0.6496124267578125
1775705793088179700,3.7481796875,0.1349639892578125,-0.8827667236328125,0.6976776123046875
1775705793098192600,3.758192626953125,0.12158203125,-0.9267120361328125,0.7431182861328125
1775705793108205600,3.76820556640625,0.1353607177734375,-0.964324951171875,0.75830078125
1775705793118218800,3.77821875,0.1655426025390625,-1.0035247802734375,0.7707977294921875
1775705793128231700,3.788231689453125,0.1860809326171875,-1.0512542724609375,0.7826385498046875
1775705793138244600,3.79824462890625,0.20709228515625,-1.1011810302734375,0.765533447265625
1775705793148257800,3.8082578125,0.2428436279296875,-1.145172119140625,0.7381439208984375
1775705793158270700,3.818270751953125,0.257598876953125,-1.18304443359375,0.706329345703125
1775705793168284700,3.82828466796875,0.246978759765625,-1.1881256103515625,0.656951904296875
1775705793178297900,3.8382978515625,0.2369537353515625,-1.1871337890625,0.6255645751953125
1775705793188310500,3.848310546875,0.208251953125,-1.1846466064453125,0.5947723388671875
1775705793198323700,3.85832373046875,0.1685791015625,-1.169403076171875,0.5822296142578125
1775705793208336600,3.868336669921875,0.112152099609375,-1.1470947265625,0.577117919921875
1775705793218349600,3.878349609375,0.042327880859375,-1.125518798828125,0.57769775390625
1775705793228362500,3.888362548828125,-0.003448486328125,-1.1057281494140625,0.588348388671875
1775705793238375700,3.898375732421875,-0.0269775390625,-1.080718994140625,0.5919952392578125
1775705793248388900,3.908388916015625,-0.006439208984375,-1.05889892578125,0.602691650390625
1775705793258402600,3.918402587890625,0.03265380859375,-1.0447235107421875,0.608489990234375
1775705793268415700,3.928415771484375,0.1140594482421875,-1.0415496826171875,0.63616943359375
1775705793278428700,3.9384287109375,0.203369140625,-1.02728271484375,0.6517181396484375
1775705793288441600,3.948441650390625,0.2679443359375,-1.003143310546875,0.65557861328125
1775705793298454800,3.958454833984375,0.3071746826171875,-0.9887237548828125,0.654083251953125
1775705793308467700,3.9684677734375,0.3144073486328125,-0.9733734130859375,0.6400146484375
1775705793318480600,3.978480712890625,0.311492919921875,-0.9719696044921875,0.6420745849609375
1775705793328493600,3.98849365234375,0.290802001953125,-0.9629058837890625,0.627166748046875
1775705793338507800,3.9985078125,0.26483154296875,-0.951934814453125,0.618255615234375
1775705793348520700,4.008520751953125,0.24285888671875,-0.940277099609375,0.6302490234375
1775705793358533600,4.01853369140625,0.2208099365234375,-0.9233245849609375,0.63128662109375
1775705793368546800,4.028546875,0.2216033935546875,-0.9138641357421875,0.616546630859375
1775705793378559500,4.0385595703125,0.2448272705078125,-0.9069976806640625,0.5891876220703125
1775705793388572700,4.04857275390625,0.2525177001953125,-0.89105224609375,0.573974609375
1775705793398585600,4.058585693359375,0.26019287109375,-0.881927490234375,0.5861968994140625
1775705793408598800,4.068598876953125,0.2473907470703125,-0.8699798583984375,0.597900390625
1775705793418611700,4.07861181640625,0.248779296875,-0.86517333984375,0.624603271484375
1775705793428625700,4.088625732421875,0.241546630859375,-0.84710693359375,0.6339874267578125
1775705793438638600,4.098638671875,0.208099365234375,-0.819671630859375,0.626861572265625
1775705793448651500,4.108651611328125,0.1895904541015625,-0.8065032958984375,0.6364593505859375
1775705793458664700,4.118664794921875,0.1604461669921875,-0.79559326171875,0.64825439453125
1775705793468677600,4.128677734375,0.1288909912109375,-0.7770843505859375,0.6576385498046875
1775705793478690600,4.138690673828125,0.1241607666015625,-0.7577972412109375,0.656829833984375
1775705793488703700,4.148703857421875,0.140960693359375,-0.7496795654296875,0.6337890625
1775705793498716700,4.158716552734375,0.1700592041015625,-0.7476348876953125,0.601165771484375
1775705793508730600,4.168730712890625,0.18719482421875,-0.747711181640625,0.5997772216796875
1775705793518743800,4.178743896484375,0.184112548828125,-0.756988525390625,0.6225738525390625
1775705793528756700,4.1887568359375,0.159820556640625,-0.7497406005859375,0.624664306640625
1775705793538769700,4.198769775390625,0.1373138427734375,-0.7420654296875,0.6338958740234375
1775705793548782600,4.208782470703125,0.1197662353515625,-0.732574462890625,0.643829345703125
1775705793558795800,4.218795654296875,0.1231842041015625,-0.721435546875,0.652923583984375
1775705793568808400,4.228808349609375,0.1180267333984375,-0.732513427734375,0.6745147705078125
1775705793578821600,4.238821533203125,0.1112060546875,-0.76171875,0.7029876708984375
1775705793588834800,4.248834716796875,0.07830810546875,-0.7681121826171875,0.7043304443359375
1775705793598848500,4.2588486328125,0.0511474609375,-0.7320556640625,0.67706298828125
1775705793608861700,4.26886181640625,0.0643463134765625,-0.6910858154296875,0.6521453857421875
1775705793618874600,4.27887451171875,0.078948974609375,-0.6635589599609375,0.6190643310546875
1775705793628887600,4.288887451171875,0.081207275390625,-0.64703369140625,0.58221435546875
1775705793638900700,4.298900634765625,0.05401611328125,-0.652069091796875,0.574615478515625
1775705793648913700,4.30891357421875,0.0163421630859375,-0.65350341796875,0.5771942138671875
1775705793658926800,4.3189267578125,-0.0048370361328125,-0.657440185546875,0.5974884033203125
1775705793668939500,4.328939453125,0.0000457763671875,-0.6596221923828125,0.6307830810546875
1775705793678953700,4.33895361328125,0.027679443359375,-0.6501617431640625,0.667327880859375
1775705793688966700,4.348966552734375,0.0687713623046875,-0.64483642578125,0.6744384765625
1775705793698979600,4.3589794921875,0.1160125732421875,-0.658203125,0.67559814453125
1775705793708992800,4.36899267578125,0.137115478515625,-0.674530029296875,0.6640625
1775705793719005700,4.379005615234375,0.157073974609375,-0.675750732421875,0.63616943359375
1775705793729018600,4.3890185546875,0.179107666015625,-0.674285888671875,0.618560791015625
1775705793739031600,4.399031494140625,0.1874542236328125,-0.675079345703125,0.59393310546875
1775705793749044700,4.409044677734375,0.1806488037109375,-0.681884765625,0.5485687255859375
1775705793759057700,4.4190576171875,0.1694183349609375,-0.6761474609375,0.5066070556640625
1775705793769071600,4.429071533203125,0.17205810546875,-0.6698760986328125,0.4678802490234375
1775705793779084800,4.439084716796875,0.1608428955078125,-0.67083740234375,0.442901611328125
1775705793789097500,4.449097412109375,0.1474151611328125,-0.67315673828125,0.448333740234375
1775705793799110700,4.459110595703125,0.14935302734375,-0.678131103515625,0.452728271484375
1775705793809123800,4.469123779296875,0.1639404296875,-0.6774749755859375,0.4569549560546875
1775705793819136500,4.479136474609375,0.1740570068359375,-0.6732635498046875,0.4637908935546875
1775705793829149700,4.489149658203125,0.1630859375,-0.6638031005859375,0.4581756591796875
1775705793839162600,4.49916259765625,0.176300048828125,-0.655487060546875,0.445892333984375
1775705793849176600,4.509176513671875,0.1984710693359375,-0.6454315185546875,0.4129638671875
1775705793859189800,4.519189697265625,0.2075653076171875,-0.6367340087890625,0.372161865234375
1775705793869202700,4.52920263671875,0.20782470703125,-0.6257171630859375,0.3497161865234375
1775705793879215600,4.539215576171875,0.200531005859375,-0.6028289794921875,0.3206634521484375
1775705793889228500,4.549228515625,0.18701171875,-0.582855224609375,0.2900543212890625
1775705793899241700,4.55924169921875,0.1523590087890625,-0.56402587890625,0.2530517578125
1775705793909254700,4.569254638671875,0.1113739013671875,-0.5448455810546875,0.2208709716796875
1775705793919267600,4.579267578125,0.0643463134765625,-0.5245208740234375,0.1995086669921875
1775705793929280800,4.58928076171875,-0.0048980712890625,-0.486297607421875,0.16900634765625
1775705793939294500,4.59929443359375,-0.067657470703125,-0.4386749267578125,0.1335601806640625
1775705793949307600,4.6093076171875,-0.115203857421875,-0.4272308349609375,0.1279144287109375
1775705793959320800,4.61932080078125,-0.170074462890625,-0.4422454833984375,0.1318206787109375
1775705793969333800,4.629333740234375,-0.2065887451171875,-0.428619384765625,0.1424713134765625
1775705793979346700,4.6393466796875,-0.1985015869140625,-0.3979034423828125,0.1726531982421875
1775705793989359600,4.649359619140625,-0.165985107421875,-0.3639068603515625,0.18133544921875
1775705793999372800,4.659372802734375,-0.128570556640625,-0.34881591796875,0.206573486328125
1775705794009385500,4.669385498046875,-0.1046142578125,-0.37109375,0.2439117431640625
1775705794019399700,4.679399658203125,-0.1124114990234375,-0.40264892578125,0.2551727294921875
1775705794029412900,4.689412841796875,-0.0999298095703125,-0.44775390625,0.2799530029296875
1775705794039425500,4.699425537109375,-0.073944091796875,-0.4760589599609375,0.323577880859375
1775705794049438700,4.709438720703125,-0.0436553955078125,-0.48394775390625,0.381744384765625
1775705794059451600,4.71945166015625,0.02325439453125,-0.501190185546875,0.4230804443359375
1775705794069464600,4.729464599609375,0.095001220703125,-0.5194091796875,0.438812255859375
1775705794079477800,4.739477783203125,0.164276123046875,-0.5608367919921875,0.441070556640625
1775705794089490700,4.74949072265625,0.213714599609375,-0.6170196533203125,0.4635009765625
1775705794099503900,4.75950390625,0.2347564697265625,-0.6901092529296875,0.53594970703125
1775705794109517800,4.769517822265625,0.2366790771484375,-0.7459564208984375,0.5684814453125
1775705794119530800,4.77953076171875,0.2375946044921875,-0.7484130859375,0.5092010498046875
1775705794129543700,4.789543701171875,0.281280517578125,-0.763031005859375,0.4711761474609375
1775705794139556600,4.799556640625,0.3201904296875,-0.765533447265625,0.471954345703125
1775705794149569800,4.80956982421875,0.3247222900390625,-0.7714385986328125,0.5059356689453125
1775705794159582700,4.819582763671875,0.3099212646484375,-0.8190765380859375,0.58489990234375
1775705794169595600,4.829595703125,0.277587890625,-0.8399200439453125,0.6457672119140625
1775705794179608600,4.839608642578125,0.2330474853515625,-0.8607177734375,0.7082977294921875
1775705794189622500,4.84962255859375,0.206390380859375,-0.898101806640625,0.740478515625
1775705794199635700,4.8596357421875,0.1948089599609375,-0.8974761962890625,0.7371978759765625
1775705794209648600,4.869648681640625,0.2066802978515625,-0.898773193359375,0.7321014404296875
1775705794219661800,4.879661865234375,0.2717437744140625,-0.8923492431640625,0.682525634765625
1775705794229674500,4.889674560546875,0.33428955078125,-0.9092254638671875,0.6674041748046875
1775705794239687700,4.899687744140625,0.3223114013671875,-0.9355621337890625,0.6754302978515625
1775705794249700900,4.909700927734375,0.3094635009765625,-0.932281494140625,0.665069580078125
1775705794259713500,4.919713623046875,0.3174285888671875,-0.906158447265625,0.6323699951171875
1775705794269727700,4.929727783203125,0.3258514404296875,-0.9058685302734375,0.6107177734375
1775705794279741000,4.939740966796875,0.3253631591796875,-0.9308624267578125,0.600677490234375
1775705794289753600,4.949753662109375,0.3278350830078125,-0.9521331787109375,0.597015380859375
1775705794299766800,4.959766845703125,0.32196044921875,-0.95989990234375,0.588958740234375
1775705794309779700,4.96977978515625,0.3065032958984375,-0.964447021484375,0.57452392578125
1775705794319792600,4.979792724609375,0.308502197265625,-0.9515228271484375,0.5602264404296875
1775705794329805600,4.9898056640625,0.2921600341796875,-0.93499755859375,0.554718017578125
1775705794339818800,4.99981884765625,0.2500152587890625,-0.9287109375,0.5386962890625
1775705794349831700,5.009831787109375,0.245574951171875,-0.92608642578125,0.5177764892578125
1775705794359845600,5.019845703125,0.2449493408203125,-0.911102294921875,0.4990997314453125
1775705794369858800,5.02985888671875,0.2159881591796875,-0.899017333984375,0.50653076171875
1775705794379871500,5.03987158203125,0.1688995361328125,-0.8989715576171875,0.513397216796875
1775705794389884700,5.049884765625,0.1398162841796875,-0.9073486328125,0.54010009765625
1775705794399897900,5.05989794921875,0.119110107421875,-0.913421630859375,0.56475830078125
1775705794409910800,5.069910888671875,0.0896453857421875,-0.9032440185546875,0.572418212890625
1775705794419923700,5.079923828125,0.0829620361328125,-0.894561767578125,0.6000518798828125
1775705794429936600,5.0899365234375,0.0665435791015625,-0.888397216796875,0.631683349609375
1775705794439950600,5.09995068359375,0.0536041259765625,-0.90283203125,0.6690826416015625
1775705794449963800,5.1099638671875,0.0649871826171875,-0.907440185546875,0.6938934326171875
1775705794459976700,5.119976806640625,0.0857391357421875,-0.897369384765625,0.6869354248046875
1775705794469990000,5.129989990234375,0.1433868408203125,-0.892242431640625,0.653594970703125
1775705794480002600,5.14000244140625,0.2022552490234375,-0.8790283203125,0.6297149658203125
1775705794490015700,5.150015625,0.2274017333984375,-0.8705596923828125,0.6258087158203125
1775705794500028700,5.160028564453125,0.24407958984375,-0.8593292236328125,0.6186981201171875
1775705794510041600,5.17004150390625,0.238128662109375,-0.8384552001953125,0.60162353515625
1775705794520055800,5.180055908203125,0.242218017578125,-0.815185546875,0.606719970703125
1775705794530068700,5.19006884765625,0.2295989990234375,-0.796295166015625,0.6201171875
1775705794540081700,5.20008154296875,0.20330810546875,-0.79742431640625,0.6428375244140625
1775705794550094600,5.210094482421875,0.182708740234375,-0.81488037109375,0.67059326171875
1775705794560107800,5.220107666015625,0.1679840087890625,-0.8295745849609375,0.6738739013671875
1775705794570120700,5.23012060546875,0.1718597412109375,-0.8196563720703125,0.647064208984375
1775705794580133600,5.240133544921875,0.2011566162109375,-0.813323974609375,0.6352996826171875
1775705794590146800,5.250146728515625,0.213592529296875,-0.8052520751953125,0.618560791015625
1775705794600159700,5.26015966796875,0.23602294921875,-0.7868804931640625,0.6152801513671875
1775705794610173700,5.270173583984375,0.2801971435546875,-0.780731201171875,0.62249755859375
1775705794620187000,5.280186767578125,0.3158721923828125,-0.7806243896484375,0.633026123046875
1775705794630199600,5.290199462890625,0.3315277099609375,-0.7921905517578125,0.649871826171875
1775705794640212700,5.300212646484375,0.327239990234375,-0.79388427734375,0.6530303955078125
1775705794650225700,5.3102255859375,0.2933349609375,-0.7746124267578125,0.6650848388671875
1775705794660238800,5.32023876953125,0.2353515625,-0.7613067626953125,0.6840667724609375
1775705794670251500,5.33025146484375,0.1703948974609375,-0.73382568359375,0.68841552734375
1775705794680264700,5.3402646484375,0.1318511962890625,-0.7039337158203125,0.7076568603515625
1775705794690278700,5.350278564453125,0.081451416015625,-0.7003021240234375,0.7295684814453125
1775705794700291600,5.36029150390625,0.02105712890625,-0.6904449462890625,0.72821044921875
1775705794710304800,5.3703046875,0.006622314453125,-0.6625518798828125,0.7315826416015625
1775705794720317700,5.380317626953125,-0.0029296875,-0.6551361083984375,0.74017333984375
1775705794730330600,5.39033056640625,-0.0066986083984375,-0.64453125,0.73193359375
1775705794740343800,5.40034375,0.0015869140625,-0.644866943359375,0.72869873046875
1775705794750356700,5.410356689453125,-0.0111541748046875,-0.6647796630859375,0.726104736328125
1775705794760369700,5.42036962890625,-0.0248260498046875,-0.6749267578125,0.72039794921875
1775705794770383600,5.430383544921875,-0.039520263671875,-0.6896209716796875,0.717620849609375
1775705794780396800,5.440396728515625,-0.0449676513671875,-0.70086669921875,0.690399169921875
1775705794790409700,5.45040966796875,-0.0294952392578125,-0.7037353515625,0.6520233154296875
1775705794800422700,5.460422607421875,-0.0212249755859375,-0.723052978515625,0.61480712890625
1775705794810435800,5.470435791015625,-0.0082244873046875,-0.7354278564453125,0.5777587890625
1775705794820448500,5.480448486328125,0.000091552734375,-0.737884521484375,0.538909912109375
1775705794830461700,5.490461669921875,0.0045013427734375,-0.747650146484375,0.517333984375
1775705794840474600,5.500474609375,0.00830078125,-0.759490966796875,0.5152130126953125
1775705794850488600,5.510488525390625,0.0175628662109375,-0.7805328369140625,0.5205078125
1775705794860501800,5.520501708984375,0.0504913330078125,-0.7894744873046875,0.5287017822265625
1775705794870514700,5.5305146484375,0.0660400390625,-0.7982940673828125,0.532806396484375
1775705794880527600,5.540527587890625,0.0832366943359375,-0.8029022216796875,0.5226898193359375
1775705794890540500,5.55054052734375,0.106231689453125,-0.7976531982421875,0.520965576171875
1775705794900553700,5.5605537109375,0.12896728515625,-0.8096466064453125,0.5303497314453125
1775705794910567000,5.57056689453125,0.1270904541015625,-0.8224639892578125,0.530517578125
1775705794920579600,5.58057958984375,0.1067657470703125,-0.8277587890625,0.5584869384765625
1775705794930593800,5.59059375,0.0904541015625,-0.8217010498046875,0.5813446044921875
1775705794940606700,5.600606689453125,0.071685791015625,-0.81005859375,0.5881195068359375
1775705794950620200,5.6106201171875,0.069061279296875,-0.79656982421875,0.6025543212890625
1775705794960633300,5.62063330078125,0.0804290771484375,-0.7951507568359375,0.62274169921875
1775705794970646000,5.63064599609375,0.0849151611328125,-0.790069580078125,0.6375732421875
1775705794980659200,5.6406591796875,0.1060638427734375,-0.79425048828125,0.6636962890625
1775705794990672100,5.650672119140625,0.1253509521484375,-0.8269195556640625,0.7054901123046875
1775705795000685300,5.660685302734375,0.1278839111328125,-0.822662353515625,0.7162628173828125
1775705795010699300,5.67069921875,0.1395111083984375,-0.8043975830078125,0.7189788818359375
1775705795020712200,5.680712158203125,0.146820068359375,-0.7910003662109375,0.7320404052734375
1775705795030725000,5.69072509765625,0.144500732421875,-0.78924560546875,0.7629547119140625
1775705795040738000,5.700738037109375,0.135955810546875,-0.7994842529296875,0.7933502197265625
1775705795050751200,5.710751220703125,0.1324615478515625,-0.80145263671875,0.82037353515625
1775705795060764400,5.720764404296875,0.1262359619140625,-0.8075103759765625,0.8365325927734375
1775705795070777000,5.730777099609375,0.1226654052734375,-0.817047119140625,0.836029052734375
1775705795080790300,5.740790283203125,0.128387451171875,-0.8224945068359375,0.820220947265625
1775705795090804200,5.75080419921875,0.14495849609375,-0.84051513671875,0.79010009765625
1775705795100817200,5.760817138671875,0.1672515869140625,-0.850250244140625,0.749114990234375
1775705795110830300,5.770830322265625,0.1964874267578125,-0.860260009765625,0.7141265869140625
1775705795120843300,5.78084326171875,0.219818115234375,-0.8690032958984375,0.66436767578125
1775705795130856200,5.790856201171875,0.225067138671875,-0.8714141845703125,0.6183929443359375
1775705795140869000,5.800869140625,0.1933135986328125,-0.89263916015625,0.601226806640625
1775705795150882300,5.81088232421875,0.1615753173828125,-0.895233154296875,0.5920867919921875
1775705795160895200,5.820895263671875,0.146270751953125,-0.8884124755859375,0.5897674560546875
1775705795170909200,5.8309091796875,0.1380462646484375,-0.8875885009765625,0.5954132080078125
1775705795180922400,5.84092236328125,0.1280364990234375,-0.8715362548828125,0.587158203125
1775705795190935000,5.85093505859375,0.1289825439453125,-0.862213134765625,0.5948638916015625
1775705795200948200,5.8609482421875,0.132232666015625,-0.8578338623046875,0.6052093505859375
1775705795210961200,5.870961181640625,0.1438140869140625,-0.8509674072265625,0.604736328125
1775705795220974000,5.88097412109375,0.1581878662109375,-0.84625244140625,0.5915069580078125
1775705795230987300,5.8909873046875,0.167755126953125,-0.844573974609375,0.58172607421875
1775705795241000200,5.901000244140625,0.175079345703125,-0.832794189453125,0.576416015625
1775705795251014100,5.91101416015625,0.1857147216796875,-0.812255859375,0.5659942626953125
1775705795261027000,5.921027099609375,0.1793975830078125,-0.793212890625,0.5541839599609375
1775705795271040300,5.931040283203125,0.1534576416015625,-0.778564453125,0.5517425537109375
1775705795281053200,5.94105322265625,0.1304779052734375,-0.7695159912109375,0.56341552734375
1775705795291066000,5.951066162109375,0.1127166748046875,-0.7675933837890625,0.5778350830078125
1775705795301079300,5.961079345703125,0.07318115234375,-0.764617919921875,0.5728912353515625
1775705795311092200,5.97109228515625,0.04803466796875,-0.7573699951171875,0.5682220458984375
1775705795321105200,5.981105224609375,0.0338897705078125,-0.76580810546875,0.5620269775390625
1775705795331119400,5.991119384765625,0.035308837890625,-0.7715301513671875,0.55242919921875
1775705795341132300,6.00113232421875,0.0360565185546875,-0.7612152099609375,0.5390472412109375
1775705795351145200,6.011145263671875,0.0299224853515625,-0.759918212890625,0.53436279296875
1775705795361158100,6.021158203125,0.025634765625,-0.7671966552734375,0.5361328125
1775705795371171300,6.03117138671875,0.0198516845703125,-0.7796478271484375,0.5425262451171875
1775705795381184000,6.04118408203125,0.0194549560546875,-0.7912750244140625,0.53955078125
1775705795391197200,6.051197265625,0.0323333740234375,-0.797027587890625,0.5504150390625
1775705795401211100,6.061211181640625,0.0454254150390625,-0.799957275390625,0.5611114501953125
1775705795411224000,6.07122412109375,0.0514678955078125,-0.794525146484375,0.565277099609375
1775705795421237200,6.0812373046875,0.06524658203125,-0.794952392578125,0.570343017578125
1775705795431250200,6.091250244140625,0.0826568603515625,-0.810638427734375,0.562652587890625
1775705795441263000,6.10126318359375,0.08856201171875,-0.8181610107421875,0.5534820556640625
1775705795451276300,6.1112763671875,0.09735107421875,-0.8196563720703125,0.5508880615234375
1775705795461289200,6.121289306640625,0.119598388671875,-0.8135223388671875,0.551788330078125
1775705795471302100,6.13130224609375,0.142730712890625,-0.8117523193359375,0.5648345947265625
1775705795481316000,6.141316162109375,0.14471435546875,-0.8032073974609375,0.5763702392578125
1775705795491329300,6.151329345703125,0.1366729736328125,-0.7943115234375,0.587310791015625
1775705795501342200,6.16134228515625,0.1284942626953125,-0.7942962646484375,0.60260009765625
1775705795511355100,6.171355224609375,0.11468505859375,-0.78350830078125,0.6155853271484375
1775705795521368300,6.181368408203125,0.107269287109375,-0.77142333984375,0.6273040771484375
1775705795531381200,6.19138134765625,0.1020050048828125,-0.759063720703125,0.6433258056640625
1775705795541394200,6.201394287109375,0.0883941650390625,-0.745391845703125,0.656219482421875
1775705795551407000,6.211406982421875,0.0858001708984375,-0.73785400390625,0.6751861572265625
1775705795561421000,6.221421142578125,0.0826263427734375,-0.7365875244140625,0.6918487548828125
1775705795571434200,6.231434326171875,0.0843505859375,-0.7486114501953125,0.7094268798828125
1775705795581447200,6.241447265625,0.0821533203125,-0.767578125,0.7116546630859375
1775705795591460400,6.25146044921875,0.0705413818359375,-0.78570556640625,0.68560791015625
1775705795601473000,6.26147314453125,0.0683135986328125,-0.8194580078125,0.6684112548828125
1775705795611486200,6.271486328125,0.06884765625,-0.8638916015625,0.654571533203125
1775705795621499400,6.28149951171875,0.0902557373046875,-0.8937835693359375,0.6304168701171875
1775705795631513000,6.29151318359375,0.1196441650390625,-0.9334259033203125,0.6172943115234375
1775705795641526300,6.3015263671875,0.130950927734375,-0.981475830078125,0.5999298095703125
1775705795651539200,6.311539306640625,0.144073486328125,-1.0121307373046875,0.5893096923828125
1775705795661552000,6.32155224609375,0.13348388671875,-1.0450439453125,0.6044464111328125
1775705795671565300,6.3315654296875,0.10284423828125,-1.088714599609375,0.6276397705078125
1775705795681578200,6.341578125,0.071868896484375,-1.098785400390625,0.6467132568359375
1775705795691591200,6.351591064453125,0.070220947265625,-1.1343994140625,0.70806884765625
1775705795701604000,6.36160400390625,0.0904998779296875,-1.1648101806640625,0.751953125
1775705795711618300,6.371618408203125,0.1336517333984375,-1.162841796875,0.7872467041015625
1775705795721631200,6.38163134765625,0.18243408203125,-1.1374664306640625,0.812652587890625
1775705795731644200,6.39164404296875,0.23291015625,-1.1075897216796875,0.8237762451171875
1775705795741657300,6.4016572265625,0.272674560546875,-1.0689697265625,0.8172607421875
1775705795751670000,6.411669921875,0.2959442138671875,-1.01885986328125,0.7949981689453125
1775705795761683200,6.42168310546875,0.3088531494140625,-0.975433349609375,0.7879486083984375
1775705795771696000,6.431696044921875,0.2786712646484375,-0.9314117431640625,0.7670440673828125
1775705795781710000,6.4417099609375,0.252288818359375,-0.901763916015625,0.7439422607421875
1775705795791723300,6.45172314453125,0.23883056640625,-0.86846923828125,0.7371978759765625
1775705795801736200,6.461736083984375,0.2017669677734375,-0.821807861328125,0.72857666015625
1775705795811749000,6.4717490234375,0.17767333984375,-0.780975341796875,0.73187255859375
1775705795821762000,6.481761962890625,0.1722259521484375,-0.764801025390625,0.7430877685546875
1775705795831775200,6.491775146484375,0.192291259765625,-0.7394256591796875,0.73052978515625
1775705795841788400,6.501788330078125,0.2293853759765625,-0.736541748046875,0.6965789794921875
1775705795851802000,6.511802001953125,0.2624664306640625,-0.7646484375,0.6528778076171875
1775705795861815300,6.521815185546875,0.265167236328125,-0.7749481201171875,0.6077728271484375
1775705795871828000,6.531827880859375,0.2589111328125,-0.77313232421875,0.594696044921875
1775705795881841200,6.541841064453125,0.245330810546875,-0.764190673828125,0.576446533203125
1775705795891854300,6.551854248046875,0.262115478515625,-0.7565765380859375,0.55145263671875
1775705795901867300,6.5618671875,0.292572021484375,-0.7646026611328125,0.5389556884765625
1775705795911880200,6.571880126953125,0.3021392822265625,-0.7543487548828125,0.532806396484375
1775705795921893000,6.58189306640625,0.2870330810546875,-0.7541351318359375,0.5384063720703125
1775705795931907000,6.591906982421875,0.246337890625,-0.768585205078125,0.5358123779296875
1775705795941920300,6.601920166015625,0.2268218994140625,-0.7628631591796875,0.5291748046875
1775705795951932700,6.6119326171875,0.248291015625,-0.772705078125,0.5067596435546875
1775705795961945900,6.62194580078125,0.2574005126953125,-0.7714080810546875,0.4777374267578125
1775705795971958500,6.63195849609375,0.256591796875,-0.7607269287109375,0.4879150390625
1775705795981971700,6.6419716796875,0.2107696533203125,-0.753631591796875,0.511016845703125
1775705795991984600,6.651984619140625,0.1827239990234375,-0.76434326171875,0.526031494140625
1775705796001998600,6.66199853515625,0.184356689453125,-0.762481689453125,0.515838623046875
1775705796012011800,6.67201171875,0.1659393310546875,-0.74774169921875,0.49957275390625
1775705796022024700,6.682024658203125,0.136932373046875,-0.7504425048828125,0.4959716796875
1775705796032037600,6.69203759765625,0.1485443115234375,-0.7484283447265625,0.47479248046875
1775705796042050600,6.702050537109375,0.1858367919921875,-0.73626708984375,0.4436492919921875
1775705796052063700,6.712063720703125,0.21826171875,-0.7457427978515625,0.4324798583984375
1775705796062076700,6.72207666015625,0.22625732421875,-0.7573089599609375,0.4467620849609375
1775705796072089600,6.732089599609375,0.16680908203125,-0.7658233642578125,0.4657440185546875
1775705796082103800,6.742103759765625,0.10009765625,-0.792938232421875,0.505401611328125
1775705796092116500,6.752116455078125,0.084228515625,-0.8143768310546875,0.542755126953125
1775705796102129700,6.762129638671875,0.1156005859375,-0.8127288818359375,0.53564453125
1775705796112142600,6.772142578125,0.2227935791015625,-0.824615478515625,0.476470947265625
1775705796122155800,6.78215576171875,0.3227081298828125,-0.78778076171875,0.3893585205078125
1775705796132168700,6.792168701171875,0.316436767578125,-0.757781982421875,0.294342041015625
1775705796142181600,6.802181640625,0.20965576171875,-0.771820068359375,0.23126220703125
1775705796152195600,6.812195556640625,0.072418212890625,-0.7855987548828125,0.2505340576171875
1775705796162208500,6.82220849609375,-0.0051727294921875,-0.8041229248046875,0.288543701171875
1775705796172221700,6.8322216796875,-0.0123748779296875,-0.8096923828125,0.321533203125
1775705796182235000,6.84223486328125,0.0303497314453125,-0.8009033203125,0.385467529296875
1775705796192247600,6.85224755859375,0.1070709228515625,-0.82061767578125,0.5006256103515625
1775705796202260700,6.8622607421875,0.2356109619140625,-0.8535614013671875,0.5645904541015625
1775705796212273700,6.872273681640625,0.3748626708984375,-0.815887451171875,0.548858642578125
1775705796222287600,6.88228759765625,0.4921112060546875,-0.7743377685546875,0.565399169921875
1775705796232300800,6.89230078125,0.4795074462890625,-0.7310638427734375,0.547149658203125
1775705796242313700,6.902313720703125,0.300537109375,-0.69757080078125,0.525146484375
1775705796252326700,6.91232666015625,0.012908935546875,-0.7499542236328125,0.510406494140625
1775705796262339600,6.922339599609375,-0.2687225341796875,-0.79705810546875,0.5019683837890625
1775705796272352800,6.932352783203125,-0.43536376953125,-0.80078125,0.523193359375
1775705796282365400,6.942365478515625,-0.467864990234375,-0.711334228515625,0.513092041015625
1775705796292379600,6.952379638671875,-0.3589019775390625,-0.69061279296875,0.5364227294921875
1775705796302392800,6.962392822265625,-0.2277374267578125,-0.6884613037109375,0.531097412109375
1775705796312405500,6.972405517578125,-0.006744384765625,-0.663848876953125,0.5454254150390625
1775705796322418700,6.982418701171875,0.1902923583984375,-0.6844940185546875,0.5446319580078125
1775705796332431600,6.992431640625,0.3137359619140625,-0.63775634765625,0.463287353515625
1775705796342444500,7.002444580078125,0.2920379638671875,-0.525634765625,0.3595733642578125
1775705796352457700,7.012457763671875,0.0697021484375,-0.3797607421875,0.2675933837890625
1775705796362470700,7.022470703125,-0.2935028076171875,-0.2603302001953125,0.2068328857421875
1775705796372484600,7.032484619140625,-0.642730712890625,-0.2087249755859375,0.1956787109375
1775705796382497500,7.04249755859375,-0.8701629638671875,-0.179290771484375,0.2022705078125
1775705796392510700,7.0525107421875,-0.9631195068359375,-0.20440673828125,0.2923736572265625
1775705796402523600,7.062523681640625,-0.9094696044921875,-0.415924072265625,0.5619964599609375
1775705796412536600,7.07253662109375,-0.654510498046875,-0.618621826171875,0.7901153564453125
1775705796422549800,7.0825498046875,-0.10015869140625,-0.579986572265625,0.8577117919921875
1775705796432562700,7.092562744140625,0.5336456298828125,-0.5712432861328125,0.84393310546875
1775705796442576600,7.10257666015625,0.8488006591796875,-0.5632476806640625,0.67120361328125
1775705796452589800,7.11258984375,0.8421173095703125,-0.51141357421875,0.5373077392578125
1775705796462602500,7.1226025390625,0.5070343017578125,-0.5318450927734375,0.5830535888671875
1775705796472615700,7.13261572265625,-0.012451171875,-0.561737060546875,0.685516357421875
1775705796482628600,7.142628662109375,-0.4150543212890625,-0.6670379638671875,0.820770263671875
1775705796492641800,7.152641845703125,-0.6105194091796875,-0.7838134765625,0.8420257568359375
1775705796502654500,7.162654541015625,-0.515167236328125,-0.8407440185546875,0.7126617431640625
1775705796512668700,7.172668701171875,-0.1969757080078125,-0.8618011474609375,0.559112548828125
1775705796522681600,7.182681640625,0.16571044921875,-0.873809814453125,0.367828369140625
1775705796532694500,7.192694580078125,0.4344482421875,-0.8770751953125,0.1805419921875
1775705796542707700,7.202707763671875,0.478515625,-0.82647705078125,0.1104888916015625
1775705796552720600,7.212720703125,0.2696380615234375,-0.84515380859375,0.2209014892578125
1775705796562733600,7.222733642578125,-0.0652313232421875,-0.9261627197265625,0.40826416015625
1775705796572746800,7.232746826171875,-0.296905517578125,-0.943603515625,0.54156494140625
1775705796582760400,7.242760498046875,-0.34002685546875,-0.954345703125,0.559814453125
1775705796592773600,7.252773681640625,-0.20037841796875,-0.95159912109375,0.48822021484375
1775705796602786600,7.26278662109375,-0.0141754150390625,-0.9506072998046875,0.4151153564453125
1775705796612799700,7.2727998046875,0.1744384765625,-0.9638824462890625,0.346405029296875
1775705796622812700,7.282812744140625,0.338134765625,-0.9305877685546875,0.27081298828125
1775705796632825600,7.29282568359375,0.367401123046875,-0.8976593017578125,0.25830078125
1775705796642838800,7.3028388671875,0.2475738525390625,-0.9116363525390625,0.3309173583984375
1775705796652852500,7.3128525390625,0.074127197265625,-0.9297637939453125,0.4066619873046875
1775705796662865700,7.32286572265625,-0.0278167724609375,-0.9103851318359375,0.4805450439453125
1775705796672878800,7.33287890625,-0.08697509765625,-0.955047607421875,0.5404510498046875
1775705796682891500,7.3428916015625,-0.0513916015625,-0.969329833984375,0.5217132568359375
1775705796692904700,7.35290478515625,0.110382080078125,-0.9485321044921875,0.4416961669921875
1775705796702917600,7.362917724609375,0.2617034912109375,-0.9367218017578125,0.342071533203125
1775705796712930600,7.3729306640625,0.3222503662109375,-0.92132568359375,0.2741546630859375
1775705796722943500,7.382943603515625,0.2935943603515625,-0.8937530517578125,0.2611083984375
1775705796732957700,7.392957763671875,0.1884918212890625,-0.884185791015625,0.3163604736328125
1775705796742970600,7.402970703125,0.08135986328125,-0.9147796630859375,0.4052581787109375
1775705796752983600,7.412983642578125,0.0331878662109375,-0.912933349609375,0.4669647216796875
1775705796762996700,7.422996826171875,0.0102996826171875,-0.8963470458984375,0.4641876220703125
1775705796773009700,7.433009765625,0.017913818359375,-0.923492431640625,0.4583587646484375
1775705796783022600,7.443022705078125,0.075531005859375,-0.936431884765625,0.4376373291015625
1775705796793035800,7.453035888671875,0.1845703125,-0.9296417236328125,0.4203033447265625
1775705796803049500,7.463049560546875,0.3095550537109375,-0.936859130859375,0.4112548828125
1775705796813062700,7.473062744140625,0.3869476318359375,-0.93170166015625,0.39453125
1775705796823075800,7.483075927734375,0.38677978515625,-0.9426116943359375,0.4089202880859375
1775705796833088500,7.493088623046875,0.3284759521484375,-0.9517059326171875,0.426177978515625
1775705796843101700,7.503101806640625,0.2604827880859375,-0.93084716796875,0.446258544921875
1775705796853114600,7.513114501953125,0.1539459228515625,-0.9088592529296875,0.455902099609375
1775705796863127800,7.5231279296875,0.08441162109375,-0.903167724609375,0.46160888671875
1775705796873141800,7.533141845703125,0.07574462890625,-0.8994293212890625,0.4567718505859375
1775705796883154700,7.54315478515625,0.1295013427734375,-0.8896026611328125,0.44793701171875
1775705796893167600,7.553167724609375,0.21551513671875,-0.9117279052734375,0.4481201171875
1775705796903180500,7.5631806640625,0.29925537109375,-0.9446563720703125,0.432830810546875
1775705796913193700,7.57319384765625,0.36260986328125,-0.9577178955078125,0.4206085205078125
1775705796923206700,7.58320654296875,0.3853302001953125,-0.964385986328125,0.427001953125
1775705796933219600,7.593219482421875,0.376251220703125,-0.9499664306640625,0.461090087890625
1775705796943233800,7.60323388671875,0.33404541015625,-0.9171295166015625,0.5069732666015625
1775705796953247200,7.613247314453125,0.2449951171875,-0.8791046142578125,0.5615081787109375
1775705796963260400,7.623260498046875,0.1343994140625,-0.853240966796875,0.6120452880859375
1775705796973273600,7.633273681640625,0.0446319580078125,-0.8364410400390625,0.624603271484375
1775705796983286300,7.643286376953125,0.0083465576171875,-0.8358917236328125,0.59906005859375
1775705796993299500,7.653299560546875,-0.0255889892578125,-0.853607177734375,0.574676513671875
1775705797003312400,7.6633125,-0.0311737060546875,-0.8582611083984375,0.5496368408203125
1775705797013326300,7.673326416015625,-0.0051116943359375,-0.8562774658203125,0.52301025390625
1775705797023339500,7.683339599609375,0.04632568359375,-0.866668701171875,0.49749755859375
1775705797033352400,7.6933525390625,0.0876922607421875,-0.8566131591796875,0.468353271484375
1775705797043365400,7.703365478515625,0.10797119140625,-0.84588623046875,0.4525909423828125
1775705797053378300,7.71337841796875,0.095977783203125,-0.8471527099609375,0.459686279296875
1775705797063391500,7.7233916015625,0.0471038818359375,-0.8548126220703125,0.4682769775390625
1775705797073404400,7.733404296875,-0.0005950927734375,-0.853607177734375,0.458465576171875
1775705797083418400,7.74341845703125,-0.030181884765625,-0.8489837646484375,0.430938720703125
1775705797093431600,7.753431640625,-0.0391845703125,-0.8537139892578125,0.397705078125
1775705797103444200,7.7634443359375,-0.036041259765625,-0.8654327392578125,0.38067626953125
1775705797113457400,7.77345751953125,-0.0372161865234375,-0.881500244140625,0.3700408935546875
1775705797123470300,7.78347021484375,-0.032958984375,-0.89990234375,0.3619232177734375
1775705797133483500,7.7934833984375,-0.0091552734375,-0.9055938720703125,0.3751983642578125
1775705797143496400,7.803496337890625,0.023223876953125,-0.894195556640625,0.3964080810546875
1775705797153510400,7.813510498046875,0.0302734375,-0.8995361328125,0.434356689453125
1775705797163523300,7.8235234375,0.008270263671875,-0.90228271484375,0.4703521728515625
1775705797173536300,7.833536376953125,-0.009765625,-0.897674560546875,0.4898681640625
1775705797183549400,7.843549560546875,-0.012481689453125,-0.9056549072265625,0.5018310546875
1775705797193562600,7.853562744140625,0.00531005859375,-0.90057373046875,0.5040130615234375
1775705797203575300,7.8635751953125,0.0407562255859375,-0.8947601318359375,0.506072998046875
1775705797213588500,7.87358837890625,0.0413665771484375,-0.9069366455078125,0.526214599609375
1775705797223602200,7.883602294921875,0.0444793701171875,-0.902130126953125,0.52581787109375
1775705797233615400,7.893615478515625,0.0565185546875,-0.8835296630859375,0.50555419921875
1775705797243628500,7.903628662109375,0.054779052734375,-0.8751983642578125,0.4916839599609375
1775705797253641500,7.913641357421875,0.0372467041015625,-0.85467529296875,0.4867401123046875
1775705797263654400,7.923654296875,-0.00048828125,-0.8404693603515625,0.4898223876953125
1775705797273667300,7.933667236328125,-0.03973388671875,-0.8267059326171875,0.4880218505859375
1775705797283680500,7.943680419921875,-0.0511474609375,-0.820953369140625,0.509429931640625
1775705797293694500,7.953694580078125,-0.0640869140625,-0.81353759765625,0.5398406982421875
1775705797303707400,7.963707275390625,-0.0804290771484375,-0.788482666015625,0.5511016845703125
1775705797313720600,7.973720458984375,-0.076934814453125,-0.77130126953125,0.5527496337890625
1775705797323733200,7.983733154296875,-0.045989990234375,-0.749237060546875,0.5377197265625
1775705797333746400,7.993746337890625,0.00213623046875,-0.725494384765625,0.504150390625
1775705797343759400,8.00375927734375,0.0297393798828125,-0.70068359375,0.4777679443359375
1775705797353772300,8.013772216796875,0.0325164794921875,-0.6804351806640625,0.4728240966796875
1775705797363786500,8.023786376953124,0.039276123046875,-0.6658172607421875,0.46673583984375
1775705797373799400,8.03379931640625,0.0602569580078125,-0.693572998046875,0.490875244140625
1775705797383812400,8.043812255859375,0.063751220703125,-0.716278076171875,0.5168609619140625
1775705797393825300,8.0538251953125,0.0419464111328125,-0.706695556640625,0.53076171875
1775705797403838500,8.06383837890625,0.0293121337890625,-0.7553558349609375,0.5714111328125
1775705797413851400,8.073851318359376,0.02301025390625,-0.7939605712890625,0.5704803466796875
1775705797423864300,8.0838642578125,0.044403076171875,-0.806854248046875,0.539886474609375
1775705797433878500,8.09387841796875,0.061492919921875,-0.854156494140625,0.50555419921875
1775705797443891200,8.10389111328125,0.09405517578125,-0.897735595703125,0.4705810546875
1775705797453904400,8.113904296875,0.13409423828125,-0.931121826171875,0.4490203857421875
1775705797463917600,8.12391748046875,0.136566162109375,-0.980865478515625,0.4653167724609375
1775705797473930200,8.13393017578125,0.1110687255859375,-1.0264739990234375,0.5005035400390625
1775705797483943400,8.143943359375,0.0838623046875,-1.0634002685546875,0.54107666015625
1775705797493956400,8.153956298828126,0.0525665283203125,-1.0800323486328125,0.580108642578125
1775705797503970300,8.16397021484375,0.052947998046875,-1.1028594970703125,0.5900421142578125
1775705797513983500,8.1739833984375,0.07281494140625,-1.12939453125,0.588165283203125
1775705797523996400,8.183996337890624,0.1023712158203125,-1.129913330078125,0.5865020751953125
1775705797534009300,8.19400927734375,0.1227874755859375,-1.1235198974609375,0.5875396728515625
1775705797544022300,8.204022216796876,0.15478515625,-1.1199798583984375,0.5735321044921875
1775705797554035500,8.214035400390625,0.2088470458984375,-1.1082000732421875,0.5410308837890625
1775705797564048400,8.22404833984375,0.2244873046875,-1.0938873291015625,0.518463134765625
1775705797574062300,8.234062255859374,0.234039306640625,-1.078582763671875,0.5095977783203125
1775705797584075500,8.244075439453125,0.237030029296875,-1.0522003173828125,0.5034332275390625
1775705797594088200,8.254088134765626,0.187835693359375,-1.0303955078125,0.50494384765625
1775705797604101400,8.264101318359375,0.127838134765625,-1.0093994140625,0.515380859375
1775705797614114300,8.2741142578125,0.0733489990234375,-0.976531982421875,0.52496337890625
1775705797624127500,8.28412744140625,0.0408477783203125,-0.94775390625,0.5253753662109375
1775705797634140400,8.294140380859375,0.033599853515625,-0.919097900390625,0.513519287109375
1775705797644154400,8.304154296875,0.0413055419921875,-0.8993988037109375,0.4897918701171875
1775705797654167300,8.314167236328124,0.0479736328125,-0.885772705078125,0.4636077880859375
1775705797664180500,8.324180419921875,0.0511322021484375,-0.8725433349609375,0.4457550048828125
1775705797674193400,8.334193359375,0.0694427490234375,-0.8655853271484375,0.4374542236328125
1775705797684206600,8.34420654296875,0.0910797119140625,-0.8626251220703125,0.4284515380859375
1775705797694219300,8.35421923828125,0.0914306640625,-0.857757568359375,0.4288330078125
1775705797704232400,8.364232421875,0.0738983154296875,-0.8538360595703125,0.4319610595703125
1775705797714246400,8.374246337890625,0.06378173828125,-0.853759765625,0.4354400634765625
1775705797724259300,8.38425927734375,0.046539306640625,-0.8472137451171875,0.4507598876953125
1775705797734272500,8.3942724609375,0.0204315185546875,-0.84716796875,0.462860107421875
1775705797744285400,8.404285400390625,0.02398681640625,-0.8443756103515625,0.45721435546875
1775705797754298400,8.41429833984375,0.018707275390625,-0.8390655517578125,0.4434051513671875
1775705797764311300,8.424311279296875,0.0027313232421875,-0.848602294921875,0.43927001953125
1775705797774324500,8.434324462890626,-0.004638671875,-0.8508758544921875,0.4319305419921875
1775705797784338400,8.44433837890625,-0.0021820068359375,-0.85430908203125,0.4316558837890625
1775705797794351400,8.454351318359375,-0.0008697509765625,-0.8546142578125,0.434234619140625
1775705797804364500,8.464364501953124,0.0061492919921875,-0.8563385009765625,0.4500579833984375
1775705797814377200,8.474377197265625,0.0298614501953125,-0.865997314453125,0.468231201171875
1775705797824390400,8.484390380859375,0.0338897705078125,-0.8640594482421875,0.4741058349609375
1775705797834403600,8.494403564453124,0.01312255859375,-0.8635406494140625,0.49468994140625
1775705797844416300,8.504416259765625,0.0025177001953125,-0.865570068359375,0.5144195556640625
1775705797854430500,8.514430419921876,0.0045318603515625,-0.8644866943359375,0.50885009765625
1775705797864443400,8.524443359375,0.0042877197265625,-0.86279296875,0.49591064453125
1775705797874456300,8.534456298828125,0.0056304931640625,-0.8631591796875,0.4826202392578125
1775705797884469500,8.544469482421874,0.015625,-0.87603759765625,0.463287353515625
1775705797894482400,8.554482421875,0.039886474609375,-0.8880767822265625,0.434417724609375
1775705797904495400,8.564495361328126,0.0528106689453125,-0.8940277099609375,0.4163818359375
1775705797914508300,8.57450830078125,0.055450439453125,-0.9002838134765625,0.4137420654296875
1775705797924522500,8.5845224609375,0.04583740234375,-0.9078521728515625,0.4245147705078125
1775705797934535400,8.594535400390624,0.03759765625,-0.9131011962890625,0.44140625
1775705797944548400,8.60454833984375,0.037139892578125,-0.91436767578125,0.44476318359375
1775705797954561300,8.614561279296876,0.051788330078125,-0.91058349609375,0.43048095703125
1775705797964574500,8.624574462890624,0.0522003173828125,-0.9034576416015625,0.41802978515625
1775705797974587100,8.634587158203125,0.0638275146484375,-0.90106201171875,0.415191650390625
1775705797984600300,8.644600341796876,0.07391357421875,-0.889556884765625,0.40362548828125
1775705797994614300,8.6546142578125,0.08404541015625,-0.8845672607421875,0.4131317138671875
1775705798004627200,8.664627197265625,0.10498046875,-0.885711669921875,0.413543701171875
1775705798014640400,8.674640380859374,0.1101226806640625,-0.880401611328125,0.4148101806640625
1775705798024653300,8.6846533203125,0.0971221923828125,-0.8789825439453125,0.4404296875
1775705798034666200,8.694666259765626,0.0700531005859375,-0.877685546875,0.469970703125
1775705798044679200,8.70467919921875,0.045318603515625,-0.8758087158203125,0.50457763671875
1775705798054692400,8.7146923828125,0.0321044921875,-0.8714447021484375,0.5363006591796875
1775705798064706300,8.724706298828124,0.0277862548828125,-0.876373291015625,0.552001953125
1775705798074719200,8.73471923828125,0.04840087890625,-0.88214111328125,0.54156494140625
1775705798084732400,8.744732421875,0.0561065673828125,-0.8856353759765625,0.52655029296875
1775705798094745000,8.7547451171875,0.0506439208984375,-0.9043121337890625,0.5337371826171875
1775705798104758300,8.76475830078125,0.03558349609375,-0.9210662841796875,0.5384063720703125
1775705798114771500,8.774771484375,0.01629638671875,-0.9441680908203125,0.5424346923828125
1775705798124785200,8.78478515625,0.0137786865234375,-0.962127685546875,0.5461883544921875
1775705798134798300,8.79479833984375,0.0096435546875,-0.966766357421875,0.551300048828125
1775705798144811300,8.804811279296874,0.0016021728515625,-0.9706268310546875,0.559234619140625
1775705798154824200,8.81482421875,-0.000335693359375,-0.9744110107421875,0.5680389404296875
1775705798164837400,8.82483740234375,-0.0034332275390625,-0.98455810546875,0.5857391357421875
1775705798174850300,8.834850341796875,-0.0023651123046875,-1.000213623046875,0.5973052978515625
1775705798184863200,8.84486328125,0.017608642578125,-1.0086212158203125,0.596282958984375
1775705798194877400,8.85487744140625,0.04901123046875,-1.00732421875,0.58892822265625
1775705798204890400,8.864890380859375,0.0912322998046875,-1.0047454833984375,0.5858154296875
1775705798214903300,8.8749033203125,0.1132049560546875,-0.9945068359375,0.574249267578125
1775705798224916200,8.884916259765625,0.129241943359375,-0.9810791015625,0.576568603515625
1775705798234929400,8.894929443359375,0.15093994140625,-0.967498779296875,0.5836639404296875
1775705798244942000,8.904942138671874,0.1688385009765625,-0.9422760009765625,0.576507568359375
1775705798254955300,8.914955322265625,0.183502197265625,-0.9152679443359375,0.57177734375
1775705798264969500,8.924969482421876,0.1659088134765625,-0.893310546875,0.5926666259765625
1775705798274982100,8.934982177734375,0.126373291015625,-0.87841796875,0.6302032470703125
1775705798284995300,8.944995361328125,0.085205078125,-0.870147705078125,0.667236328125
1775705798295008300,8.95500830078125,0.0624847412109375,-0.8680572509765625,0.6782989501953125
1775705798305021200,8.965021240234375,0.07159423828125,-0.862701416015625,0.6570892333984375
1775705798315034400,8.975034423828125,0.0912628173828125,-0.8656005859375,0.617401123046875
1775705798325047300,8.98504736328125,0.11907958984375,-0.87939453125,0.5685882568359375
1775705798335061200,8.995061279296875,0.1470794677734375,-0.89227294921875,0.521575927734375
1775705798345074200,9.00507421875,0.156524658203125,-0.901214599609375,0.4902496337890625
1775705798355087400,9.01508740234375,0.156280517578125,-0.9090576171875,0.4559326171875
1775705798365100300,9.025100341796875,0.1543121337890625,-0.9095916748046875,0.4267425537109375
1775705798375113200,9.03511328125,0.1353302001953125,-0.9254913330078125,0.407745361328125
1775705798385126400,9.04512646484375,0.1255035400390625,-0.93914794921875,0.38262939453125
1775705798395139300,9.055139404296876,0.1211700439453125,-0.94659423828125,0.3718719482421875
1775705798405153300,9.0651533203125,0.108795166015625,-0.9665985107421875,0.3757781982421875
1775705798415166500,9.07516650390625,0.1191558837890625,-0.9816131591796875,0.3746490478515625
1775705798425179100,9.08517919921875,0.13726806640625,-0.9798431396484375,0.3629302978515625
1775705798435192300,9.0951923828125,0.16064453125,-0.9716949462890625,0.3427581787109375
1775705798445205200,9.105205322265626,0.168212890625,-0.97259521484375,0.3399810791015625
1775705798455218400,9.115218505859374,0.1695556640625,-0.9748687744140625,0.357452392578125
1775705798465231000,9.125231201171875,0.185333251953125,-0.977142333984375,0.376800537109375
1775705798475245300,9.135245361328124,0.2042999267578125,-0.9808502197265625,0.3971099853515625
1775705798485258200,9.14525830078125,0.205230712890625,-0.984375,0.4221649169921875
1775705798495271200,9.155271240234375,0.1951446533203125,-0.983917236328125,0.4478912353515625
1775705798505284400,9.165284423828124,0.1836090087890625,-0.98590087890625,0.465576171875
1775705798515297300,9.17529736328125,0.18145751953125,-0.9993133544921875,0.478271484375
1775705798525310200,9.185310302734376,0.19970703125,-0.9922943115234375,0.46661376953125
1775705798535323400,9.195323486328125,0.233642578125,-0.9805755615234375,0.44561767578125
1775705798545337000,9.205337158203125,0.233306884765625,-0.9627227783203125,0.4319610595703125
1775705798555350300,9.215350341796874,0.21258544921875,-0.951080322265625,0.4349365234375
1775705798565363200,9.22536328125,0.18572998046875,-0.9427337646484375,0.4562530517578125
1775705798575376400,9.23537646484375,0.175506591796875,-0.9399566650390625,0.466644287109375
1775705798585389300,9.245389404296875,0.174346923828125,-0.9300994873046875,0.4623565673828125
1775705798595402200,9.25540234375,0.1771087646484375,-0.9136199951171875,0.4497833251953125
1775705798605415400,9.26541552734375,0.1867828369140625,-0.9068603515625,0.437347412109375
1775705798615429000,9.27542919921875,0.19580078125,-0.901702880859375,0.4475555419921875
1775705798625442300,9.2854423828125,0.20379638671875,-0.8955535888671875,0.4609832763671875
1775705798635455500,9.29545556640625,0.2104034423828125,-0.890472412109375,0.46832275390625
1775705798645468200,9.30546826171875,0.2056884765625,-0.8831024169921875,0.477874755859375
1775705798655481300,9.3154814453125,0.21044921875,-0.8755340576171875,0.4790191650390625
1775705798665494300,9.325494384765625,0.2164764404296875,-0.8649749755859375,0.4796600341796875
1775705798675507200,9.335507080078125,0.199920654296875,-0.8495635986328125,0.482757568359375
1775705798685521400,9.345521484375,0.1924285888671875,-0.8497314453125,0.4961090087890625
1775705798695534300,9.355534423828125,0.185394287109375,-0.8455047607421875,0.495574951171875
1775705798705547300,9.36554736328125,0.178802490234375,-0.8287506103515625,0.4886016845703125
1775705798715560200,9.375560302734375,0.1839752197265625,-0.8184967041015625,0.474884033203125
1775705798725573400,9.385573486328125,0.2086181640625,-0.814971923828125,0.4506378173828125
1775705798735586000,9.3955859375,0.2314300537109375,-0.8014068603515625,0.4159393310546875
1775705798745599200,9.40559912109375,0.2417449951171875,-0.796478271484375,0.3920745849609375
1775705798755613400,9.415613525390626,0.2414093017578125,-0.795440673828125,0.3880157470703125
1775705798765626000,9.425626220703125,0.2258758544921875,-0.793243408203125,0.4096527099609375
1775705798775639300,9.435639404296875,0.1979827880859375,-0.79803466796875,0.4381866455078125
1775705798785652200,9.44565234375,0.1598968505859375,-0.7919464111328125,0.4493865966796875
1775705798795665200,9.4556650390625,0.1324615478515625,-0.7870941162109375,0.4684295654296875
1775705798805678300,9.46567822265625,0.11083984375,-0.789825439453125,0.4748992919921875
1775705798815691300,9.475691162109374,0.1096954345703125,-0.79644775390625,0.476715087890625
1775705798825705200,9.485705322265625,0.1448974609375,-0.796417236328125,0.463714599609375
1775705798835718400,9.495718505859376,0.173492431640625,-0.7942962646484375,0.4345855712890625
1775705798845731300,9.5057314453125,0.190948486328125,-0.7973175048828125,0.400421142578125
1775705798855744300,9.515744140625,0.2042236328125,-0.798675537109375,0.3783721923828125
1775705798865757200,9.525757080078124,0.2049407958984375,-0.814117431640625,0.380035400390625
1775705798875770400,9.535770263671875,0.195709228515625,-0.8240966796875,0.38909912109375
1775705798885783300,9.545783203125,0.182464599609375,-0.8354339599609375,0.4148712158203125
1775705798895797200,9.55579736328125,0.1746063232421875,-0.8337554931640625,0.4400634765625
1775705798905810400,9.565810546875,0.1706085205078125,-0.829010009765625,0.456146240234375
1775705798915823000,9.575822998046876,0.176483154296875,-0.828369140625,0.472747802734375
1775705798925836300,9.585836181640625,0.1728973388671875,-0.813140869140625,0.4768829345703125
1775705798935849200,9.59584912109375,0.1687164306640625,-0.804901123046875,0.4938201904296875
1775705798945862400,9.6058623046875,0.1726226806640625,-0.807037353515625,0.4977569580078125
1775705798955874800,9.615874755859375,0.198974609375,-0.8033599853515625,0.486297607421875
1775705798965889000,9.625888916015626,0.20440673828125,-0.7897796630859375,0.465087890625
1775705798975902000,9.63590185546875,0.191986083984375,-0.7856292724609375,0.4714202880859375
1775705798985915000,9.645914794921875,0.18603515625,-0.781341552734375,0.4868621826171875
1775705798995927800,9.655927734375,0.1866607666015625,-0.7704620361328125,0.499755859375
1775705799005941000,9.66594091796875,0.18341064453125,-0.765625,0.5148468017578125
1775705799015954000,9.675953857421876,0.168487548828125,-0.769317626953125,0.5183258056640625
1775705799025966800,9.685966796875,0.1686553955078125,-0.763519287109375,0.51806640625
1775705799035981000,9.69598095703125,0.1791229248046875,-0.75018310546875,0.5157928466796875
1775705799045993700,9.70599365234375,0.1668548583984375,-0.726470947265625,0.4990692138671875
1775705799056007000,9.7160068359375,0.1571502685546875,-0.7129058837890625,0.494720458984375
1775705799066020000,9.72602001953125,0.1492156982421875,-0.695526123046875,0.4785308837890625
1775705799076032800,9.73603271484375,0.146575927734375,-0.6691436767578125,0.436065673828125
1775705799086046000,9.7460458984375,0.1401519775390625,-0.6457366943359375,0.3975982666015625
1775705799096060000,9.756059814453126,0.1221466064453125,-0.6263580322265625,0.35577392578125
1775705799106072800,9.76607275390625,0.0913848876953125,-0.6027679443359375,0.317718505859375
1775705799116086000,9.7760859375,0.063568115234375,-0.5740509033203125,0.2879791259765625
1775705799126099000,9.786098876953124,0.045989990234375,-0.54071044921875,0.2436065673828125
1775705799136111900,9.79611181640625,0.0365753173828125,-0.5191192626953125,0.197509765625
1775705799146124800,9.806124755859376,0.02203369140625,-0.513275146484375,0.16680908203125
1775705799156138000,9.816137939453125,0.0041351318359375,-0.529693603515625,0.156494140625
1775705799166151000,9.82615087890625,-0.0309600830078125,-0.5562286376953125,0.1494140625
1775705799176164900,9.836164794921874,-0.058258056640625,-0.5641021728515625,0.13092041015625
1775705799186178000,9.846177978515625,-0.0340728759765625,-0.5596466064453125,0.1076507568359375
1775705799196190700,9.856190673828126,0.0245361328125,-0.5536346435546875,0.0749359130859375
1775705799206204000,9.866203857421874,0.06243896484375,-0.563140869140625,0.0747222900390625
1775705799216216800,9.876216796875,0.0599517822265625,-0.5908966064453125,0.103271484375
1775705799226230000,9.88622998046875,0.04498291015625,-0.6224212646484375,0.16314697265625
1775705799236243000,9.896242919921875,0.0140228271484375,-0.6652984619140625,0.26104736328125
1775705799246257000,9.9062568359375,-0.0074615478515625,-0.704742431640625,0.334197998046875
1775705799256269800,9.916269775390624,0.0030975341796875,-0.719024658203125,0.3787994384765625
1775705799266282800,9.92628271484375,0.0235748291015625,-0.7274169921875,0.4205780029296875
1775705799276296000,9.9362958984375,0.0700531005859375,-0.725128173828125,0.41912841796875
1775705799286309000,9.94630908203125,0.161376953125,-0.732177734375,0.4015655517578125
1775705799296321800,9.95632177734375,0.2495574951171875,-0.7765045166015625,0.4186248779296875
1775705799306336000,9.9663359375,0.2899932861328125,-0.844818115234375,0.46490478515625
1775705799316348700,9.9763486328125,0.3053436279296875,-0.8930816650390625,0.5090484619140625
1775705799326361900,9.98636181640625,0.3097076416015625,-0.8916473388671875,0.5455780029296875
1775705799336375000,9.996375,0.30560302734375,-0.8813934326171875,0.5876007080078125
1775705799346388000,10.006387939453125,0.2901153564453125,-0.86749267578125,0.6220245361328125
1775705799356401000,10.01640087890625,0.2865142822265625,-0.8509521484375,0.63739013671875
1775705799366413800,10.026413818359375,0.3125,-0.8466949462890625,0.6535491943359375
1775705799376427800,10.036427734375,0.327545166015625,-0.847259521484375,0.6479339599609375
1775705799386441000,10.04644091796875,0.345245361328125,-0.867156982421875,0.6253509521484375
1775705799396454000,10.056453857421875,0.344818115234375,-0.8992156982421875,0.5961456298828125
1775705799406467000,10.066467041015626,0.3321380615234375,-0.897186279296875,0.5563507080078125
1775705799416479700,10.076479736328125,0.3325347900390625,-0.879852294921875,0.530853271484375
1775705799426493000,10.086492919921875,0.3059844970703125,-0.8684844970703125,0.5115509033203125
1775705799436505900,10.096505859375,0.2613525390625,-0.8800201416015625,0.5083160400390625
1775705799446519800,10.106519775390625,0.2230987548828125,-0.897064208984375,0.519256591796875
1775705799456533000,10.116532958984376,0.187286376953125,-0.9040069580078125,0.5318145751953125
1775705799466546000,10.1265458984375,0.21685791015625,-0.916595458984375,0.546417236328125
1775705799476558800,10.136558837890625,0.2677459716796875,-0.8961334228515625,0.545684814453125
1775705799486571800,10.14657177734375,0.3018951416015625,-0.904571533203125,0.5754852294921875
1775705799496585000,10.1565849609375,0.31866455078125,-0.9244232177734375,0.582855224609375
1775705799506598000,10.166597900390625,0.33648681640625,-0.9078521728515625,0.5576934814453125
1775705799516611800,10.17661181640625,0.340423583984375,-0.9178619384765625,0.542083740234375
1775705799526625000,10.186625,0.315887451171875,-0.9154052734375,0.5229949951171875
1775705799536638000,10.196637939453124,0.2861785888671875,-0.8929443359375,0.5270233154296875
1775705799546651000,10.20665087890625,0.2308502197265625,-0.875030517578125,0.551910400390625
1775705799556664000,10.2166640625,0.1630859375,-0.8780059814453125,0.5806732177734375
1775705799566676700,10.2266767578125,0.1310577392578125,-0.9057464599609375,0.6108245849609375
1775705799576690000,10.23668994140625,0.1165618896484375,-0.9025421142578125,0.5859527587890625
1775705799586704100,10.2467041015625,0.139251708984375,-0.897613525390625,0.54852294921875
1775705799596716800,10.256716796875,0.17889404296875,-0.9057159423828125,0.5155181884765625
1775705799606730000,10.26672998046875,0.2099761962890625,-0.90472412109375,0.5084381103515625
1775705799616743000,10.276742919921874,0.2313690185546875,-0.9111480712890625,0.517822265625
1775705799626755800,10.286755859375,0.238616943359375,-0.9012908935546875,0.5074005126953125
1775705799636768800,10.296768798828126,0.236968994140625,-0.8956298828125,0.50555419921875
1775705799646782000,10.306781982421874,0.23748779296875,-0.895477294921875,0.5027008056640625
1775705799656795000,10.316794921875,0.2219390869140625,-0.8841705322265625,0.5026397705078125
1775705799666808800,10.326808837890624,0.1953277587890625,-0.9094085693359375,0.53277587890625
1775705799676822000,10.336822021484375,0.177398681640625,-0.93768310546875,0.530853271484375
1775705799686834700,10.346834716796875,0.1784515380859375,-0.9248199462890625,0.513031005859375
1775705799696848000,10.356847900390624,0.1866912841796875,-0.919769287109375,0.5092620849609375
1775705799706861000,10.366861083984375,0.211395263671875,-0.9198455810546875,0.502685546875
1775705799716874000,10.3768740234375,0.2404022216796875,-0.903167724609375,0.4849853515625
1775705799726887000,10.386886962890625,0.26446533203125,-0.885223388671875,0.4771575927734375
1775705799736900900,10.39690087890625,0.28314208984375,-0.867889404296875,0.48968505859375
1775705799746913800,10.406913818359374,0.2662200927734375,-0.8521881103515625,0.51031494140625
1775705799756927000,10.416927001953125,0.2325897216796875,-0.8493499755859375,0.5468597412109375
1775705799766940000,10.42693994140625,0.186859130859375,-0.859954833984375,0.57000732421875
1775705799776953000,10.436953125,0.172943115234375,-0.8465118408203125,0.559906005859375
1775705799786965800,10.4469658203125,0.17828369140625,-0.8357086181640625,0.5460968017578125
1775705799796979000,10.45697900390625,0.17913818359375,-0.8367462158203125,0.536224365234375
1775705799806993000,10.466992919921875,0.19158935546875,-0.8231658935546875,0.5211181640625
1775705799817005800,10.477005859375,0.19842529296875,-0.80902099609375,0.51116943359375
1775705799827019000,10.48701904296875,0.21209716796875,-0.810577392578125,0.51953125
1775705799837032000,10.497031982421875,0.1886444091796875,-0.8022003173828125,0.523956298828125
1775705799847044900,10.507044921875,0.154022216796875,-0.7960968017578125,0.53936767578125
1775705799857057800,10.517057861328125,0.12005615234375,-0.7972259521484375,0.536285400390625
1775705799867071000,10.527071044921875,0.089111328125,-0.789825439453125,0.531341552734375
1775705799877085000,10.5370849609375,0.072601318359375,-0.787384033203125,0.5244293212890625
1775705799887097900,10.547097900390625,0.0628662109375,-0.7910308837890625,0.5175018310546875
1775705799897111000,10.557111083984376,0.0670166015625,-0.7882537841796875,0.5088653564453125
1775705799907123700,10.567123779296875,0.06842041015625,-0.79620361328125,0.514739990234375
1775705799917137000,10.577136962890625,0.0664215087890625,-0.803497314453125,0.523193359375
1775705799927150000,10.587150146484374,0.07281494140625,-0.8075408935546875,0.5145721435546875
1775705799937162800,10.597162841796875,0.0919647216796875,-0.81561279296875,0.48583984375
1775705799947177000,10.607177001953126,0.1077728271484375,-0.8152008056640625,0.460235595703125
1775705799957190000,10.61718994140625,0.115631103515625,-0.8180694580078125,0.4599151611328125
1775705799967202800,10.627202880859375,0.1198272705078125,-0.8177032470703125,0.4671783447265625
1775705799977215700,10.6372158203125,0.111358642578125,-0.820343017578125,0.4815216064453125
1775705799987229000,10.64722900390625,0.1165924072265625,-0.820831298828125,0.494110107421875
1775705799997241900,10.657241943359375,0.1259002685546875,-0.801177978515625,0.4827117919921875
1775705800007254800,10.6672548828125,0.137542724609375,-0.7823028564453125,0.4750823974609375
1775705800017269000,10.67726904296875,0.139068603515625,-0.7752532958984375,0.487396240234375
1775705800027281700,10.68728173828125,0.1351165771484375,-0.7648773193359375,0.50408935546875
1775705800037294800,10.697294921875,0.163787841796875,-0.7442779541015625,0.50018310546875
1775705800047307800,10.707307861328125,0.198455810546875,-0.7328643798828125,0.4899749755859375
1775705800057321000,10.717321044921874,0.2281646728515625,-0.730743408203125,0.4841766357421875
1775705800067334000,10.727333984375,0.243743896484375,-0.7223968505859375,0.4839019775390625
1775705800077346800,10.737346923828126,0.2438201904296875,-0.7001190185546875,0.4898223876953125
1775705800087360800,10.74736083984375,0.2404327392578125,-0.6856231689453125,0.5089874267578125
1775705800097373700,10.757373779296875,0.2342071533203125,-0.6872711181640625,0.54815673828125
1775705800107387000,10.767386962890624,0.221343994140625,-0.6895599365234375,0.5863494873046875
1775705800117399800,10.77739990234375,0.1951141357421875,-0.7220001220703125,0.633026123046875
1775705800127412700,10.787412841796876,0.14959716796875,-0.7382659912109375,0.667022705078125
1775705800137426000,10.797426025390624,0.1098480224609375,-0.79205322265625,0.7202911376953125
1775705800147438800,10.80743896484375,0.0771331787109375,-0.854156494140625,0.75140380859375
1775705800157452800,10.817452880859374,0.0815887451171875,-0.89556884765625,0.7657470703125
1775705800167466000,10.827466064453125,0.085601806640625,-0.94195556640625,0.77288818359375
1775705800177479000,10.83747900390625,0.1100311279296875,-0.9874420166015625,0.762420654296875
1775705800187491800,10.847491943359374,0.1465911865234375,-1.016998291015625,0.758331298828125
1775705800197504800,10.8575048828125,0.1710662841796875,-1.038482666015625,0.760101318359375
1775705800207518000,10.86751806640625,0.21148681640625,-1.0541229248046875,0.7556915283203125
1775705800217530600,10.877530517578125,0.2545928955078125,-1.0645751953125,0.7460479736328125
1775705800227544800,10.887544921875,0.29876708984375,-1.07171630859375,0.7283935546875
1775705800237558000,10.89755810546875,0.33917236328125,-1.06524658203125,0.7039337158203125
1775705800247570700,10.90757080078125,0.36273193359375,-1.04205322265625,0.6847381591796875
1775705800257583900,10.917583984375,0.3822174072265625,-1.0147247314453125,0.66680908203125
1775705800267596800,10.9275966796875,0.3929595947265625,-0.9868316650390625,0.6483001708984375
1775705800277609700,10.937609619140625,0.383056640625,-0.961639404296875,0.6331939697265625
1775705800287623000,10.947622802734376,0.364349365234375,-0.9315185546875,0.619110107421875
1775705800297635800,10.9576357421875,0.3379364013671875,-0.8946533203125,0.602142333984375
1775705800307649800,10.96764990234375,0.3127899169921875,-0.8576812744140625,0.588165283203125
1775705800317662700,10.977662841796874,0.296112060546875,-0.83026123046875,0.567535400390625
1775705800327676000,10.987676025390625,0.2730255126953125,-0.8004608154296875,0.53533935546875
1775705800337688800,10.997688720703126,0.2556304931640625,-0.778167724609375,0.510284423828125
1775705800347701800,11.00770166015625,0.2444000244140625,-0.76068115234375,0.486572265625
1775705800357715000,11.01771484375,0.220794677734375,-0.7408905029296875,0.4680023193359375
1775705800367727900,11.027727783203124,0.218475341796875,-0.7421112060546875,0.473419189453125
1775705800377741800,11.037741943359375,0.21044921875,-0.7453765869140625,0.46875
1775705800387755000,11.047755126953126,0.1861724853515625,-0.7381591796875,0.4625091552734375
1775705800397767700,11.057767578125,0.1814117431640625,-0.7445068359375,0.45965576171875
1775705800407780900,11.06778076171875,0.18450927734375,-0.7462005615234375,0.449310302734375
1775705800417793800,11.077793701171874,0.1599884033203125,-0.74603271484375,0.4489898681640625
1775705800427807000,11.087806884765625,0.12921142578125,-0.758544921875,0.461578369140625
1775705800437819600,11.097819580078125,0.1103363037109375,-0.7736663818359375,0.46826171875
1775705800447833900,11.107833740234375,0.1231689453125,-0.78564453125,0.460784912109375
1775705800457846800,11.1178466796875,0.1234893798828125,-0.79681396484375,0.4471435546875
1775705800467859700,11.127859619140626,0.1143341064453125,-0.8106842041015625,0.4460601806640625
1775705800477873000,11.137872802734375,0.1014251708984375,-0.8158721923828125,0.44171142578125
1775705800487885800,11.1478857421875,0.088897705078125,-0.820220947265625,0.4470977783203125
1775705800497898800,11.157898681640624,0.116851806640625,-0.832794189453125,0.45574951171875
1775705800507912000,11.167911865234375,0.15008544921875,-0.841400146484375,0.4534454345703125
1775705800517925600,11.177925537109376,0.1309967041015625,-0.8485565185546875,0.4589385986328125
1775705800527938800,11.187938720703125,0.126251220703125,-0.8585662841796875,0.47564697265625
1775705800537951700,11.19795166015625,0.113037109375,-0.85833740234375,0.4805908203125
1775705800547965000,11.20796484375,0.1383514404296875,-0.8661041259765625,0.495758056640625
1775705800557977900,11.217977783203125,0.1688690185546875,-0.8709564208984375,0.4838714599609375
1775705800567990800,11.22799072265625,0.1608428955078125,-0.873504638671875,0.4722137451171875
1775705800578004000,11.23800390625,0.159515380859375,-0.8811187744140625,0.4792938232421875
1775705800588017700,11.248017578125,0.152679443359375,-0.8816070556640625,0.479766845703125
1775705800598030800,11.25803076171875,0.167510986328125,-0.8837127685546875,0.4859466552734375
1775705800608044000,11.2680439453125,0.2008819580078125,-0.8836212158203125,0.4718780517578125
1775705800618056700,11.278056640625,0.2137451171875,-0.881927490234375,0.453155517578125
1775705800628070000,11.28806982421875,0.2128753662109375,-0.88885498046875,0.451416015625
1775705800638082800,11.298082763671875,0.2113494873046875,-0.8848114013671875,0.459930419921875
1775705800648095700,11.308095703125,0.2076873779296875,-0.8786773681640625,0.4782867431640625
1775705800658108700,11.318108642578125,0.20013427734375,-0.8722991943359375,0.4951934814453125
1775705800668123000,11.328122802734375,0.201934814453125,-0.863525390625,0.4947509765625
1775705800678135800,11.3381357421875,0.2127838134765625,-0.8575592041015625,0.4909820556640625
1775705800688148700,11.348148681640625,0.220184326171875,-0.8536529541015625,0.4906005859375
1775705800698162000,11.358161865234376,0.237945556640625,-0.8446807861328125,0.483123779296875
1775705800708174600,11.368174560546874,0.2468109130859375,-0.8426666259765625,0.4754180908203125
1775705800718187800,11.378187744140625,0.2565460205078125,-0.8349151611328125,0.47088623046875
1775705800728201000,11.388200927734376,0.253204345703125,-0.8212127685546875,0.4639129638671875
1775705800738214700,11.398214599609375,0.24261474609375,-0.8134765625,0.4742279052734375
1775705800748227800,11.408227783203126,0.2377777099609375,-0.8028106689453125,0.4801177978515625
1775705800758241000,11.418240966796875,0.22088623046875,-0.7869110107421875,0.4934539794921875
1775705800768253700,11.428253662109375,0.2159423828125,-0.777099609375,0.51123046875
1775705800778267000,11.438266845703126,0.209625244140625,-0.7769775390625,0.520294189453125
1775705800788279800,11.44827978515625,0.196044921875,-0.77764892578125,0.521484375
1775705800798293000,11.45829296875,0.2046356201171875,-0.772308349609375,0.5251922607421875
1775705800808307000,11.468306884765624,0.1975860595703125,-0.7793426513671875,0.513946533203125
1775705800818320000,11.47831982421875,0.1985626220703125,-0.7749786376953125,0.518463134765625
1775705800828332800,11.488332763671876,0.198455810546875,-0.766693115234375,0.5200347900390625
1775705800838345700,11.498345703125,0.1956634521484375,-0.772613525390625,0.5221710205078125
1775705800848359000,11.50835888671875,0.189117431640625,-0.7777862548828125,0.522613525390625
1775705800858371800,11.518371826171874,0.1831512451171875,-0.7948150634765625,0.513916015625
1775705800868384800,11.528384765625,0.1709747314453125,-0.8020782470703125,0.50238037109375
1775705800878397700,11.538397705078125,0.17401123046875,-0.8083038330078125,0.489776611328125
1775705800888411600,11.54841162109375,0.1809844970703125,-0.8100128173828125,0.4755706787109375
1775705800898424800,11.5584248046875,0.1823883056640625,-0.8095855712890625,0.4600067138671875
1775705800908437800,11.568437744140626,0.1868133544921875,-0.805999755859375,0.444183349609375
1775705800918451000,11.578450927734375,0.2015533447265625,-0.803680419921875,0.4429779052734375
1775705800928464000,11.5884638671875,0.194793701171875,-0.805267333984375,0.4375152587890625
1775705800938476800,11.598476806640624,0.187042236328125,-0.8117218017578125,0.4539642333984375
1775705800948490000,11.608489990234375,0.17364501953125,-0.8170928955078125,0.475067138671875
1775705800958503700,11.618503662109376,0.1407318115234375,-0.8195648193359375,0.4910888671875
1775705800968516600,11.6285166015625,0.1273956298828125,-0.8217010498046875,0.504180908203125
1775705800978529800,11.63852978515625,0.12457275390625,-0.81988525390625,0.5046844482421875
1775705800988542500,11.64854248046875,0.1296539306640625,-0.822357177734375,0.507293701171875
1775705800998555600,11.6585556640625,0.1507415771484375,-0.8271942138671875,0.5119476318359375
1775705801008568800,11.66856884765625,0.172882080078125,-0.8279266357421875,0.5133514404296875
1775705801018581500,11.67858154296875,0.1999664306640625,-0.8386077880859375,0.5384368896484375
1775705801028595700,11.688595703125,0.213592529296875,-0.85113525390625,0.5630950927734375
1775705801038608600,11.698608642578124,0.2115325927734375,-0.8428955078125,0.5642242431640625
1775705801048621600,11.70862158203125,0.2009735107421875,-0.8569183349609375,0.5811004638671875
1775705801058634800,11.718634765625,0.1771087646484375,-0.867034912109375,0.5888671875
1775705801068647700,11.728647705078124,0.1438446044921875,-0.872711181640625,0.610687255859375
1775705801078660600,11.73866064453125,0.1211090087890625,-0.8853759765625,0.64520263671875
1775705801088673500,11.748673583984376,0.1026763916015625,-0.9008331298828125,0.6712646484375
1775705801098687700,11.758687744140625,0.07373046875,-0.92730712890625,0.6912384033203125
1775705801108700700,11.76870068359375,0.0556182861328125,-0.9746551513671875,0.71026611328125
1775705801118713600,11.778713623046874,0.0687408447265625,-1.0175933837890625,0.72857666015625
1775705801128726800,11.788726806640625,0.0881500244140625,-1.073944091796875,0.7353057861328125
1775705801138739700,11.79873974609375,0.0985107421875,-1.1455078125,0.734466552734375
1775705801148752600,11.808752685546875,0.1135406494140625,-1.1920013427734375,0.7218017578125
1775705801158765600,11.818765625,0.1123046875,-1.21630859375,0.7034912109375
1775705801168779500,11.828779541015624,0.11895751953125,-1.2123565673828125,0.690155029296875
1775705801178792700,11.838792724609375,0.1322174072265625,-1.1841888427734375,0.67578125
1775705801188805600,11.8488056640625,0.1531982421875,-1.17364501953125,0.6727447509765625
1775705801198818600,11.858818603515624,0.1934967041015625,-1.149688720703125,0.6665802001953125
1775705801208831500,11.86883154296875,0.2384185791015625,-1.10797119140625,0.6702423095703125
1775705801218844700,11.8788447265625,0.26116943359375,-1.0728759765625,0.687835693359375
1775705801228857900,11.88885791015625,0.2786865234375,-1.029144287109375,0.6969451904296875
1775705801238871600,11.89887158203125,0.3273468017578125,-0.9830169677734375,0.7059173583984375
1775705801248884700,11.908884765625,0.365142822265625,-0.961273193359375,0.7276153564453125
1775705801258897700,11.918897705078125,0.3920135498046875,-0.9516754150390625,0.7504425048828125
1775705801268910600,11.92891064453125,0.4088897705078125,-0.9315338134765625,0.7544403076171875
1775705801278923800,11.938923828125,0.4058380126953125,-0.912811279296875,0.747589111328125
1775705801288936700,11.948936767578125,0.39007568359375,-0.899749755859375,0.7255859375
1775705801298949600,11.95894970703125,0.377685546875,-0.8836212158203125,0.6824798583984375
1775705801308963600,11.968963623046875,0.35516357421875,-0.8687744140625,0.6400909423828125
1775705801318976800,11.978976806640626,0.3135528564453125,-0.857879638671875,0.614227294921875
1775705801328989700,11.98898974609375,0.2662506103515625,-0.8480072021484375,0.5959930419921875
1775705801339002600,11.999002685546875,0.241058349609375,-0.8460693359375,0.5881195068359375
1775705801349015800,12.009015869140624,0.24420166015625,-0.84039306640625,0.570068359375
1775705801359028500,12.019028564453125,0.2500457763671875,-0.8336181640625,0.555389404296875
1775705801369041700,12.029041748046875,0.2534332275390625,-0.8362579345703125,0.5561370849609375
1775705801379055600,12.0390556640625,0.2582244873046875,-0.839447021484375,0.538330078125
1775705801389068500,12.049068603515625,0.29766845703125,-0.8425140380859375,0.508087158203125
1775705801399081700,12.059081787109376,0.3313751220703125,-0.8322296142578125,0.4773406982421875
1775705801409094700,12.0690947265625,0.33245849609375,-0.8309478759765625,0.4608612060546875
1775705801419107600,12.079107666015625,0.3244171142578125,-0.844482421875,0.4422454833984375
1775705801429120500,12.08912060546875,0.3017578125,-0.8473663330078125,0.422393798828125
1775705801439133700,12.0991337890625,0.2789459228515625,-0.84552001953125,0.4400787353515625
1775705801449147600,12.109147705078126,0.244110107421875,-0.8319854736328125,0.4677581787109375
1775705801459160600,12.11916064453125,0.2010650634765625,-0.8196868896484375,0.5069580078125
1775705801469173800,12.129173828125,0.1697235107421875,-0.8114471435546875,0.52740478515625
1775705801479186400,12.1391865234375,0.185821533203125,-0.8083343505859375,0.51751708984375
1775705801489199600,12.14919970703125,0.2075653076171875,-0.805389404296875,0.524017333984375
1775705801499212800,12.159212890625,0.21026611328125,-0.8188934326171875,0.5388031005859375
1775705801509225700,12.169225830078124,0.2078857421875,-0.822235107421875,0.54412841796875
1775705801519238700,12.17923876953125,0.221588134765625,-0.8162689208984375,0.5621185302734375
1775705801529252900,12.1892529296875,0.2321014404296875,-0.8011474609375,0.57342529296875
1775705801539265500,12.199265625,0.240325927734375,-0.789031982421875,0.58563232421875
1775705801549278700,12.20927880859375,0.274017333984375,-0.78887939453125,0.570281982421875
1775705801559291600,12.219291748046874,0.28765869140625,-0.78839111328125,0.5424346923828125
1775705801569304800,12.229304931640625,0.23504638671875,-0.7857818603515625,0.526519775390625
1775705801579317500,12.2393173828125,0.163116455078125,-0.7863006591796875,0.5070953369140625
1775705801589330700,12.24933056640625,0.1265106201171875,-0.778076171875,0.49603271484375
1775705801599344600,12.2593447265625,0.0988006591796875,-0.7786102294921875,0.5048980712890625
1775705801609357600,12.269357666015624,0.09527587890625,-0.7824859619140625,0.50921630859375
1775705801619370800,12.279370849609375,0.11602783203125,-0.765350341796875,0.4957122802734375
1775705801629383700,12.2893837890625,0.1175079345703125,-0.7577972412109375,0.4808197021484375
1775705801639396600,12.299396728515624,0.1238250732421875,-0.753570556640625,0.458343505859375
1775705801649409800,12.309409912109375,0.12359619140625,-0.75946044921875,0.4506683349609375
1775705801659422700,12.319422607421876,0.1128082275390625,-0.7618255615234375,0.45269775390625
1775705801669436700,12.329436767578125,0.111083984375,-0.762420654296875,0.458465576171875
1775705801679449600,12.33944970703125,0.1231536865234375,-0.77142333984375,0.4718475341796875
1775705801689462800,12.349462890625,0.1401824951171875,-0.7642364501953125,0.4624481201171875
1775705801699475700,12.359475830078125,0.160186767578125,-0.7716827392578125,0.45086669921875
1775705801709488600,12.369488525390626,0.149627685546875,-0.786041259765625,0.4389495849609375
1775705801719501800,12.379501708984375,0.12310791015625,-0.7883148193359375,0.437286376953125
1775705801729514500,12.389514404296875,0.10498046875,-0.798370361328125,0.4377593994140625
1775705801739527700,12.399527587890624,0.100311279296875,-0.800506591796875,0.417724609375
1775705801749541600,12.409541748046875,0.1231536865234375,-0.799530029296875,0.4025421142578125
1775705801759554600,12.419554443359376,0.1230621337890625,-0.792816162109375,0.3996734619140625
1775705801769567700,12.429567626953125,0.1143646240234375,-0.7877197265625,0.420745849609375
1775705801779580700,12.43958056640625,0.110198974609375,-0.7933349609375,0.4400787353515625
1775705801789593600,12.449593505859376,0.112701416015625,-0.8048095703125,0.4371185302734375
1775705801799606500,12.4596064453125,0.1382598876953125,-0.816619873046875,0.4340972900390625
1775705801809619700,12.46961962890625,0.1448822021484375,-0.8176727294921875,0.4334564208984375
1775705801819633700,12.479633544921874,0.1696624755859375,-0.8141326904296875,0.4487152099609375
1775705801829646600,12.489646484375,0.178497314453125,-0.7917022705078125,0.45013427734375
1775705801839659800,12.49965966796875,0.180877685546875,-0.764373779296875,0.459228515625
1775705801849672400,12.50967236328125,0.1875762939453125,-0.7554931640625,0.4504547119140625
1775705801859685600,12.519685546875,0.1811065673828125,-0.723663330078125,0.438262939453125
1775705801869698800,12.52969873046875,0.145721435546875,-0.68426513671875,0.4289398193359375
1775705801879711700,12.539711669921875,0.11871337890625,-0.6462860107421875,0.4307861328125
1775705801889724700,12.549724609375,0.1072845458984375,-0.59307861328125,0.4369049072265625
1775705801899738600,12.559738525390625,0.1042938232421875,-0.549041748046875,0.4436187744140625
1775705801909751600,12.56975146484375,0.0879364013671875,-0.5104522705078125,0.442413330078125
1775705801919764700,12.5797646484375,0.0753936767578125,-0.473785400390625,0.4268798828125
1775705801929777700,12.589777587890625,0.05584716796875,-0.4415283203125,0.3886871337890625
1775705801939790800,12.599790771484376,0.0399017333984375,-0.413177490234375,0.342803955078125
1775705801949803500,12.609803466796874,0.036376953125,-0.4033660888671875,0.31475830078125
1775705801959817000,12.61981689453125,-0.002288818359375,-0.4124908447265625,0.282623291015625
1775705801969831000,12.629830810546874,-0.04815673828125,-0.4446258544921875,0.259613037109375
1775705801979843800,12.63984375,-0.092071533203125,-0.4980621337890625,0.24371337890625
1775705801989857000,12.64985693359375,-0.122161865234375,-0.51220703125,0.21575927734375
1775705801999869700,12.65986962890625,-0.081329345703125,-0.5101318359375,0.1936187744140625
1775705802009883000,12.6698828125,-0.02490234375,-0.5240020751953125,0.1351318359375
1775705802019895800,12.679895751953126,-0.002105712890625,-0.55877685546875,0.091796875
1775705802029909000,12.689908935546875,0.025146484375,-0.573822021484375,0.0962066650390625
1775705802039922000,12.699921875,0.0838623046875,-0.571624755859375,0.0980377197265625
1775705802049936000,12.709935791015624,0.1418609619140625,-0.591217041015625,0.1112518310546875
1775705802059948800,12.71994873046875,0.1445770263671875,-0.6193084716796875,0.130218505859375
1775705802069961700,12.729961669921876,0.1132659912109375,-0.6427764892578125,0.14324951171875
1775705802079975000,12.739974853515625,0.080230712890625,-0.6554718017578125,0.1529541015625
1775705802089988000,12.749988037109375,0.058990478515625,-0.689788818359375,0.182159423828125
1775705802100000800,12.760000732421876,0.0596466064453125,-0.7420806884765625,0.2500762939453125
1775705802110014000,12.770013916015625,0.0968780517578125,-0.7819671630859375,0.3204498291015625
1775705802120028000,12.78002783203125,0.1899566650390625,-0.819000244140625,0.3881683349609375
1775705802130040800,12.790040771484374,0.2747802734375,-0.8178863525390625,0.4272003173828125
1775705802140054000,12.800053955078125,0.352752685546875,-0.8236846923828125,0.4459991455078125
1775705802150067000,12.81006689453125,0.404449462890625,-0.8196563720703125,0.46856689453125
1775705802160080000,12.820079833984375,0.41387939453125,-0.8094329833984375,0.5050201416015625
1775705802170092800,12.8300927734375,0.41473388671875,-0.83990478515625,0.55145263671875
1775705802180106000,12.84010595703125,0.4385528564453125,-0.8704071044921875,0.6203765869140625
1775705802190120000,12.850119873046875,0.428009033203125,-0.89569091796875,0.6815643310546875
1775705802200132900,12.8601328125,0.397064208984375,-0.93658447265625,0.7025604248046875
1775705802210146000,12.87014599609375,0.3873748779296875,-0.9487762451171875,0.6592254638671875
1775705802220158700,12.88015869140625,0.394622802734375,-0.9598846435546875,0.591094970703125
1775705802230172000,12.890171875,0.393280029296875,-0.975311279296875,0.5279693603515625
1775705802240184800,12.900184814453125,0.3748779296875,-0.96173095703125,0.465606689453125
1775705802250197800,12.91019775390625,0.3169403076171875,-0.9746551513671875,0.438079833984375
1775705802260211000,12.9202109375,0.2286376953125,-0.9837493896484375,0.408447265625
1775705802270225000,12.930224853515625,0.1328125,-0.9694976806640625,0.3999176025390625
1775705802280237800,12.94023779296875,0.0303192138671875,-0.9533233642578125,0.4065093994140625
1775705802290251000,12.9502509765625,-0.0505218505859375,-0.928955078125,0.39788818359375
1775705802300264000,12.960263916015625,-0.093780517578125,-0.9092864990234375,0.3927001953125
1775705802310276900,12.97027685546875,-0.13690185546875,-0.9077606201171875,0.369354248046875
1775705802320289800,12.980289794921875,-0.1402587890625,-0.9270782470703125,0.3411712646484375
1775705802330303000,12.990302978515626,-0.1039276123046875,-0.9520416259765625,0.331024169921875
1775705802340317000,13.00031689453125,-0.0501251220703125,-0.962310791015625,0.31817626953125
1775705802350329900,13.010329833984375,0.045379638671875,-0.9875640869140625,0.3222503662109375
1775705802360343000,13.020343017578124,0.121002197265625,-1.0008392333984375,0.328216552734375
1775705802370356000,13.03035595703125,0.1751708984375,-1.009002685546875,0.357025146484375
