time,seconds_elapsed,z,y,x
1774656269581860000,0.047860107421875,0,0,0
1774656269591860000,0.05785986328125,-0.0140380859375,-0.029935836791992188,-0.17446064949035645
1774656269601860000,0.067860107421875,-0.021302223205566406,-0.07724332809448242,-0.1483457088470459
1774656269611860000,0.07785986328125,-0.01604747772216797,-0.049317359924316406,-0.038988351821899414
1774656269621860000,0.087860107421875,-0.010316848754882812,-0.03264760971069336,-0.11812722682952881
1774656269631860000,0.09785986328125,0.05797100067138672,-0.10438823699951172,-0.16178655624389648
1774656269641860000,0.107860107421875,0.16674518585205078,-0.15430784225463867,-0.08969628810882568
1774656269651860000,0.11785986328125,0.24522876739501953,-0.12787628173828125,0.002358675003051758
1774656269661860000,0.127860107421875,0.39818286895751953,-0.0915079116821289,0.11310803890228271
1774656269671860000,0.13785986328125,0.4650764465332031,-0.10027742385864258,0.0860515832901001
1774656269681860000,0.147860107421875,0.3252840042114258,-0.122802734375,-0.0466538667678833
1774656269691860000,0.15785986328125,0.10186576843261719,-0.09075736999511719,-0.1445581316947937
1774656269701860000,0.167860107421875,-0.04828357696533203,-0.05913066864013672,-0.11555826663970947
1774656269711860000,0.17785986328125,-0.07481575012207031,-0.013103961944580078,-0.16194814443588257
1774656269721860000,0.187860107421875,-0.0995321273803711,-0.01201486587524414,-0.2780093550682068
1774656269731860000,0.19785986328125,-0.20047473907470703,-0.06922721862792969,-0.34018343687057495
1774656269741860000,0.207860107421875,-0.1668109893798828,-0.10283946990966797,-0.2994256615638733
1774656269751860000,0.21785986328125,0.052475929260253906,-0.11455440521240234,-0.12697577476501465
1774656269761860000,0.227860107421875,0.30275630950927734,-0.08967781066894531,0.0674017071723938
1774656269771860000,0.23785986328125,0.45318603515625,-0.10410499572753906,0.15550190210342407
1774656269781860000,0.247860107421875,0.35332679748535156,-0.1088857650756836,0.10055691003799438
1774656269791860000,0.25785986328125,0.11699295043945312,-0.051849365234375,0.020897090435028076
1774656269801860000,0.267860107421875,-0.04085540771484375,0.0128326416015625,0.011664986610412598
1774656269811860000,0.27785986328125,-0.12733936309814453,0.03349781036376953,0.12706297636032104
1774656269821860000,0.287860107421875,-0.1175546646118164,0.12785100936889648,0.19246405363082886
1774656269831860000,0.29785986328125,-0.18796730041503906,0.16700220108032227,0.14815866947174072
1774656269841860000,0.307860107421875,-0.20788192749023438,0.18668413162231445,0.13283103704452515
1774656269851860000,0.31785986328125,-0.17450809478759766,0.2019486427307129,0.2544150948524475
1774656269861860000,0.327860107421875,-0.13742351531982422,0.19228076934814453,0.36104458570480347
1774656269871860000,0.33785986328125,0.06606864929199219,0.14535140991210938,0.3648640513420105
1774656269881860000,0.347860107421875,0.4112834930419922,0.04542827606201172,0.37182945013046265
1774656269891860000,0.35785986328125,0.47808361053466797,-0.024700164794921875,0.2586227059364319
1774656269901860000,0.367860107421875,0.5132942199707031,-0.08192777633666992,0.17434602975845337
1774656269911860000,0.37785986328125,0.6142034530639648,-0.11516928672790527,0.1613912582397461
1774656269921860000,0.387860107421875,0.6856212615966797,-0.12940096855163574,0.11389124393463135
1774656269931860000,0.39785986328125,0.5643510818481445,-0.1415877342224121,-0.09143465757369995
1774656269941860000,0.407860107421875,0.1001577377319336,-0.14085674285888672,-0.245655357837677
1774656269951860000,0.41785986328125,-0.44725894927978516,-0.042197465896606445,-0.3796495795249939
1774656269961860000,0.427860107421875,-1.0188016891479492,0.06589508056640625,-0.40853118896484375
1774656269971860000,0.43785986328125,-1.4887723922729492,0.03782367706298828,-0.39729565382003784
1774656269981860000,0.447860107421875,-1.6954264640808105,-0.06879997253417969,-0.3955245912075043
1774656269991860000,0.45785986328125,-1.5631952285766602,-0.19883275032043457,-0.3116937279701233
1774656270001860000,0.467860107421875,-1.0555171966552734,-0.3186075687408447,-0.23692643642425537
1774656270011860000,0.47785986328125,-0.5047483444213867,-0.31589579582214355,-0.25079232454299927
1774656270021860000,0.487860107421875,-0.02132129669189453,-0.23456144332885742,-0.4531101584434509
1774656270031860000,0.49785986328125,0.09358501434326172,-0.22718334197998047,-0.9017355442047119
1774656270041860000,0.507860107421875,0.18308162689208984,-0.26767992973327637,-1.1502948999404907
1774656270051860000,0.51785986328125,0.5894289016723633,-0.3198273181915283,-0.6902111768722534
1774656270061860000,0.527860107421875,0.7641191482543945,-0.28383326530456543,0.16024911403656006
1774656270071860000,0.53785986328125,0.7737340927124023,-0.06844186782836914,0.5048155784606934
1774656270081860000,0.547860107421875,1.0290794372558594,0.053699493408203125,0.5861358642578125
1774656270091860000,0.55785986328125,1.325089454650879,-0.05799102783203125,0.8429452180862427
1774656270101860000,0.567860107421875,1.4677553176879883,-0.1915433406829834,0.9361534714698792
1774656270111860000,0.57785986328125,1.2229814529418945,-0.13065648078918457,0.981914758682251
1774656270121860000,0.587860107421875,0.9249362945556641,-0.11855959892272949,0.5416039228439331
1774656270131860000,0.59785986328125,0.6910562515258789,-0.2192521095275879,0.12343466281890869
1774656270141860000,0.607860107421875,0.5175848007202148,-0.17155003547668457,-0.29139167070388794
1774656270151860000,0.61785986328125,0.46622467041015625,-0.06012868881225586,-0.5091321468353271
1774656270161860000,0.627860107421875,0.0855112075805664,0.011111259460449219,-0.31547677516937256
1774656270171860000,0.63785986328125,-0.16797351837158203,0.032485246658325195,0.38575929403305054
1774656270181860000,0.647860107421875,0.03350639343261719,-0.07448792457580566,0.7640812397003174
1774656270191860000,0.65785986328125,0.26745033264160156,-0.1408100128173828,0.700671911239624
1774656270201860000,0.667860107421875,0.30651092529296875,-0.013720273971557617,0.3584778308868408
1774656270211860000,0.67785986328125,0.07054424285888672,0.11972332000732422,-0.02617114782333374
1774656270221860000,0.687860107421875,-0.41492271423339844,0.10449385643005371,-0.20018213987350464
1774656270231860000,0.69785986328125,-0.7135601043701172,0.1708965301513672,-0.18827807903289795
1774656270241860000,0.707860107421875,-0.6694984436035156,0.31885647773742676,-0.32845520973205566
1774656270251860000,0.71785986328125,-0.5299177169799805,0.4846477508544922,-0.3014139235019684
1774656270261860000,0.727860107421875,-0.2772531509399414,0.44076967239379883,0.08437049388885498
1774656270271860000,0.73785986328125,0.19302845001220703,0.3346693515777588,0.33778834342956543
1774656270281860000,0.747860107421875,0.7965068817138672,0.07489156723022461,0.3050556778907776
1774656270291860000,0.75785986328125,0.9873628616333008,-0.19037413597106934,0.22227680683135986
1774656270301860000,0.767860107421875,0.7787160873413086,-0.2484753131866455,-0.10611778497695923
1774656270311860000,0.77785986328125,0.6302127838134766,-0.15539765357971191,-0.4134180545806885
1774656270321860000,0.787860107421875,0.42923736572265625,-0.09853863716125488,-0.548203706741333
1774656270331860000,0.79785986328125,0.10742664337158203,0.05385184288024902,-0.3560832738876343
1774656270341860000,0.807860107421875,-0.06912994384765625,0.23692798614501953,-0.08666026592254639
1774656270351860000,0.81785986328125,-0.23383522033691406,0.2413926124572754,-0.0829613208770752
1774656270361860000,0.827860107421875,-0.17534637451171875,0.3678133487701416,-0.3802344799041748
1774656270371860000,0.83785986328125,0.17118453979492188,0.5677046775817871,-0.5806845426559448
1774656270381860000,0.847860107421875,0.4396514892578125,0.5960655212402344,-0.5662301778793335
1774656270391860000,0.85785986328125,0.3546609878540039,0.4791712760925293,-0.45721709728240967
1774656270401860000,0.867860107421875,0.018378257751464844,0.14232444763183594,-0.17866486310958862
1774656270411860000,0.87785986328125,-0.48017120361328125,-0.351884126663208,0.22832101583480835
1774656270421860000,0.887860107421875,-0.8510885238647461,-0.5990898609161377,0.8399837613105774
1774656270431860000,0.89785986328125,-0.785435676574707,-0.6247918605804443,1.145094394683838
1774656270441860000,0.907860107421875,-0.25623321533203125,-0.6012802124023438,1.0701029300689697
1774656270451860000,0.91785986328125,0.056529998779296875,-0.44898533821105957,0.7198305130004883
1774656270461860000,0.927860107421875,0.19084453582763672,-0.09759974479675293,0.3915383815765381
1774656270471860000,0.93785986328125,0.31171607971191406,0.22993898391723633,0.22698605060577393
1774656270481860000,0.947860107421875,0.34645748138427734,0.39129137992858887,0.06006830930709839
1774656270491860000,0.95785986328125,0.13885021209716797,0.2659263610839844,-0.18281275033950806
1774656270501860000,0.967860107421875,-0.1630840301513672,0.04130744934082031,-0.07360005378723145
1774656270511860000,0.97785986328125,-0.11083030700683594,-0.16988229751586914,0.26122891902923584
1774656270521860000,0.987860107421875,0.03216266632080078,-0.31461000442504883,0.39342230558395386
1774656270531860000,0.99785986328125,-0.03260517120361328,-0.30887746810913086,0.27663975954055786
1774656270541860000,1.007860107421875,0.22890186309814453,-0.2382674217224121,0.09227222204208374
1774656270551860000,1.01785986328125,0.5888547897338867,-0.12542271614074707,-0.006215929985046387
1774656270561860000,1.027860107421875,0.37384605407714844,-0.10573506355285645,0.051286935806274414
1774656270571860000,1.03785986328125,0.053832054138183594,-0.16136908531188965,0.04535531997680664
1774656270581860000,1.047860107421875,0.06844234466552734,-0.16057634353637695,-0.13374939560890198
1774656270591860000,1.05785986328125,0.08783340454101562,-0.06363654136657715,-0.13443851470947266
1774656270601860000,1.067860107421875,-0.2927427291870117,0.045442819595336914,-0.09784972667694092
1774656270611860000,1.07785986328125,-0.5829067230224609,0.08209872245788574,-0.16170209646224976
1774656270621860000,1.087860107421875,-0.7434825897216797,0.10385894775390625,-0.2224184274673462
1774656270631860000,1.09785986328125,-0.8683280944824219,0.07837414741516113,-0.2516050934791565
1774656270641860000,1.107860107421875,-0.9098615646362305,0.07796072959899902,-0.3361661434173584
1774656270651860000,1.11785986328125,-0.8005390167236328,0.07042717933654785,-0.3842998445034027
1774656270661860000,1.127860107421875,-0.4087982177734375,0.013047933578491211,-0.3932175040245056
1774656270671860000,1.13785986328125,-0.06767559051513672,-0.025513887405395508,-0.31375521421432495
1774656270681860000,1.147860107421875,0.1888713836669922,-0.02491021156311035,-0.22473692893981934
1774656270691860000,1.15785986328125,0.23514175415039062,0.04802513122558594,-0.26801925897598267
1774656270701860000,1.167860107421875,0.08283710479736328,0.11909794807434082,-0.41563940048217773
1774656270711860000,1.17785986328125,-0.056128501892089844,0.06990456581115723,-0.5684841871261597
1774656270721860000,1.187860107421875,-0.22698211669921875,-0.01101064682006836,-0.49814820289611816
1774656270731860000,1.19785986328125,-0.3031005859375,-0.07161188125610352,-0.4149247705936432
1774656270741860000,1.207860107421875,-0.2649955749511719,-0.00580906867980957,-0.7210396528244019
1774656270751860000,1.21785986328125,-0.28473854064941406,0.06371736526489258,-0.8364195823669434
1774656270761860000,1.227860107421875,-0.08537864685058594,0.14074468612670898,-0.9007673859596252
1774656270771860000,1.23785986328125,0.057738304138183594,0.20429015159606934,-0.7451735138893127
1774656270781860000,1.247860107421875,-0.10068702697753906,0.3182332515716553,-0.5600757598876953
1774656270791860000,1.25785986328125,-0.3330249786376953,0.5265607833862305,-0.2780919075012207
1774656270801860000,1.267860107421875,-0.2573881149291992,0.674138069152832,-0.20708048343658447
1774656270811860000,1.27785986328125,-0.33109092712402344,0.703730583190918,-0.41239339113235474
1774656270821860000,1.287860107421875,-0.4226064682006836,0.6557948589324951,-0.7763910293579102
1774656270831860000,1.29785986328125,-0.2614593505859375,0.4434633255004883,-1.3526926040649414
1774656270841860000,1.307860107421875,-0.09441757202148438,0.2180497646331787,-1.9286935329437256
1774656270851860000,1.31785986328125,-0.2000865936279297,0.3160362243652344,-2.1686363220214844
1774656270861860000,1.327860107421875,-0.3260650634765625,0.5906269550323486,-2.267414093017578
1774656270871860000,1.33785986328125,-0.832554817199707,0.8705260753631592,-2.156252145767212
1774656270881860000,1.347860107421875,-1.5073637962341309,1.124216079711914,-2.0291190147399902
1774656270891860000,1.35785986328125,-1.7681140899658203,1.1574630737304688,-1.9504868984222412
1774656270901860000,1.367860107421875,-1.815800666809082,1.0455360412597656,-1.9978865385055542
1774656270911860000,1.37785986328125,-1.6953210830688477,0.9006099700927734,-2.0734236240386963
1774656270921860000,1.387860107421875,-1.1891794204711914,0.8348689079284668,-2.1502773761749268
1774656270931860000,1.39785986328125,-0.5594720840454102,0.7864303588867188,-1.889866828918457
1774656270941860000,1.407860107421875,-0.1915454864501953,0.7118635177612305,-1.3806262016296387
1774656270951860000,1.41785986328125,-0.28255271911621094,0.6630148887634277,-0.8782109022140503
1774656270961860000,1.427860107421875,-0.5357732772827148,0.555243968963623,-0.6159353256225586
1774656270971860000,1.43785986328125,-0.670015811920166,0.5103335380554199,-0.7096282243728638
1774656270981860000,1.447860107421875,-0.35408687591552734,0.4614276885986328,-0.6321168541908264
1774656270991860000,1.45785986328125,-0.003185272216796875,0.3525533676147461,-0.06469738483428955
1774656271001860000,1.467860107421875,-0.21327495574951172,0.2844810485839844,0.5391133427619934
1774656271011860000,1.47785986328125,-0.5126495361328125,0.39038610458374023,0.7202272415161133
1774656271021860000,1.487860107421875,-0.8787012100219727,0.38257551193237305,1.2092018127441406
1774656271031860000,1.49785986328125,-1.2095212936401367,0.2657499313354492,1.756827473640442
1774656271041860000,1.507860107421875,-0.9119405746459961,0.15051841735839844,2.0487236976623535
1774656271051860000,1.51785986328125,-0.14897918701171875,0.018966197967529297,2.1058881282806396
1774656271061860000,1.527860107421875,0.5497903823852539,-0.1506061553955078,1.483210563659668
1774656271071860000,1.53785986328125,1.115983009338379,-0.3414463996887207,0.6990710496902466
1774656271081860000,1.547860107421875,1.3346967697143555,-0.5206913948059082,0.332893431186676
1774656271091860000,1.55785986328125,1.2007770538330078,-0.5927138328552246,0.23266905546188354
1774656271101860000,1.567860107421875,0.7510156631469727,-0.4745936393737793,0.1326177716255188
1774656271111860000,1.57785986328125,0.5087366104125977,-0.15850305557250977,0.16569876670837402
1774656271121860000,1.587860107421875,0.6805934906005859,0.05709981918334961,0.5377498269081116
1774656271131860000,1.59785986328125,0.9859790802001953,-0.013242244720458984,0.8170893788337708
1774656271141860000,1.607860107421875,1.4117603302001953,-0.34528303146362305,1.0898348093032837
1774656271151860000,1.61785986328125,1.7189292907714844,-0.6039557456970215,1.2088093757629395
1774656271161860000,1.627860107421875,1.7979469299316406,-0.668208122253418,0.8855266571044922
1774656271171860000,1.63785986328125,1.5981292724609375,-0.5423789024353027,0.4062984585762024
1774656271181860000,1.647860107421875,1.2961235046386719,-0.3123459815979004,0.05872470140457153
1774656271191860000,1.65785986328125,0.8992805480957031,-0.13046932220458984,0.37267178297042847
1774656271201860000,1.667860107421875,0.5339670181274414,-0.1453266143798828,0.7925346493721008
1774656271211860000,1.67785986328125,0.39257144927978516,-0.43237781524658203,0.8999353051185608
1774656271221860000,1.687860107421875,0.25536537170410156,-0.8414263725280762,0.846123218536377
1774656271231860000,1.69785986328125,0.23419475555419922,-1.1661443710327148,0.5872097611427307
1774656271241860000,1.707860107421875,0.36348724365234375,-1.2750451564788818,0.26468491554260254
1774656271251860000,1.71785986328125,0.7122526168823242,-1.0898995399475098,-0.04012998938560486
1774656271261860000,1.727860107421875,1.360616683959961,-0.7327151298522949,0.007093608379364014
1774656271271860000,1.73785986328125,1.9862337112426758,-0.46530818939208984,0.35098111629486084
1774656271281860000,1.747860107421875,2.2213144302368164,-0.3156242370605469,0.6290885806083679
1774656271291860000,1.75785986328125,1.9182348251342773,-0.287168025970459,0.6307691931724548
1774656271301860000,1.767860107421875,1.2606334686279297,-0.30010557174682617,0.40616291761398315
1774656271311860000,1.77785986328125,0.5940513610839844,-0.37754154205322266,0.2455238401889801
1774656271321860000,1.787860107421875,0.14371109008789062,-0.6395969390869141,0.3492092192173004
1774656271331860000,1.79785986328125,0.024133682250976562,-0.7780294418334961,0.30925559997558594
1774656271341860000,1.807860107421875,0.040851593017578125,-0.655430793762207,-0.03453382849693298
1774656271351860000,1.81785986328125,0.11738872528076172,-0.4642014503479004,-0.36600789427757263
1774656271361860000,1.827860107421875,0.11569976806640625,-0.3629326820373535,-0.6044159531593323
1774656271371860000,1.83785986328125,-0.20516109466552734,-0.30094432830810547,-0.877975344657898
1774656271381860000,1.847860107421875,-0.5087070465087891,-0.38289976119995117,-0.8227207660675049
1774656271391860000,1.85785986328125,-0.7082333564758301,-0.6185412406921387,-0.39878642559051514
1774656271401860000,1.867860107421875,-0.7602691650390625,-0.699561595916748,-0.1237594485282898
1774656271411860000,1.87785986328125,-0.3528604507446289,-0.4934415817260742,-0.0117415189743042
1774656271421860000,1.887860107421875,0.20726966857910156,-0.2719449996948242,0.05255565047264099
1774656271431860000,1.89785986328125,0.6164741516113281,-0.27012157440185547,0.22323566675186157
1774656271441860000,1.907860107421875,0.8403682708740234,-0.319852352142334,0.2832069396972656
1774656271451860000,1.91785986328125,1.0741548538208008,-0.319943904876709,0.06562572717666626
1774656271461860000,1.927860107421875,0.9935026168823242,-0.25212907791137695,-0.1427636742591858
1774656271471860000,1.93785986328125,0.6192140579223633,-0.16765069961547852,-0.11882346868515015
1774656271481860000,1.947860107421875,0.04680347442626953,-0.0831446647644043,0.03642481565475464
1774656271491860000,1.95785986328125,-0.47022533416748047,0.056738853454589844,0.23709571361541748
1774656271501860000,1.967860107421875,-0.8210549354553223,0.2204437255859375,0.23301315307617188
1774656271511860000,1.97785986328125,-1.1040854454040527,0.19663095474243164,0.20155376195907593
1774656271521860000,1.987860107421875,-1.2149925231933594,0.07575178146362305,0.3888033628463745
1774656271531860000,1.99785986328125,-0.9635524749755859,0.20237112045288086,0.5196859836578369
1774656271541860000,2.007860107421875,-0.6432747840881348,0.42824840545654297,0.47031188011169434
1774656271551860000,2.01785986328125,-0.4334897994995117,0.37207794189453125,0.4235725402832031
1774656271561860000,2.027860107421875,-0.24159526824951172,0.046417236328125,0.48027676343917847
1774656271571860000,2.03785986328125,0.0032958984375,-0.20796632766723633,0.5123100876808167
1774656271581860000,2.047860107421875,0.3458290100097656,-0.2890963554382324,0.6464794278144836
1774656271591860000,2.05785986328125,1.2242431640625,-0.36812305450439453,1.1150580644607544
1774656271601860000,2.067860107421875,2.846676826477051,-0.3926095962524414,2.200465440750122
1774656271611860000,2.07785986328125,4.477060317993164,-0.13832426071166992,3.425092935562134
1774656271621860000,2.087860107421875,5.577591896057129,-0.024039745330810547,3.6385037899017334
1774656271631860000,2.09785986328125,2.122097969055176,0.49584007263183594,1.7036607265472412
1774656271641860000,2.107860107421875,-0.2910299301147461,0.44814348220825195,0.04445284605026245
1774656271651860000,2.11785986328125,-1.481013298034668,-0.06625509262084961,-0.7741165161132812
1774656271661860000,2.127860107421875,-2.2436575889587402,-0.33815431594848633,-1.0014885663986206
1774656271671860000,2.13785986328125,-2.8361849784851074,-0.041710853576660156,-0.17419034242630005
1774656271681860000,2.147860107421875,-1.6581077575683594,0.45301294326782227,1.9270005226135254
1774656271691860000,2.15785986328125,1.528604507446289,0.7807574272155762,3.291508436203003
1774656271701860000,2.167860107421875,-0.22557353973388672,0.8437080383300781,2.2752132415771484
1774656271711860000,2.17785986328125,-1.8358793258666992,0.4288926124572754,0.9124075174331665
1774656271721860000,2.187860107421875,-1.3742084503173828,0.42730283737182617,0.1190195083618164
1774656271731860000,2.19785986328125,-1.1806163787841797,0.1262507438659668,0.36369985342025757
1774656271741860000,2.207860107421875,-1.136216163635254,-0.09996557235717773,0.6249561905860901
1774656271751860000,2.21785986328125,-0.779444694519043,-0.024768829345703125,0.5213672518730164
1774656271761860000,2.227860107421875,-0.43752288818359375,0.04714250564575195,0.7654461860656738
1774656271771860000,2.23785986328125,-0.36025142669677734,0.09724140167236328,0.9559875726699829
1774656271781860000,2.247860107421875,-0.12071037292480469,0.2899179458618164,0.5004085302352905
1774656271791860000,2.25785986328125,0.39415836334228516,0.5376691818237305,-0.13632643222808838
1774656271801860000,2.267860107421875,0.34206104278564453,0.6180849075317383,-0.2021636962890625
1774656271811860000,2.27785986328125,0.31222057342529297,0.6906242370605469,-0.40508946776390076
1774656271821860000,2.287860107421875,0.1830120086669922,0.640629768371582,-0.12108439207077026
1774656271831860000,2.29785986328125,-0.19764137268066406,0.6342573165893555,0.12710535526275635
1774656271841860000,2.307860107421875,-0.38565826416015625,0.7326021194458008,0.058777809143066406
1774656271851860000,2.31785986328125,-0.35888004302978516,0.8129258155822754,0.06004202365875244
1774656271861860000,2.327860107421875,-0.5589027404785156,0.7063884735107422,0.2767676115036011
1774656271871860000,2.33785986328125,-0.3605079650878906,0.6234092712402344,0.013305127620697021
1774656271881860000,2.347860107421875,-0.006588935852050781,0.5307736396789551,-0.2941298484802246
1774656271891860000,2.35785986328125,0.33933162689208984,0.36834239959716797,-0.4731624126434326
1774656271901860000,2.367860107421875,0.5013523101806641,0.41207075119018555,-0.7329234480857849
1774656271911860000,2.37785986328125,0.5216302871704102,0.42665529251098633,-0.7596158981323242
1774656271921860000,2.387860107421875,0.44318389892578125,0.4417247772216797,-0.3751748204231262
1774656271931860000,2.39785986328125,0.12494754791259766,0.4554734230041504,0.0759437084197998
1774656271941860000,2.407860107421875,-0.3403778076171875,0.436614990234375,0.343214750289917
1774656271951860000,2.41785986328125,-0.5903968811035156,0.4152851104736328,0.4724442958831787
1774656271961860000,2.427860107421875,-0.5658836364746094,0.5011210441589355,0.36155784130096436
1774656271971860000,2.43785986328125,-0.48311662673950195,0.4461688995361328,0.20937156677246094
1774656271981860000,2.447860107421875,-0.2948875427246094,0.394775390625,-0.08249926567077637
1774656271991860000,2.45785986328125,-0.0993795394897461,0.25097036361694336,-0.13847458362579346
1774656272001860000,2.467860107421875,-0.3039579391479492,0.17061328887939453,0.04373776912689209
1774656272011860000,2.47785986328125,-0.4428272247314453,0.15593194961547852,0.28784608840942383
1774656272021860000,2.487860107421875,-0.42723751068115234,0.1377415657043457,0.5351163148880005
1774656272031860000,2.49785986328125,-0.28197288513183594,-0.019743919372558594,0.6360262632369995
1774656272041860000,2.507860107421875,-0.1940774917602539,-0.2410726547241211,0.6772447824478149
1774656272051860000,2.51785986328125,0.3872261047363281,-0.22269296646118164,0.34880077838897705
1774656272061860000,2.527860107421875,0.8005867004394531,-0.10827112197875977,0.040409207344055176
1774656272071860000,2.53785986328125,0.9580478668212891,0.046410560607910156,-0.46184223890304565
1774656272081860000,2.547860107421875,0.783940315246582,0.08065414428710938,-0.6356926560401917
1774656272091860000,2.55785986328125,0.41266822814941406,0.023296356201171875,-0.29084908962249756
1774656272101860000,2.567860107421875,0.0899200439453125,0.004156589508056641,-0.018730759620666504
1774656272111860000,2.57785986328125,-0.13457775115966797,-0.0767207145690918,0.1656891107559204
1774656272121860000,2.587860107421875,-0.23579883575439453,-0.10022401809692383,0.2333698272705078
1774656272131860000,2.59785986328125,-0.14405155181884766,0.030337810516357422,0.033022940158843994
1774656272141860000,2.607860107421875,-0.1412038803100586,0.06661272048950195,-0.14575916528701782
1774656272151860000,2.61785986328125,0.12496280670166016,0.10982179641723633,-0.6201761960983276
1774656272161860000,2.627860107421875,0.34575748443603516,0.15033292770385742,-0.8554151058197021
1774656272171860000,2.63785986328125,0.23327922821044922,0.16773414611816406,-0.6552920937538147
1774656272181860000,2.647860107421875,0.05794334411621094,0.10143566131591797,-0.4982258081436157
1774656272191860000,2.65785986328125,-0.07085418701171875,0.035028934478759766,-0.3421784043312073
1774656272201860000,2.667860107421875,-0.18412494659423828,0.0039272308349609375,-0.2385730743408203
1774656272211860000,2.67785986328125,-0.19005680084228516,-0.10843849182128906,-0.24443137645721436
1774656272221860000,2.687860107421875,-0.13183116912841797,-0.2318563461303711,-0.1124258041381836
1774656272231860000,2.69785986328125,0.05923938751220703,-0.3333749771118164,-0.1677687168121338
1774656272241860000,2.707860107421875,0.231903076171875,-0.3875298500061035,-0.21492230892181396
1774656272251860000,2.71785986328125,0.30469417572021484,-0.3783435821533203,-0.31960272789001465
1774656272261860000,2.727860107421875,0.4665956497192383,-0.3013429641723633,-0.5261470675468445
1774656272271860000,2.73785986328125,0.6798410415649414,-0.29741382598876953,-0.6922404766082764
1774656272281860000,2.747860107421875,0.633448600769043,-0.4061760902404785,-0.642137348651886
1774656272291860000,2.75785986328125,0.49686241149902344,-0.5029935836791992,-0.5461917519569397
1774656272301860000,2.767860107421875,0.3765697479248047,-0.6391291618347168,-0.3463357090950012
1774656272311860000,2.77785986328125,0.3232145309448242,-0.7095522880554199,-0.010322153568267822
1774656272321860000,2.787860107421875,0.21764087677001953,-0.894434928894043,0.3633202910423279
1774656272331860000,2.79785986328125,0.06746387481689453,-0.9966487884521484,0.5410394668579102
1774656272341860000,2.807860107421875,0.1607217788696289,-0.919130802154541,0.310349702835083
1774656272351860000,2.81785986328125,0.43129825592041016,-0.7931337356567383,-0.12797796726226807
1774656272361860000,2.827860107421875,0.646082878112793,-0.7189321517944336,-0.5258228778839111
1774656272371860000,2.83785986328125,0.6189260482788086,-0.6943974494934082,-0.5372331142425537
1774656272381860000,2.847860107421875,0.5059919357299805,-0.8540034294128418,-0.3649526834487915
1774656272391860000,2.85785986328125,0.6216716766357422,-1.2594046592712402,-0.1496294140815735
1774656272401860000,2.867860107421875,0.9904518127441406,-1.8074474334716797,0.19777745008468628
1774656272411860000,2.87785986328125,1.178135871887207,-2.166626453399658,0.6006672978401184
1774656272421860000,2.887860107421875,1.1978912353515625,-2.3952889442443848,0.6925949454307556
1774656272431860000,2.89785986328125,1.329397201538086,-2.361172676086426,0.2947741746902466
1774656272441860000,2.907860107421875,1.5613031387329102,-2.279149055480957,0.05106562376022339
1774656272451860000,2.91785986328125,1.4988384246826172,-2.286780834197998,0.049349069595336914
1774656272461860000,2.927860107421875,1.3635692596435547,-2.3673765659332275,0.3469923734664917
1774656272471860000,2.93785986328125,1.055283546447754,-2.4617490768432617,0.8315340280532837
1774656272481860000,2.947860107421875,0.7359647750854492,-2.3907601833343506,1.1904504299163818
1774656272491860000,2.95785986328125,0.4697084426879883,-2.0470361709594727,1.2415502071380615
1774656272501860000,2.967860107421875,0.4598422050476074,-1.553337574005127,0.8107372522354126
1774656272511860000,2.97785986328125,0.3491358757019043,-0.9867062568664551,0.33079993724823
1774656272521860000,2.987860107421875,-0.08547115325927734,-0.6904788017272949,-0.09081637859344482
1774656272531860000,2.99785986328125,-0.3278183937072754,-0.47739076614379883,-0.31187236309051514
1774656272541860000,3.007860107421875,-0.4206113815307617,-0.25594139099121094,-0.22502505779266357
1774656272551860000,3.01785986328125,-0.4021639823913574,-0.0772862434387207,-0.04553544521331787
1774656272561860000,3.027860107421875,-0.3873271942138672,0.07619810104370117,-0.14988303184509277
1774656272571860000,3.03785986328125,-0.49169349670410156,0.47649240493774414,-0.9347992539405823
1774656272581860000,3.047860107421875,-0.5869903564453125,0.964874267578125,-1.4946469068527222
1774656272591860000,3.05785986328125,-0.7780318260192871,1.5929994583129883,-1.615234136581421
1774656272601860000,3.067860107421875,-0.9894962310791016,1.9414067268371582,-1.427114486694336
1774656272611860000,3.07785986328125,-1.456406593322754,1.8897619247436523,-1.2180287837982178
1774656272621860000,3.087860107421875,-1.960662841796875,1.7580385208129883,-1.0394974946975708
1774656272631860000,3.09785986328125,-1.98421049118042,1.5692477226257324,-0.9481620788574219
1774656272641860000,3.107860107421875,-1.5776562690734863,1.364290714263916,-1.0550413131713867
1774656272651860000,3.11785986328125,-1.1419601440429688,1.1921944618225098,-1.1563756465911865
1774656272661860000,3.127860107421875,-0.724278450012207,0.9906406402587891,-0.8041956424713135
1774656272671860000,3.13785986328125,-0.4260220527648926,0.902193546295166,-0.5762308835983276
1774656272681860000,3.147860107421875,-0.3162803649902344,0.8311614990234375,-0.4695742130279541
1774656272691860000,3.15785986328125,-0.3822784423828125,0.7589521408081055,-0.29420995712280273
1774656272701860000,3.167860107421875,-0.8252573013305664,0.7678041458129883,-0.1458979845046997
1774656272711860000,3.17785986328125,-0.8900346755981445,0.7868294715881348,-0.09720683097839355
1774656272721860000,3.187860107421875,-0.5063347816467285,0.7753772735595703,-0.15286874771118164
1774656272731860000,3.19785986328125,0.010780811309814453,0.7551627159118652,-0.3848390579223633
1774656272741860000,3.207860107421875,-0.2582058906555176,0.8129491806030273,-0.19813942909240723
1774656272751860000,3.21785986328125,-0.22006702423095703,0.7330474853515625,-0.389809250831604
1774656272761860000,3.227860107421875,0.6798272132873535,0.9527344703674316,-0.7538875341415405
1774656272771860000,3.23785986328125,0.8649168014526367,1.088270664215088,-0.9183933138847351
1774656272781860000,3.247860107421875,0.2870445251464844,1.1884446144104004,-0.6973690390586853
1774656272791860000,3.25785986328125,0.12665414810180664,1.2963061332702637,-0.538663387298584
1774656272801860000,3.267860107421875,0.04440784454345703,1.2775306701660156,-0.5023537874221802
1774656272811860000,3.27785986328125,0.054752349853515625,1.169633388519287,-0.10524928569793701
1774656272821860000,3.287860107421875,-0.04976797103881836,0.9789385795593262,0.1505744457244873
1774656272831860000,3.29785986328125,-0.15705537796020508,0.7653498649597168,0.5390217304229736
1774656272841860000,3.307860107421875,0.006901264190673828,0.5057487487792969,0.8862826824188232
1774656272851860000,3.31785986328125,0.3677711486816406,0.3242506980895996,0.9027352333068848
1774656272861860000,3.327860107421875,0.7667765617370605,0.08454656600952148,0.38303303718566895
1774656272871860000,3.33785986328125,1.205352783203125,-0.1649465560913086,0.3383646011352539
1774656272881860000,3.347860107421875,1.6254429817199707,-0.21873140335083008,0.7399039268493652
1774656272891860000,3.35785986328125,1.3253092765808105,0.049874305725097656,0.38055098056793213
1774656272901860000,3.367860107421875,0.6351566314697266,0.1932387351989746,0.047902822494506836
1774656272911860000,3.37785986328125,-0.4573216438293457,0.07367420196533203,0.13406109809875488
1774656272921860000,3.387860107421875,-1.2854719161987305,-0.26272010803222656,0.6177400350570679
1774656272931860000,3.39785986328125,-0.9301719665527344,-0.4612407684326172,1.0148636102676392
1774656272941860000,3.407860107421875,-0.6701946258544922,-0.4296140670776367,1.6825615167617798
1774656272951860000,3.41785986328125,-1.3746118545532227,0.23007774353027344,1.91306734085083
1774656272961860000,3.427860107421875,-1.0000743865966797,0.30282163619995117,1.5743287801742554
1774656272971860000,3.43785986328125,-1.0016145706176758,0.3729391098022461,1.1155482530593872
1774656272981860000,3.447860107421875,-0.8817472457885742,0.4121823310852051,0.9785982370376587
1774656272991860000,3.45785986328125,-0.4356565475463867,0.4137735366821289,1.2335314750671387
1774656273001860000,3.467860107421875,-0.794318675994873,0.3065967559814453,1.5093525648117065
1774656273011860000,3.47785986328125,-1.5905838012695312,0.07401084899902344,1.8080052137374878
1774656273021860000,3.487860107421875,-2.1593456268310547,-0.04722881317138672,1.6625267267227173
1774656273031860000,3.49785986328125,-2.248227119445801,-0.08156824111938477,1.3035249710083008
1774656273041860000,3.507860107421875,-2.1787736415863037,-0.24640417098999023,1.1443004608154297
1774656273051860000,3.51785986328125,-2.102400064468384,-0.34827709197998047,0.9004536271095276
1774656273061860000,3.527860107421875,-1.9160270690917969,-0.4200286865234375,0.8408843278884888
1774656273071860000,3.53785986328125,-1.7012577056884766,-0.6821908950805664,0.5911756753921509
1774656273081860000,3.547860107421875,-1.279447078704834,-0.9024143218994141,0.21418198943138123
1774656273091860000,3.55785986328125,-1.3094758987426758,-0.9180688858032227,-0.09585612267255783
1774656273101860000,3.567860107421875,-1.3767545223236084,-0.4005746841430664,-0.37018728256225586
1774656273111860000,3.57785986328125,-0.874821662902832,0.21823692321777344,-0.17859232425689697
1774656273121860000,3.587860107421875,0.24811220169067383,0.3369894027709961,-0.3763481378555298
1774656273131860000,3.59785986328125,1.4627580642700195,0.2769603729248047,-0.7128453254699707
1774656273141860000,3.607860107421875,2.155459403991699,0.10573482513427734,-1.0002985000610352
1774656273151860000,3.61785986328125,2.2009100914001465,-0.01902294158935547,-0.9808456301689148
1774656273161860000,3.627860107421875,1.5731077194213867,-0.0021772384643554688,-0.6475852727890015
1774656273171860000,3.63785986328125,0.7610855102539062,0.11307430267333984,-0.050747498869895935
1774656273181860000,3.647860107421875,0.23719286918640137,-0.04628467559814453,0.2569725215435028
1774656273191860000,3.65785986328125,0.15778398513793945,-0.2443552017211914,0.04743921384215355
1774656273201860000,3.667860107421875,0.6928448677062988,-0.031607627868652344,0.0868915542960167
1774656273211860000,3.67785986328125,1.1834945678710938,0.032273292541503906,0.23559992015361786
1774656273221860000,3.687860107421875,1.772402286529541,0.013845443725585938,0.22398407757282257
1774656273231860000,3.69785986328125,2.719989776611328,-0.2356853485107422,0.1279202103614807
1774656273241860000,3.707860107421875,3.310570240020752,-0.3895225524902344,-0.00047947466373443604
1774656273251860000,3.71785986328125,4.126890659332275,-0.6710634231567383,0.14267927408218384
1774656273261860000,3.727860107421875,3.7825441360473633,-0.9375672340393066,0.5650941133499146
1774656273271860000,3.73785986328125,2.6328911781311035,-1.050093173980713,0.8574787378311157
1774656273281860000,3.747860107421875,1.3212392330169678,-1.1846933364868164,1.343266248703003
1774656273291860000,3.75785986328125,-0.0736536979675293,-1.416271686553955,1.368516445159912
1774656273301860000,3.767860107421875,-1.0591530799865723,-1.5003986358642578,1.2585601806640625
1774656273311860000,3.77785986328125,-1.6566301584243774,-1.428091049194336,0.7971209287643433
1774656273321860000,3.787860107421875,-1.5565204620361328,-1.2055072784423828,0.1600767970085144
1774656273331860000,3.79785986328125,-1.2056769132614136,-1.0814790725708008,-0.3325798213481903
1774656273341860000,3.807860107421875,-0.7915060520172119,-0.8227834701538086,-0.8090497255325317
1774656273351860000,3.81785986328125,-0.15134191513061523,-0.4380168914794922,-0.8977895975112915
1774656273361860000,3.827860107421875,0.16245293617248535,-0.2570304870605469,-0.7295328378677368
1774656273371860000,3.83785986328125,-0.062181711196899414,-0.17504215240478516,-0.30363672971725464
1774656273381860000,3.847860107421875,-0.6832839250564575,-0.2423076629638672,0.09701476991176605
1774656273391860000,3.85785986328125,-1.1423046588897705,-0.4195728302001953,0.31161922216415405
1774656273401860000,3.867860107421875,-1.2460299730300903,-0.5387077331542969,0.35743823647499084
1774656273411860000,3.87785986328125,-0.8425712585449219,-0.38205909729003906,-0.14093822240829468
1774656273421860000,3.887860107421875,0.22638344764709473,0.060028076171875,-0.718911349773407
1774656273431860000,3.89785986328125,1.1111056804656982,0.5506582260131836,-1.1391817331314087
1774656273441860000,3.907860107421875,1.3826591968536377,0.7540359497070312,-1.3149781227111816
1774656273451860000,3.91785986328125,1.0184671878814697,0.8552522659301758,-1.0578349828720093
1774656273461860000,3.927860107421875,0.3501579761505127,0.7080450057983398,-0.5280925035476685
1774656273471860000,3.93785986328125,-0.10894560813903809,0.4077587127685547,-0.12898726761341095
1774656273481860000,3.947860107421875,-0.11854934692382812,0.11433124542236328,0.3230873942375183
1774656273491860000,3.95785986328125,-0.059149742126464844,0.11745548248291016,0.6512457132339478
1774656273501860000,3.967860107421875,0.6635315418243408,0.15800762176513672,0.6996554136276245
1774656273511860000,3.97785986328125,1.6066076755523682,-0.11002922058105469,0.44568711519241333
1774656273521860000,3.987860107421875,2.1228041648864746,-0.22215843200683594,0.23145034909248352
1774656273531860000,3.99785986328125,2.0738961696624756,-0.22638893127441406,0.05621408671140671
1774656273541860000,4.007860107421875,1.5246357917785645,-0.11797142028808594,0.2075195610523224
1774656273551860000,4.01785986328125,0.5765218734741211,-0.006646156311035156,0.5271648168563843
1774656273561860000,4.027860107421875,1.9040520191192627,-0.04610633850097656,1.4488643407821655
1774656273571860000,4.03785986328125,-2.3220582008361816,0.47965431213378906,0.6025840640068054
1774656273581860000,4.047860107421875,-0.7552692890167236,0.6953344345092773,0.5588415861129761
1774656273591860000,4.05785986328125,-0.17775750160217285,0.11508464813232422,0.48708441853523254
1774656273601860000,4.067860107421875,-0.32741284370422363,0.045121192932128906,0.3926495909690857
1774656273611860000,4.07785986328125,-0.1021273136138916,-0.08278751373291016,0.05221758037805557
1774656273621860000,4.087860107421875,0.43755650520324707,-0.02758312225341797,-0.587479293346405
1774656273631860000,4.09785986328125,0.4054524898529053,0.3362255096435547,-0.9437287449836731
1774656273641860000,4.107860107421875,0.24547696113586426,0.6617298126220703,-1.025680661201477
1774656273651860000,4.11785986328125,-2.181966543197632,0.6296501159667969,-0.07715478539466858
1774656273661860000,4.127860107421875,-1.2239954471588135,0.045154571533203125,-0.2694282531738281
1774656273671860000,4.13785986328125,-1.197444200515747,0.13587093353271484,-0.013546183705329895
1774656273681860000,4.147860107421875,-0.8483409881591797,-0.18401336669921875,0.14395056664943695
1774656273691860000,4.15785986328125,-0.733694314956665,-0.4043455123901367,0.3047654628753662
1774656273701860000,4.167860107421875,0.20698142051696777,-0.5863790512084961,0.2582913637161255
1774656273711860000,4.17785986328125,0.731964111328125,-0.5313091278076172,-0.013371214270591736
1774656273721860000,4.187860107421875,0.35926246643066406,-0.26264476776123047,0.17669600248336792
1774656273731860000,4.19785986328125,0.6153483390808105,-0.09390449523925781,-0.12413538992404938
1774656273741860000,4.207860107421875,-0.47602367401123047,-0.23698711395263672,0.21879126131534576
1774656273751860000,4.21785986328125,-1.3179633617401123,0.14490985870361328,0.3949905335903168
1774656273761860000,4.227860107421875,-1.3866314888000488,0.44858646392822266,0.660637617111206
1774656273771860000,4.23785986328125,-1.4001948833465576,0.46962547302246094,0.6980198621749878
1774656273781860000,4.247860107421875,-0.40822458267211914,0.4137258529663086,0.46336618065834045
1774656273791860000,4.25785986328125,0.7942957878112793,0.45906543731689453,0.21383455395698547
1774656273801860000,4.267860107421875,2.12783145904541,0.8402595520019531,-0.3579542338848114
1774656273811860000,4.27785986328125,3.9602696895599365,1.1823368072509766,-0.25004544854164124
1774656273821860000,4.287860107421875,4.005999565124512,0.7798709869384766,0.25923022627830505
1774656273831860000,4.29785986328125,-2.916940927505493,1.647195816040039,0.498069703578949
1774656273841860000,4.307860107421875,-1.3041539192199707,1.3916969299316406,1.1740145683288574
1774656273851860000,4.31785986328125,-0.04659008979797363,0.7585172653198242,0.8979561924934387
1774656273861860000,4.327860107421875,-0.6173346042633057,1.041752815246582,0.1862698197364807
1774656273871860000,4.33785986328125,-0.4618382453918457,1.1464242935180664,0.22989661991596222
1774656273881860000,4.347860107421875,0.6601431369781494,1.3981704711914062,-0.3595752716064453
1774656273891860000,4.35785986328125,0.013136148452758789,1.3273696899414062,-0.36668285727500916
1774656273901860000,4.367860107421875,0.028183460235595703,0.8339557647705078,-0.260501891374588
1774656273911860000,4.37785986328125,0.3890414237976074,0.19763946533203125,-0.4587562084197998
1774656273921860000,4.387860107421875,0.5681908130645752,-0.042232513427734375,-0.46165353059768677
1774656273931860000,4.39785986328125,0.49776554107666016,-0.5001182556152344,-0.08647330105304718
1774656273941860000,4.407860107421875,0.4500894546508789,-0.9397754669189453,0.33418771624565125
1774656273951860000,4.41785986328125,0.6960351467132568,-0.9716429710388184,0.3698294758796692
1774656273961860000,4.427860107421875,0.8481900691986084,-0.7925443649291992,0.38901999592781067
1774656273971860000,4.43785986328125,0.39772915840148926,-0.5282049179077148,0.2656243145465851
1774656273981860000,4.447860107421875,-0.09252190589904785,-0.20478439331054688,0.4148242771625519
1774656273991860000,4.45785986328125,-0.5698471069335938,-0.4557371139526367,0.3647836744785309
1774656274001860000,4.467860107421875,-0.1040182113647461,-0.5540933609008789,0.2220238745212555
1774656274011860000,4.47785986328125,0.3316371440887451,-0.7667694091796875,-0.25603726506233215
1774656274021860000,4.487860107421875,0.9975624084472656,-0.3525533676147461,-0.9225142598152161
1774656274031860000,4.49785986328125,1.2679896354675293,0.0890951156616211,-1.0703859329223633
1774656274041860000,4.507860107421875,1.2794203758239746,0.29323768615722656,-1.108596682548523
1774656274051860000,4.51785986328125,0.6310896873474121,0.3599424362182617,-0.869624674320221
1774656274061860000,4.527860107421875,-0.24202537536621094,0.32063770294189453,-0.3425901532173157
1774656274071860000,4.53785986328125,-1.1407470703125,0.2533130645751953,-0.025743037462234497
1774656274081860000,4.547860107421875,-1.8695294857025146,0.1501932144165039,-0.14028730988502502
1774656274091860000,4.55785986328125,-1.4758610725402832,0.08551597595214844,-0.24091003835201263
1774656274101860000,4.567860107421875,-0.844369649887085,-0.20002079010009766,-0.5612491965293884
1774656274111860000,4.57785986328125,0.2665843963623047,-0.4384899139404297,-0.9866347312927246
1774656274121860000,4.587860107421875,0.8628497123718262,-0.4187507629394531,-0.8604041934013367
1774656274131860000,4.59785986328125,0.4949002265930176,-0.5041742324829102,-0.6533146500587463
1774656274141860000,4.607860107421875,-0.07050013542175293,-0.5143976211547852,-0.2382819801568985
1774656274151860000,4.61785986328125,-1.0113427639007568,-0.47702789306640625,0.04821454733610153
1774656274161860000,4.627860107421875,-1.646920919418335,-0.4276409149169922,0.3151813745498657
1774656274171860000,4.63785986328125,-2.121506690979004,-0.4196300506591797,0.3884630799293518
1774656274181860000,4.647860107421875,-1.68638014793396,-0.012645721435546875,0.14237456023693085
1774656274191860000,4.65785986328125,-0.8063013553619385,0.18095111846923828,-0.4793786108493805
1774656274201860000,4.667860107421875,0.3259117603302002,0.14768123626708984,-1.1612012386322021
1774656274211860000,4.67785986328125,0.596440315246582,0.3366689682006836,-1.26695716381073
1774656274221860000,4.687860107421875,0.5152294635772705,0.7235536575317383,-1.1210304498672485
1774656274231860000,4.69785986328125,0.5010552406311035,0.6733331680297852,-0.14808061718940735
1774656274241860000,4.707860107421875,-0.23329854011535645,0.4529838562011719,0.5393891930580139
1774656274251860000,4.71785986328125,-0.42103075981140137,0.38814353942871094,1.0166467428207397
1774656274261860000,4.727860107421875,-0.49775123596191406,0.4441251754760742,0.9394071698188782
1774656274271860000,4.73785986328125,-0.18230414390563965,0.5823183059692383,0.501640260219574
1774656274281860000,4.747860107421875,0.04659247398376465,0.46359920501708984,-0.23562143743038177
1774656274291860000,4.75785986328125,0.694145917892456,0.5491132736206055,-1.2862176895141602
1774656274301860000,4.767860107421875,0.5807516574859619,0.10806751251220703,-0.7270187139511108
1774656274311860000,4.77785986328125,1.0066192150115967,0.030028343200683594,-0.8982210755348206
1774656274321860000,4.787860107421875,0.7526187896728516,0.6222515106201172,0.017506927251815796
1774656274331860000,4.79785986328125,-0.30461883544921875,1.0250253677368164,1.0996439456939697
1774656274341860000,4.807860107421875,0.08067536354064941,1.275712013244629,1.32505464553833
1774656274351860000,4.81785986328125,0.9148528575897217,1.1997156143188477,0.9368641376495361
1774656274361860000,4.827860107421875,1.7565724849700928,0.682225227355957,-0.3263448476791382
1774656274371860000,4.83785986328125,2.7433650493621826,0.37961864471435547,-1.1169705390930176
1774656274381860000,4.847860107421875,2.316416025161743,0.02261829376220703,-1.0180675983428955
1774656274391860000,4.85785986328125,0.7728264331817627,-0.25987815856933594,-0.47545793652534485
1774656274401860000,4.867860107421875,-0.9861540794372559,-0.4023704528808594,0.5953736305236816
1774656274411860000,4.87785986328125,-2.2682554721832275,-0.6414432525634766,1.3192042112350464
1774656274421860000,4.887860107421875,-2.6556081771850586,-0.8416528701782227,1.428769826889038
1774656274431860000,4.89785986328125,-2.5211453437805176,-0.8465576171875,1.135068655014038
1774656274441860000,4.907860107421875,-1.612189531326294,-0.8378658294677734,0.6165866255760193
1774656274451860000,4.91785986328125,-0.6240081787109375,-0.9442462921142578,0.34227824211120605
1774656274461860000,4.927860107421875,0.12144351005554199,-1.1047563552856445,0.017298996448516846
1774656274471860000,4.93785986328125,0.3306405544281006,-1.3427009582519531,0.007990241050720215
1774656274481860000,4.947860107421875,0.012995004653930664,-1.6573705673217773,0.2972315549850464
1774656274491860000,4.95785986328125,-0.3865547180175781,-1.8557004928588867,0.7113717794418335
1774656274501860000,4.967860107421875,-0.5785858631134033,-2.0129904747009277,1.0292704105377197
1774656274511860000,4.97785986328125,-0.7051289081573486,-1.7247276306152344,1.0938440561294556
1774656274521860000,4.987860107421875,-0.17971324920654297,-1.1740655899047852,0.617222249507904
1774656274531860000,4.99785986328125,-0.037735700607299805,-0.7827653884887695,0.3622279167175293
1774656274541860000,5.007860107421875,-0.07552289962768555,-0.7587528228759766,0.07142595946788788
1774656274551860000,5.01785986328125,0.3098466396331787,-0.8887224197387695,-0.34759628772735596
1774656274561860000,5.027860107421875,0.479489803314209,-0.8601198196411133,-0.27628812193870544
1774656274571860000,5.03785986328125,0.42142534255981445,-0.82220458984375,-0.10675014555454254
1774656274581860000,5.047860107421875,0.3907783031463623,-0.5824289321899414,0.10631830245256424
1774656274591860000,5.05785986328125,0.2519402503967285,-0.36048126220703125,-0.01212706696242094
1774656274601860000,5.067860107421875,0.014894962310791016,-0.03314495086669922,-0.314042329788208
1774656274611860000,5.07785986328125,-3.6507065296173096,5.61290168762207,-4.362578392028809
1774656274621860000,5.087860107421875,-0.18950891494750977,3.4603118896484375,-6.558908939361572
1774656274631860000,5.09785986328125,2.6320717334747314,1.7944307327270508,-1.6403169631958008
1774656274641860000,5.107860107421875,0.5995755195617676,-0.0848093032836914,-1.1029317378997803
1774656274651860000,5.11785986328125,0.040261268615722656,0.5149679183959961,-0.3191729187965393
1774656274661860000,5.127860107421875,1.1598179340362549,-0.6327848434448242,-0.5664936900138855
1774656274671860000,5.13785986328125,1.03023362159729,-0.5592174530029297,0.10290608555078506
1774656274681860000,5.147860107421875,0.6651999950408936,-0.6604423522949219,0.7414586544036865
1774656274691860000,5.15785986328125,-0.0642080307006836,-0.46799755096435547,1.3783317804336548
1774656274701860000,5.167860107421875,-0.5010349750518799,-0.5291633605957031,1.5693966150283813
1774656274711860000,5.17785986328125,-0.814600944519043,-0.5974798202514648,1.633586049079895
1774656274721860000,5.187860107421875,-0.5435607433319092,-0.5998153686523438,1.4090750217437744
1774656274731860000,5.19785986328125,-0.19795894622802734,-0.4863128662109375,1.0988370180130005
1774656274741860000,5.207860107421875,0.22021079063415527,1.6693687438964844,0.679570734500885
1774656274751860000,5.21785986328125,-1.3111257553100586,2.18814754486084,0.7279720902442932
1774656274761860000,5.227860107421875,-1.5089223384857178,0.6412868499755859,0.4210321307182312
1774656274771860000,5.23785986328125,-0.7168674468994141,0.12746143341064453,0.30276572704315186
1774656274781860000,5.247860107421875,-0.27080464363098145,0.03172016143798828,0.40861544013023376
1774656274791860000,5.25785986328125,-0.18354582786560059,-0.22636127471923828,0.8079541325569153
1774656274801860000,5.267860107421875,0.19629144668579102,-0.5944347381591797,0.8885263800621033
1774656274811860000,5.27785986328125,1.1837198734283447,-1.5761613845825195,0.5378270149230957
1774656274821860000,5.287860107421875,1.6267883777618408,-2.352715492248535,1.1817585229873657
1774656274831860000,5.29785986328125,0.5086472034454346,-1.421271800994873,2.650787591934204
1774656274841860000,5.307860107421875,0.08311581611633301,-1.0791397094726562,0.9730190634727478
1774656274851860000,5.31785986328125,-0.19666767120361328,-0.05764484405517578,0.027663618326187134
1774656274861860000,5.327860107421875,-1.2582342624664307,0.062439918518066406,0.1756802648305893
1774656274871860000,5.33785986328125,-1.2300751209259033,0.7207584381103516,-0.00037643639370799065
1774656274881860000,5.347860107421875,-1.4650835990905762,0.7077932357788086,-0.6680290699005127
1774656274891860000,5.35785986328125,-1.6355648040771484,0.909393310546875,-0.8947031497955322
1774656274901860000,5.367860107421875,-1.3786594867706299,0.3680915832519531,-1.304471731185913
1774656274911860000,5.37785986328125,-1.3919281959533691,0.1096963882446289,-1.294241189956665
1774656274921860000,5.387860107421875,-0.8066637516021729,-0.07837486267089844,-1.1444505453109741
1774656274931860000,5.39785986328125,0.08889436721801758,-0.0846567153930664,-1.2450345754623413
1774656274941860000,5.407860107421875,1.0562331676483154,0.5704250335693359,-1.3478212356567383
1774656274951860000,5.41785986328125,1.3016374111175537,0.9729022979736328,-1.432748556137085
1774656274961860000,5.427860107421875,1.380199670791626,0.9256277084350586,-1.3045737743377686
1774656274971860000,5.43785986328125,1.3764221668243408,0.664607048034668,-1.025795340538025
1774656274981860000,5.447860107421875,0.686084508895874,0.44066333770751953,-0.664975106716156
1774656274991860000,5.45785986328125,0.1450972557067871,0.08268260955810547,-0.14185747504234314
1774656275001860000,5.467860107421875,-0.10671567916870117,-0.6531791687011719,0.12518742680549622
1774656275011860000,5.47785986328125,-0.5583178997039795,-0.7674970626831055,0.7402967214584351
1774656275021860000,5.487860107421875,0.015133380889892578,-0.8421010971069336,0.5898002982139587
1774656275031860000,5.49785986328125,0.007945537567138672,-0.6848897933959961,0.7998444437980652
1774656275041860000,5.507860107421875,0.38413095474243164,-0.7448673248291016,0.7459850311279297
1774656275051860000,5.51785986328125,0.4090695381164551,-0.7377510070800781,0.7647436261177063
1774656275061860000,5.527860107421875,-0.883232831954956,-0.5424585342407227,0.7743894457817078
1774656275071860000,5.53785986328125,-2.1966261863708496,-0.23845291137695312,0.9570287466049194
1774656275081860000,5.547860107421875,-2.413300037384033,-0.520197868347168,0.8589259386062622
1774656275091860000,5.55785986328125,-1.9600474834442139,-0.40999412536621094,1.0959515571594238
1774656275101860000,5.567860107421875,-0.9211983680725098,-0.5328445434570312,0.6153807640075684
1774656275111860000,5.57785986328125,-0.746882438659668,-0.09383296966552734,0.27679508924484253
1774656275121860000,5.587860107421875,-0.7470920085906982,0.040991783142089844,0.10232920944690704
1774656275131860000,5.59785986328125,0.03721761703491211,-0.10152721405029297,-0.3602195084095001
1774656275141860000,5.607860107421875,1.5047836303710938,-0.4441690444946289,-0.73977130651474
1774656275151860000,5.61785986328125,1.3826072216033936,0.43624401092529297,-0.517377495765686
1774656275161860000,5.627860107421875,-0.18308210372924805,0.7827072143554688,-0.426067054271698
1774656275171860000,5.63785986328125,0.2188725471496582,0.24844837188720703,-0.4335927367210388
1774656275181860000,5.647860107421875,0.24187636375427246,0.3331308364868164,0.0383947491645813
1774656275191860000,5.65785986328125,-0.39018797874450684,0.5370998382568359,0.2131185531616211
1774656275201860000,5.667860107421875,-0.716217041015625,0.5691061019897461,0.4811559319496155
1774656275211860000,5.67785986328125,-0.04180908203125,0.09089374542236328,0.0741967186331749
1774656275221860000,5.687860107421875,1.258552074432373,-0.3253746032714844,-0.7661764621734619
1774656275231860000,5.69785986328125,0.9869599342346191,-0.39038848876953125,-0.47465628385543823
1774656275241860000,5.707860107421875,0.6158089637756348,-0.20096492767333984,-0.20121677219867706
1774656275251860000,5.71785986328125,0.37866973876953125,-0.041108131408691406,-0.18913866579532623
1774656275261860000,5.727860107421875,0.07363367080688477,0.09782981872558594,0.33689871430397034
1774656275271860000,5.73785986328125,-0.644287109375,0.15830326080322266,0.7325156331062317
1774656275281860000,5.747860107421875,-0.7408003807067871,-0.13515186309814453,1.0081859827041626
1774656275291860000,5.75785986328125,-0.6910400390625,-0.017317771911621094,0.7563258409500122
1774656275301860000,5.767860107421875,-0.6039972305297852,0.051177978515625,0.4631524682044983
1774656275311860000,5.77785986328125,0.1947622299194336,-0.4443836212158203,-0.44105881452560425
1774656275321860000,5.787860107421875,0.943748950958252,-0.7962074279785156,-0.6449267864227295
1774656275331860000,5.79785986328125,1.0862812995910645,-1.0005884170532227,-0.7414397597312927
1774656275341860000,5.807860107421875,0.6892952919006348,-1.1392698287963867,-0.68471360206604
1774656275351860000,5.81785986328125,0.1318678855895996,-0.8634700775146484,-0.362867534160614
1774656275361860000,5.827860107421875,0.09146738052368164,-0.50128173828125,-0.18134644627571106
1774656275371860000,5.83785986328125,-0.0019288063049316406,0.09361553192138672,0.19451677799224854
1774656275381860000,5.847860107421875,-7.947505950927734,3.5363502502441406,1.0116429328918457
1774656275391860000,5.85785986328125,1.4474411010742188,-0.4683065414428711,-1.1536730527877808
1774656275401860000,5.867860107421875,1.288194179534912,1.1250247955322266,0.33657652139663696
1774656275411860000,5.87785986328125,-0.1618337631225586,1.1903152465820312,-1.1026597023010254
1774656275421860000,5.887860107421875,0.0032706260681152344,0.30341434478759766,-1.0837056636810303
1774656275431860000,5.89785986328125,-0.05614042282104492,1.3625431060791016,0.6327146887779236
1774656275441860000,5.907860107421875,-0.8313412666320801,1.4298582077026367,1.517866611480713
1774656275451860000,5.91785986328125,-1.1440517902374268,1.0651512145996094,1.85947585105896
1774656275461860000,5.927860107421875,-0.40150976181030273,0.2430438995361328,1.4984787702560425
1774656275471860000,5.93785986328125,-3.2574691772460938,0.8717660903930664,0.7668043375015259
1774656275481860000,5.947860107421875,0.030096054077148438,-0.6769933700561523,0.5254430174827576
1774656275491860000,5.95785986328125,1.867337703704834,0.19049930572509766,-0.10634581744670868
1774656275501860000,5.967860107421875,1.389892578125,-0.39377593994140625,-0.3930422067642212
1774656275511860000,5.97785986328125,1.057166576385498,0.3973722457885742,-0.48602911829948425
1774656275521860000,5.987860107421875,0.7725014686584473,0.4360208511352539,-0.7355868816375732
1774656275531860000,5.99785986328125,0.677619457244873,0.0024023056030273438,-0.4688105285167694
1774656275541860000,6.007860107421875,-0.013968944549560547,0.4968395233154297,0.07321310043334961
1774656275551860000,6.01785986328125,-0.6706304550170898,-0.06612300872802734,0.22660228610038757
1774656275561860000,6.027860107421875,-0.9153013229370117,-0.20028305053710938,0.5919799208641052
1774656275571860000,6.03785986328125,-1.192214012145996,0.29984092712402344,0.5719507932662964
1774656275581860000,6.047860107421875,-1.1201872825622559,-0.1254444122314453,-0.19380903244018555
1774656275591860000,6.05785986328125,-0.6501305103302002,0.13190269470214844,-0.4224148690700531
1774656275601860000,6.067860107421875,-0.43758678436279297,0.23130416870117188,-0.5938851833343506
1774656275611860000,6.07785986328125,-0.2986464500427246,0.3437662124633789,-0.4145360589027405
1774656275621860000,6.087860107421875,-0.780613899230957,-0.10041046142578125,-0.3048481345176697
1774656275631860000,6.09785986328125,-1.221238136291504,-0.18309688568115234,0.17594477534294128
1774656275641860000,6.107860107421875,-1.4290504455566406,-0.3377561569213867,0.4759605824947357
1774656275651860000,6.11785986328125,-1.63496732711792,-0.613490104675293,0.7272301912307739
1774656275661860000,6.127860107421875,-1.2946877479553223,-0.5844860076904297,0.8261382579803467
1774656275671860000,6.13785986328125,-0.6396312713623047,-1.0529956817626953,0.46478375792503357
1774656275681860000,6.147860107421875,-0.04051542282104492,-1.057380199432373,0.24711555242538452
1774656275691860000,6.15785986328125,2.8543386459350586,-1.0921106338500977,-0.6988607048988342
1774656275701860000,6.167860107421875,4.3106207847595215,-1.6929707527160645,-0.7195065021514893
1774656275711860000,6.17785986328125,0.6077680587768555,0.46526432037353516,0.5124174356460571
1774656275721860000,6.187860107421875,-0.08588123321533203,1.9555845260620117,-0.3696187734603882
1774656275731860000,6.19785986328125,-0.5265998840332031,2.557347297668457,-0.7129061818122864
1774656275741860000,6.207860107421875,-0.7781598567962646,3.400390625,-0.4310070276260376
1774656275751860000,6.21785986328125,0.32225704193115234,2.8026437759399414,-0.8572769165039062
1774656275761860000,6.227860107421875,0.8294806480407715,2.2148914337158203,-1.037503957748413
1774656275771860000,6.23785986328125,1.0009708404541016,1.240696907043457,-1.3398816585540771
1774656275781860000,6.247860107421875,0.6919455528259277,0.8326358795166016,-1.2706172466278076
1774656275791860000,6.25785986328125,0.6956887245178223,0.5719480514526367,-1.2298572063446045
1774656275801860000,6.267860107421875,0.18848276138305664,0.13381290435791016,-0.9949739575386047
1774656275811860000,6.27785986328125,0.31464099884033203,0.4047279357910156,-0.6683135032653809
1774656275821860000,6.287860107421875,-1.6325054168701172,-1.8984479904174805,4.3895087242126465
1774656275831860000,6.29785986328125,-1.478764295578003,-0.12725353240966797,3.4131453037261963
1774656275841860000,6.307860107421875,-1.9536728858947754,-0.11926937103271484,2.5802886486053467
1774656275851860000,6.31785986328125,-0.8026900291442871,-0.3975944519042969,1.052556037902832
1774656275861860000,6.327860107421875,0.790381908416748,-0.987701416015625,-1.1909035444259644
1774656275871860000,6.33785986328125,1.8005032539367676,0.21014976501464844,-1.7966052293777466
1774656275881860000,6.347860107421875,1.3561930656433105,1.3420753479003906,-1.5103341341018677
1774656275891860000,6.35785986328125,0.2855048179626465,0.9070358276367188,-0.1138756051659584
1774656275901860000,6.367860107421875,-0.20868921279907227,-0.031447410583496094,1.4028195142745972
1774656275911860000,6.37785986328125,-0.7643828392028809,-0.2759132385253906,1.7450634241104126
1774656275921860000,6.387860107421875,-0.9157276153564453,-0.16724300384521484,0.9845026731491089
1774656275931860000,6.39785986328125,-0.7655363082885742,-0.21202564239501953,-0.02910482883453369
1774656275941860000,6.407860107421875,-0.6297159194946289,-0.10801982879638672,-0.4625099301338196
1774656275951860000,6.41785986328125,-0.6833162307739258,0.22838878631591797,-0.6761842370033264
1774656275961860000,6.427860107421875,-0.7177691459655762,0.3176231384277344,-0.9178455471992493
1774656275971860000,6.43785986328125,-0.5934867858886719,0.4968996047973633,-0.9140192866325378
1774656275981860000,6.447860107421875,-0.6471226215362549,0.5200929641723633,-0.8815462589263916
1774656275991860000,6.45785986328125,-0.1780562400817871,0.1668539047241211,0.09064014256000519
1774656276001860000,6.467860107421875,-0.036055564880371094,-0.8409051895141602,0.749108612537384
1774656276011860000,6.47785986328125,-0.3105626106262207,-0.5571079254150391,1.3227874040603638
1774656276021860000,6.487860107421875,1.319836139678955,1.2710227966308594,0.035264234989881516
1774656276031860000,6.49785986328125,3.1264142990112305,-0.4637279510498047,-0.8521793484687805
1774656276041860000,6.507860107421875,-0.04402303695678711,-0.12090015411376953,0.6720152497291565
1774656276051860000,6.51785986328125,-1.1415910720825195,0.2708702087402344,0.3213110864162445
1774656276061860000,6.527860107421875,0.0490269660949707,0.11887073516845703,-0.43106809258461
1774656276071860000,6.53785986328125,0.4260401725769043,-0.032340049743652344,-0.350824236869812
1774656276081860000,6.547860107421875,-0.30054283142089844,0.03532600402832031,0.08349695801734924
1774656276091860000,6.55785986328125,-0.14516639709472656,-0.04349803924560547,0.6250109672546387
1774656276101860000,6.567860107421875,0.012598037719726562,-0.009524345397949219,0.41621023416519165
1774656276111860000,6.57785986328125,-0.2034592628479004,0.10325813293457031,0.18452967703342438
1774656276121860000,6.587860107421875,0.13952302932739258,-0.005496978759765625,-0.09978746622800827
1774656276131860000,6.59785986328125,0.40912532806396484,-0.05044078826904297,-0.38392141461372375
1774656276141860000,6.607860107421875,-0.404630184173584,0.3232231140136719,-0.11064717918634415
1774656276151860000,6.61785986328125,-0.6122417449951172,0.28732967376708984,-0.2912960946559906
1774656276161860000,6.627860107421875,0.08491182327270508,0.09377288818359375,-0.29894542694091797
1774656276171860000,6.63785986328125,0.5498805046081543,-0.1337127685546875,-0.08856763690710068
1774656276181860000,6.647860107421875,0.2126331329345703,-0.05984973907470703,0.34600943326950073
1774656276191860000,6.65785986328125,0.012767791748046875,-0.035408973693847656,0.32044655084609985
1774656276201860000,6.667860107421875,-0.06334686279296875,-0.0016317367553710938,0.372359037399292
1774656276211860000,6.67785986328125,0.014767646789550781,0.05413055419921875,0.16353543102741241
1774656276221860000,6.687860107421875,-0.1833038330078125,0.07655715942382812,-0.053616978228092194
1774656276231860000,6.69785986328125,-0.5040888786315918,0.3564176559448242,-0.41833555698394775
1774656276241860000,6.707860107421875,-0.8574645519256592,0.41763973236083984,-0.5404793620109558
1774656276251860000,6.71785986328125,-0.5437808036804199,0.3512868881225586,-0.9106628894805908
1774656276261860000,6.727860107421875,0.18916702270507812,-0.017907142639160156,-0.2352699339389801
1774656276271860000,6.73785986328125,0.5055131912231445,-0.36273765563964844,0.4310130774974823
1774656276281860000,6.747860107421875,0.5723938941955566,-0.28522586822509766,0.8779731392860413
1774656276291860000,6.75785986328125,0.2690739631652832,-0.1875009536743164,0.7345172762870789
1774656276301860000,6.767860107421875,-0.07823753356933594,0.0019254684448242188,0.21405215561389923
1774656276311860000,6.77785986328125,-0.3533906936645508,0.1615142822265625,-0.16942767798900604
1774656276321860000,6.787860107421875,-0.41184139251708984,0.25246334075927734,-0.4236619174480438
1774656276331860000,6.79785986328125,0.23827266693115234,0.11448192596435547,-0.5068591237068176
1774656276341860000,6.807860107421875,0.2842845916748047,0.08601570129394531,-0.3314935266971588
1774656276351860000,6.81785986328125,-0.07728958129882812,0.0647125244140625,0.0740354135632515
1774656276361860000,6.827860107421875,-0.3053703308105469,0.06652641296386719,0.30064448714256287
1774656276371860000,6.83785986328125,-0.16941595077514648,0.050644874572753906,0.33136847615242004
1774656276381860000,6.847860107421875,-0.0870504379272461,0.03338623046875,0.16813497245311737
1774656276391860000,6.85785986328125,-0.045342445373535156,0.03814125061035156,-0.0012512952089309692
1774656276401860000,6.867860107421875,0.019399642944335938,0.022062301635742188,-0.10542303323745728
1774656276411860000,6.87785986328125,0.019632339477539062,0.05437278747558594,-0.13839413225650787
1774656276421860000,6.887860107421875,-0.05126667022705078,0.019532203674316406,-0.08450384438037872
1774656276431860000,6.89785986328125,-0.09355640411376953,0.008780479431152344,0.018144531175494194
1774656276441860000,6.907860107421875,-0.1068563461303711,0.01360321044921875,0.11680077016353607
1774656276451860000,6.91785986328125,-0.10721874237060547,0.01450347900390625,0.15858928859233856
1774656276461860000,6.927860107421875,-0.041699886322021484,-0.01954174041748047,0.15168742835521698
1774656276471860000,6.93785986328125,0.0596013069152832,-0.0221710205078125,0.04933828487992287
1774656276481860000,6.947860107421875,0.04673290252685547,0.07578754425048828,-0.1388096809387207
1774656276491860000,6.95785986328125,-0.05986595153808594,0.06688499450683594,-0.22598999738693237
1774656276501860000,6.967860107421875,0.08168983459472656,0.011671066284179688,-0.19003717601299286
1774656276511860000,6.97785986328125,0.571866512298584,-0.3014411926269531,0.22802923619747162
1774656276521860000,6.987860107421875,0.4018230438232422,-0.024501800537109375,0.3754958510398865
1774656276531860000,6.99785986328125,-0.17615699768066406,0.05581474304199219,0.5136252045631409
1774656276541860000,7.007860107421875,-1.3453445434570312,0.5721807479858398,0.05593407154083252
1774656276551860000,7.01785986328125,-1.0908560752868652,0.15219593048095703,-0.513687252998352
1774656276561860000,7.027860107421875,0.33051586151123047,-0.013855934143066406,-0.39788612723350525
1774656276571860000,7.03785986328125,1.0911822319030762,-0.3323793411254883,-0.02891225926578045
1774656276581860000,7.047860107421875,0.7040190696716309,-0.353668212890625,0.580873966217041
1774656276591860000,7.05785986328125,-0.4547080993652344,0.2914285659790039,0.24929001927375793
1774656276601860000,7.067860107421875,-0.6719365119934082,0.3174114227294922,-0.4276764392852783
1774656276611860000,7.07785986328125,-0.279935359954834,0.32207393646240234,-0.5803110599517822
1774656276621860000,7.087860107421875,0.3205680847167969,-0.13105487823486328,-0.3867829442024231
1774656276631860000,7.09785986328125,0.6560583114624023,-0.37174224853515625,0.6581810712814331
1774656276641860000,7.107860107421875,0.3654818534851074,-0.23127269744873047,0.8023621439933777
1774656276651860000,7.11785986328125,-0.1857285499572754,0.07469844818115234,0.01661539077758789
1774656276661860000,7.127860107421875,0.17101335525512695,-0.10224723815917969,-0.05086495727300644
1774656276671860000,7.13785986328125,0.09795808792114258,-0.10350227355957031,0.28362393379211426
1774656276681860000,7.147860107421875,0.26305437088012695,-0.10692310333251953,-0.16285791993141174
1774656276691860000,7.15785986328125,-0.6622204780578613,0.43401527404785156,-0.31630992889404297
1774656276701860000,7.167860107421875,-0.6833574771881104,0.3498106002807617,-0.3574382960796356
1774656276711860000,7.17785986328125,-0.5443127155303955,0.30719661712646484,-0.6139280796051025
1774656276721860000,7.187860107421875,-0.0858449935913086,0.24875545501708984,-0.4687455892562866
1774656276731860000,7.19785986328125,0.35459470748901367,-0.2957162857055664,-0.0019504949450492859
1774656276741860000,7.207860107421875,0.46880674362182617,-0.41605091094970703,0.6562032699584961
1774656276751860000,7.21785986328125,0.25325489044189453,-0.2245960235595703,0.8712711334228516
1774656276761860000,7.227860107421875,0.10637140274047852,-0.058498382568359375,0.5477877855300903
1774656276771860000,7.23785986328125,-0.2111496925354004,0.10986995697021484,0.18030279874801636
1774656276781860000,7.247860107421875,-0.2775750160217285,0.15131282806396484,-0.13790397346019745
1774656276791860000,7.25785986328125,-0.18372774124145508,0.12365150451660156,-0.17051759362220764
1774656276801860000,7.267860107421875,0.3175621032714844,-0.0910797119140625,-0.050063252449035645
1774656276811860000,7.27785986328125,0.2268085479736328,-0.002323150634765625,-0.08227367699146271
1774656276821860000,7.287860107421875,0.23061656951904297,-0.06804656982421875,-0.08526897430419922
1774656276831860000,7.29785986328125,0.013220787048339844,0.0017538070678710938,0.23795458674430847
1774656276841860000,7.307860107421875,-0.2667660713195801,0.04792594909667969,0.1285107433795929
1774656276851860000,7.31785986328125,0.04435443878173828,0.06796836853027344,-0.10155537724494934
1774656276861860000,7.327860107421875,0.002238750457763672,0.08433246612548828,-0.2880178987979889
1774656276871860000,7.33785986328125,-0.052216529846191406,-0.012591361999511719,-0.04191472753882408
1774656276881860000,7.347860107421875,-0.24670839309692383,0.12184333801269531,0.09634767472743988
1774656276891860000,7.35785986328125,-0.19406700134277344,0.14567089080810547,0.10459548979997635
1774656276901860000,7.367860107421875,-0.031963348388671875,0.048030853271484375,0.046292345970869064
1774656276911860000,7.37785986328125,0.026987075805664062,-0.013762474060058594,0.08078716695308685
1774656276921860000,7.387860107421875,-0.04258298873901367,0.09505462646484375,-0.3895461857318878
1774656276931860000,7.39785986328125,-0.04159259796142578,-0.11264801025390625,0.2628966271877289
1774656276941860000,7.407860107421875,0.2366313934326172,0.042046546936035156,0.08154626190662384
1774656276951860000,7.41785986328125,-0.40880918502807617,0.0701303482055664,0.3781597316265106
1774656276961860000,7.427860107421875,0.08462762832641602,-0.06671619415283203,0.21150775253772736
1774656276971860000,7.43785986328125,0.5545268058776855,-0.31200504302978516,0.28477850556373596
1774656276981860000,7.447860107421875,0.34006357192993164,-0.21450328826904297,0.17823323607444763
1774656276991860000,7.45785986328125,0.008251667022705078,0.052165985107421875,-0.06778262555599213
1774656277001860000,7.467860107421875,-0.3020319938659668,0.15733909606933594,-0.20819762349128723
1774656277011860000,7.47785986328125,-0.23947715759277344,0.10870075225830078,-0.7978179454803467
1774656277021860000,7.487860107421875,0.1826338768005371,0.09395313262939453,-0.7638169527053833
1774656277031860000,7.49785986328125,-0.18218517303466797,0.16320133209228516,-0.48832952976226807
1774656277041860000,7.507860107421875,-0.031636714935302734,-0.008290290832519531,0.13847553730010986
1774656277051860000,7.51785986328125,0.23567628860473633,-0.26523590087890625,0.660918116569519
1774656277061860000,7.527860107421875,0.13124799728393555,-0.0721282958984375,0.6880548000335693
1774656277071860000,7.53785986328125,0.3115248680114746,-0.2167673110961914,0.9563421607017517
1774656277081860000,7.547860107421875,-0.0857696533203125,0.11819648742675781,-0.0031524039804935455
1774656277091860000,7.55785986328125,-0.08187341690063477,0.1242513656616211,-0.5349470376968384
1774656277101860000,7.567860107421875,-0.36026573181152344,0.10307121276855469,-0.3716977536678314
1774656277111860000,7.57785986328125,-0.12103557586669922,0.11849021911621094,-0.25514844059944153
1774656277121860000,7.587860107421875,-0.2170567512512207,0.2424030303955078,-0.47431811690330505
1774656277131860000,7.59785986328125,0.8416128158569336,0.18431568145751953,-0.07554201036691666
1774656277141860000,7.607860107421875,-0.03899717330932617,-0.36778831481933594,0.5392837524414062
1774656277151860000,7.61785986328125,-0.38384294509887695,-0.09094715118408203,0.23884707689285278
1774656277161860000,7.627860107421875,0.23277759552001953,-0.022344589233398438,-0.6286934018135071
1774656277171860000,7.63785986328125,-0.2541990280151367,-0.1630706787109375,-0.48079121112823486
1774656277181860000,7.647860107421875,-0.8470449447631836,0.04168701171875,-0.31980785727500916
1774656277191860000,7.65785986328125,-0.016743183135986328,-0.0002079010009765625,-0.21941441297531128
1774656277201860000,7.667860107421875,0.6747384071350098,-0.06667804718017578,0.31444159150123596
1774656277211860000,7.67785986328125,0.44918155670166016,-0.4276590347290039,1.1815468072891235
1774656277221860000,7.687860107421875,-0.31601858139038086,0.04983043670654297,1.2236772775650024
1774656277231860000,7.69785986328125,-0.0997014045715332,0.07747364044189453,0.18866316974163055
1774656277241860000,7.707860107421875,0.06970071792602539,0.033222198486328125,-0.25303298234939575
1774656277251860000,7.71785986328125,-0.16457748413085938,0.1121368408203125,-0.5285434126853943
1774656277261860000,7.727860107421875,0.010150909423828125,0.12568092346191406,-0.6673466563224792
1774656277271860000,7.73785986328125,0.04016828536987305,0.0738077163696289,-0.46723273396492004
1774656277281860000,7.747860107421875,-0.0354456901550293,0.03862285614013672,-0.17496351897716522
1774656277291860000,7.75785986328125,-0.032733917236328125,-0.0438232421875,0.14692208170890808
1774656277301860000,7.767860107421875,-0.05283498764038086,-0.016445159912109375,0.3090970516204834
1774656277311860000,7.77785986328125,0.05183982849121094,-0.060523033142089844,0.22799113392829895
1774656277321860000,7.787860107421875,0.15604639053344727,-0.09322071075439453,0.10005907714366913
1774656277331860000,7.79785986328125,0.07641077041625977,-0.008456230163574219,-0.02442323975265026
1774656277341860000,7.807860107421875,-0.06433677673339844,0.059978485107421875,-0.12098296731710434
1774656277351860000,7.81785986328125,-0.05488920211791992,0.0578460693359375,-0.15631993114948273
1774656277361860000,7.827860107421875,-0.020247936248779297,0.033888816833496094,-0.15473850071430206
1774656277371860000,7.83785986328125,-0.045042991638183594,0.03533744812011719,-0.01129019632935524
1774656277381860000,7.847860107421875,-0.048360347747802734,0.03168773651123047,0.12093544006347656
1774656277391860000,7.85785986328125,-0.01747608184814453,0.012220382690429688,0.2093324065208435
1774656277401860000,7.867860107421875,0.2164621353149414,-0.3127155303955078,0.36848464608192444
1774656277411860000,7.87785986328125,0.2037353515625,-0.15325260162353516,-0.02705277130007744
1774656277421860000,7.887860107421875,-0.41285133361816406,0.21597766876220703,0.16354802250862122
1774656277431860000,7.89785986328125,-0.31546449661254883,0.19042205810546875,-0.15939897298812866
1774656277441860000,7.907860107421875,0.13135528564453125,-0.035307884216308594,-0.053914133459329605
1774656277451860000,7.91785986328125,0.17542409896850586,-0.18406295776367188,0.3401797413825989
1774656277461860000,7.927860107421875,0.16835641860961914,-0.13938331604003906,0.534487247467041
1774656277471860000,7.93785986328125,-0.10490274429321289,-0.030652999877929688,0.016368936747312546
1774656277481860000,7.947860107421875,-0.1721348762512207,0.5175113677978516,-0.8383880257606506
1774656277491860000,7.95785986328125,0.4385495185852051,-0.21735382080078125,-0.6883222460746765
1774656277501860000,7.967860107421875,-0.24370765686035156,0.10956478118896484,0.26348841190338135
1774656277511860000,7.97785986328125,0.17992639541625977,0.08818721771240234,0.020691420882940292
1774656277521860000,7.987860107421875,-0.046407222747802734,-0.0806894302368164,0.011200107634067535
1774656277531860000,7.99785986328125,-0.18393468856811523,0.06489372253417969,0.19156159460544586
1774656277541860000,8.007860107421875,0.04475545883178711,-0.030127525329589844,0.33041250705718994
1774656277551860000,8.01785986328125,0.05655336380004883,-0.030729293823242188,0.35352587699890137
1774656277561860000,8.027860107421875,0.2501401901245117,-0.1499176025390625,0.4326044023036957
1774656277571860000,8.03785986328125,0.5007948875427246,-0.22072696685791016,0.2960582971572876
1774656277581860000,8.047860107421876,0.1149592399597168,0.0342559814453125,0.2792128026485443
1774656277591860000,8.05785986328125,-0.19713878631591797,0.10695266723632812,0.23331212997436523
1774656277601860000,8.067860107421875,0.1855311393737793,-0.024150848388671875,-0.3008851110935211
1774656277611860000,8.07785986328125,-0.8641517162322998,0.4846992492675781,-0.925503134727478
1774656277621860000,8.087860107421875,-1.293330192565918,0.76031494140625,-1.655877709388733
1774656277631860000,8.09785986328125,-0.19418001174926758,0.20621299743652344,-1.0093965530395508
1774656277641860000,8.107860107421875,0.44476318359375,-0.19196605682373047,-0.33089733123779297
1774656277651860000,8.11785986328125,0.3383169174194336,-0.12433147430419922,0.48020586371421814
1774656277661860000,8.127860107421874,0.2988896369934082,-0.4632701873779297,0.6033512949943542
1774656277671860000,8.13785986328125,1.0500454902648926,-0.6594724655151367,1.722457766532898
1774656277681860000,8.147860107421875,0.339113712310791,-0.2529106140136719,1.358136534690857
1774656277691860000,8.15785986328125,-0.2530670166015625,-0.0028047561645507812,0.851975679397583
1774656277701860000,8.167860107421875,-0.4771137237548828,0.1245584487915039,0.08754464983940125
1774656277711860000,8.17785986328125,-0.09700632095336914,0.15876007080078125,-0.9097851514816284
1774656277721860000,8.187860107421875,-0.26808691024780273,0.22327709197998047,-1.1877671480178833
1774656277731860000,8.19785986328125,-0.18540334701538086,0.1982107162475586,-0.8786126375198364
1774656277741860000,8.207860107421874,-0.10072755813598633,0.10704231262207031,-0.26413556933403015
1774656277751860000,8.21785986328125,0.0739140510559082,-0.03040790557861328,0.26205724477767944
1774656277761860000,8.227860107421876,0.1689152717590332,-0.11368656158447266,0.5499577522277832
1774656277771860000,8.23785986328125,0.20003843307495117,-0.08213424682617188,0.512245237827301
1774656277781860000,8.247860107421875,0.11377334594726562,0.0019683837890625,0.23531058430671692
1774656277791860000,8.25785986328125,-0.144927978515625,0.06926345825195312,-0.026279635727405548
1774656277801860000,8.267860107421875,-0.2883143424987793,0.13498878479003906,-0.24640464782714844
1774656277811860000,8.27785986328125,-0.11083459854125977,0.11739730834960938,-0.360526442527771
1774656277821860000,8.287860107421874,0.08104991912841797,0.01629638671875,-0.23638156056404114
1774656277831860000,8.29785986328125,0.045586585998535156,-0.02613544464111328,0.04237484186887741
1774656277841860000,8.307860107421876,-0.09057903289794922,-0.00551605224609375,0.2899813950061798
1774656277851860000,8.31785986328125,-0.025811195373535156,-0.0006361007690429688,0.3248801529407501
1774656277861860000,8.327860107421875,0.1467757225036621,-0.05079841613769531,0.17164729535579681
1774656277871860000,8.33785986328125,0.016858577728271484,-0.06396007537841797,-0.12123147398233414
1774656277881860000,8.347860107421875,-0.11585378646850586,-0.047461509704589844,-0.11824873834848404
1774656277891860000,8.35785986328125,0.32212400436401367,-0.05291271209716797,-0.08914182335138321
1774656277901860000,8.367860107421874,-0.01323556900024414,-0.06827640533447266,0.369183212518692
1774656277911860000,8.37785986328125,-0.12305545806884766,0.0295562744140625,0.3087472915649414
1774656277921860000,8.387860107421876,0.01868724822998047,0.02582550048828125,-0.031413402408361435
1774656277931860000,8.39785986328125,0.015682220458984375,-0.044594764709472656,0.01659710519015789
1774656277941860000,8.407860107421875,-0.18654870986938477,0.1965160369873047,-0.06822561472654343
1774656277951860000,8.41785986328125,-1.2003684043884277,0.6176586151123047,-0.8365645408630371
1774656277961860000,8.427860107421875,0.16900396347045898,0.07878398895263672,-0.7911061644554138
1774656277971860000,8.43785986328125,0.907841682434082,-0.27788352966308594,-0.132447749376297
1774656277981860000,8.447860107421874,0.36289405822753906,-0.10212039947509766,0.40098753571510315
1774656277991860000,8.45785986328125,-0.5146687030792236,0.18819236755371094,0.49857720732688904
1774656278001860000,8.467860107421876,-0.29551267623901367,0.06868839263916016,0.3681488037109375
1774656278011860000,8.47785986328125,0.12067031860351562,-0.16278934478759766,0.34310397505760193
1774656278021860000,8.487860107421875,-0.03933143615722656,-0.24785614013671875,0.1268799602985382
1774656278031860000,8.49785986328125,0.07327747344970703,-0.05364227294921875,-0.17244699597358704
1774656278041860000,8.507860107421875,0.2856125831604004,-0.11766529083251953,-0.250802218914032
1774656278051860000,8.51785986328125,0.4409198760986328,-0.09950542449951172,-0.16174276173114777
1774656278061860000,8.527860107421875,0.2836151123046875,-0.27221107482910156,0.3534112870693207
1774656278071860000,8.53785986328125,0.06923341751098633,-0.18645381927490234,0.5353420972824097
1774656278081860000,8.547860107421876,0.05100727081298828,0.11022567749023438,0.2519432306289673
1774656278091860000,8.55785986328125,-0.05269956588745117,0.14351367950439453,-0.19379118084907532
1774656278101860000,8.567860107421875,0.11756277084350586,-0.11640548706054688,-0.19961883127689362
1774656278111860000,8.57785986328125,-0.30196332931518555,0.3062162399291992,-0.5273818373680115
1774656278121860000,8.587860107421875,-1.3475475311279297,0.6650466918945312,-0.9768072366714478
1774656278131860000,8.59785986328125,-0.32286787033081055,0.2557525634765625,-0.7795416712760925
1774656278141860000,8.607860107421875,0.24509716033935547,-0.7103185653686523,0.6583570241928101
1774656278151860000,8.61785986328125,0.9311943054199219,-0.29821109771728516,0.6652686595916748
1774656278161860000,8.627860107421874,0.2646961212158203,-0.12224483489990234,0.7978857159614563
1774656278171860000,8.63785986328125,-0.29656314849853516,0.14261913299560547,0.539303183555603
1774656278181860000,8.647860107421875,-0.14284753799438477,0.09231376647949219,-0.07563112676143646
1774656278191860000,8.65785986328125,0.3610196113586426,-0.12036705017089844,-0.4381800889968872
1774656278201860000,8.667860107421875,0.3623466491699219,-0.08417987823486328,-0.5303736329078674
1774656278211860000,8.67785986328125,-0.3441147804260254,0.18830013275146484,-0.24528156220912933
1774656278221860000,8.687860107421875,-0.4905250072479248,0.20634937286376953,0.003159288316965103
1774656278231860000,8.69785986328125,0.10821199417114258,-0.06398868560791016,0.0798269584774971
1774656278241860000,8.707860107421874,0.4672722816467285,-0.2177581787109375,0.18194285035133362
1774656278251860000,8.71785986328125,0.06235551834106445,-0.03037261962890625,0.23026373982429504
1774656278261860000,8.727860107421876,-0.2212986946105957,0.057582855224609375,0.12537521123886108
1774656278271860000,8.73785986328125,-0.16327810287475586,0.04863166809082031,0.05393030121922493
1774656278281860000,8.747860107421875,0.04675483703613281,-0.019025802612304688,0.0121663399040699
1774656278291860000,8.75785986328125,0.012257099151611328,0.007777214050292969,0.06611074507236481
1774656278301860000,8.767860107421875,-0.18684148788452148,0.0867156982421875,0.16192202270030975
1774656278311860000,8.77785986328125,-0.16257286071777344,0.08694267272949219,0.1374422311782837
1774656278321860000,8.787860107421874,-0.04691267013549805,0.05726051330566406,0.05160224065184593
1774656278331860000,8.79785986328125,0.03670501708984375,0.023153305053710938,0.012939134612679482
1774656278341860000,8.807860107421876,-0.014740467071533203,0.04174613952636719,-0.022799689322710037
1774656278351860000,8.81785986328125,-0.12685728073120117,0.08246135711669922,-0.006518755108118057
1774656278361860000,8.827860107421875,-0.1628890037536621,0.0799856185913086,-0.0019041448831558228
1774656278371860000,8.83785986328125,0.5099506378173828,-0.22210979461669922,-0.19731733202934265
1774656278381860000,8.847860107421875,0.5901546478271484,-0.22057342529296875,-0.34569787979125977
1774656278391860000,8.85785986328125,-0.5008931159973145,0.1020050048828125,0.018827319145202637
1774656278401860000,8.867860107421874,-0.5429222583770752,0.11616802215576172,0.6280133128166199
1774656278411860000,8.87785986328125,0.08376455307006836,-0.1163177490234375,0.5878496766090393
1774656278421860000,8.887860107421876,0.36508941650390625,-0.1329326629638672,0.059151142835617065
1774656278431860000,8.89785986328125,-0.1401510238647461,0.1382761001586914,-0.7026894688606262
1774656278441860000,8.907860107421875,-0.5354669094085693,0.37297630310058594,-1.0302720069885254
1774656278451860000,8.91785986328125,-0.6544804573059082,0.36142539978027344,-0.6197155714035034
1774656278461860000,8.927860107421875,0.06128120422363281,-0.052565574645996094,0.18028810620307922
1774656278471860000,8.93785986328125,0.5737080574035645,-0.2864341735839844,0.680117130279541
1774656278481860000,8.947860107421874,0.6383271217346191,-0.3745546340942383,1.1007227897644043
1774656278491860000,8.95785986328125,0.5644912719726562,-0.33841609954833984,1.1314384937286377
1774656278501860000,8.967860107421876,0.168548583984375,-0.09496784210205078,0.542294979095459
1774656278511860000,8.97785986328125,-0.27080774307250977,0.06634235382080078,-0.15967819094657898
1774656278521860000,8.987860107421875,-0.27536678314208984,0.2195758819580078,-0.5165928602218628
1774656278531860000,8.99785986328125,-0.1198720932006836,0.19309711456298828,-0.5470893979072571
1774656278541860000,9.007860107421875,-0.21512794494628906,0.22268009185791016,-0.8021466732025146
1774656278551860000,9.01785986328125,0.02725505828857422,0.04010772705078125,-0.5731394290924072
1774656278561860000,9.027860107421875,-0.0029840469360351562,-0.016382217407226562,-0.26581206917762756
1774656278571860000,9.03785986328125,0.0980539321899414,-0.015059471130371094,0.1593325287103653
1774656278581860000,9.047860107421876,-0.1402420997619629,0.019537925720214844,0.3931697905063629
1774656278591860000,9.05785986328125,0.14154434204101562,-0.18441104888916016,0.7247636318206787
1774656278601860000,9.067860107421875,0.20136594772338867,-0.10889339447021484,0.27551689743995667
1774656278611860000,9.07785986328125,0.09473085403442383,-0.07287120819091797,-0.08434699475765228
1774656278621860000,9.087860107421875,-0.11883735656738281,0.057781219482421875,-0.28169867396354675
1774656278631860000,9.09785986328125,-0.15922212600708008,0.0874013900756836,-0.25518736243247986
1774656278641860000,9.107860107421875,0.25445985794067383,-0.026859283447265625,-0.24902048707008362
1774656278651860000,9.11785986328125,0.23257923126220703,-0.0689077377319336,-0.14958681166172028
1774656278661860000,9.127860107421874,0.04083061218261719,-0.00675201416015625,0.13398028910160065
1774656278671860000,9.13785986328125,-0.07890987396240234,0.01968097686767578,0.16005870699882507
1774656278681860000,9.147860107421875,-0.1229248046875,0.0954742431640625,0.09708777815103531
1774656278691860000,9.15785986328125,-0.16613388061523438,0.1239633560180664,0.11082219332456589
1774656278701860000,9.167860107421875,-0.04646158218383789,0.022127151489257812,-0.08288344740867615
1774656278711860000,9.17785986328125,0.1551527976989746,-0.06853771209716797,-0.14160260558128357
1774656278721860000,9.187860107421875,0.09714460372924805,-0.025812149047851562,0.02328646555542946
1774656278731860000,9.19785986328125,-0.06951093673706055,0.0022783279418945312,0.13273262977600098
1774656278741860000,9.207860107421874,-0.09598398208618164,-0.0022783279418945312,0.12725454568862915
1774656278751860000,9.21785986328125,-0.10477352142333984,-0.0030040740966796875,0.1274237036705017
1774656278761860000,9.227860107421876,0.0567317008972168,-0.02528667449951172,-0.04206482321023941
1774656278771860000,9.23785986328125,0.2153334617614746,-0.07897472381591797,-0.20691362023353577
1774656278781860000,9.247860107421875,0.047437191009521484,0.019092559814453125,-0.22456806898117065
1774656278791860000,9.25785986328125,0.037897586822509766,-0.0023889541625976562,-0.15056736767292023
1774656278801860000,9.267860107421875,0.011736392974853516,0.020826339721679688,-0.020396679639816284
1774656278811860000,9.27785986328125,-0.04337024688720703,0.052186012268066406,0.021417535841464996
1774656278821860000,9.287860107421874,-0.13854694366455078,0.09403610229492188,0.21777939796447754
1774656278831860000,9.29785986328125,-0.28021812438964844,0.10364055633544922,0.16355466842651367
1774656278841860000,9.307860107421876,-0.14522743225097656,0.008543014526367188,0.16056950390338898
1774656278851860000,9.31785986328125,0.0012569427490234375,-0.07132148742675781,0.20395827293395996
1774656278861860000,9.327860107421875,0.24927425384521484,-0.09261322021484375,-0.1153552308678627
1774656278871860000,9.33785986328125,0.39914798736572266,-0.16387557983398438,-0.015416264533996582
1774656278881860000,9.347860107421875,-0.07100772857666016,0.08483409881591797,0.048361606895923615
1774656278891860000,9.35785986328125,-0.06466293334960938,-0.025897979736328125,-0.0917665958404541
1774656278901860000,9.367860107421874,0.09399127960205078,0.023751258850097656,-0.28085756301879883
1774656278911860000,9.37785986328125,-0.11582660675048828,0.10616588592529297,-0.5196559429168701
1774656278921860000,9.387860107421876,-0.290163516998291,0.2622861862182617,-0.5317854285240173
1774656278931860000,9.39785986328125,-0.6136569976806641,0.24510860443115234,-0.02019880712032318
1774656278941860000,9.407860107421875,-0.0654597282409668,-0.03571510314941406,0.28962090611457825
1774656278951860000,9.41785986328125,0.553736686706543,-0.2897377014160156,0.6797939538955688
1774656278961860000,9.427860107421875,0.3905506134033203,-0.19707202911376953,0.5214188694953918
1774656278971860000,9.43785986328125,-0.005046367645263672,-0.01603221893310547,0.13298025727272034
1774656278981860000,9.447860107421874,-0.1628875732421875,0.095611572265625,-0.005519688129425049
1774656278991860000,9.45785986328125,-0.06088447570800781,0.05340003967285156,-0.017031699419021606
1774656279001860000,9.467860107421876,-0.055561065673828125,0.19181346893310547,-0.36736220121383667
1774656279011860000,9.47785986328125,-0.849435567855835,0.9199600219726562,-1.534566044807434
1774656279021860000,9.487860107421875,-1.1472258567810059,-0.20420169830322266,0.05684419721364975
1774656279031860000,9.49785986328125,1.0589308738708496,-0.2877931594848633,-0.24987053871154785
1774656279041860000,9.507860107421875,0.603142261505127,-0.35387325286865234,0.2901940941810608
1774656279051860000,9.51785986328125,0.1878361701965332,-0.19285869598388672,0.797883152961731
1774656279061860000,9.527860107421875,0.0447235107421875,-0.07437419891357422,0.7997069358825684
1774656279071860000,9.53785986328125,-0.14527654647827148,0.05499458312988281,0.3563575744628906
1774656279081860000,9.547860107421876,-0.15460824966430664,0.025816917419433594,-0.0882364884018898
1774656279091860000,9.55785986328125,-0.042996883392333984,0.013220787048339844,-0.5080932974815369
1774656279101860000,9.567860107421875,-0.1667008399963379,0.13491153717041016,-0.6993046402931213
1774656279111860000,9.57785986328125,-0.0671849250793457,0.12229061126708984,-0.39684972167015076
1774656279121860000,9.587860107421875,-0.06505966186523438,-0.007809638977050781,0.03725380450487137
1774656279131860000,9.59785986328125,0.17283058166503906,-0.11529731750488281,0.48180198669433594
1774656279141860000,9.607860107421875,0.21955251693725586,-0.12013816833496094,0.5873576998710632
1774656279151860000,9.61785986328125,0.08306455612182617,-0.008234977722167969,0.3052545487880707
1774656279161860000,9.627860107421874,-0.09205102920532227,0.04184150695800781,0.014955289661884308
1774656279171860000,9.63785986328125,-0.03861570358276367,0.08832454681396484,-0.43924105167388916
1774656279181860000,9.647860107421875,-0.0452580451965332,0.12938499450683594,-0.38070744276046753
1774656279191860000,9.65785986328125,-0.08248662948608398,0.05416107177734375,-0.07712264358997345
1774656279201860000,9.667860107421875,-0.06714534759521484,-0.02370929718017578,0.11273974180221558
1774656279211860000,9.67785986328125,0.12040853500366211,-0.07255363464355469,0.2689083218574524
1774656279221860000,9.687860107421875,0.28718042373657227,-0.14920997619628906,0.28577950596809387
1774656279231860000,9.69785986328125,0.3129706382751465,-0.23157501220703125,0.4896238148212433
1774656279241860000,9.707860107421874,0.033739566802978516,-0.09722042083740234,0.31730419397354126
1774656279251860000,9.71785986328125,-0.21582555770874023,0.24333667755126953,-0.5099941492080688
1774656279261860000,9.727860107421876,-0.7689998149871826,0.4995698928833008,-1.1491175889968872
1774656279271860000,9.73785986328125,-0.6132898330688477,0.39291954040527344,-0.9802602529525757
1774656279281860000,9.747860107421875,0.14934492111206055,-0.0415191650390625,-0.31252115964889526
1774656279291860000,9.75785986328125,0.6612787246704102,-0.38516902923583984,0.47514480352401733
1774656279301860000,9.767860107421875,1.07328462600708,-0.5876302719116211,1.2880722284317017
1774656279311860000,9.77785986328125,0.6220049858093262,-0.36655521392822266,1.4805335998535156
1774656279321860000,9.787860107421874,-0.3992033004760742,-0.15777111053466797,0.8936201333999634
1774656279331860000,9.79785986328125,-0.5966024398803711,0.4338264465332031,-0.36676841974258423
1774656279341860000,9.807860107421876,-0.21074342727661133,0.19231605529785156,-1.0039265155792236
1774656279351860000,9.81785986328125,-0.25718212127685547,0.1440601348876953,-0.9381893277168274
1774656279361860000,9.827860107421875,-0.06713438034057617,0.06590938568115234,-0.6108700037002563
1774656279371860000,9.83785986328125,0.02745676040649414,-0.017452239990234375,0.15413446724414825
1774656279381860000,9.847860107421875,0.2309131622314453,-0.10705089569091797,0.5221971273422241
1774656279391860000,9.85785986328125,0.4635028839111328,-0.24694347381591797,0.7126389145851135
1774656279401860000,9.867860107421874,0.4295806884765625,-0.26988697052001953,0.5891929268836975
1774656279411860000,9.87785986328125,0.09069108963012695,-0.11674785614013672,0.3934035301208496
1774656279421860000,9.887860107421876,-0.20773839950561523,0.08141422271728516,-0.09568408131599426
1774656279431860000,9.89785986328125,-0.18519878387451172,0.08703327178955078,-0.2885704040527344
1774656279441860000,9.907860107421875,-0.05205869674682617,0.04413318634033203,-0.3637886643409729
1774656279451860000,9.91785986328125,0.06473970413208008,-0.029222488403320312,-0.22073662281036377
1774656279461860000,9.927860107421875,0.10831356048583984,-0.04024696350097656,-0.03303379565477371
1774656279471860000,9.93785986328125,0.08505630493164062,-0.015467643737792969,0.1521163284778595
1774656279481860000,9.947860107421874,0.2194523811340332,-0.07649898529052734,-0.10799820721149445
1774656279491860000,9.95785986328125,0.3173532485961914,-0.05307960510253906,-0.2691611349582672
1774656279501860000,9.967860107421876,-0.03012228012084961,-0.056156158447265625,-0.3060259222984314
1774656279511860000,9.97785986328125,-0.22736215591430664,0.3027305603027344,-0.1988513171672821
1774656279521860000,9.987860107421875,-0.18312931060791016,0.0798025131225586,-0.060454607009887695
1774656279531860000,9.99785986328125,0.03493356704711914,-0.20057964324951172,0.21782326698303223
1774656279541860000,10.007860107421875,-0.24836969375610352,0.10218334197998047,0.5081824064254761
1774656279551860000,10.01785986328125,-0.41027021408081055,0.10618877410888672,0.49220895767211914
1774656279561860000,10.027860107421875,-0.19960689544677734,0.1378164291381836,0.4983137249946594
1774656279571860000,10.03785986328125,0.36870718002319336,-0.3202972412109375,0.042726390063762665
1774656279581860000,10.047860107421876,0.724245548248291,-0.21537303924560547,-0.2045993208885193
1774656279591860000,10.05785986328125,0.774085521697998,-0.30222129821777344,0.42349082231521606
1774656279601860000,10.067860107421875,0.8985037803649902,-0.4259166717529297,1.3239543437957764
1774656279611860000,10.07785986328125,-2.8162338733673096,1.4792652130126953,-2.4622623920440674
1774656279621860000,10.087860107421875,-0.30765724182128906,0.2570018768310547,-0.5206781029701233
1774656279631860000,10.09785986328125,-0.13449573516845703,0.14525604248046875,0.11108295619487762
1774656279641860000,10.107860107421875,0.4461193084716797,-0.23566722869873047,-0.08038249611854553
1774656279651860000,10.11785986328125,0.670137882232666,-0.35625457763671875,0.005128607153892517
1774656279661860000,10.127860107421874,-0.613034725189209,0.3158140182495117,0.4184444844722748
1774656279671860000,10.13785986328125,-0.7265505790710449,0.3103666305541992,0.024685151875019073
1774656279681860000,10.147860107421875,0.34859275817871094,-0.20746707916259766,-0.412843257188797
1774656279691860000,10.15785986328125,0.9129586219787598,-0.3969268798828125,0.24491259455680847
1774656279701860000,10.167860107421875,0.32921409606933594,-0.3038339614868164,1.6215490102767944
1774656279711860000,10.17785986328125,-0.9192652702331543,0.43486595153808594,-0.5962951183319092
1774656279721860000,10.187860107421875,-0.15915155410766602,0.19903945922851562,-1.6781808137893677
1774656279731860000,10.19785986328125,0.20307302474975586,-0.12010383605957031,0.6768563985824585
1774656279741860000,10.207860107421874,-0.036543846130371094,-0.09295463562011719,1.5184247493743896
1774656279751860000,10.21785986328125,0.1469731330871582,-0.043816566467285156,-0.34583595395088196
1774656279761860000,10.227860107421876,-0.2465205192565918,0.18725299835205078,-1.1133815050125122
1774656279771860000,10.23785986328125,0.004441738128662109,-0.07605266571044922,0.2594728469848633
1774656279781860000,10.247860107421875,0.6713857650756836,-0.2715120315551758,0.9492641091346741
1774656279791860000,10.25785986328125,-0.1402430534362793,0.04487133026123047,-0.08120844513177872
1774656279801860000,10.267860107421875,-0.4983053207397461,0.18575191497802734,-0.6034548282623291
1774656279811860000,10.27785986328125,-0.05785846710205078,0.05802631378173828,0.05358753725886345
1774656279821860000,10.287860107421874,0.2698550224304199,-0.06722640991210938,0.33018824458122253
1774656279831860000,10.29785986328125,-0.1397719383239746,0.08531951904296875,0.09124882519245148
1774656279841860000,10.307860107421876,-0.2745842933654785,0.10552406311035156,-0.05910278856754303
1774656279851860000,10.31785986328125,0.00917816162109375,0.06592559814453125,0.036465585231781006
1774656279861860000,10.327860107421875,0.1330122947692871,-0.04108715057373047,0.06602165848016739
1774656279871860000,10.33785986328125,0.15380144119262695,-0.07308292388916016,-0.09139981865882874
1774656279881860000,10.347860107421875,-0.07520675659179688,-0.012322425842285156,-0.03554253280162811
1774656279891860000,10.35785986328125,-0.12068414688110352,0.03299140930175781,0.18464601039886475
1774656279901860000,10.367860107421874,-0.010638713836669922,0.02101421356201172,0.06887442618608475
1774656279911860000,10.37785986328125,0.1512131690979004,-0.11013984680175781,-0.2494690865278244
1774656279921860000,10.387860107421876,0.2725529670715332,-0.2765970230102539,0.023757711052894592
1774656279931860000,10.39785986328125,0.23332452774047852,-0.12769508361816406,0.4278827905654907
1774656279941860000,10.407860107421875,0.0649867057800293,0.025356292724609375,-0.032233282923698425
1774656279951860000,10.41785986328125,0.0338749885559082,0.0031805038452148438,-0.4506707191467285
1774656279961860000,10.427860107421875,0.08261632919311523,-0.09352970123291016,0.10351962596178055
1774656279971860000,10.43785986328125,-0.05840349197387695,0.08432579040527344,0.4406259059906006
1774656279981860000,10.447860107421874,-0.1540694236755371,0.2067108154296875,-0.10386820882558823
1774656279991860000,10.45785986328125,0.2653956413269043,0.11771869659423828,-1.1221582889556885
1774656280001860000,10.467860107421876,-0.22449159622192383,-0.26619434356689453,0.5929019451141357
1774656280011860000,10.47785986328125,0.10358333587646484,-0.044666290283203125,0.5620172023773193
1774656280021860000,10.487860107421875,-0.19043922424316406,0.007468223571777344,1.2399262189865112
1774656280031860000,10.49785986328125,0.3601059913635254,-0.16952991485595703,-1.3472464084625244
1774656280041860000,10.507860107421875,-0.2624654769897461,1.6273555755615234,-0.9380884170532227
1774656280051860000,10.51785986328125,-0.37733030319213867,-0.2187490463256836,2.5119268894195557
1774656280061860000,10.527860107421875,1.1321702003479004,-0.22756290435791016,0.1419353485107422
1774656280071860000,10.53785986328125,1.0229263305664062,-0.9022345542907715,3.152434825897217
1774656280081860000,10.547860107421876,-0.3487091064453125,0.3604745864868164,-1.6793467998504639
1774656280091860000,10.55785986328125,-0.13725900650024414,0.4886445999145508,-3.343517541885376
1774656280101860000,10.567860107421875,0.428250789642334,-0.08110809326171875,-0.309009313583374
1774656280111860000,10.57785986328125,-0.7771706581115723,-0.01688861846923828,1.641045093536377
1774656280121860000,10.587860107421875,0.18735122680664062,-0.1951761245727539,0.3345246911048889
1774656280131860000,10.59785986328125,0.5343995094299316,-0.03727531433105469,-1.3412103652954102
1774656280141860000,10.607860107421875,-0.506413459777832,0.2844505310058594,-0.48595720529556274
1774656280151860000,10.61785986328125,-0.02583026885986328,-0.0866546630859375,0.08452175557613373
1774656280161860000,10.627860107421874,0.3384099006652832,-0.2502565383911133,0.33980879187583923
1774656280171860000,10.63785986328125,-0.2333059310913086,0.21804237365722656,-0.19375720620155334
1774656280181860000,10.647860107421875,-0.24950599670410156,0.2293243408203125,0.09943521022796631
1774656280191860000,10.65785986328125,-0.611323356628418,0.12031269073486328,1.3715243339538574
1774656280201860000,10.667860107421875,0.06767702102661133,-0.23675060272216797,1.267503023147583
1774656280211860000,10.67785986328125,1.668684959411621,-0.5988674163818359,0.2840515375137329
1774656280221860000,10.687860107421875,-0.8148927688598633,0.4143047332763672,-0.8320602178573608
1774656280231860000,10.69785986328125,-0.897700309753418,0.3849477767944336,-0.5173965692520142
1774656280241860000,10.707860107421874,0.712181568145752,-0.2995576858520508,-0.10533706843852997
1774656280251860000,10.71785986328125,0.7708425521850586,-0.2724132537841797,-0.42602741718292236
1774656280261860000,10.727860107421876,0.3058938980102539,-0.061942100524902344,-0.6036825180053711
1774656280271860000,10.73785986328125,0.029582500457763672,0.03783226013183594,-0.3133109509944916
1774656280281860000,10.747860107421875,-0.3564925193786621,0.11127948760986328,0.005865931510925293
1774656280291860000,10.75785986328125,0.20171546936035156,-0.017230987548828125,-0.3322533965110779
1774656280301860000,10.767860107421875,-0.43673086166381836,0.2261219024658203,-0.321097195148468
1774656280311860000,10.77785986328125,-0.2916679382324219,0.09376239776611328,0.5066229701042175
1774656280321860000,10.787860107421874,0.6067671775817871,-0.3763437271118164,1.1883152723312378
1774656280331860000,10.79785986328125,0.1321558952331543,-0.09767436981201172,0.8739796280860901
1774656280341860000,10.807860107421876,-0.7097961902618408,0.4194526672363281,-0.2531340420246124
1774656280351860000,10.81785986328125,-1.2192749977111816,0.4702138900756836,-0.31666386127471924
1774656280361860000,10.827860107421875,0.36053991317749023,-0.15056991577148438,0.043012186884880066
1774656280371860000,10.83785986328125,0.6908774375915527,-0.3034524917602539,0.13531102240085602
1774656280381860000,10.847860107421875,0.18837833404541016,-0.06971454620361328,-0.1954597383737564
1774656280391860000,10.85785986328125,0.028127670288085938,-0.034239768981933594,-0.06246703863143921
1774656280401860000,10.867860107421874,-0.312225341796875,0.12458324432373047,0.24912810325622559
1774656280411860000,10.87785986328125,-0.27373695373535156,0.13959026336669922,-0.11777330935001373
1774656280421860000,10.887860107421876,0.5314493179321289,-0.20893478393554688,-0.29380926489830017
1774656280431860000,10.89785986328125,0.4282255172729492,-0.20327186584472656,0.0940544605255127
1774656280441860000,10.907860107421875,-0.3447432518005371,0.10205936431884766,0.23143218457698822
1774656280451860000,10.91785986328125,-0.2880210876464844,0.14454174041748047,-0.06699240207672119
1774656280461860000,10.927860107421875,0.08379316329956055,0.024715423583984375,-0.18495091795921326
1774656280471860000,10.93785986328125,0.12447071075439453,-0.07066917419433594,0.07127600908279419
1774656280481860000,10.947860107421874,0.06284379959106445,-0.07843399047851562,0.2216719388961792
1774656280491860000,10.95785986328125,-0.17122268676757812,0.08125019073486328,0.06888391822576523
1774656280501860000,10.967860107421876,-0.20684289932250977,0.12276840209960938,-0.12022518366575241
1774656280511860000,10.97785986328125,0.28165102005004883,-0.13640213012695312,-0.06507705897092819
1774656280521860000,10.987860107421875,0.17151260375976562,-0.08451366424560547,0.1506919115781784
1774656280531860000,10.99785986328125,-0.28404808044433594,0.13408851623535156,0.06291252374649048
1774656280541860000,11.007860107421875,0.03682851791381836,-0.0009784698486328125,-0.14802899956703186
1774656280551860000,11.01785986328125,0.2703075408935547,-0.10952186584472656,0.0006402954459190369
1774656280561860000,11.027860107421875,-0.19628286361694336,0.06529903411865234,0.21034544706344604
1774656280571860000,11.03785986328125,-0.2478928565979004,0.0995645523071289,0.006761960685253143
1774656280581860000,11.047860107421876,0.23239850997924805,-0.07964038848876953,-0.221757709980011
1774656280591860000,11.05785986328125,0.23685693740844727,-0.11591720581054688,-0.009975031018257141
1774656280601860000,11.067860107421875,-0.04259777069091797,-0.01944732666015625,0.24938058853149414
1774656280611860000,11.07785986328125,0.04346942901611328,-0.052715301513671875,0.08329181373119354
1774656280621860000,11.087860107421875,0.18555688858032227,-0.07530879974365234,-0.10457435995340347
1774656280631860000,11.09785986328125,0.05772829055786133,-0.03599262237548828,0.014864780008792877
1774656280641860000,11.107860107421875,-0.03695058822631836,0.00901031494140625,0.10938986390829086
1774656280651860000,11.11785986328125,-0.008292675018310547,0.0003566741943359375,0.020695284008979797
1774656280661860000,11.127860107421874,0.03512907028198242,0.0032444000244140625,-0.06856243312358856
1774656280671860000,11.13785986328125,-0.04692983627319336,0.04581165313720703,0.03861921280622482
1774656280681860000,11.147860107421875,-0.05422782897949219,0.06102561950683594,0.06380495429039001
1774656280691860000,11.15785986328125,0.0036902427673339844,0.0086212158203125,-0.017188966274261475
1774656280701860000,11.167860107421875,0.004518032073974609,-0.015880584716796875,-0.007890135049819946
1774656280711860000,11.17785986328125,-0.06217622756958008,-0.007867813110351562,0.06861253082752228
1774656280721860000,11.187860107421875,0.0933680534362793,-0.05423259735107422,0.058027319610118866
1774656280731860000,11.19785986328125,0.20092153549194336,-0.06605243682861328,-0.08793306350708008
1774656280741860000,11.207860107421874,0.016650676727294922,-0.04595470428466797,-0.03381406515836716
1774656280751860000,11.21785986328125,-0.11280202865600586,0.006958961486816406,0.13141563534736633
1774656280761860000,11.227860107421876,0.10765218734741211,-0.023789405822753906,0.0973915308713913
1774656280771860000,11.23785986328125,0.17286968231201172,-0.08352947235107422,-0.06920331716537476
1774656280781860000,11.247860107421875,0.060835838317871094,-0.035355567932128906,-0.07961878925561905
1774656280791860000,11.25785986328125,-0.08264875411987305,0.05257606506347656,0.08461949229240417
1774656280801860000,11.267860107421875,-0.06757164001464844,0.03090381622314453,0.09057873487472534
1774656280811860000,11.27785986328125,0.0061511993408203125,0.027955055236816406,-0.0805482268333435
1774656280821860000,11.287860107421874,-0.04135322570800781,0.013411521911621094,-0.023511216044425964
1774656280831860000,11.29785986328125,-0.017726898193359375,0.0225677490234375,0.11734552681446075
1774656280841860000,11.307860107421876,-0.03624439239501953,0.02986907958984375,0.019845664501190186
1774656280851860000,11.31785986328125,-0.03330087661743164,0.019454002380371094,-0.08483532816171646
1774656280861860000,11.327860107421875,-0.04011869430541992,-0.04366016387939453,0.08590145409107208
1774656280871860000,11.33785986328125,0.10924053192138672,-0.011564254760742188,0.16537904739379883
1774656280881860000,11.347860107421875,0.06679391860961914,0.019397735595703125,-0.09945587813854218
1774656280891860000,11.35785986328125,-0.12478494644165039,0.035434722900390625,-0.14158731698989868
1774656280901860000,11.367860107421874,-0.17771148681640625,0.07886886596679688,0.11625098437070847
1774656280911860000,11.37785986328125,-0.018294334411621094,-0.0034427642822265625,0.1402520090341568
1774656280921860000,11.387860107421876,0.15048933029174805,-0.0540313720703125,-0.09795711189508438
1774656280931860000,11.39785986328125,0.013124942779541016,-0.05909538269042969,-0.1308629810810089
1774656280941860000,11.407860107421875,-0.012008190155029297,-0.03902912139892578,0.1320047527551651
1774656280951860000,11.41785986328125,-0.031246662139892578,0.003597259521484375,0.19604149460792542
1774656280961860000,11.427860107421875,0.022549152374267578,0.04203510284423828,-0.12337994575500488
1774656280971860000,11.43785986328125,0.05056905746459961,-0.045477867126464844,-0.20013412833213806
1774656280981860000,11.447860107421874,0.04146718978881836,-0.10798263549804688,0.16851964592933655
1774656280991860000,11.45785986328125,-0.023538589477539062,0.05879688262939453,0.21304339170455933
1774656281001860000,11.467860107421876,-0.1144571304321289,0.0648355484008789,-0.15351316332817078
1774656281011860000,11.47785986328125,-0.017530441284179688,0.030882835388183594,-0.1403781771659851
1774656281021860000,11.487860107421875,-0.03394460678100586,-0.02632427215576172,0.23094183206558228
1774656281031860000,11.49785986328125,0.018567562103271484,0.023665428161621094,0.10887908190488815
1774656281041860000,11.507860107421875,-0.06518316268920898,0.13376617431640625,-0.28216803073883057
1774656281051860000,11.51785986328125,-0.16535663604736328,0.05982494354248047,-0.1907813549041748
1774656281061860000,11.527860107421875,0.012690067291259766,-0.0253143310546875,0.32677900791168213
1774656281071860000,11.53785986328125,0.12490987777709961,-0.061400413513183594,0.2423078715801239
1774656281081860000,11.547860107421876,0.13775014877319336,-0.047867774963378906,-0.2966949939727783
1774656281091860000,11.55785986328125,0.10659074783325195,-0.06398200988769531,-0.16172239184379578
1774656281101860000,11.567860107421875,-0.06665372848510742,-0.09146308898925781,0.34730929136276245
1774656281111860000,11.57785986328125,-0.05556535720825195,0.032036781311035156,0.17788797616958618
1774656281121860000,11.587860107421875,0.08449316024780273,-0.0012989044189453125,-0.39129650592803955
1774656281131860000,11.59785986328125,0.15732908248901367,-0.05740928649902344,-0.1906241476535797
1774656281141860000,11.607860107421875,-0.08013534545898438,-0.06703662872314453,0.38767531514167786
1774656281151860000,11.61785986328125,-0.13677597045898438,0.02900981903076172,0.23521015048027039
1774656281161860000,11.627860107421874,-0.032418251037597656,0.10077476501464844,-0.2669445276260376
1774656281171860000,11.63785986328125,0.014765739440917969,0.004826545715332031,-0.2201123982667923
1774656281181860000,11.647860107421875,0.2326650619506836,-0.08065032958984375,0.21959340572357178
1774656281191860000,11.65785986328125,0.07983827590942383,-0.055919647216796875,0.20460468530654907
1774656281201860000,11.667860107421875,-0.10695409774780273,0.09438610076904297,-0.22377759218215942
1774656281211860000,11.67785986328125,-0.07443904876708984,0.008443832397460938,-0.12767815589904785
1774656281221860000,11.687860107421875,0.07989692687988281,-0.09151935577392578,0.27466851472854614
1774656281231860000,11.69785986328125,0.1311817169189453,-0.010375022888183594,0.17390471696853638
1774656281241860000,11.707860107421874,0.029657363891601562,0.03296470642089844,-0.25332504510879517
1774656281251860000,11.71785986328125,-0.1478872299194336,0.08151721954345703,-0.1845945417881012
1774656281261860000,11.727860107421876,-0.07008171081542969,0.00026702880859375,0.19388261437416077
1774656281271860000,11.73785986328125,0.12074041366577148,-0.0609283447265625,0.15880271792411804
1774656281281860000,11.747860107421875,0.03758382797241211,0.03463554382324219,-0.1625458300113678
1774656281291860000,11.75785986328125,0.05795717239379883,-0.03667926788330078,-0.107187919318676
1774656281301860000,11.767860107421875,-0.009204864501953125,-0.10197257995605469,0.22604233026504517
1774656281311860000,11.77785986328125,0.0429377555847168,-0.04343414306640625,0.128481924533844
1774656281321860000,11.787860107421874,0.02800130844116211,0.049851417541503906,-0.21058836579322815
1774656281331860000,11.79785986328125,-0.043547630310058594,-0.007902145385742188,-0.08796468377113342
1774656281341860000,11.807860107421876,0.11347389221191406,-0.12929725646972656,0.22073158621788025
1774656281351860000,11.81785986328125,0.12549781799316406,-0.07149791717529297,0.07647372782230377
1774656281361860000,11.827860107421875,-0.004136562347412109,0.07084465026855469,-0.1568228304386139
1774656281371860000,11.83785986328125,-0.2061142921447754,0.08521747589111328,-0.07913265377283096
1774656281381860000,11.847860107421875,-0.02255725860595703,-0.01579570770263672,0.22563882172107697
1774656281391860000,11.85785986328125,0.08439970016479492,0.028711318969726562,0.11183242499828339
1774656281401860000,11.867860107421874,0.025990962982177734,0.05715370178222656,-0.2942841649055481
1774656281411860000,11.87785986328125,-0.0716552734375,0.05923652648925781,-0.115097276866436
1774656281421860000,11.887860107421876,-0.17375802993774414,-0.032774925231933594,0.31730976700782776
1774656281431860000,11.89785986328125,0.09738588333129883,-0.01686573028564453,0.19217970967292786
1774656281441860000,11.907860107421875,0.08399295806884766,0.033283233642578125,-0.30488237738609314
1774656281451860000,11.91785986328125,0.1580190658569336,-0.072357177734375,-0.2135331928730011
1774656281461860000,11.927860107421875,-0.005057811737060547,-0.051764488220214844,0.31154167652130127
1774656281471860000,11.93785986328125,-0.12633752822875977,0.053524017333984375,0.17752259969711304
1774656281481860000,11.947860107421874,-0.05005311965942383,0.0738515853881836,-0.3313039541244507
1774656281491860000,11.95785986328125,-0.0400691032409668,0.018866539001464844,-0.1782856285572052
1774656281501860000,11.967860107421876,-0.017995834350585938,-0.022859573364257812,0.3162060081958771
1774656281511860000,11.97785986328125,0.014714241027832031,-0.010107040405273438,0.1805284172296524
1774656281521860000,11.987860107421875,0.08864498138427734,0.010506629943847656,-0.30470043420791626
1774656281531860000,11.99785986328125,-0.06557416915893555,-0.0049800872802734375,-0.1666986644268036
1774656281541860000,12.007860107421875,-0.1035919189453125,-0.03057098388671875,0.34409087896347046
1774656281551860000,12.01785986328125,0.08877325057983398,-0.02494049072265625,0.18224698305130005
1774656281561860000,12.027860107421875,0.08715677261352539,-0.01987457275390625,-0.2668485641479492
1774656281571860000,12.03785986328125,0.024882793426513672,0.0070095062255859375,-0.0895475447177887
1774656281581860000,12.047860107421876,-0.07956266403198242,0.03598308563232422,0.2690180540084839
1774656281591860000,12.05785986328125,-0.09776782989501953,0.08712959289550781,0.07870732992887497
1774656281601860000,12.067860107421875,-0.039284706115722656,0.010728836059570312,-0.18154722452163696
1774656281611860000,12.07785986328125,0.102386474609375,-0.028776168823242188,-0.008269622921943665
1774656281621860000,12.087860107421875,0.03971672058105469,0.021566390991210938,0.15871450304985046
1774656281631860000,12.09785986328125,-0.028110980987548828,0.02748870849609375,-0.050134725868701935
1774656281641860000,12.107860107421875,-0.018326759338378906,-0.011402130126953125,-0.15702781081199646
1774656281651860000,12.11785986328125,-0.06508731842041016,0.007966041564941406,0.04977269470691681
1774656281661860000,12.127860107421874,-0.0074405670166015625,-0.01479339599609375,0.12189997732639313
1774656281671860000,12.13785986328125,0.12916040420532227,-0.10961151123046875,-0.09148041903972626
1774656281681860000,12.147860107421875,0.04998588562011719,-0.060993194580078125,-0.08276518434286118
1774656281691860000,12.15785986328125,0.037244319915771484,-0.009654998779296875,0.12518310546875
1774656281701860000,12.167860107421875,-0.003101348876953125,0.0627756118774414,0.046498022973537445
1774656281711860000,12.17785986328125,-0.007720470428466797,-0.012790679931640625,-0.1714479774236679
1774656281721860000,12.187860107421875,0.052997589111328125,-0.029834747314453125,-0.0050141289830207825
1774656281731860000,12.19785986328125,-0.07918310165405273,0.009584426879882812,0.2296951413154602
1774656281741860000,12.207860107421874,0.020870685577392578,0.0211029052734375,-0.025357447564601898
1774656281751860000,12.21785986328125,-0.1331496238708496,0.07976627349853516,-0.215581476688385
1774656281761860000,12.227860107421876,-0.10253190994262695,0.011610031127929688,0.07789893448352814
1774656281771860000,12.23785986328125,0.17497920989990234,-0.11338138580322266,0.254821240901947
1774656281781860000,12.247860107421875,0.1895923614501953,-0.027449607849121094,-0.040936507284641266
1774656281791860000,12.25785986328125,-0.022457599639892578,-0.0274658203125,-0.1820589303970337
1774656281801860000,12.267860107421875,0.022471904754638672,-0.02536296844482422,0.09607195854187012
1774656281811860000,12.27785986328125,0.041222572326660156,-0.0221710205078125,0.18929842114448547
1774656281821860000,12.287860107421874,0.04046344757080078,0.2154378890991211,-0.09439157694578171
1774656281831860000,12.29785986328125,-0.15613031387329102,0.05232048034667969,-0.2743942439556122
1774656281841860000,12.307860107421876,0.13029241561889648,-0.4275093078613281,0.20156067609786987
