time,gFx,gFy,gFz,ax,ay,az,wx,wy,wz,yaw,pitch,roll,Weight,Reps,RPE,Set,Lift,Order
2026-03-27T04:15:05.869Z,0.0317,-0.3643,-0.9378,-0.0019,-0.0094,0.0033,0.0041,-0.0036,-0.0032,-18.34,37.14,-175.2,135,8,7,2,Bench,1
2026-03-27T04:15:05.873Z,0.0315,-0.3747,-0.9292,-0.0019,-0.0094,0.0033,0.0023,0.001,-0.0058,-18.34,37.14,-175.2,135,8,7,2,Bench,1
2026-03-27T04:15:05.883Z,0.0319,-0.3687,-0.9346,0.0006,-0.0038,0.0097,0.004,-0.0028,-0.0063,-18.34,37.14,-175.2,135,8,7,2,Bench,1
2026-03-27T04:15:05.894Z,-0.0659,-0.6037,0.792,0.004,-0.0152,0.0036,0.0021,-0.0014,-0.0019,-18.34,37.14,-175.2,135,8,7,2,Bench,1
2026-03-27T04:15:05.905Z,-0.0665,-0.603,0.7938,0.0067,-0.0043,0,0.0047,-0.0007,-0.004,-18.34,37.14,-175.2,135,8,7,2,Bench,1
2026-03-27T04:15:05.913Z,-0.0669,-0.6028,0.7944,0.0067,-0.0043,0,0.003,-0.002,-0.003,-18.34,37.14,-175.2,135,8,7,2,Bench,1
2026-03-27T04:15:05.924Z,-0.0663,-0.6041,0.7938,0.0002,-0.0067,0.006,0.0049,-0.0022,-0.0056,-18.34,37.14,-175.2,135,8,7,2,Bench,1
2026-03-27T04:15:05.932Z,-0.0672,-0.6024,0.7941,0.0012,-0.0044,0.0051,0.0047,-0.0013,-0.0025,-18.34,37.14,-175.2,135,8,7,2,Bench,1
2026-03-27T04:15:05.943Z,-0.0662,-0.6039,0.7941,-0.0004,0.009,-0.0043,0.0027,-0.0022,-0.0044,-18.34,37.14,-175.2,135,8,7,2,Bench,1
2026-03-27T04:15:05.955Z,-0.067,-0.6024,0.7939,-0.0073,-0.0009,0.0021,0.0033,-0.0023,-0.0049,-18.34,37.14,-175.2,135,8,7,2,Bench,1
2026-03-27T04:15:05.963Z,-0.0676,-0.6036,0.7936,-0.0073,-0.0009,0.0021,0.0046,-0.0024,-0.0049,-18.34,37.14,-175.2,135,8,7,2,Bench,1
2026-03-27T04:15:05.974Z,-0.066,-0.6027,0.7945,-0.0068,-0.0074,0.0102,0.003,-0.0012,-0.0031,-18.34,37.14,-175.2,135,8,7,2,Bench,1
2026-03-27T04:15:05.983Z,-0.0667,-0.6024,0.793,0.0028,-0.0061,0.014,0.0022,-0.0029,-0.0027,-18.34,37.14,-175.2,135,8,7,2,Bench,1
2026-03-27T04:15:05.993Z,-0.067,-0.6037,0.7943,0,-0.0122,0.0045,0.001,-0.0018,-0.0046,-18.34,37.14,-175.2,135,8,7,2,Bench,1
2026-03-27T04:15:06.005Z,-0.0667,-0.6031,0.7942,0.0052,0.0113,0.0062,0.0022,-0.0036,-0.0033,-18.34,37.14,-175.2,135,8,7,2,Bench,1
2026-03-27T04:15:06.013Z,-0.066,-0.6028,0.7931,0.0052,0.0113,0.0062,0.0036,-0.0009,-0.0022,-18.34,37.14,-175.2,135,8,7,2,Bench,1
2026-03-27T04:15:06.023Z,-0.0666,-0.603,0.7935,0.003,0.0007,0.013,0.0033,-0.0031,-0.0046,-18.34,37.14,-175.2,135,8,7,2,Bench,1
2026-03-27T04:15:06.032Z,-0.0665,-0.6029,0.7945,-0.0043,-0.0095,0.0016,0.0023,-0.0006,-0.0046,-18.34,37.14,-175.2,135,8,7,2,Bench,1
2026-03-27T04:15:06.044Z,-0.0665,-0.6022,0.7931,-0.0025,-0.0054,0.0027,0.003,-0.002,-0.002,-18.34,37.14,-175.2,135,8,7,2,Bench,1
2026-03-27T04:15:06.055Z,-0.067,-0.6037,0.7934,-0.0067,-0.0088,0.0009,0.0028,-0.0032,-0.0025,-18.34,37.14,-175.2,135,8,7,2,Bench,1
2026-03-27T04:15:06.064Z,-0.0667,-0.6032,0.7941,-0.0067,-0.0088,0.0009,0.0026,-0.002,-0.003,-18.34,37.14,-175.2,135,8,7,2,Bench,1
2026-03-27T04:15:06.073Z,-0.0664,-0.6031,0.7939,-0.0029,-0.0071,-0.0011,0.0045,-0.0033,-0.0061,-18.34,37.14,-175.2,135,8,7,2,Bench,1
2026-03-27T04:15:06.083Z,-0.0668,-0.6034,0.793,0.0036,-0.0043,-0.0055,0.0028,0.0001,-0.0023,-18.34,37.14,-175.2,135,8,7,2,Bench,1
2026-03-27T04:15:06.093Z,-0.0665,-0.6033,0.7947,0.0047,0.0036,0.0098,0.0011,-0.0017,-0.0031,-18.34,37.14,-175.2,135,8,7,2,Bench,1
2026-03-27T04:15:06.105Z,-0.0667,-0.6032,0.7936,0.001,-0.0078,0.0003,0.0059,-0.0023,-0.0033,-18.34,37.14,-175.2,135,8,7,2,Bench,1
2026-03-27T04:15:06.113Z,-0.067,-0.6038,0.7937,0.001,-0.0078,0.0003,0.0019,-0.0029,-0.0027,-18.34,37.14,-175.2,135,8,7,2,Bench,1
2026-03-27T04:15:06.123Z,-0.0676,-0.6036,0.7957,-0.0028,-0.0108,0.0014,0.0009,-0.0022,-0.0053,-18.34,37.14,-175.2,135,8,7,2,Bench,1
2026-03-27T04:15:06.132Z,-0.067,-0.6027,0.7934,0,-0.006,0.0095,0.0042,0.0008,-0.006,-18.34,37.14,-175.2,135,8,7,2,Bench,1
2026-03-27T04:15:06.144Z,-0.0667,-0.6014,0.7937,0.0049,0.0019,0.0075,0.0012,-0.0065,-0.0008,-18.34,37.14,-175.2,135,8,7,2,Bench,1
2026-03-27T04:15:06.155Z,-0.068,-0.602,0.7934,-0.0029,-0.0071,0.0079,0.0023,0.0004,-0.0048,-18.34,37.14,-175.2,135,8,7,2,Bench,1
2026-03-27T04:15:06.163Z,-0.0659,-0.6038,0.7942,-0.0029,-0.0071,0.0079,0.0055,-0.0009,-0.0038,-18.34,37.14,-175.2,135,8,7,2,Bench,1
2026-03-27T04:15:06.173Z,-0.0665,-0.603,0.794,0.0013,-0.0058,0.0039,0.003,-0.0002,-0.0041,-18.34,37.14,-175.2,135,8,7,2,Bench,1
2026-03-27T04:15:06.183Z,-0.0675,-0.6037,0.7939,-0.0034,-0.006,0.0132,0.0032,-0.0022,-0.0056,-18.34,37.14,-175.2,135,8,7,2,Bench,1
2026-03-27T04:15:06.193Z,-0.0669,-0.603,0.794,-0.0022,-0.0154,0.008,0.0003,-0.003,-0.0037,-18.34,37.14,-175.2,135,8,7,2,Bench,1
2026-03-27T04:15:06.205Z,-0.0666,-0.6031,0.7934,-0.0016,-0.0062,0.0088,0.0024,-0.0007,-0.0034,-18.34,37.14,-175.2,135,8,7,2,Bench,1
2026-03-27T04:15:06.214Z,-0.0666,-0.6032,0.7936,0.0008,-0.0061,0.0063,0.0044,-0.0013,-0.0041,-18.34,37.14,-175.2,135,8,7,2,Bench,1
2026-03-27T04:15:06.224Z,-0.0671,-0.6036,0.7947,0.0033,-0.0031,-0.0049,-0.0011,-0.0012,-0.0045,-18.34,37.14,-175.2,135,8,7,2,Bench,1
2026-03-27T04:15:06.232Z,-0.0661,-0.6029,0.7946,0.0033,-0.0031,-0.0049,0.0009,-0.0025,-0.0008,-18.34,37.14,-175.2,135,8,7,2,Bench,1
2026-03-27T04:15:06.243Z,-0.0657,-0.6032,0.7949,-0.0057,-0.0092,-0.0006,0.0012,-0.0032,-0.0047,-18.34,37.14,-175.2,135,8,7,2,Bench,1
2026-03-27T04:15:06.255Z,-0.0661,-0.6026,0.7949,-0.0041,-0.0097,-0.0039,0.002,-0.0006,-0.0031,-18.34,37.14,-175.2,135,8,7,2,Bench,1
2026-03-27T04:15:06.264Z,-0.0673,-0.6029,0.7944,0.0075,-0.0096,0.0009,0.0019,-0.0049,-0.004,-18.34,37.14,-175.2,135,8,7,2,Bench,1
2026-03-27T04:15:06.274Z,-0.0665,-0.6031,0.7935,-0.005,-0.0046,0.0085,0.0033,-0.0024,-0.0059,-18.34,37.14,-175.2,135,8,7,2,Bench,1
2026-03-27T04:15:06.282Z,-0.066,-0.6027,0.7947,-0.005,-0.0046,0.0085,0.0007,-0.0019,-0.0046,-18.34,37.14,-175.2,135,8,7,2,Bench,1
2026-03-27T04:15:06.294Z,-0.0667,-0.603,0.7939,-0.001,-0.0071,0.0034,0.0037,-0.0011,-0.0047,-18.34,37.14,-175.2,135,8,7,2,Bench,1
2026-03-27T04:15:06.306Z,-0.0666,-0.6043,0.794,-0.001,0.0061,0.0017,0.0041,-0.0018,-0.0034,-18.34,37.14,-175.2,135,8,7,2,Bench,1
2026-03-27T04:15:06.314Z,-0.0668,-0.6033,0.7947,0.0012,-0.0059,-0.0022,0.0038,-0.0019,-0.0038,-18.34,37.14,-175.2,135,8,7,2,Bench,1
2026-03-27T04:15:06.323Z,-0.067,-0.6034,0.7942,0.0012,-0.0059,-0.0022,0.0032,-0.001,-0.0033,-18.34,37.14,-175.2,135,8,7,2,Bench,1
2026-03-27T04:15:06.332Z,-0.0664,-0.6029,0.7944,0.0036,-0.0029,0.0005,0.0023,0,-0.004,-18.34,37.14,-175.2,135,8,7,2,Bench,1
2026-03-27T04:15:06.344Z,-0.0664,-0.6026,0.7944,-0.0018,-0.0114,-0.0011,0.0028,-0.0023,-0.0038,-18.34,37.14,-175.2,135,8,7,2,Bench,1
2026-03-27T04:15:06.355Z,-0.0666,-0.6033,0.7939,-0.0022,-0.0033,0.0063,0.0037,-0.0032,-0.0057,-18.34,37.14,-175.2,135,8,7,2,Bench,1
2026-03-27T04:15:06.364Z,-0.0664,-0.6033,0.7926,-0.0046,-0.0049,0.0167,0.0028,-0.0023,-0.0049,-18.34,37.14,-175.2,135,8,7,2,Bench,1
2026-03-27T04:15:06.374Z,-0.0665,-0.6036,0.7944,-0.0009,-0.0033,-0.002,-0.0002,-0.0023,-0.0032,-18.34,37.14,-175.2,135,8,7,2,Bench,1
2026-03-27T04:15:06.382Z,-0.0664,-0.603,0.7941,-0.0009,-0.0033,-0.002,0.0037,-0.0015,-0.0041,-18.34,37.14,-175.2,135,8,7,2,Bench,1
2026-03-27T04:15:06.394Z,-0.0673,-0.6037,0.7945,0.0056,-0.0011,-0.0025,0.0018,-0.0019,-0.0024,-18.34,37.14,-175.2,135,8,7,2,Bench,1
2026-03-27T04:15:06.405Z,-0.0666,-0.6044,0.795,-0.0013,0.0042,-0.0057,0.0026,-0.0026,-0.0043,-18.34,37.14,-175.2,135,8,7,2,Bench,1
2026-03-27T04:15:06.414Z,-0.0666,-0.6031,0.7937,-0.0006,-0.0077,0.0067,0.0029,0,-0.0031,-18.34,37.14,-175.2,135,8,7,2,Bench,1
2026-03-27T04:15:06.425Z,-0.0673,-0.603,0.7946,0.0069,-0.0071,-0.0034,0.0037,-0.0007,-0.0016,-18.34,37.14,-175.2,135,8,7,2,Bench,1
2026-03-27T04:15:06.432Z,-0.0673,-0.6044,0.7933,0.0069,-0.0071,-0.0034,0.0043,-0.0002,-0.0062,-18.34,37.14,-175.2,135,8,7,2,Bench,1
2026-03-27T04:15:06.444Z,-0.0662,-0.6041,0.7939,-0.0048,0.0036,0.0034,0.0028,-0.0039,-0.0021,-18.34,37.14,-175.2,135,8,7,2,Bench,1
2026-03-27T04:15:06.456Z,-0.0668,-0.6042,0.7935,0.0033,0.004,0.0083,0.0035,-0.0007,-0.0039,-18.34,37.14,-175.2,135,8,7,2,Bench,1
2026-03-27T04:15:06.464Z,-0.0669,-0.6034,0.7945,0.0022,-0.0052,-0.002,0.0037,-0.0007,-0.0037,-18.34,37.14,-175.2,135,8,7,2,Bench,1
2026-03-27T04:15:06.474Z,-0.0668,-0.6033,0.7939,-0.0016,-0.0023,0.0052,0.0024,-0.0013,-0.003,-18.34,37.14,-175.2,135,8,7,2,Bench,1
2026-03-27T04:15:06.482Z,-0.0661,-0.603,0.7932,-0.0016,-0.0023,0.0052,0.0028,-0.0025,-0.0034,-18.34,37.14,-175.2,135,8,7,2,Bench,1
2026-03-27T04:15:06.494Z,-0.0669,-0.6036,0.7941,0.0007,-0.0006,0.0004,0.0034,-0.0045,-0.0033,-18.34,37.14,-175.2,135,8,7,2,Bench,1
2026-03-27T04:15:06.505Z,-0.067,-0.6036,0.7939,0.0041,-0.0043,0.0042,0.0032,-0.0012,-0.0047,-18.34,37.14,-175.2,135,8,7,2,Bench,1
2026-03-27T04:15:06.514Z,-0.067,-0.6038,0.7935,0.0011,-0.0001,0.0072,0.0034,-0.0032,-0.0039,-18.34,37.14,-175.2,135,8,7,2,Bench,1
2026-03-27T04:15:06.524Z,-0.0666,-0.6036,0.7939,-0.0014,-0.0027,0.0043,0.0033,-0.0019,-0.0035,-18.34,37.14,-175.2,135,8,7,2,Bench,1
2026-03-27T04:15:06.534Z,-0.0663,-0.6033,0.7942,-0.0042,-0.0029,0.0019,0.002,-0.0002,-0.0043,-18.34,37.14,-175.2,135,8,7,2,Bench,1
2026-03-27T04:15:06.545Z,-0.067,-0.6037,0.7944,0.0017,-0.0006,-0.0003,0.0027,-0.0026,-0.0046,-18.34,37.14,-175.2,135,8,7,2,Bench,1
2026-03-27T04:15:06.556Z,-0.0673,-0.6035,0.7942,0.0047,-0.0029,0.0006,0.0071,-0.0047,-0.0028,-18.34,37.14,-175.2,135,8,7,2,Bench,1
2026-03-27T04:15:06.564Z,-0.0662,-0.6025,0.7948,-0.0051,-0.012,-0.0051,0.0017,-0.002,-0.0046,-18.34,37.14,-175.2,135,8,7,2,Bench,1
2026-03-27T04:15:06.575Z,-0.0667,-0.6036,0.794,0.0007,-0.0006,0.0074,0.0018,-0.0019,-0.0049,-18.34,37.14,-175.2,135,8,7,2,Bench,1
2026-03-27T04:15:06.584Z,-0.0668,-0.6041,0.7934,0.0011,0.0013,0.0068,0.0025,-0.003,-0.0032,-18.34,37.14,-175.2,135,8,7,2,Bench,1
2026-03-27T04:15:06.594Z,-0.0669,-0.6025,0.7949,0.0013,-0.0129,-0.0048,0.0012,-0.0034,-0.0089,-18.34,37.14,-175.2,135,8,7,2,Bench,1
2026-03-27T04:15:06.605Z,-0.066,-0.603,0.794,-0.008,-0.0059,0.0052,0.0015,-0.0019,-0.0046,-18.34,37.14,-175.2,135,8,7,2,Bench,1
2026-03-27T04:15:06.614Z,-0.0668,-0.6027,0.7943,0.0021,-0.0115,-0.0004,0.0023,-0.0008,-0.0052,-18.34,37.14,-175.2,135,8,7,2,Bench,1
2026-03-27T04:15:06.624Z,-0.0665,-0.603,0.7938,-0.0027,-0.0058,0.0064,0.0028,-0.0013,-0.0077,-18.34,37.14,-175.2,135,8,7,2,Bench,1
2026-03-27T04:15:06.634Z,-0.0666,-0.6036,0.7937,0.0001,-0.0007,0.0058,0.0043,-0.0017,-0.0041,-18.34,37.14,-175.2,135,8,7,2,Bench,1
2026-03-27T04:15:06.644Z,-0.0664,-0.6041,0.7944,-0.0007,0.0027,-0.0005,0.0007,0.0003,-0.0064,-18.34,37.14,-175.2,135,8,7,2,Bench,1
2026-03-27T04:15:06.655Z,-0.0671,-0.6039,0.7935,0.0044,0.0011,0.0094,0.0053,-0.0031,-0.0045,-18.34,37.14,-175.2,135,8,7,2,Bench,1
2026-03-27T04:15:06.664Z,-0.0666,-0.6033,0.7938,-0.0027,-0.0053,0.0058,0.0011,-0.0016,-0.0068,-18.34,37.14,-175.2,135,8,7,2,Bench,1
2026-03-27T04:15:06.674Z,-0.0661,-0.6032,0.7943,-0.0073,-0.008,0.0017,0.0032,-0.0017,-0.0039,-18.34,37.14,-175.2,135,8,7,2,Bench,1
2026-03-27T04:15:06.684Z,-0.0666,-0.6034,0.7938,0.0001,-0.0025,0.007,0.002,-0.0031,-0.0046,-18.34,37.14,-175.2,135,8,7,2,Bench,1
2026-03-27T04:15:06.694Z,-0.0669,-0.6032,0.7937,0.0032,-0.0082,0.0059,0.0032,-0.0018,-0.0039,-18.34,37.14,-175.2,135,8,7,2,Bench,1
2026-03-27T04:15:06.705Z,-0.066,-0.6031,0.7943,-0.0075,-0.0055,0.0007,0.0032,-0.0022,-0.0029,-18.34,37.14,-175.2,135,8,7,2,Bench,1
2026-03-27T04:15:06.715Z,-0.0663,-0.6036,0.793,-0.0021,-0.0022,0.0139,0.0024,-0.001,-0.0079,-18.34,37.14,-175.2,135,8,7,2,Bench,1
2026-03-27T04:15:06.725Z,-0.0668,-0.6031,0.7934,0.0004,-0.0076,0.008,0.0048,-0.0011,-0.0043,-18.34,37.14,-175.2,135,8,7,2,Bench,1
2026-03-27T04:15:06.733Z,-0.0665,-0.6034,0.7937,-0.0016,-0.0031,0.0093,0,-0.0021,-0.0057,-18.34,37.14,-175.2,135,8,7,2,Bench,1
2026-03-27T04:15:06.744Z,-0.0675,-0.6032,0.7938,0.0069,-0.0076,0.0046,0.0034,-0.0011,-0.0031,-18.34,37.14,-175.2,135,8,7,2,Bench,1
2026-03-27T04:15:06.755Z,-0.0666,-0.6031,0.7932,-0.003,-0.004,0.0114,0.0025,0.0019,-0.0024,-18.34,37.14,-175.2,135,8,7,2,Bench,1
2026-03-27T04:15:06.764Z,-0.0671,-0.6037,0.7944,0.0032,-0.0019,-0.0023,0.0027,0.0015,-0.0035,-18.34,37.14,-175.2,135,8,7,2,Bench,1
2026-03-27T04:15:06.775Z,-0.0671,-0.6031,0.7937,0.003,-0.0066,0.0086,0.0026,0.001,-0.0039,-18.34,37.14,-175.2,135,8,7,2,Bench,1
2026-03-27T04:15:06.783Z,-0.0667,-0.6032,0.7941,0.0005,-0.0055,0.0034,0.0012,-0.0012,-0.0029,-18.34,37.14,-175.2,135,8,7,2,Bench,1
2026-03-27T04:15:06.793Z,-0.0667,-0.6033,0.7942,0.0014,-0.0063,0.002,0.0025,-0.0035,-0.0031,-18.34,37.14,-175.2,135,8,7,2,Bench,1
2026-03-27T04:15:06.810Z,-0.0666,-0.6034,0.7943,-0.002,-0.0039,0.0003,0.0006,-0.0016,-0.0046,-18.34,37.14,-175.2,135,8,7,2,Bench,1
2026-03-27T04:15:06.814Z,-0.0664,-0.6032,0.7946,-0.002,-0.0065,-0.0019,0.0006,-0.0016,-0.0046,-18.34,37.14,-175.2,135,8,7,2,Bench,1
2026-03-27T04:15:06.824Z,-0.0676,-0.6029,0.7944,0.0097,-0.0098,0.0014,0.0037,-0.0048,-0.004,-18.34,37.14,-175.2,135,8,7,2,Bench,1
2026-03-27T04:15:06.833Z,-0.0672,-0.6024,0.7933,0.0049,-0.0156,0.0098,0.0057,0.0016,-0.0065,-18.34,37.14,-175.2,135,8,7,2,Bench,1
2026-03-27T04:15:06.844Z,-0.0676,-0.6029,0.7946,0.0074,-0.0044,-0.0044,0.0027,-0.0014,-0.0038,-18.34,37.14,-175.2,135,8,7,2,Bench,1
2026-03-27T04:15:06.855Z,-0.0666,-0.6033,0.7935,-0.0011,-0.0066,0.0087,0.0006,-0.0026,-0.0032,-18.34,37.14,-175.2,135,8,7,2,Bench,1
2026-03-27T04:15:06.864Z,-0.0667,-0.6033,0.7937,-0.0004,-0.0116,0.0075,0.0043,-0.0029,-0.0028,-18.34,37.14,-175.2,135,8,7,2,Bench,1
2026-03-27T04:15:06.875Z,-0.0658,-0.6032,0.7953,-0.0091,0.0006,-0.0121,0.0039,0.0009,-0.0024,-18.34,37.14,-175.2,135,8,7,2,Bench,1
2026-03-27T04:15:06.883Z,-0.0679,-0.6016,0.7939,0.0131,-0.0245,0.0038,0.0022,0.0004,-0.0018,-18.34,37.14,-175.2,135,8,7,2,Bench,1
2026-03-27T04:15:06.893Z,-0.0667,-0.6044,0.7953,0.0011,0.0057,-0.0082,0.0035,-0.0022,-0.0057,-18.34,37.14,-175.2,135,8,7,2,Bench,1
2026-03-27T04:15:06.905Z,-0.0665,-0.6037,0.7942,-0.0049,-0.001,0.0015,0.0022,-0.0027,-0.0036,-18.34,37.14,-175.2,135,8,7,2,Bench,1
2026-03-27T04:15:06.913Z,-0.0662,-0.6018,0.7933,-0.0031,-0.0174,0.0084,0.0015,-0.003,-0.0038,-18.34,37.14,-175.2,135,8,7,2,Bench,1
2026-03-27T04:15:06.925Z,-0.0662,-0.6036,0.7939,-0.0016,-0.0063,0.0065,0.0054,0.0033,-0.0088,-18.34,37.14,-175.2,135,8,7,2,Bench,1
2026-03-27T04:15:06.933Z,-0.0668,-0.6037,0.793,-0.0007,0.0048,0.0086,0.0007,0.0014,-0.0007,-18.34,37.14,-175.2,135,8,7,2,Bench,1
2026-03-27T04:15:06.943Z,-0.0673,-0.6031,0.7939,0.007,-0.0082,0.006,0.0036,-0.0009,-0.004,-18.34,37.14,-175.2,135,8,7,2,Bench,1
2026-03-27T04:15:06.954Z,-0.0668,-0.6044,0.7941,0.0011,0.0039,0.003,0.0029,-0.0015,-0.0042,-18.34,37.14,-175.2,135,8,7,2,Bench,1
2026-03-27T04:15:06.963Z,-0.0661,-0.6015,0.7923,-0.0055,-0.0221,0.0204,0.0042,0.0015,-0.0043,-18.34,37.14,-175.2,135,8,7,2,Bench,1
2026-03-27T04:15:06.973Z,-0.0679,-0.6043,0.7945,0.0095,0.0061,-0.0019,0.0021,-0.002,-0.0054,-18.34,37.14,-175.2,135,8,7,2,Bench,1
2026-03-27T04:15:06.983Z,-0.0671,-0.6021,0.7923,0.0046,-0.0171,0.0196,0.0009,-0.0037,-0.0051,-18.34,37.14,-175.2,135,8,7,2,Bench,1
2026-03-27T04:15:06.994Z,-0.0672,-0.6044,0.795,0.0041,0.0087,-0.0057,0.0045,-0.0024,-0.0025,-18.34,37.14,-175.2,135,8,7,2,Bench,1
2026-03-27T04:15:07.005Z,-0.0668,-0.6035,0.7927,0.0018,-0.0061,0.02,0.0048,0.0001,-0.0031,-18.34,37.14,-175.2,135,8,7,2,Bench,1
2026-03-27T04:15:07.013Z,-0.0662,-0.6046,0.7925,-0.0058,0.0065,0.0135,0.0045,0.0009,-0.0067,-18.34,37.14,-175.2,135,8,7,2,Bench,1
2026-03-27T04:15:07.025Z,-0.0668,-0.6016,0.794,0.0028,-0.0119,0.005,0.0019,-0.0034,-0.0012,-18.34,37.14,-175.2,135,8,7,2,Bench,1
2026-03-27T04:15:07.033Z,-0.0675,-0.6042,0.7941,0.0084,-0.0099,0.0059,0.0046,0.0003,-0.0047,-18.34,37.14,-175.2,135,8,7,2,Bench,1
2026-03-27T04:15:07.043Z,-0.0665,-0.603,0.7928,-0.0037,0.0012,0.0092,0.0048,-0.0021,-0.0055,-18.34,37.14,-175.2,135,8,7,2,Bench,1
2026-03-27T04:15:07.058Z,-0.067,-0.6029,0.794,0.0014,-0.0121,0.0085,0.0012,-0.0025,-0.0047,-18.34,37.14,-175.2,135,8,7,2,Bench,1
2026-03-27T04:15:07.063Z,-0.0659,-0.6031,0.7932,-0.0049,-0.0025,0.0079,0.0012,-0.0025,-0.0047,-18.33,37.14,-175.2,135,8,7,2,Bench,1
2026-03-27T04:15:07.074Z,-0.0658,-0.604,0.7933,-0.008,-0.0064,0.0145,0.0055,-0.0012,-0.0063,-18.33,37.14,-175.2,135,8,7,2,Bench,1
2026-03-27T04:15:07.084Z,-0.067,-0.603,0.7927,0.0006,0.0033,0.011,0.0008,-0.0046,-0.0046,-18.33,37.14,-175.2,135,8,7,2,Bench,1
2026-03-27T04:15:07.094Z,-0.0671,-0.6033,0.7937,0.0054,-0.0141,0.0083,0.0037,0.0003,-0.0073,-18.33,37.14,-175.2,135,8,7,2,Bench,1
2026-03-27T04:15:07.103Z,-0.0664,-0.605,0.7947,-0.0043,0.0195,-0.0057,0.0029,-0.0042,-0.003,-18.33,37.14,-175.2,135,8,7,2,Bench,1
2026-03-27T04:15:07.113Z,-0.0663,-0.6014,0.7949,-0.0071,-0.0244,-0.0042,0.0048,-0.003,-0.0058,-18.33,37.14,-175.2,135,8,7,2,Bench,1
2026-03-27T04:15:07.125Z,-0.0662,-0.6042,0.7943,-0.002,0.0043,0.0058,0.0038,-0.0031,-0.0042,-18.33,37.14,-175.2,135,8,7,2,Bench,1
2026-03-27T04:15:07.133Z,-0.0673,-0.6031,0.7937,0.005,-0.005,0.0074,0.0003,0.0005,-0.0056,-18.33,37.14,-175.2,135,8,7,2,Bench,1
2026-03-27T04:15:07.143Z,-0.0667,-0.6032,0.7929,0,-0.0076,0.0123,0.0023,-0.0014,-0.0018,-18.33,37.14,-175.2,135,8,7,2,Bench,1
2026-03-27T04:15:07.155Z,-0.0669,-0.6047,0.7944,0.0014,0.007,-0.0024,0.0041,0.002,-0.0049,-18.33,37.14,-175.2,135,8,7,2,Bench,1
2026-03-27T04:15:07.163Z,-0.0661,-0.6037,0.7945,-0.0099,-0.0008,0.0011,0.0024,-0.0028,-0.0061,-18.33,37.14,-175.2,135,8,7,2,Bench,1
2026-03-27T04:15:07.173Z,-0.0666,-0.6013,0.7927,0.0007,-0.0203,0.0166,0.002,-0.0019,-0.0019,-18.33,37.14,-175.2,135,8,7,2,Bench,1
2026-03-27T04:15:07.184Z,-0.0673,-0.6047,0.7932,0.0038,0.0069,0.0108,0.0021,-0.0016,-0.0055,-18.33,37.14,-175.2,135,8,7,2,Bench,1
2026-03-27T04:15:07.194Z,-0.0668,-0.6026,0.7927,-0.0001,-0.0109,0.0135,0.0026,-0.0015,-0.0056,-18.33,37.14,-175.2,135,8,7,2,Bench,1
2026-03-27T04:15:07.204Z,-0.0672,-0.6034,0.795,0.0053,-0.0034,-0.0055,0.0024,-0.0028,-0.0054,-18.33,37.14,-175.2,135,8,7,2,Bench,1
2026-03-27T04:15:07.213Z,-0.0672,-0.6033,0.7953,0.0042,-0.0079,-0.0087,0.0032,-0.0031,-0.0027,-18.33,37.14,-175.2,135,8,7,2,Bench,1
2026-03-27T04:15:07.224Z,-0.0667,-0.6031,0.7941,0.0012,-0.0035,0.0034,0.0025,-0.0007,-0.0046,-18.33,37.14,-175.2,135,8,7,2,Bench,1
2026-03-27T04:15:07.232Z,-0.0672,-0.6037,0.7939,0.0039,-0.0046,0.0025,0.0006,-0.0011,-0.0046,-18.33,37.14,-175.2,135,8,7,2,Bench,1
2026-03-27T04:15:07.243Z,-0.0665,-0.6019,0.7938,-0.0027,-0.0135,0.0049,0.0012,-0.0006,-0.003,-18.33,37.14,-175.2,135,8,7,2,Bench,1
2026-03-27T04:15:07.257Z,-0.0665,-0.6052,0.7944,-0.0016,0.014,-0.0007,0.0033,-0.0026,-0.0039,-18.33,37.14,-175.2,135,8,7,2,Bench,1
2026-03-27T04:15:07.263Z,-0.0674,-0.6028,0.7934,0.0072,-0.0144,0.0125,0.0033,-0.0026,-0.0039,-18.33,37.14,-175.2,135,8,7,2,Bench,1
2026-03-27T04:15:07.273Z,-0.0673,-0.603,0.7934,0.0066,-0.0046,0.0047,0.0028,-0.0012,-0.0036,-18.33,37.14,-175.2,135,8,7,2,Bench,1
2026-03-27T04:15:07.283Z,-0.0669,-0.6034,0.7949,0.0013,-0.0063,-0.0061,0.0008,-0.0033,-0.002,-18.33,37.14,-175.2,135,8,7,2,Bench,1
2026-03-27T04:15:07.293Z,-0.0669,-0.6031,0.7939,0.0029,-0.005,0.0033,0.0031,-0.0025,-0.0031,-18.33,37.14,-175.2,135,8,7,2,Bench,1
2026-03-27T04:15:07.308Z,-0.067,-0.6044,0.7949,0.0013,0.0044,-0.0017,0.0034,-0.0004,-0.0041,-18.33,37.14,-175.2,135,8,7,2,Bench,1
2026-03-27T04:15:07.313Z,-0.0675,-0.603,0.7933,0.0076,-0.0093,0.0107,0.0034,-0.0004,-0.0041,-18.33,37.14,-175.2,135,8,7,2,Bench,1
2026-03-27T04:15:07.323Z,-0.0669,-0.6036,0.7941,0.0014,0.0019,-0.0016,0.0038,-0.0033,-0.006,-18.33,37.14,-175.2,135,8,7,2,Bench,1
2026-03-27T04:15:07.334Z,-0.0668,-0.6026,0.7943,0.0001,-0.0132,0.0033,0.0011,0.0004,-0.0021,-18.33,37.14,-175.2,135,8,7,2,Bench,1
2026-03-27T04:15:07.344Z,-0.0663,-0.6019,0.7934,-0.0048,-0.0155,0.01,0.0026,-0.0026,-0.0057,-18.33,37.14,-175.2,135,8,7,2,Bench,1
2026-03-27T04:15:07.355Z,-0.0667,-0.6039,0.7948,0.0012,0.0033,-0.0026,0.0036,-0.0018,-0.0036,-18.33,37.14,-175.2,135,8,7,2,Bench,1
2026-03-27T04:15:07.363Z,-0.0663,-0.6039,0.7944,-0.004,-0.0016,0.0004,0.0021,-0.0025,-0.0046,-18.33,37.14,-175.2,135,8,7,2,Bench,1
2026-03-27T04:15:07.375Z,-0.0665,-0.6034,0.7948,-0.0025,-0.002,-0.0052,0.0032,0.0001,-0.0057,-18.33,37.14,-175.2,135,8,7,2,Bench,1
2026-03-27T04:15:07.383Z,-0.0665,-0.6038,0.793,0.0002,-0.0051,0.0161,0.001,-0.0036,-0.0041,-18.33,37.14,-175.2,135,8,7,2,Bench,1
2026-03-27T04:15:07.393Z,-0.0668,-0.6026,0.7941,0.0007,-0.0112,-0.0021,0.0035,-0.0014,-0.0047,-18.33,37.14,-175.2,135,8,7,2,Bench,1
2026-03-27T04:15:07.403Z,-0.0653,-0.6028,0.796,-0.0145,-0.0104,-0.0136,0.0035,-0.0046,-0.0033,-18.33,37.14,-175.2,135,8,7,2,Bench,1
2026-03-27T04:15:07.413Z,-0.0662,-0.6035,0.794,-0.0035,-0.0031,0.0073,0.0037,-0.0027,-0.0043,-18.33,37.14,-175.2,135,8,7,2,Bench,1
2026-03-27T04:15:07.423Z,-0.0669,-0.603,0.7945,0.0013,-0.0057,-0.0009,0.0036,-0.0031,-0.0013,-18.33,37.14,-175.2,135,8,7,2,Bench,1
2026-03-27T04:15:07.433Z,-0.0669,-0.6036,0.793,0.0012,-0.0028,0.0143,0.0043,-0.0019,-0.0036,-18.33,37.14,-175.2,135,8,7,2,Bench,1
2026-03-27T04:15:07.443Z,-0.0664,-0.603,0.7941,-0.0043,-0.0048,-0.0011,0.0035,-0.0036,-0.0038,-18.33,37.14,-175.2,135,8,7,2,Bench,1
2026-03-27T04:15:07.455Z,-0.0662,-0.6038,0.7967,-0.0037,-0.0023,-0.0213,0.0012,-0.0009,-0.0024,-18.33,37.14,-175.2,135,8,7,2,Bench,1
2026-03-27T04:15:07.463Z,-0.0666,-0.602,0.7939,0.0018,-0.0171,0.0101,0.0007,-0.0021,-0.0064,-18.33,37.14,-175.2,135,8,7,2,Bench,1
2026-03-27T04:15:07.473Z,-0.067,-0.6034,0.7934,0.0022,-0.0013,0.0071,0.0047,-0.002,-0.0056,-18.33,37.14,-175.2,135,8,7,2,Bench,1
2026-03-27T04:15:07.482Z,-0.0662,-0.6032,0.7934,-0.0044,-0.0062,0.011,0.0059,-0.0039,-0.0043,-18.33,37.14,-175.2,135,8,7,2,Bench,1
2026-03-27T04:15:07.493Z,-0.0662,-0.6028,0.7945,-0.004,-0.0066,-0.0028,0.0032,-0.001,-0.0039,-18.33,37.14,-175.2,135,8,7,2,Bench,1
2026-03-27T04:15:07.504Z,-0.0664,-0.6038,0.7941,-0.0015,0.0007,0.006,0.0033,-0.0022,-0.0048,-18.33,37.14,-175.2,135,8,7,2,Bench,1
2026-03-27T04:15:07.513Z,-0.0668,-0.603,0.7936,-0.001,-0.0086,0.0075,0.0029,-0.0015,-0.004,-18.33,37.14,-175.2,135,8,7,2,Bench,1
2026-03-27T04:15:07.524Z,-0.0669,-0.6038,0.7944,0.0028,0.0038,-0.001,0.0008,-0.0023,-0.0049,-18.33,37.14,-175.2,135,8,7,2,Bench,1
2026-03-27T04:15:07.533Z,-0.0666,-0.6039,0.7937,-0.0013,-0.0019,0.0086,0.0024,0.0008,-0.0056,-18.33,37.14,-175.2,135,8,7,2,Bench,1
2026-03-27T04:15:07.544Z,-0.0668,-0.6027,0.7939,0.001,-0.0103,0.0024,0.0043,-0.0036,-0.0037,-18.33,37.14,-175.2,135,8,7,2,Bench,1
2026-03-27T04:15:07.554Z,-0.0667,-0.6034,0.7943,-0.0013,-0.0029,0.0026,0.0044,-0.0005,-0.0054,-18.33,37.14,-175.2,135,8,7,2,Bench,1
2026-03-27T04:15:07.563Z,-0.0672,-0.6029,0.7939,0.007,-0.0071,0.0057,0.0048,-0.0018,-0.0082,-18.33,37.14,-175.2,135,8,7,2,Bench,1
2026-03-27T04:15:07.574Z,-0.0674,-0.6039,0.7942,0.0073,0.001,0.0022,0.0032,-0.002,-0.0051,-18.33,37.14,-175.2,135,8,7,2,Bench,1
2026-03-27T04:15:07.582Z,-0.067,-0.6031,0.7937,0.0019,-0.008,0.0068,0.0027,-0.0025,-0.0067,-18.33,37.14,-175.2,135,8,7,2,Bench,1
2026-03-27T04:15:07.593Z,-0.0663,-0.6026,0.7944,-0.001,-0.0112,-0.0013,0.0018,-0.0021,-0.0028,-18.33,37.14,-175.2,135,8,7,2,Bench,1
2026-03-27T04:15:07.604Z,-0.0668,-0.6033,0.7933,0.0027,-0.0057,0.0116,0.0034,-0.0015,-0.0019,-18.33,37.14,-175.2,135,8,7,2,Bench,1
2026-03-27T04:15:07.613Z,-0.0676,-0.6029,0.7942,0.0071,-0.0071,0.0017,0.0024,-0.0028,-0.0006,-18.33,37.14,-175.2,135,8,7,2,Bench,1
2026-03-27T04:15:07.624Z,-0.0676,-0.6035,0.7933,0.0081,-0.0033,0.011,0.0029,-0.0017,-0.0053,-18.33,37.14,-175.2,135,8,7,2,Bench,1
2026-03-27T04:15:07.632Z,-0.0666,-0.603,0.7939,-0.0001,-0.0082,0.0035,0.0056,-0.0033,-0.0014,-18.33,37.14,-175.2,135,8,7,2,Bench,1
2026-03-27T04:15:07.643Z,-0.0672,-0.6023,0.7946,0.0054,-0.013,0.0009,0.0032,-0.0019,-0.0028,-18.33,37.14,-175.2,135,8,7,2,Bench,1
2026-03-27T04:15:07.655Z,-0.067,-0.603,0.7939,0.0002,-0.0073,0.0051,0.0029,-0.0023,-0.0029,-18.33,37.14,-175.2,135,8,7,2,Bench,1
2026-03-27T04:15:07.663Z,-0.0663,-0.6039,0.7938,-0.0018,0.0018,0.0066,0.0018,-0.0031,-0.0037,-18.33,37.14,-175.2,135,8,7,2,Bench,1
2026-03-27T04:15:07.673Z,-0.0667,-0.6036,0.794,0.0014,-0.0017,0.0036,0.002,-0.0018,-0.0054,-18.33,37.14,-175.2,135,8,7,2,Bench,1
2026-03-27T04:15:07.683Z,-0.0668,-0.6029,0.7936,0.0021,-0.0099,0.0081,-0.0001,-0.0043,-0.0034,-18.33,37.14,-175.2,135,8,7,2,Bench,1
2026-03-27T04:15:07.693Z,-0.0668,-0.6027,0.7942,0.0004,-0.0112,0.0003,0.0026,-0.0006,-0.0047,-18.33,37.14,-175.2,135,8,7,2,Bench,1
2026-03-27T04:15:07.705Z,-0.0663,-0.6031,0.7946,-0.0019,-0.0062,-0.0022,0.0039,-0.0031,-0.0058,-18.33,37.14,-175.2,135,8,7,2,Bench,1
2026-03-27T04:15:07.713Z,-0.0668,-0.6032,0.794,0.003,-0.005,0.0072,0.0002,-0.0035,-0.0019,-18.33,37.14,-175.2,135,8,7,2,Bench,1
2026-03-27T04:15:07.724Z,-0.0674,-0.6035,0.7935,0.0064,-0.0057,0.0085,0.0007,-0.0022,-0.0055,-18.33,37.14,-175.2,135,8,7,2,Bench,1
2026-03-27T04:15:07.732Z,-0.0673,-0.6032,0.7929,0.0035,-0.0053,0.0146,0.0015,-0.0033,-0.003,-18.33,37.14,-175.2,135,8,7,2,Bench,1
2026-03-27T04:15:07.743Z,-0.067,-0.6036,0.7936,0.0028,-0.0011,0.005,0.0017,-0.0018,-0.0055,-18.33,37.14,-175.2,135,8,7,2,Bench,1
2026-03-27T04:15:07.757Z,-0.0671,-0.6032,0.7942,0.0036,-0.0075,0.0005,0.0033,-0.0037,-0.0043,-18.33,37.14,-175.21,135,8,7,2,Bench,1
2026-03-27T04:15:07.763Z,-0.0659,-0.6025,0.7945,-0.0076,-0.0118,-0.001,0.0033,-0.0037,-0.0043,-18.33,37.14,-175.21,135,8,7,2,Bench,1
2026-03-27T04:15:07.773Z,-0.066,-0.6032,0.7933,-0.0055,-0.007,0.0104,0.0011,-0.0013,-0.002,-18.33,37.14,-175.21,135,8,7,2,Bench,1
2026-03-27T04:15:07.783Z,-0.0664,-0.6024,0.7942,-0.001,-0.0136,0.0004,0.0033,-0.0047,-0.0047,-18.33,37.14,-175.21,135,8,7,2,Bench,1
2026-03-27T04:15:07.793Z,-0.0662,-0.6036,0.7946,-0.0028,-0.0018,-0.0026,0.0037,-0.0036,-0.0054,-18.33,37.14,-175.21,135,8,7,2,Bench,1
2026-03-27T04:15:07.804Z,-0.0668,-0.6031,0.7935,0.003,-0.0095,0.0077,0.0026,-0.0042,-0.0041,-18.33,37.14,-175.21,135,8,7,2,Bench,1
2026-03-27T04:15:07.813Z,-0.0666,-0.6023,0.7932,0.0001,-0.0137,0.0086,0.0034,-0.0023,-0.0047,-18.33,37.14,-175.21,135,8,7,2,Bench,1
2026-03-27T04:15:07.823Z,-0.0669,-0.6031,0.794,0.0027,-0.0073,0.0033,0.0026,-0.0035,-0.0044,-18.33,37.14,-175.21,135,8,7,2,Bench,1
2026-03-27T04:15:07.833Z,-0.0666,-0.6032,0.7936,0.001,-0.0026,0.0096,0.0044,-0.0004,-0.0041,-18.33,37.15,-175.21,135,8,7,2,Bench,1
2026-03-27T04:15:07.844Z,-0.0675,-0.6035,0.7935,0.0089,-0.0038,0.0078,0.0021,-0.0045,-0.006,-18.33,37.15,-175.21,135,8,7,2,Bench,1
2026-03-27T04:15:07.856Z,-0.0673,-0.6031,0.7932,0.0074,-0.0082,0.0112,0.0047,0.0004,-0.0028,-18.33,37.15,-175.21,135,8,7,2,Bench,1
2026-03-27T04:15:07.863Z,-0.0668,-0.603,0.7934,0.0006,-0.0068,0.0077,0.0047,0.0004,-0.0028,-18.33,37.15,-175.21,135,8,7,2,Bench,1
2026-03-27T04:15:07.873Z,-0.0673,-0.6042,0.7942,0.0091,0.0035,0.0016,0.003,-0.0008,-0.0009,-18.33,37.15,-175.21,135,8,7,2,Bench,1
2026-03-27T04:15:07.882Z,-0.0671,-0.6038,0.7942,0.0046,-0.0023,-0.0027,0.0023,-0.0026,-0.0042,-18.33,37.15,-175.21,135,8,7,2,Bench,1
2026-03-27T04:15:07.893Z,-0.0675,-0.6033,0.7951,0.0085,-0.0033,-0.0054,-0.0003,-0.0018,-0.0065,-18.33,37.15,-175.21,135,8,7,2,Bench,1
2026-03-27T04:15:07.906Z,-0.0669,-0.6037,0.7937,0.0027,-0.0042,0.0052,0.0034,-0.001,-0.0045,-18.33,37.15,-175.21,135,8,7,2,Bench,1
2026-03-27T04:15:07.913Z,-0.0674,-0.6019,0.7939,0.0086,-0.0201,0.0066,0.0034,-0.001,-0.0045,-18.33,37.15,-175.21,135,8,7,2,Bench,1
2026-03-27T04:15:07.923Z,-0.067,-0.6033,0.7941,0.0033,-0.0033,-0.0003,0.0042,-0.0023,-0.0042,-18.33,37.15,-175.21,135,8,7,2,Bench,1
2026-03-27T04:15:07.932Z,-0.067,-0.6035,0.7935,0.0052,-0.0047,0.008,0.0037,-0.0004,-0.0041,-18.33,37.15,-175.21,135,8,7,2,Bench,1
2026-03-27T04:15:07.943Z,-0.0669,-0.6028,0.7939,0.0019,-0.0098,0.0035,0.0025,-0.0007,-0.0036,-18.33,37.15,-175.21,135,8,7,2,Bench,1
2026-03-27T04:15:07.954Z,-0.0665,-0.6038,0.7933,-0.0015,-0.0008,0.0107,0.0012,-0.0046,-0.0077,-18.33,37.15,-175.21,135,8,7,2,Bench,1
2026-03-27T04:15:07.963Z,-0.0664,-0.603,0.7933,-0.0032,-0.0097,0.0085,0.0033,-0.0025,-0.0051,-18.33,37.15,-175.21,135,8,7,2,Bench,1
2026-03-27T04:15:07.977Z,-0.0663,-0.6029,0.7944,-0.0028,-0.0083,-0.0033,0.0033,-0.0055,-0.0026,-18.33,37.15,-175.21,135,8,7,2,Bench,1
2026-03-27T04:15:07.982Z,-0.0663,-0.6026,0.7954,-0.0007,-0.0086,-0.0049,0.0033,-0.0055,-0.0026,-18.33,37.15,-175.21,135,8,7,2,Bench,1
2026-03-27T04:15:07.993Z,-0.0659,-0.6034,0.7932,-0.0035,-0.0097,0.0068,0.0016,-0.0036,-0.0049,-18.33,37.15,-175.21,135,8,7,2,Bench,1
2026-03-27T04:15:08.006Z,-0.0668,-0.6068,0.7935,0.0011,0.0329,0.0046,-0.0003,-0.0015,0,-18.33,37.15,-175.21,135,8,7,2,Bench,1
2026-03-27T04:15:08.013Z,-0.0666,-0.5999,0.7944,0.001,-0.0415,0.0057,-0.0003,-0.0015,0,-18.33,37.15,-175.21,135,8,7,2,Bench,1
2026-03-27T04:15:08.027Z,-0.0658,-0.6053,0.7947,-0.0085,0.0115,-0.0009,0.0027,-0.0044,-0.0001,-18.33,37.15,-175.21,135,8,7,2,Bench,1
2026-03-27T04:15:08.033Z,-0.0675,-0.6015,0.791,0.0104,-0.013,0.0294,0.0027,-0.0044,-0.0001,-18.33,37.15,-175.21,135,8,7,2,Bench,1
2026-03-27T04:15:08.043Z,-0.0663,-0.6041,0.7943,0,-0.0071,0.0042,0.0079,0.0004,-0.005,-18.33,37.14,-175.21,135,8,7,2,Bench,1
2026-03-27T04:15:08.056Z,-0.0662,-0.6042,0.7952,-0.0028,0.0109,-0.0147,0.0026,-0.0034,-0.0033,-18.33,37.14,-175.22,135,8,7,2,Bench,1
2026-03-27T04:15:08.063Z,-0.0673,-0.6,0.7941,0.0053,-0.0431,0.0024,0.0026,-0.0034,-0.0033,-18.33,37.14,-175.22,135,8,7,2,Bench,1
2026-03-27T04:15:08.073Z,-0.0662,-0.6052,0.7955,0.0006,0.0174,-0.0091,0.0039,-0.0006,-0.0069,-18.33,37.14,-175.22,135,8,7,2,Bench,1
2026-03-27T04:15:08.082Z,-0.0669,-0.6046,0.7946,0.0025,0.006,-0.0007,0.0023,-0.0023,-0.0026,-18.33,37.14,-175.22,135,8,7,2,Bench,1
2026-03-27T04:15:08.093Z,-0.0672,-0.602,0.7936,0.009,-0.0173,0.0038,0.0031,-0.0034,-0.0019,-18.33,37.14,-175.22,135,8,7,2,Bench,1
2026-03-27T04:15:08.106Z,-0.067,-0.6029,0.7955,0.0068,-0.0085,-0.0143,0.0034,0.0008,-0.0061,-18.33,37.14,-175.22,135,8,7,2,Bench,1
2026-03-27T04:15:08.113Z,-0.066,-0.6058,0.7933,-0.0056,0.0186,0.0183,0.0034,0.0008,-0.0061,-18.33,37.14,-175.22,135,8,7,2,Bench,1
2026-03-27T04:15:08.123Z,-0.0676,-0.6019,0.7933,0.0085,-0.0177,0.0038,0.0044,-0.0037,-0.003,-18.33,37.14,-175.22,135,8,7,2,Bench,1
2026-03-27T04:15:08.132Z,-0.0674,-0.6039,0.7955,0.0087,-0.0022,-0.0065,0.0011,-0.0015,-0.0025,-18.33,37.14,-175.22,135,8,7,2,Bench,1
2026-03-27T04:15:08.143Z,-0.0665,-0.6024,0.7883,0.0014,-0.0147,0.0629,0.0045,-0.002,-0.0077,-18.33,37.14,-175.22,135,8,7,2,Bench,1
2026-03-27T04:15:08.156Z,-0.0665,-0.6078,0.7947,-0.0019,0.0476,-0.0151,0.005,-0.0035,-0.0044,-18.33,37.14,-175.22,135,8,7,2,Bench,1
2026-03-27T04:15:08.163Z,-0.0672,-0.6026,0.7963,0.0069,-0.0235,-0.0113,0.005,-0.0035,-0.0044,-18.33,37.14,-175.22,135,8,7,2,Bench,1
2026-03-27T04:15:08.173Z,-0.0663,-0.6019,0.793,-0.0006,-0.0134,0.0116,0.0042,-0.0031,-0.0053,-18.33,37.14,-175.22,135,8,7,2,Bench,1
2026-03-27T04:15:08.182Z,-0.0673,-0.6055,0.7939,0.0098,0.0142,0.0082,0.0041,-0.0044,-0.0024,-18.33,37.14,-175.22,135,8,7,2,Bench,1
2026-03-27T04:15:08.193Z,-0.067,-0.5996,0.7921,0.006,-0.0467,0.0201,0.0045,-0.0011,-0.003,-18.33,37.14,-175.22,135,8,7,2,Bench,1
2026-03-27T04:15:08.206Z,-0.0665,-0.6038,0.7965,0.0013,0.0087,-0.0258,0.0033,-0.0028,-0.0053,-18.33,37.14,-175.22,135,8,7,2,Bench,1
2026-03-27T04:15:08.213Z,-0.0664,-0.6037,0.7944,0.0021,-0.0073,0.0065,0.0033,-0.0028,-0.0053,-18.33,37.14,-175.22,135,8,7,2,Bench,1
2026-03-27T04:15:08.223Z,-0.0672,-0.6012,0.7938,0.0092,-0.0224,-0.0026,0.0035,-0.0034,-0.0052,-18.33,37.14,-175.22,135,8,7,2,Bench,1
2026-03-27T04:15:08.232Z,-0.0671,-0.6057,0.7959,0.0055,0.0217,-0.0125,0.0008,-0.0013,-0.003,-18.33,37.14,-175.22,135,8,7,2,Bench,1
2026-03-27T04:15:08.243Z,-0.0666,-0.6026,0.7925,0.0025,-0.0211,0.0197,0.004,-0.001,-0.0018,-18.33,37.14,-175.22,135,8,7,2,Bench,1
2026-03-27T04:15:08.256Z,-0.0665,-0.603,0.7957,0.0009,-0.001,-0.0167,0.0032,-0.0028,-0.0033,-18.33,37.14,-175.22,135,8,7,2,Bench,1
2026-03-27T04:15:08.263Z,-0.0673,-0.6033,0.7935,0.0065,-0.0087,0.0157,0.0032,-0.0028,-0.0033,-18.33,37.14,-175.22,135,8,7,2,Bench,1
2026-03-27T04:15:08.273Z,-0.0668,-0.6015,0.7914,0.0046,-0.0217,0.0207,0.0026,-0.0034,-0.004,-18.33,37.14,-175.22,135,8,7,2,Bench,1
2026-03-27T04:15:08.282Z,-0.0666,-0.6049,0.7971,0.0024,0.0126,-0.0288,0.0019,-0.0027,-0.0074,-18.33,37.14,-175.22,135,8,7,2,Bench,1
2026-03-27T04:15:08.293Z,-0.0668,-0.6034,0.7919,0.0037,-0.0069,0.0326,0.0025,-0.0009,-0.0029,-18.33,37.14,-175.22,135,8,7,2,Bench,1
2026-03-27T04:15:08.306Z,-0.0666,-0.6045,0.7903,0.0037,0.0081,0.0358,0.0022,-0.0014,-0.003,-18.33,37.14,-175.22,135,8,7,2,Bench,1
2026-03-27T04:15:08.313Z,-0.0676,-0.6049,0.7952,0.0122,0.0068,-0.0118,0.0022,-0.0014,-0.003,-18.33,37.14,-175.22,135,8,7,2,Bench,1
2026-03-27T04:15:08.323Z,-0.0665,-0.6024,0.7953,-0.001,-0.0111,-0.0069,0.0029,0.0007,-0.0044,-18.33,37.14,-175.22,135,8,7,2,Bench,1
2026-03-27T04:15:08.332Z,-0.0659,-0.6056,0.7937,-0.0041,0.0162,0.0069,0.0047,-0.0008,-0.0059,-18.33,37.14,-175.22,135,8,7,2,Bench,1
2026-03-27T04:15:08.343Z,-0.0666,-0.6018,0.7939,0.0033,-0.0228,0.0063,0.0027,-0.0011,-0.0027,-18.33,37.14,-175.22,135,8,7,2,Bench,1
2026-03-27T04:15:08.356Z,-0.0668,-0.6057,0.7942,0.0071,-0.0111,0.0197,0.0028,-0.0034,-0.0028,-18.33,37.14,-175.22,135,8,7,2,Bench,1
2026-03-27T04:15:08.363Z,-0.0668,-0.6057,0.7942,0.0045,0.0178,-0.0017,0.0029,-0.0029,-0.0012,-18.33,37.14,-175.22,135,8,7,2,Bench,1
2026-03-27T04:15:08.373Z,-0.0669,-0.6021,0.7959,0.0046,-0.0174,-0.0129,0.003,-0.0007,-0.0039,-18.33,37.14,-175.22,135,8,7,2,Bench,1
2026-03-27T04:15:08.382Z,-0.0668,-0.6048,0.7944,0.0033,0.0116,0.0017,0.0048,-0.0011,-0.0043,-18.33,37.14,-175.22,135,8,7,2,Bench,1
2026-03-27T04:15:08.393Z,-0.066,-0.6026,0.7933,-0.0047,-0.018,0.0086,0.0059,-0.0024,-0.0031,-18.33,37.14,-175.22,135,8,7,2,Bench,1
2026-03-27T04:15:08.408Z,-0.0667,-0.6009,0.7955,0.004,-0.0248,-0.0125,0.0033,-0.0011,-0.0033,-18.33,37.14,-175.22,135,8,7,2,Bench,1
2026-03-27T04:15:08.413Z,-0.0673,-0.6035,0.7956,0.0094,-0.0028,-0.0076,0.0033,-0.0011,-0.0033,-18.33,37.14,-175.22,135,8,7,2,Bench,1
2026-03-27T04:15:08.423Z,-0.0665,-0.6026,0.793,0,-0.0116,0.0102,0.0033,-0.0032,-0.0033,-18.33,37.14,-175.22,135,8,7,2,Bench,1
2026-03-27T04:15:08.432Z,-0.0666,-0.6037,0.7957,0.0023,0.0026,-0.013,0.0033,-0.0031,-0.0028,-18.33,37.14,-175.22,135,8,7,2,Bench,1
2026-03-27T04:15:08.443Z,-0.0673,-0.6023,0.7927,0.0081,-0.016,0.0204,0.0023,-0.0003,-0.0049,-18.33,37.14,-175.22,135,8,7,2,Bench,1
2026-03-27T04:15:08.456Z,-0.0664,-0.6036,0.7918,0.0005,0.0026,0.0213,0.0016,-0.0019,-0.004,-18.33,37.14,-175.22,135,8,7,2,Bench,1
2026-03-27T04:15:08.463Z,-0.0672,-0.6039,0.7962,0.0091,-0.0027,-0.0175,0.0016,-0.0019,-0.004,-18.33,37.14,-175.22,135,8,7,2,Bench,1
2026-03-27T04:15:08.473Z,-0.0668,-0.6012,0.7936,0.0032,-0.0228,0.0082,0.0048,-0.0015,-0.0049,-18.33,37.14,-175.22,135,8,7,2,Bench,1
2026-03-27T04:15:08.482Z,-0.0673,-0.605,0.7946,0.0096,0.0134,-0.0036,0.0036,-0.0013,-0.0025,-18.33,37.14,-175.22,135,8,7,2,Bench,1
2026-03-27T04:15:08.493Z,-0.0667,-0.6033,0.7947,0.0017,-0.0083,-0.0003,0.0034,-0.0016,-0.0023,-18.33,37.14,-175.22,135,8,7,2,Bench,1
2026-03-27T04:15:08.506Z,-0.0666,-0.6038,0.7924,0.0033,0.0037,0.0192,0.0039,-0.001,-0.0031,-18.33,37.14,-175.22,135,8,7,2,Bench,1
2026-03-27T04:15:08.513Z,-0.0672,-0.6039,0.7939,0.008,0.0001,0.0063,0.0039,-0.001,-0.0031,-18.33,37.14,-175.22,135,8,7,2,Bench,1
2026-03-27T04:15:08.525Z,-0.0665,-0.6044,0.7946,0.0083,-0.0156,0.014,0.0051,-0.0031,-0.0064,-18.33,37.14,-175.22,135,8,7,2,Bench,1
2026-03-27T04:15:08.532Z,-0.0665,-0.6044,0.7946,0.0015,0.0108,-0.0013,0.0047,-0.0031,-0.0055,-18.33,37.14,-175.22,135,8,7,2,Bench,1
2026-03-27T04:15:08.543Z,-0.0674,-0.6043,0.794,0.0092,0.001,0.0019,0.0043,-0.0018,-0.0049,-18.33,37.14,-175.22,135,8,7,2,Bench,1
2026-03-27T04:15:08.555Z,-0.0667,-0.602,0.7949,0.0038,-0.016,-0.0074,0.0042,-0.004,-0.004,-18.33,37.14,-175.22,135,8,7,2,Bench,1
2026-03-27T04:15:08.563Z,-0.0669,-0.6038,0.7943,0.0058,0.0006,0.006,0.0042,-0.004,-0.004,-18.33,37.14,-175.22,135,8,7,2,Bench,1
2026-03-27T04:15:08.573Z,-0.0671,-0.6024,0.7924,0.004,-0.0133,0.0142,0.0052,-0.0013,-0.0032,-18.33,37.14,-175.22,135,8,7,2,Bench,1
2026-03-27T04:15:08.582Z,-0.0672,-0.6041,0.7975,0.0071,0.0053,-0.0335,0.0017,-0.0024,-0.0035,-18.33,37.14,-175.22,135,8,7,2,Bench,1
2026-03-27T04:15:08.593Z,-0.0667,-0.6037,0.7952,0.0033,-0.0043,0.0014,0.0028,-0.0008,-0.0018,-18.33,37.14,-175.22,135,8,7,2,Bench,1
2026-03-27T04:15:08.606Z,-0.0675,-0.6024,0.791,0.0122,-0.0095,0.0318,0.002,-0.0005,-0.0043,-18.33,37.14,-175.22,135,8,7,2,Bench,1
2026-03-27T04:15:08.613Z,-0.0671,-0.603,0.7953,0.0065,-0.0101,-0.0079,0.002,-0.0005,-0.0043,-18.33,37.14,-175.22,135,8,7,2,Bench,1
2026-03-27T04:15:08.625Z,-0.0667,-0.6011,0.7935,0.0017,-0.0223,0.0104,0.0009,-0.0015,-0.0048,-18.33,37.14,-175.22,135,8,7,2,Bench,1
2026-03-27T04:15:08.632Z,-0.0662,-0.6052,0.795,-0.0009,0.0177,-0.0085,0.0009,-0.0015,-0.0048,-18.33,37.14,-175.22,135,8,7,2,Bench,1
2026-03-27T04:15:08.644Z,-0.0668,-0.6035,0.7929,0.003,-0.0056,0.0099,0.0025,-0.0048,-0.0026,-18.33,37.14,-175.22,135,8,7,2,Bench,1
2026-03-27T04:15:08.656Z,-0.0668,-0.6035,0.7929,0.0048,-0.0003,0.012,0.0017,-0.0036,-0.0046,-18.33,37.14,-175.22,135,8,7,2,Bench,1
2026-03-27T04:15:08.663Z,-0.0669,-0.6044,0.7943,0.0064,0.0068,0.0011,0.0017,-0.0036,-0.0046,-18.33,37.14,-175.22,135,8,7,2,Bench,1
2026-03-27T04:15:08.675Z,-0.0662,-0.602,0.7935,-0.002,-0.0186,0.0104,0.0037,-0.0055,-0.0068,-18.33,37.14,-175.22,135,8,7,2,Bench,1
2026-03-27T04:15:08.682Z,-0.0669,-0.6034,0.7948,0.0071,-0.0013,-0.0037,0.0037,-0.0055,-0.0068,-18.33,37.14,-175.22,135,8,7,2,Bench,1
2026-03-27T04:15:08.694Z,-0.0667,-0.6037,0.7937,0.0017,0.0007,0.0068,0.0037,-0.0027,-0.0036,-18.33,37.14,-175.22,135,8,7,2,Bench,1
2026-03-27T04:15:08.705Z,-0.0663,-0.603,0.7943,0.002,-0.007,-0.0018,0.0018,-0.0026,-0.0067,-18.33,37.14,-175.22,135,8,7,2,Bench,1
2026-03-27T04:15:08.713Z,-0.0671,-0.6037,0.7953,0.0081,-0.0009,-0.0074,0.0018,-0.0026,-0.0067,-18.33,37.14,-175.22,135,8,7,2,Bench,1
2026-03-27T04:15:08.725Z,-0.0672,-0.6029,0.794,0.0073,-0.0082,0.0029,0.0008,-0.0014,-0.0057,-18.33,37.14,-175.23,135,8,7,2,Bench,1
2026-03-27T04:15:08.732Z,-0.0663,-0.6028,0.7954,-0.0003,-0.01,-0.0119,0.0008,-0.0014,-0.0057,-18.33,37.14,-175.23,135,8,7,2,Bench,1
2026-03-27T04:15:08.744Z,-0.0661,-0.6022,0.7941,-0.0022,-0.0175,0.0053,0.0017,-0.0012,-0.0035,-18.33,37.14,-175.23,135,8,7,2,Bench,1
2026-03-27T04:15:08.756Z,-0.0666,-0.6021,0.794,0.003,-0.0122,0,0.0009,-0.0018,-0.004,-18.33,37.14,-175.23,135,8,7,2,Bench,1
2026-03-27T04:15:08.763Z,-0.0663,-0.6038,0.7961,0.0007,-0.0051,-0.0148,0.0009,-0.0018,-0.004,-18.33,37.14,-175.23,135,8,7,2,Bench,1
2026-03-27T04:15:08.776Z,-0.0662,-0.6045,0.7949,0.0029,-0.0195,0.0118,-0.0002,-0.0001,-0.0063,-18.33,37.14,-175.23,135,8,7,2,Bench,1
2026-03-27T04:15:08.782Z,-0.0662,-0.6045,0.7949,-0.0005,0.0102,-0.0067,-0.0002,-0.0001,-0.0063,-18.33,37.14,-175.23,135,8,7,2,Bench,1
2026-03-27T04:15:08.794Z,-0.0661,-0.6043,0.7941,-0.0011,-0.0012,0.0052,-0.0005,-0.0026,-0.0024,-18.33,37.14,-175.23,135,8,7,2,Bench,1
2026-03-27T04:15:08.806Z,-0.0672,-0.6021,0.7937,0.0072,-0.0076,0.0054,0.0017,-0.0028,-0.0047,-18.33,37.14,-175.23,135,8,7,2,Bench,1
2026-03-27T04:15:08.814Z,-0.0666,-0.6035,0.7943,0.0033,-0.0111,0.0063,0.0035,-0.0007,-0.0064,-18.33,37.14,-175.23,135,8,7,2,Bench,1
2026-03-27T04:15:08.825Z,-0.0661,-0.6038,0.7929,-0.0031,0.0013,0.014,0.0007,-0.0017,-0.0025,-18.33,37.14,-175.23,135,8,7,2,Bench,1
2026-03-27T04:15:08.832Z,-0.0671,-0.6034,0.794,0.0076,0.0029,0.0004,0.0007,-0.0017,-0.0025,-18.33,37.14,-175.23,135,8,7,2,Bench,1
2026-03-27T04:15:08.844Z,-0.0662,-0.6034,0.7942,0.0023,-0.0158,0.0092,0.0033,-0.0024,-0.0029,-18.33,37.14,-175.23,135,8,7,2,Bench,1
2026-03-27T04:15:08.856Z,-0.0668,-0.6032,0.7939,0.0066,0.0016,0.0032,0.0054,-0.0009,-0.0028,-18.33,37.14,-175.23,135,8,7,2,Bench,1
2026-03-27T04:15:08.864Z,-0.0673,-0.6032,0.7941,0.0076,-0.0042,0.0058,0.0052,-0.002,-0.0051,-18.33,37.14,-175.23,135,8,7,2,Bench,1
2026-03-27T04:15:08.876Z,-0.0665,-0.6053,0.7946,0.0035,-0.0175,0.0381,0.0038,-0.004,-0.0028,-18.33,37.14,-175.23,135,8,7,2,Bench,1
2026-03-27T04:15:08.882Z,-0.0665,-0.6053,0.7946,0.0007,0.0184,-0.0089,0.0038,-0.004,-0.0028,-18.33,37.14,-175.23,135,8,7,2,Bench,1
2026-03-27T04:15:08.894Z,-0.066,-0.6038,0.7949,-0.0039,-0.0006,0.0014,0.0019,-0.0009,-0.0016,-18.33,37.14,-175.23,135,8,7,2,Bench,1
2026-03-27T04:15:08.907Z,-0.0666,-0.6018,0.7926,0.0061,-0.0207,0.0155,0.002,-0.0032,-0.0047,-18.33,37.14,-175.23,135,8,7,2,Bench,1
2026-03-27T04:15:08.914Z,-0.0665,-0.6008,0.7942,0.0008,0.0027,-0.0145,0.002,-0.0032,-0.0047,-18.33,37.14,-175.23,135,8,7,2,Bench,1
2026-03-27T04:15:08.925Z,-0.0666,-0.6035,0.794,-0.0004,-0.0288,0.0058,0.0023,-0.0047,-0.0017,-18.33,37.14,-175.23,135,8,7,2,Bench,1
2026-03-27T04:15:08.932Z,-0.0666,-0.6035,0.794,0.005,0.0018,0.0029,0.0023,-0.0047,-0.0017,-18.33,37.14,-175.23,135,8,7,2,Bench,1
2026-03-27T04:15:08.944Z,-0.0667,-0.6034,0.795,0.0047,-0.0059,-0.0037,0.0019,-0.0027,-0.003,-18.33,37.14,-175.23,135,8,7,2,Bench,1
2026-03-27T04:15:08.956Z,-0.0672,-0.6022,0.7949,0.0094,-0.0131,-0.0066,0.002,-0.003,-0.0053,-18.33,37.14,-175.23,135,8,7,2,Bench,1
2026-03-27T04:15:08.964Z,-0.068,-0.6035,0.7954,0.0158,-0.0035,-0.0075,0.0022,-0.002,-0.002,-18.33,37.14,-175.23,135,8,7,2,Bench,1
2026-03-27T04:15:08.975Z,-0.0669,-0.6033,0.7926,0.0062,-0.0142,0.0112,0.0016,-0.0017,-0.0039,-18.33,37.14,-175.23,135,8,7,2,Bench,1
2026-03-27T04:15:08.982Z,-0.0669,-0.6033,0.7926,0.0062,-0.0017,0.0164,0.0016,-0.0017,-0.0039,-18.33,37.14,-175.23,135,8,7,2,Bench,1
2026-03-27T04:15:08.995Z,-0.0665,-0.6041,0.7932,0.0023,0.0014,0.0115,0.0039,-0.0025,-0.0043,-18.33,37.14,-175.23,135,8,7,2,Bench,1
2026-03-27T04:15:09.006Z,-0.0665,-0.6037,0.7936,0.0027,0.0024,0.0046,0.0039,-0.0012,-0.005,-18.33,37.14,-175.23,135,8,7,2,Bench,1
2026-03-27T04:15:09.014Z,-0.0661,-0.6033,0.7934,-0.0017,0.01,-0.0031,0.0039,-0.0012,-0.005,-18.33,37.14,-175.23,135,8,7,2,Bench,1
2026-03-27T04:15:09.025Z,-0.0663,-0.6041,0.793,-0.0021,-0.0056,0.0133,0.0033,-0.0014,-0.0041,-18.33,37.14,-175.23,135,8,7,2,Bench,1
2026-03-27T04:15:09.032Z,-0.0663,-0.6041,0.793,-0.0004,0.0074,0.0092,0.0033,-0.0014,-0.0041,-18.33,37.14,-175.23,135,8,7,2,Bench,1
2026-03-27T04:15:09.045Z,-0.0665,-0.6041,0.7952,0.0042,-0.001,0.0006,0.0051,-0.0017,-0.0038,-18.33,37.14,-175.23,135,8,7,2,Bench,1
2026-03-27T04:15:09.057Z,-0.0667,-0.606,0.7932,0.0122,-0.0045,0.0092,0.0017,-0.003,0.0005,-18.33,37.14,-175.23,135,8,7,2,Bench,1
2026-03-27T04:15:09.064Z,-0.0673,-0.6008,0.7928,0.001,0.0219,0.0031,0.0017,-0.003,0.0005,-18.33,37.14,-175.23,135,8,7,2,Bench,1
2026-03-27T04:15:09.075Z,-0.0673,-0.6008,0.7928,0.0112,-0.0316,0.0204,0.0052,0.0008,-0.0087,-18.33,37.14,-175.23,135,8,7,2,Bench,1
2026-03-27T04:15:09.082Z,-0.0663,-0.603,0.7951,0.0001,-0.0051,-0.0003,0.0052,0.0008,-0.0087,-18.33,37.14,-175.23,135,8,7,2,Bench,1
2026-03-27T04:15:09.094Z,-0.067,-0.6067,0.7939,0.0024,0.0314,-0.0007,-0.0003,-0.0033,-0.0018,-18.33,37.14,-175.23,135,8,7,2,Bench,1
2026-03-27T04:15:09.106Z,-0.0659,-0.6073,0.7977,0.0156,-0.0534,0.0181,-0.0003,-0.0033,-0.0018,-18.33,37.14,-175.23,135,8,7,2,Bench,1
2026-03-27T04:15:09.114Z,-0.0665,-0.6038,0.7924,-0.0026,0.0327,-0.027,0.0089,-0.0043,-0.0073,-18.33,37.14,-175.23,135,8,7,2,Bench,1
2026-03-27T04:15:09.125Z,-0.0675,-0.5988,0.7944,-0.0029,0.0061,0.018,-0.0014,-0.0062,-0.0043,-18.33,37.14,-175.23,135,8,7,2,Bench,1
2026-03-27T04:15:09.134Z,-0.0675,-0.5988,0.7944,0.0168,-0.0534,-0.0028,0.0044,-0.0022,-0.0082,-18.33,37.14,-175.23,135,8,7,2,Bench,1
2026-03-27T04:15:09.144Z,-0.0659,-0.6069,0.7956,-0.0041,0.028,-0.0065,0.0021,-0.0044,-0.0029,-18.33,37.14,-175.23,135,8,7,2,Bench,1
2026-03-27T04:15:09.157Z,-0.0669,-0.6027,0.7965,-0.0028,-0.0393,0.0293,0.0018,-0.0017,-0.0026,-18.33,37.14,-175.23,135,8,7,2,Bench,1
2026-03-27T04:15:09.164Z,-0.0669,-0.6027,0.7965,0.0083,-0.0101,-0.0218,0.0041,-0.0016,-0.0075,-18.33,37.14,-175.23,135,8,7,2,Bench,1
2026-03-27T04:15:09.175Z,-0.0674,-0.6011,0.7926,0.0034,0.0134,0.0173,0.0018,-0.0022,-0.0007,-18.33,37.14,-175.23,135,8,7,2,Bench,1
2026-03-27T04:15:09.183Z,-0.0674,-0.6011,0.7926,0.0108,-0.0205,0.0099,0.0001,-0.0008,-0.0044,-18.33,37.14,-175.23,135,8,7,2,Bench,1
2026-03-27T04:15:09.194Z,-0.067,-0.606,0.7971,0.0066,0.0241,-0.0247,0.0064,-0.0022,-0.0036,-18.33,37.14,-175.23,135,8,7,2,Bench,1
2026-03-27T04:15:09.207Z,-0.0662,-0.604,0.7924,-0.0011,-0.019,0.0484,0.001,-0.0039,-0.002,-18.33,37.14,-175.23,135,8,7,2,Bench,1
2026-03-27T04:15:09.214Z,-0.0662,-0.604,0.7924,0.0015,0.0126,0.0068,-0.0004,-0.0002,-0.0041,-18.33,37.14,-175.24,135,8,7,2,Bench,1
2026-03-27T04:15:09.225Z,-0.0657,-0.6009,0.7932,0.0056,0.0042,-0.0447,0.0031,0.0012,-0.0032,-18.33,37.14,-175.24,135,8,7,2,Bench,1
2026-03-27T04:15:09.232Z,-0.0657,-0.6009,0.7932,-0.0039,-0.028,0.0219,0.0031,0.0012,-0.0032,-18.33,37.14,-175.24,135,8,7,2,Bench,1
2026-03-27T04:15:09.244Z,-0.067,-0.6049,0.7924,0.0076,0.0202,0.0106,0.005,-0.0022,-0.0042,-18.33,37.14,-175.24,135,8,7,2,Bench,1
2026-03-27T04:15:09.258Z,-0.0676,-0.6001,0.7922,0.0086,-0.0185,0.0029,0.003,-0.0039,-0.0041,-18.33,37.14,-175.24,135,8,7,2,Bench,1
2026-03-27T04:15:09.263Z,-0.0676,-0.6001,0.7922,0.0121,-0.0241,0.0178,0.0023,-0.0006,-0.0036,-18.33,37.14,-175.24,135,8,7,2,Bench,1
2026-03-27T04:15:09.275Z,-0.0668,-0.6009,0.7918,0.0033,0.0305,-0.0111,0.0019,-0.0029,-0.0063,-18.33,37.14,-175.24,135,8,7,2,Bench,1
2026-03-27T04:15:09.284Z,-0.0668,-0.6009,0.7918,0.0073,-0.0333,0.0258,-0.0001,-0.0022,-0.0054,-18.33,37.14,-175.24,135,8,7,2,Bench,1
2026-03-27T04:15:09.294Z,-0.0676,-0.603,0.7943,0.0107,0.0161,-0.0168,-0.0001,-0.0022,-0.0054,-18.33,37.14,-175.24,135,8,7,2,Bench,1
2026-03-27T04:15:09.304Z,-0.0676,-0.603,0.7943,0.0123,-0.0154,0.0079,0.0023,-0.0035,-0.0062,-18.33,37.14,-175.24,135,8,7,2,Bench,1
2026-03-27T04:15:09.313Z,-0.0667,-0.6008,0.7913,0.0035,-0.0216,0.0247,0.0019,-0.0015,-0.0017,-18.33,37.14,-175.24,135,8,7,2,Bench,1
2026-03-27T04:15:09.325Z,-0.0666,-0.6004,0.7905,0.0035,0.029,-0.0352,0.0056,-0.001,-0.0047,-18.33,37.14,-175.24,135,8,7,2,Bench,1
2026-03-27T04:15:09.334Z,-0.0666,-0.6004,0.7905,0.0044,-0.0397,0.0456,0,0.0004,-0.0034,-18.33,37.14,-175.24,135,8,7,2,Bench,1
2026-03-27T04:15:09.343Z,-0.0674,-0.604,0.7944,0.0132,0.0126,-0.0134,0.0044,-0.0018,-0.0033,-18.33,37.14,-175.24,135,8,7,2,Bench,1
2026-03-27T04:15:09.357Z,-0.0675,-0.5998,0.7893,0.0048,0.0038,-0.0118,0.0009,-0.0029,-0.0036,-18.33,37.14,-175.24,135,8,7,2,Bench,1
2026-03-27T04:15:09.363Z,-0.0675,-0.5998,0.7893,0.0126,-0.0311,0.0437,0.0007,-0.0026,-0.0047,-18.33,37.14,-175.24,135,8,7,2,Bench,1
2026-03-27T04:15:09.375Z,-0.0665,-0.6003,0.7932,0.0075,0.0293,-0.0467,0.0042,0.0001,-0.0056,-18.33,37.14,-175.24,135,8,7,2,Bench,1
2026-03-27T04:15:09.383Z,-0.0665,-0.6003,0.7932,0.0043,-0.0401,0.0228,0.0028,-0.0034,-0.003,-18.33,37.14,-175.24,135,8,7,2,Bench,1
2026-03-27T04:15:09.393Z,-0.0664,-0.6047,0.7934,0.0037,0.0208,0.0004,0.0034,-0.0022,-0.0078,-18.33,37.14,-175.24,135,8,7,2,Bench,1
2026-03-27T04:15:09.410Z,-0.0672,-0.5986,0.7904,0.0113,-0.0415,0.0335,0.0043,-0.0018,-0.0043,-18.33,37.14,-175.24,135,8,7,2,Bench,1
2026-03-27T04:15:09.413Z,-0.0672,-0.5986,0.7904,0.0113,-0.0415,0.0335,0.0029,-0.0026,-0.0005,-18.33,37.14,-175.24,135,8,7,2,Bench,1
2026-03-27T04:15:09.425Z,-0.066,-0.6008,0.7908,0.007,0.0394,-0.0218,0.005,-0.002,-0.005,-18.33,37.14,-175.24,135,8,7,2,Bench,1
2026-03-27T04:15:09.434Z,-0.066,-0.6008,0.7908,-0.0031,-0.0378,0.0383,-0.0006,-0.0017,-0.0026,-18.33,37.14,-175.24,135,8,7,2,Bench,1
2026-03-27T04:15:09.443Z,-0.0659,-0.6021,0.7962,-0.0034,-0.0037,-0.0298,0.0056,-0.0039,-0.0079,-18.33,37.14,-175.24,135,8,7,2,Bench,1
2026-03-27T04:15:09.457Z,-0.0665,-0.6003,0.7894,0.0004,0.0159,-0.0024,0.0062,-0.004,-0.0001,-18.33,37.14,-175.24,135,8,7,2,Bench,1
2026-03-27T04:15:09.463Z,-0.0665,-0.6003,0.7894,0.0062,-0.0298,0.0391,0.0007,-0.0046,-0.0047,-18.33,37.14,-175.24,135,8,7,2,Bench,1
2026-03-27T04:15:09.475Z,-0.0657,-0.6018,0.7927,0.0016,0.0275,-0.0447,0.0074,-0.0034,-0.0048,-18.33,37.14,-175.24,135,8,7,2,Bench,1
2026-03-27T04:15:09.483Z,-0.0657,-0.6018,0.7927,-0.0038,-0.0253,0.0264,0.0017,-0.0031,-0.0022,-18.33,37.14,-175.24,135,8,7,2,Bench,1
2026-03-27T04:15:09.495Z,-0.0668,-0.6048,0.7959,0.0001,0.0092,-0.0046,0.0021,-0.0017,-0.0054,-18.33,37.14,-175.24,135,8,7,2,Bench,1
2026-03-27T04:15:09.507Z,-0.0662,-0.6003,0.7915,0.0078,0.0026,-0.0043,0.0067,-0.0037,-0.0045,-18.33,37.14,-175.24,135,8,7,2,Bench,1
2026-03-27T04:15:09.513Z,-0.0662,-0.6003,0.7915,-0.0009,-0.0282,0.0219,0.0007,-0.002,-0.0037,-18.33,37.14,-175.24,135,8,7,2,Bench,1
2026-03-27T04:15:09.524Z,-0.067,-0.6037,0.793,-0.0022,0.0264,-0.0363,0.0043,-0.0038,-0.0032,-18.33,37.14,-175.24,135,8,7,2,Bench,1
2026-03-27T04:15:09.533Z,-0.067,-0.6037,0.793,0.0055,-0.0034,0.0277,0.0012,0.0009,-0.0091,-18.33,37.14,-175.24,135,8,7,2,Bench,1
2026-03-27T04:15:09.545Z,-0.0662,-0.6162,0.795,-0.0317,-0.0193,0.0793,-0.0008,-0.0013,0.0013,-18.33,37.14,-175.24,135,8,7,2,Bench,1
2026-03-27T04:15:09.557Z,-0.0645,-0.5859,0.7928,-0.0037,0.1469,-0.0117,0.0065,-0.001,-0.0189,-18.33,37.14,-175.24,135,8,7,2,Bench,1
2026-03-27T04:15:09.564Z,-0.0645,-0.5859,0.7928,0.0003,-0.235,0.0201,-0.0091,0.0012,-0.0002,-18.33,37.14,-175.24,135,8,7,2,Bench,1
2026-03-27T04:15:09.575Z,-0.0693,-0.5939,0.7849,-0.0383,0.2602,-0.0064,-0.0038,-0.0008,0.0032,-18.33,37.14,-175.24,135,8,7,2,Bench,1
2026-03-27T04:15:09.583Z,-0.0693,-0.5939,0.7849,0.0445,-0.13,0.1263,0.0224,-0.0016,-0.0214,-18.33,37.14,-175.24,135,8,7,2,Bench,1
2026-03-27T04:15:09.595Z,-0.0751,-0.609,0.7956,0.0369,0.0304,0.0118,-0.0166,0.0027,0.0053,-18.33,37.14,-175.24,135,8,7,2,Bench,1
2026-03-27T04:15:09.607Z,-0.0717,-0.6022,0.7832,0.0746,0.1237,-0.0354,0.0183,0.0043,-0.018,-18.33,37.14,-175.24,135,8,7,2,Bench,1
2026-03-27T04:15:09.613Z,-0.0717,-0.6022,0.7832,0.0671,-0.1137,0.1448,-0.001,0.0018,-0.0074,-18.33,37.14,-175.24,135,8,7,2,Bench,1
2026-03-27T04:15:09.625Z,-0.0793,-0.606,0.8066,0.0485,0.0517,-0.042,0.005,-0.0025,0.0059,-18.33,37.14,-175.24,135,8,7,2,Bench,1
2026-03-27T04:15:09.633Z,-0.0793,-0.606,0.8066,0.1177,-0.0093,-0.0868,0.0072,0.0007,-0.01,-18.33,37.13,-175.24,135,8,7,2,Bench,1
2026-03-27T04:15:09.644Z,-0.0746,-0.6207,0.8061,0.1169,-0.1558,0.1135,0.01,0.0026,-0.0112,-18.32,37.13,-175.24,135,8,7,2,Bench,1
2026-03-27T04:15:09.656Z,-0.0764,-0.5895,0.788,0.074,0.1758,-0.1255,-0.0013,-0.0031,0.0026,-18.32,37.13,-175.25,135,8,7,2,Bench,1
2026-03-27T04:15:09.664Z,-0.0721,-0.5972,0.7961,0.0926,-0.1439,0.0843,-0.0014,-0.0001,-0.0095,-18.32,37.13,-175.25,135,8,7,2,Bench,1
2026-03-27T04:15:09.674Z,-0.0675,-0.6177,0.818,0.0673,-0.0626,-0.0533,0.0035,-0.0022,-0.0088,-18.32,37.13,-175.25,135,8,7,2,Bench,1
2026-03-27T04:15:09.683Z,-0.0655,-0.5766,0.7776,-0.0003,0.1349,-0.1972,0.0035,-0.0022,-0.0088,-18.32,37.13,-175.25,135,8,7,2,Bench,1
2026-03-27T04:15:09.694Z,-0.0617,-0.621,0.8027,-0.0153,-0.2639,0.1861,-0.0016,-0.0026,-0.0017,-18.32,37.13,-175.25,135,8,7,2,Bench,1
2026-03-27T04:15:09.706Z,-0.0635,-0.5977,0.796,-0.0347,0.2005,-0.1242,0.0079,-0.0011,-0.0084,-18.32,37.13,-175.25,135,8,7,2,Bench,1
2026-03-27T04:15:09.714Z,-0.0633,-0.5909,0.7882,-0.0258,-0.1152,0.0229,-0.0029,0.0008,-0.0031,-18.32,37.13,-175.25,135,8,7,2,Bench,1
2026-03-27T04:15:09.724Z,-0.0599,-0.6199,0.8098,-0.0288,-0.0718,0.0279,0.0037,-0.0031,-0.0039,-18.31,37.13,-175.25,135,8,7,2,Bench,1
2026-03-27T04:15:09.733Z,-0.0599,-0.6199,0.8098,-0.0681,0.1353,-0.1167,0.01,-0.0038,-0.0053,-18.31,37.13,-175.25,135,8,7,2,Bench,1
2026-03-27T04:15:09.744Z,-0.056,-0.6129,0.8076,-0.0882,-0.22,0.1574,-0.0064,0,-0.0027,-18.31,37.13,-175.25,135,8,7,2,Bench,1
2026-03-27T04:15:09.756Z,-0.0519,-0.6146,0.7938,-0.0997,0.1456,-0.168,0.0098,-0.0013,-0.0064,-18.31,37.13,-175.25,135,8,7,2,Bench,1
2026-03-27T04:15:09.764Z,-0.054,-0.5884,0.7744,-0.1436,0.0468,0.074,0.0015,0.0004,-0.0037,-18.31,37.13,-175.25,135,8,7,2,Bench,1
2026-03-27T04:15:09.774Z,-0.0579,-0.6208,0.8178,-0.1138,-0.1028,0.1429,-0.0009,0.0001,-0.003,-18.31,37.13,-175.25,135,8,7,2,Bench,1
2026-03-27T04:15:09.783Z,-0.0579,-0.6208,0.8178,-0.0769,0.1509,-0.222,0.0101,-0.0021,-0.0065,-18.31,37.13,-175.25,135,8,7,2,Bench,1
2026-03-27T04:15:09.794Z,-0.0591,-0.6067,0.8006,-0.089,-0.21,0.1334,-0.0042,-0.0067,0.0013,-18.31,37.13,-175.25,135,8,7,2,Bench,1
2026-03-27T04:15:09.806Z,-0.0572,-0.6042,0.8017,-0.0707,0.0851,-0.111,0.0102,-0.0048,-0.0034,-18.31,37.13,-175.25,135,8,7,2,Bench,1
2026-03-27T04:15:09.813Z,-0.0551,-0.588,0.7783,-0.0908,-0.0554,-0.0119,0.0102,-0.0048,-0.0034,-18.31,37.13,-175.25,135,8,7,2,Bench,1
2026-03-27T04:15:09.825Z,-0.0589,-0.6194,0.8204,-0.1047,-0.1087,0.1201,-0.0053,-0.0062,0.0007,-18.31,37.13,-175.25,135,8,7,2,Bench,1
2026-03-27T04:15:09.833Z,-0.0607,-0.5809,0.7945,-0.0669,0.1473,-0.2649,-0.0053,-0.0062,0.0007,-18.31,37.13,-175.25,135,8,7,2,Bench,1
2026-03-27T04:15:09.844Z,-0.0601,-0.6048,0.8019,-0.0507,-0.2596,0.0352,-0.0112,-0.0052,0.0009,-18.31,37.13,-175.25,135,8,7,2,Bench,1
2026-03-27T04:15:09.857Z,-0.0631,-0.6204,0.8028,-0.0574,0.0847,-0.1148,-0.0024,-0.0035,-0.0016,-18.32,37.13,-175.25,135,8,7,2,Bench,1
2026-03-27T04:15:09.864Z,-0.067,-0.5857,0.7749,-0.0253,0.1101,-0.0273,-0.0022,-0.0034,-0.0052,-18.32,37.13,-175.25,135,8,7,2,Bench,1
2026-03-27T04:15:09.874Z,-0.073,-0.6189,0.8115,0.0205,-0.1659,0.1595,-0.0125,-0.0024,-0.001,-18.32,37.13,-175.25,135,8,7,2,Bench,1
2026-03-27T04:15:09.883Z,-0.073,-0.6189,0.8115,0.0684,0.163,-0.1807,0.0026,-0.0035,-0.0041,-18.32,37.13,-175.25,135,8,7,2,Bench,1
2026-03-27T04:15:09.894Z,-0.0759,-0.6095,0.785,0.0806,-0.1444,0.1744,0.0001,-0.0017,-0.002,-18.32,37.13,-175.25,135,8,7,2,Bench,1
2026-03-27T04:15:09.906Z,-0.0797,-0.6154,0.7924,0.1025,0.104,0.0526,0.0044,-0.0013,-0.0052,-18.32,37.14,-175.25,135,8,7,2,Bench,1
2026-03-27T04:15:09.914Z,-0.0812,-0.5921,0.7664,0.1358,0.0753,0.0522,0.0066,0.0013,-0.0101,-18.32,37.14,-175.25,135,8,7,2,Bench,1
2026-03-27T04:15:09.924Z,-0.084,-0.629,0.8,0.1574,-0.1014,0.2537,-0.0018,0.0011,-0.0031,-18.33,37.14,-175.25,135,8,7,2,Bench,1
2026-03-27T04:15:09.933Z,-0.084,-0.629,0.8,0.176,0.2749,-0.0713,0.0159,-0.0045,-0.0073,-18.33,37.14,-175.25,135,8,7,2,Bench,1
2026-03-27T04:15:09.944Z,-0.0813,-0.6039,0.7817,0.1936,-0.063,0.1562,0.0069,-0.0038,-0.0043,-18.33,37.14,-175.25,135,8,7,2,Bench,1
2026-03-27T04:15:09.956Z,-0.0839,-0.616,0.7995,0.15,0.0493,0.0773,0.0097,0.0003,-0.0043,-18.33,37.14,-175.25,135,8,7,2,Bench,1
2026-03-27T04:15:09.964Z,-0.0835,-0.5793,0.7809,0.178,0.0764,-0.0302,0.013,-0.0009,-0.0028,-18.32,37.14,-175.25,135,8,7,2,Bench,1
2026-03-27T04:15:09.974Z,-0.0791,-0.6143,0.8123,0.1718,-0.2333,0.1282,-0.0014,-0.0025,0.0006,-18.32,37.14,-175.25,135,8,7,2,Bench,1
2026-03-27T04:15:09.983Z,-0.0791,-0.6143,0.8123,0.1207,0.1376,-0.2034,0.0106,-0.0051,-0.0057,-18.32,37.14,-175.25,135,8,7,2,Bench,1
2026-03-27T04:15:09.994Z,-0.0721,-0.5907,0.7913,0.0806,-0.1309,0.0204,0.0002,-0.0015,-0.0056,-18.32,37.14,-175.25,135,8,7,2,Bench,1
2026-03-27T04:15:10.006Z,-0.0713,-0.6199,0.8178,0.0633,-0.079,-0.0094,-0.0019,-0.0047,-0.0011,-18.32,37.14,-175.25,135,8,7,2,Bench,1
2026-03-27T04:15:10.014Z,-0.0656,-0.5814,0.7843,0.0404,0.1436,-0.2068,0.0017,-0.0033,-0.0053,-18.32,37.14,-175.25,135,8,7,2,Bench,1
2026-03-27T04:15:10.025Z,-0.0615,-0.6073,0.8066,-0.0044,-0.238,0.1135,-0.008,0.0022,-0.0072,-18.32,37.13,-175.25,135,8,7,2,Bench,1
2026-03-27T04:15:10.033Z,-0.0615,-0.6073,0.8066,-0.0436,0.0687,-0.1592,0.0035,-0.0036,-0.0057,-18.32,37.13,-175.25,135,8,7,2,Bench,1
2026-03-27T04:15:10.044Z,-0.0546,-0.5872,0.7868,-0.0889,-0.0549,-0.0476,-0.004,0.0009,-0.0026,-18.32,37.13,-175.26,135,8,7,2,Bench,1
2026-03-27T04:15:10.056Z,-0.0528,-0.6211,0.8124,-0.1118,-0.1319,0.0438,-0.006,-0.0013,-0.0059,-18.32,37.13,-175.26,135,8,7,2,Bench,1
2026-03-27T04:15:10.064Z,-0.0506,-0.5943,0.7724,-0.1294,0.1645,-0.165,0.0109,-0.002,-0.0098,-18.32,37.13,-175.26,135,8,7,2,Bench,1
2026-03-27T04:15:10.074Z,-0.0509,-0.6135,0.7859,-0.1535,-0.1124,0.2584,-0.0089,0.0003,-0.0046,-18.32,37.14,-175.26,135,8,7,2,Bench,1
2026-03-27T04:15:10.082Z,-0.0508,-0.6221,0.8041,-0.1463,0.1504,0.0202,-0.0089,0.0003,-0.0046,-18.32,37.14,-175.26,135,8,7,2,Bench,1
2026-03-27T04:15:10.093Z,-0.0484,-0.5913,0.769,-0.1494,0.1246,-0.0501,0.006,-0.0017,-0.0088,-18.32,37.14,-175.26,135,8,7,2,Bench,1
2026-03-27T04:15:10.105Z,-0.0503,-0.625,0.7995,-0.171,-0.1027,0.2402,0.0001,-0.0049,-0.0006,-18.32,37.14,-175.26,135,8,7,2,Bench,1
2026-03-27T04:15:10.114Z,-0.0535,-0.5965,0.7881,-0.1516,0.2209,-0.0769,0.0157,-0.0058,-0.0027,-18.32,37.14,-175.26,135,8,7,2,Bench,1
2026-03-27T04:15:10.124Z,-0.0572,-0.5999,0.7857,-0.1191,-0.1222,0.1058,0.0031,-0.0038,0.0025,-18.32,37.14,-175.26,135,8,7,2,Bench,1
2026-03-27T04:15:10.134Z,-0.0593,-0.6224,0.8045,-0.0805,0.0231,0.0418,0.0108,-0.0039,-0.0003,-18.31,37.14,-175.26,135,8,7,2,Bench,1
2026-03-27T04:15:10.143Z,-0.0627,-0.583,0.7795,-0.0612,0.1355,-0.0709,0.013,-0.0031,-0.0046,-18.31,37.14,-175.26,135,8,7,2,Bench,1
2026-03-27T04:15:10.155Z,-0.0672,-0.6173,0.8137,-0.0254,-0.1959,0.1347,-0.0041,-0.0007,-0.0005,-18.31,37.14,-175.26,135,8,7,2,Bench,1
2026-03-27T04:15:10.164Z,-0.0697,-0.596,0.7971,0.0174,0.1637,-0.2191,0.0125,-0.0046,-0.0068,-18.32,37.14,-175.26,135,8,7,2,Bench,1
2026-03-27T04:15:10.174Z,-0.0736,-0.5846,0.7914,0.0409,-0.1382,0.0259,0.0003,0.0001,-0.0047,-18.32,37.14,-175.26,135,8,7,2,Bench,1
2026-03-27T04:15:10.184Z,-0.077,-0.6136,0.8185,0.0805,-0.1321,-0.0202,0.0027,-0.0026,-0.0045,-18.32,37.14,-175.26,135,8,7,2,Bench,1
2026-03-27T04:15:10.196Z,-0.079,-0.5827,0.7865,0.1141,0.0748,-0.2096,0.0009,0.0003,-0.0108,-18.32,37.14,-175.26,135,8,7,2,Bench,1
2026-03-27T04:15:10.205Z,-0.0824,-0.6112,0.8089,0.1328,-0.213,0.0859,-0.0106,-0.0003,-0.0021,-18.32,37.13,-175.26,135,8,7,2,Bench,1
2026-03-27T04:15:10.213Z,-0.0828,-0.6,0.7901,0.1638,0.1107,-0.1683,0.003,-0.0018,-0.0063,-18.32,37.13,-175.26,135,8,7,2,Bench,1
2026-03-27T04:15:10.224Z,-0.0819,-0.5938,0.7788,0.1647,-0.0856,0.0996,-0.0052,-0.0008,-0.0048,-18.32,37.13,-175.26,135,8,7,2,Bench,1
2026-03-27T04:15:10.233Z,-0.083,-0.621,0.811,0.1589,-0.0516,0.1049,-0.0045,-0.0038,-0.0052,-18.32,37.13,-175.26,135,8,7,2,Bench,1
2026-03-27T04:15:10.244Z,-0.0808,-0.5896,0.7779,0.1665,0.1503,-0.1509,0.004,-0.0044,-0.0073,-18.32,37.13,-175.26,135,8,7,2,Bench,1
2026-03-27T04:15:10.255Z,-0.0786,-0.6147,0.7912,0.1434,-0.1513,0.1858,-0.0036,-0.0029,-0.0036,-18.32,37.14,-175.26,135,8,7,2,Bench,1
2026-03-27T04:15:10.263Z,-0.0773,-0.6073,0.7897,0.126,0.1405,-0.0014,0.0074,-0.0045,-0.0046,-18.32,37.14,-175.26,135,8,7,2,Bench,1
2026-03-27T04:15:10.274Z,-0.0759,-0.5965,0.7801,0.1095,-0.0106,0.083,0.0002,-0.0026,0.0005,-18.32,37.14,-175.26,135,8,7,2,Bench,1
2026-03-27T04:15:10.284Z,-0.0714,-0.6224,0.8002,0.0969,-0.0319,0.1087,0.0038,-0.0018,-0.0034,-18.32,37.14,-175.26,135,8,7,2,Bench,1
2026-03-27T04:15:10.293Z,-0.0676,-0.5941,0.7773,0.0514,0.164,-0.0435,0.0106,-0.0036,-0.0068,-18.32,37.14,-175.26,135,8,7,2,Bench,1
2026-03-27T04:15:10.307Z,-0.066,-0.61,0.7993,0.0148,-0.1079,0.1747,0.0013,-0.0046,-0.0025,-18.32,37.14,-175.26,135,8,7,2,Bench,1
2026-03-27T04:15:10.313Z,-0.0619,-0.606,0.7978,-0.0021,0.0953,-0.0842,0.0115,0.0003,-0.007,-18.32,37.14,-175.26,135,8,7,2,Bench,1
2026-03-27T04:15:10.324Z,-0.0594,-0.5903,0.7879,-0.0417,-0.0234,0.0043,0.0068,-0.0013,-0.0042,-18.32,37.14,-175.26,135,8,7,2,Bench,1
2026-03-27T04:15:10.333Z,-0.0575,-0.6113,0.8121,-0.0626,-0.1045,0.0314,0.0033,0.0007,-0.0053,-18.32,37.14,-175.26,135,8,7,2,Bench,1
2026-03-27T04:15:10.343Z,-0.0536,-0.5902,0.7922,-0.0884,0.0633,-0.1687,0.0085,-0.001,-0.0078,-18.32,37.14,-175.26,135,8,7,2,Bench,1
2026-03-27T04:15:10.357Z,-0.0542,-0.6054,0.8034,-0.1145,0.0454,-0.1175,-0.0017,0.0012,-0.0054,-18.32,37.14,-175.26,135,8,7,2,Bench,1
2026-03-27T04:15:10.363Z,-0.0524,-0.605,0.8036,-0.1145,0.0454,-0.1175,0.0017,0.0012,-0.0075,-18.32,37.14,-175.26,135,8,7,2,Bench,1
2026-03-27T04:15:10.375Z,-0.0507,-0.5939,0.7882,-0.1366,-0.0205,-0.0578,-0.0009,-0.0013,-0.0042,-18.31,37.14,-175.26,135,8,7,2,Bench,1
2026-03-27T04:15:10.383Z,-0.0518,-0.6132,0.8059,-0.1481,-0.0708,0.0439,-0.0036,0.0023,-0.0041,-18.31,37.14,-175.26,135,8,7,2,Bench,1
2026-03-27T04:15:10.393Z,-0.0525,-0.5941,0.7897,-0.1356,0.0879,-0.1121,0.0042,-0.0039,-0.0022,-18.31,37.14,-175.26,135,8,7,2,Bench,1
2026-03-27T04:15:10.405Z,-0.0542,-0.6042,0.7946,-0.1295,-0.1121,0.0656,-0.0011,-0.0024,-0.0026,-18.31,37.14,-175.26,135,8,7,2,Bench,1
2026-03-27T04:15:10.413Z,-0.0573,-0.6101,0.7969,-0.1097,0.0391,-0.0244,0.0039,-0.0056,-0.0047,-18.31,37.14,-175.26,135,8,7,2,Bench,1
2026-03-27T04:15:10.424Z,-0.0598,-0.6001,0.7833,-0.0792,0.0326,0.0024,0.0065,-0.0041,-0.0006,-18.31,37.14,-175.26,135,8,7,2,Bench,1
2026-03-27T04:15:10.433Z,-0.0641,-0.6155,0.7948,-0.0551,-0.0186,0.1002,-0.0007,-0.0023,-0.0011,-18.31,37.14,-175.26,135,8,7,2,Bench,1
2026-03-27T04:15:10.443Z,-0.0664,-0.6052,0.7838,-0.015,0.1192,-0.0044,0.0086,-0.0044,-0.0028,-18.31,37.14,-175.26,135,8,7,2,Bench,1
2026-03-27T04:15:10.454Z,-0.0698,-0.605,0.7903,0.01,-0.0077,0.1171,0.0047,-0.0017,-0.0033,-18.31,37.14,-175.26,135,8,7,2,Bench,1
2026-03-27T04:15:10.463Z,-0.0739,-0.6082,0.7966,0.044,0.0322,0.0169,0.0075,-0.0007,-0.0034,-18.31,37.14,-175.26,135,8,7,2,Bench,1
2026-03-27T04:15:10.474Z,-0.0756,-0.5964,0.7853,0.0814,0.0237,-0.0022,0.0071,-0.0015,-0.0062,-18.31,37.14,-175.26,135,8,7,2,Bench,1
2026-03-27T04:15:10.484Z,-0.0783,-0.6072,0.7999,0.0988,-0.0679,0.083,0.0044,-0.0008,-0.0039,-18.32,37.14,-175.26,135,8,7,2,Bench,1
2026-03-27T04:15:10.493Z,-0.08,-0.6004,0.7941,0.1246,0.0422,-0.0648,0.006,0.0003,-0.0042,-18.32,37.14,-175.26,135,8,7,2,Bench,1
2026-03-27T04:15:10.504Z,-0.0811,-0.6034,0.7934,0.1403,-0.0454,0.0226,0.0013,-0.0036,-0.006,-18.32,37.14,-175.26,135,8,7,2,Bench,1
2026-03-27T04:15:10.513Z,-0.0824,-0.6044,0.8008,0.1531,0.0118,-0.0051,0.0013,-0.0002,-0.0028,-18.32,37.14,-175.26,135,8,7,2,Bench,1
2026-03-27T04:15:10.524Z,-0.0824,-0.5936,0.7929,0.1612,-0.0095,-0.0542,0.0019,-0.0009,-0.0048,-18.32,37.14,-175.26,135,8,7,2,Bench,1
2026-03-27T04:15:10.533Z,-0.0801,-0.6032,0.8024,0.162,-0.0967,0.0147,-0.001,-0.0014,-0.0035,-18.32,37.14,-175.26,135,8,7,2,Bench,1
2026-03-27T04:15:10.543Z,-0.0793,-0.5977,0.7987,0.1404,0.0006,-0.0893,-0.0008,-0.0006,-0.0066,-18.32,37.13,-175.26,135,8,7,2,Bench,1
2026-03-27T04:15:10.555Z,-0.0761,-0.597,0.7934,0.1276,-0.0721,-0.0239,-0.0036,-0.0011,-0.0022,-18.32,37.13,-175.26,135,8,7,2,Bench,1
2026-03-27T04:15:10.563Z,-0.0744,-0.6061,0.7975,0.0982,-0.0488,0.0021,-0.0006,-0.0032,-0.0045,-18.32,37.13,-175.26,135,8,7,2,Bench,1
2026-03-27T04:15:10.574Z,-0.0716,-0.5985,0.7902,0.0814,0.0127,-0.0208,-0.0001,-0.0003,-0.0029,-18.32,37.14,-175.26,135,8,7,2,Bench,1
2026-03-27T04:15:10.583Z,-0.0687,-0.6088,0.796,0.0533,-0.0491,0.0396,-0.0021,-0.0043,-0.0043,-18.32,37.14,-175.26,135,8,7,2,Bench,1
2026-03-27T04:15:10.593Z,-0.0653,-0.6039,0.7898,0.0219,0.0614,-0.0176,-0.0001,-0.0027,-0.0057,-18.32,37.14,-175.26,135,8,7,2,Bench,1
2026-03-27T04:15:10.607Z,-0.0623,-0.603,0.7884,-0.0369,0.0039,0.0455,0.0024,-0.0017,-0.0051,-18.32,37.14,-175.26,135,8,7,2,Bench,1
2026-03-27T04:15:10.613Z,-0.0593,-0.6096,0.7937,-0.0369,0.0039,0.0455,0.0014,-0.0032,-0.0043,-18.32,37.14,-175.26,135,8,7,2,Bench,1
2026-03-27T04:15:10.624Z,-0.0571,-0.6011,0.7861,-0.0684,0.0509,0.0121,0.0077,-0.0036,-0.0034,-18.32,37.14,-175.26,135,8,7,2,Bench,1
2026-03-27T04:15:10.633Z,-0.0548,-0.609,0.7927,-0.0892,-0.0294,0.0811,0.0039,0.0009,-0.0054,-18.32,37.14,-175.26,135,8,7,2,Bench,1
2026-03-27T04:15:10.643Z,-0.0533,-0.6069,0.7918,-0.1116,0.0584,0.0071,0.0074,-0.0011,-0.0056,-18.32,37.15,-175.26,135,8,7,2,Bench,1
2026-03-27T04:15:10.657Z,-0.0528,-0.6033,0.7878,-0.1272,0.004,0.0512,0.0039,-0.0009,-0.0042,-18.31,37.15,-175.26,135,8,7,2,Bench,1
2026-03-27T04:15:10.663Z,-0.0525,-0.6075,0.7979,-0.1272,0.004,0.0512,0.005,-0.0009,-0.0045,-18.31,37.15,-175.26,135,8,7,2,Bench,1
2026-03-27T04:15:10.674Z,-0.0529,-0.5993,0.7924,-0.1303,0.0287,-0.0355,0.0076,-0.0024,-0.0018,-18.31,37.15,-175.26,135,8,7,2,Bench,1
2026-03-27T04:15:10.683Z,-0.0546,-0.6031,0.7979,-0.1245,-0.0474,0.022,0.0044,-0.0036,-0.0036,-18.31,37.15,-175.26,135,8,7,2,Bench,1
2026-03-27T04:15:10.693Z,-0.0556,-0.6013,0.8006,-0.1104,0.0025,-0.047,0.0059,-0.0035,-0.0056,-18.31,37.15,-175.26,135,8,7,2,Bench,1
2026-03-27T04:15:10.704Z,-0.0587,-0.5979,0.7954,-0.099,-0.0359,-0.0522,0.0019,-0.0018,-0.0014,-18.31,37.14,-175.26,135,8,7,2,Bench,1
2026-03-27T04:15:10.713Z,-0.0623,-0.6048,0.8003,-0.0643,-0.0491,-0.0142,0.0009,-0.0037,-0.0035,-18.31,37.14,-175.26,135,8,7,2,Bench,1
2026-03-27T04:15:10.724Z,-0.0655,-0.5989,0.7954,-0.0308,0.0112,-0.0575,0.0037,-0.0046,-0.0013,-18.31,37.14,-175.26,135,8,7,2,Bench,1
2026-03-27T04:15:10.732Z,-0.0677,-0.6037,0.7971,0.002,-0.0518,-0.0028,-0.0025,-0.0022,-0.0019,-18.31,37.14,-175.26,135,8,7,2,Bench,1
2026-03-27T04:15:10.743Z,-0.0704,-0.6035,0.7969,0.0207,0.0102,-0.0344,0.0031,-0.0021,-0.0056,-18.31,37.14,-175.26,135,8,7,2,Bench,1
2026-03-27T04:15:10.754Z,-0.0736,-0.5995,0.7928,0.0483,-0.0128,-0.012,0.0022,0.0001,-0.0036,-18.31,37.14,-175.26,135,8,7,2,Bench,1
2026-03-27T04:15:10.763Z,-0.0754,-0.6062,0.7964,0.077,-0.0341,0.0107,0.001,-0.001,-0.0075,-18.31,37.14,-175.26,135,8,7,2,Bench,1
2026-03-27T04:15:10.774Z,-0.0776,-0.6016,0.788,0.0978,0.0232,-0.0131,0.0047,-0.0019,-0.0044,-18.31,37.14,-175.27,135,8,7,2,Bench,1
2026-03-27T04:15:10.782Z,-0.0786,-0.6051,0.7906,0.1161,-0.0265,0.0695,0.0026,0.0004,-0.0038,-18.32,37.14,-175.27,135,8,7,2,Bench,1
2026-03-27T04:15:10.793Z,-0.0794,-0.6081,0.7912,0.1269,0.0229,0.0272,0.003,0.0001,-0.0037,-18.32,37.14,-175.27,135,8,7,2,Bench,1
2026-03-27T04:15:10.808Z,-0.0797,-0.6039,0.7864,0.1353,0.0065,0.0718,0.0056,-0.0024,-0.0045,-18.32,37.14,-175.27,135,8,7,2,Bench,1
2026-03-27T04:15:10.813Z,-0.0798,-0.6077,0.7934,0.1353,0.0065,0.0718,0.0059,-0.001,-0.002,-18.32,37.14,-175.27,135,8,7,2,Bench,1
2026-03-27T04:15:10.824Z,-0.0784,-0.6015,0.7912,0.1363,0.0369,0.0053,0.0068,-0.0035,-0.0038,-18.32,37.14,-175.27,135,8,7,2,Bench,1
2026-03-27T04:15:10.832Z,-0.0773,-0.6028,0.7931,0.1231,-0.0251,0.0374,0.0044,-0.0046,-0.0032,-18.32,37.14,-175.27,135,8,7,2,Bench,1
2026-03-27T04:15:10.843Z,-0.0751,-0.6029,0.7974,0.1116,-0.0049,0.0038,0.0028,-0.003,-0.0056,-18.32,37.14,-175.27,135,8,7,2,Bench,1
2026-03-27T04:15:10.857Z,-0.0729,-0.5986,0.793,0.0676,-0.0458,0.014,0.0052,-0.0018,-0.004,-18.32,37.14,-175.27,135,8,7,2,Bench,1
2026-03-27T04:15:10.863Z,-0.0707,-0.6038,0.7974,0.0676,-0.0458,0.014,0.0003,-0.0046,-0.0022,-18.32,37.14,-175.27,135,8,7,2,Bench,1
2026-03-27T04:15:10.874Z,-0.0679,-0.6003,0.7963,0.046,0.0039,-0.0312,-0.0008,-0.0033,-0.0065,-18.32,37.14,-175.27,135,8,7,2,Bench,1
2026-03-27T04:15:10.882Z,-0.0656,-0.6008,0.7978,0.0205,-0.0397,-0.013,0.0001,-0.0017,-0.0035,-18.32,37.14,-175.27,135,8,7,2,Bench,1
2026-03-27T04:15:10.893Z,-0.0623,-0.6024,0.7989,-0.0041,-0.0199,-0.0391,0.0018,-0.001,-0.0043,-18.32,37.14,-175.27,135,8,7,2,Bench,1
2026-03-27T04:15:10.904Z,-0.0592,-0.5989,0.7955,-0.0386,-0.0206,-0.0365,-0.0015,-0.0022,-0.0069,-18.31,37.14,-175.27,135,8,7,2,Bench,1
2026-03-27T04:15:10.913Z,-0.0573,-0.6038,0.7984,-0.0682,-0.0455,-0.0125,-0.0013,-0.0021,-0.0038,-18.31,37.14,-175.27,135,8,7,2,Bench,1
2026-03-27T04:15:10.927Z,-0.0553,-0.6037,0.7934,-0.1025,-0.0058,0.0167,0.0011,-0.0005,-0.0079,-18.31,37.14,-175.27,135,8,7,2,Bench,1
2026-03-27T04:15:10.932Z,-0.0544,-0.6049,0.7923,-0.1025,-0.0058,0.0167,-0.0015,0.0016,-0.003,-18.31,37.14,-175.27,135,8,7,2,Bench,1
2026-03-27T04:15:10.943Z,-0.0537,-0.6076,0.7946,-0.1141,0.0177,0.0145,0.001,-0.0023,-0.005,-18.31,37.14,-175.27,135,8,7,2,Bench,1
2026-03-27T04:15:10.957Z,-0.0542,-0.6049,0.7889,-0.1123,0.0109,0.0546,0.0037,0.0007,-0.0019,-18.31,37.14,-175.27,135,8,7,2,Bench,1
2026-03-27T04:15:10.964Z,-0.0545,-0.6077,0.7908,-0.1123,0.0109,0.0546,0.0024,-0.0046,-0.0028,-18.31,37.14,-175.27,135,8,7,2,Bench,1
2026-03-27T04:15:10.976Z,-0.0554,-0.6051,0.7908,-0.0986,0.0071,0.0392,0.0079,-0.0033,-0.0016,-18.31,37.14,-175.27,135,8,7,2,Bench,1
2026-03-27T04:15:10.982Z,-0.058,-0.6054,0.7915,-0.0986,0.0071,0.0392,0.0063,-0.0033,-0.0014,-18.31,37.14,-175.27,135,8,7,2,Bench,1
2026-03-27T04:15:10.993Z,-0.0602,-0.6061,0.7941,-0.0752,0.0226,0.0208,0.0052,-0.0045,-0.0027,-18.31,37.15,-175.27,135,8,7,2,Bench,1
2026-03-27T04:15:11.004Z,-0.0621,-0.6037,0.7923,-0.0518,0.0152,0.0048,0.0097,-0.0042,-0.0037,-18.31,37.15,-175.27,135,8,7,2,Bench,1
2026-03-27T04:15:11.013Z,-0.0653,-0.6046,0.7942,-0.0323,0.0006,0.0234,0.0052,-0.0017,-0.0013,-18.32,37.14,-175.27,135,8,7,2,Bench,1
2026-03-27T04:15:11.026Z,-0.0672,-0.6032,0.7947,-0.0022,0.0128,-0.0022,0.0068,-0.0018,-0.0047,-18.32,37.14,-175.27,135,8,7,2,Bench,1
2026-03-27T04:15:11.032Z,-0.0699,-0.6022,0.797,0.0164,-0.0149,-0.0006,0.004,-0.0022,-0.0067,-18.32,37.14,-175.27,135,8,7,2,Bench,1
2026-03-27T04:15:11.043Z,-0.0737,-0.6009,0.7979,0.0452,-0.0117,-0.0305,0.0045,-0.0026,-0.0008,-18.32,37.14,-175.27,135,8,7,2,Bench,1
2026-03-27T04:15:11.054Z,-0.0744,-0.5992,0.7963,0.0796,-0.0273,-0.0322,0.0012,-0.0048,-0.0043,-18.32,37.14,-175.27,135,8,7,2,Bench,1
2026-03-27T04:15:11.063Z,-0.0768,-0.6004,0.7979,0.0882,-0.0487,-0.0183,0.0003,0,-0.0062,-18.32,37.14,-175.27,135,8,7,2,Bench,1
2026-03-27T04:15:11.073Z,-0.0787,-0.6005,0.7954,0.1114,-0.0275,-0.0365,-0.0001,-0.0047,-0.0072,-18.32,37.14,-175.27,135,8,7,2,Bench,1
2026-03-27T04:15:11.082Z,-0.0793,-0.6027,0.7951,0.128,-0.0321,-0.0035,0.0015,-0.0007,-0.0061,-18.32,37.14,-175.27,135,8,7,2,Bench,1
2026-03-27T04:15:11.093Z,-0.079,-0.6034,0.7942,0.1314,-0.0089,-0.0063,0.0003,-0.003,-0.0032,-18.32,37.14,-175.27,135,8,7,2,Bench,1
2026-03-27T04:15:11.106Z,-0.079,-0.6035,0.7943,0.1292,-0.0008,0.0034,-0.0003,-0.0003,-0.0055,-18.32,37.14,-175.27,135,8,7,2,Bench,1
2026-03-27T04:15:11.113Z,-0.0775,-0.6047,0.7917,0.1292,-0.0008,0.0034,0.0006,-0.0029,-0.0064,-18.32,37.14,-175.27,135,8,7,2,Bench,1
2026-03-27T04:15:11.123Z,-0.0756,-0.603,0.7913,0.1149,0.0078,0.0271,0.0007,-0.0022,-0.0032,-18.32,37.14,-175.27,135,8,7,2,Bench,1
2026-03-27T04:15:11.132Z,-0.074,-0.6046,0.7928,0.0964,-0.0082,0.0298,0.0009,-0.0041,-0.0049,-18.32,37.14,-175.27,135,8,7,2,Bench,1
2026-03-27T04:15:11.143Z,-0.0726,-0.6059,0.7917,0.0826,0.0115,0.0133,0.0033,-0.0023,-0.0035,-18.32,37.14,-175.27,135,8,7,2,Bench,1
2026-03-27T04:15:11.155Z,-0.0694,-0.6054,0.7922,0.0332,0.0143,0.02,0.0017,-0.0032,-0.004,-18.32,37.14,-175.27,135,8,7,2,Bench,1
2026-03-27T04:15:11.163Z,-0.0665,-0.6049,0.793,0.0332,0.0143,0.02,0.0021,-0.0054,-0.0076,-18.32,37.14,-175.27,135,8,7,2,Bench,1
2026-03-27T04:15:11.177Z,-0.0641,-0.6039,0.7916,-0.0172,0.0013,0.0292,0.0042,0.0004,-0.0048,-18.31,37.14,-175.27,135,8,7,2,Bench,1
2026-03-27T04:15:11.182Z,-0.0619,-0.6036,0.7935,-0.0172,0.0013,0.0292,0.0044,-0.0013,-0.0055,-18.31,37.14,-175.27,135,8,7,2,Bench,1
2026-03-27T04:15:11.193Z,-0.0594,-0.6018,0.7947,-0.0384,-0.0058,0.0044,0.0052,-0.0037,-0.0061,-18.31,37.15,-175.27,135,8,7,2,Bench,1
2026-03-27T04:15:11.207Z,-0.0576,-0.6024,0.7959,-0.0818,-0.0112,-0.017,0.0036,-0.0019,-0.0048,-18.31,37.15,-175.27,135,8,7,2,Bench,1
2026-03-27T04:15:11.213Z,-0.0561,-0.6033,0.7968,-0.0818,-0.0112,-0.017,0.0033,-0.0035,-0.0054,-18.31,37.15,-175.27,135,8,7,2,Bench,1
2026-03-27T04:15:11.223Z,-0.0552,-0.6014,0.7951,-0.0938,-0.0072,-0.0213,0.0038,-0.0027,-0.0047,-18.31,37.15,-175.27,135,8,7,2,Bench,1
2026-03-27T04:15:11.232Z,-0.0545,-0.6043,0.7975,-0.1039,-0.0234,-0.0078,0.0023,-0.0036,-0.0043,-18.31,37.15,-175.28,135,8,7,2,Bench,1
2026-03-27T04:15:11.243Z,-0.0553,-0.6031,0.7961,-0.1088,0.008,-0.0322,0.0016,-0.0037,-0.0038,-18.31,37.15,-175.28,135,8,7,2,Bench,1
2026-03-27T04:15:11.255Z,-0.0553,-0.6026,0.7957,-0.0971,-0.0112,-0.014,0.0034,-0.0028,-0.0068,-18.31,37.14,-175.28,135,8,7,2,Bench,1
2026-03-27T04:15:11.263Z,-0.0577,-0.6027,0.7954,-0.0971,-0.0112,-0.014,0.0033,-0.0035,-0.0022,-18.31,37.14,-175.28,135,8,7,2,Bench,1
2026-03-27T04:15:11.280Z,-0.0588,-0.6023,0.7929,-0.0654,-0.0134,0.015,0.0043,-0.0045,-0.0034,-18.31,37.14,-175.28,135,8,7,2,Bench,1
2026-03-27T04:15:11.283Z,-0.0607,-0.6051,0.7946,-0.0654,-0.0134,0.015,0.0066,-0.0022,-0.0007,-18.31,37.14,-175.28,135,8,7,2,Bench,1
2026-03-27T04:15:11.293Z,-0.0634,-0.604,0.7927,-0.0455,0.0145,-0.0034,0.002,-0.0003,-0.0044,-18.31,37.14,-175.28,135,8,7,2,Bench,1
2026-03-27T04:15:11.306Z,-0.0663,-0.6037,0.7921,0.009,0.0027,0.0218,0.0045,-0.002,-0.0061,-18.31,37.14,-175.28,135,8,7,2,Bench,1
2026-03-27T04:15:11.313Z,-0.0689,-0.6061,0.793,0.009,0.0027,0.0218,0.0038,-0.0008,-0.0009,-18.31,37.14,-175.28,135,8,7,2,Bench,1
2026-03-27T04:15:11.325Z,-0.0716,-0.6038,0.7912,0.0612,-0.0034,0.0341,0.005,0.0001,-0.0047,-18.31,37.14,-175.28,135,8,7,2,Bench,1
2026-03-27T04:15:11.332Z,-0.0738,-0.6038,0.7915,0.0612,-0.0034,0.0341,0.0056,-0.0031,-0.0017,-18.31,37.14,-175.28,135,8,7,2,Bench,1
2026-03-27T04:15:11.343Z,-0.0754,-0.6037,0.7926,0.0811,0.0017,0.027,0.0058,-0.0026,-0.0041,-18.31,37.14,-175.28,135,8,7,2,Bench,1
2026-03-27T04:15:11.357Z,-0.0767,-0.6021,0.7934,0.1114,-0.0154,0.012,0.0058,0.0015,-0.0038,-18.31,37.14,-175.28,135,8,7,2,Bench,1
2026-03-27T04:15:11.363Z,-0.0774,-0.6039,0.7941,0.1114,-0.0154,0.012,0.0033,-0.0015,-0.0043,-18.31,37.14,-175.28,135,8,7,2,Bench,1
2026-03-27T04:15:11.373Z,-0.0785,-0.6027,0.794,0.1158,0.0064,0.0021,0.0039,-0.0035,-0.0052,-18.31,37.14,-175.28,135,8,7,2,Bench,1
2026-03-27T04:15:11.382Z,-0.0788,-0.6026,0.7953,0.1287,-0.0129,0.0056,0.0027,-0.0028,-0.0029,-18.31,37.14,-175.28,135,8,7,2,Bench,1
2026-03-27T04:15:11.393Z,-0.0778,-0.6028,0.7964,0.1279,-0.0087,-0.0116,0.0043,-0.0018,-0.0048,-18.31,37.14,-175.28,135,8,7,2,Bench,1
2026-03-27T04:15:11.406Z,-0.0759,-0.6003,0.7957,0.0978,-0.0326,-0.0144,0.0012,-0.0036,-0.0051,-18.31,37.13,-175.28,135,8,7,2,Bench,1
2026-03-27T04:15:11.413Z,-0.0743,-0.6016,0.797,0.0978,-0.0326,-0.0144,-0.0026,-0.0025,-0.0035,-18.31,37.13,-175.28,135,8,7,2,Bench,1
2026-03-27T04:15:11.423Z,-0.0736,-0.6013,0.7952,0.0824,-0.0188,-0.0257,0.0016,-0.0031,-0.0051,-18.31,37.13,-175.28,135,8,7,2,Bench,1
2026-03-27T04:15:11.432Z,-0.0715,-0.6012,0.795,0.0755,-0.0253,-0.0045,0.0015,-0.0044,-0.004,-18.31,37.13,-175.28,135,8,7,2,Bench,1
2026-03-27T04:15:11.443Z,-0.0685,-0.6038,0.7949,0.0534,-0.0206,-0.0047,0.0014,-0.0032,-0.0051,-18.31,37.13,-175.28,135,8,7,2,Bench,1
2026-03-27T04:15:11.457Z,-0.0659,-0.6035,0.7933,0.0011,-0.0036,0.0124,0.0004,-0.0028,-0.0024,-18.31,37.13,-175.28,135,8,7,2,Bench,1
2026-03-27T04:15:11.463Z,-0.0645,-0.6039,0.7933,0.0011,-0.0036,0.0124,-0.0006,-0.0001,-0.0058,-18.31,37.13,-175.28,135,8,7,2,Bench,1
2026-03-27T04:15:11.475Z,-0.0619,-0.6039,0.7942,-0.0388,0.0009,0.0046,0.0036,-0.0019,-0.0054,-18.31,37.14,-175.28,135,8,7,2,Bench,1
2026-03-27T04:15:11.482Z,-0.0592,-0.6035,0.7927,-0.0388,0.0009,0.0046,0.0016,0.0006,-0.0038,-18.31,37.14,-175.28,135,8,7,2,Bench,1
2026-03-27T04:15:11.493Z,-0.0586,-0.6052,0.7924,-0.0629,-0.0029,0.019,0.0018,-0.0024,-0.0037,-18.31,37.14,-175.28,135,8,7,2,Bench,1
2026-03-27T04:15:11.506Z,-0.0564,-0.6049,0.7922,-0.0913,0.0085,0.0224,0.004,-0.0043,-0.0048,-18.31,37.14,-175.28,135,8,7,2,Bench,1
2026-03-27T04:15:11.513Z,-0.0563,-0.6058,0.7923,-0.0913,0.0085,0.0224,0.0035,-0.0032,-0.0058,-18.31,37.14,-175.28,135,8,7,2,Bench,1
2026-03-27T04:15:11.526Z,-0.0552,-0.6052,0.7928,-0.1016,0.011,0.0151,0.0046,-0.0003,-0.0046,-18.31,37.14,-175.28,135,8,7,2,Bench,1
2026-03-27T04:15:11.532Z,-0.0562,-0.6038,0.7938,-0.1016,0.011,0.0151,0.0052,-0.0007,-0.0046,-18.31,37.14,-175.28,135,8,7,2,Bench,1
2026-03-27T04:15:11.545Z,-0.0569,-0.6048,0.7954,-0.0862,0.0093,-0.0099,0.005,-0.0021,-0.0019,-18.31,37.14,-175.28,135,8,7,2,Bench,1
2026-03-27T04:15:11.556Z,-0.0581,-0.6019,0.7943,-0.0699,-0.0207,-0.0034,0.0013,-0.003,-0.002,-18.31,37.14,-175.28,135,8,7,2,Bench,1
2026-03-27T04:15:11.563Z,-0.059,-0.6032,0.7958,-0.0699,-0.0207,-0.0034,0.0042,-0.0046,-0.0052,-18.31,37.14,-175.28,135,8,7,2,Bench,1
2026-03-27T04:15:11.575Z,-0.0619,-0.6024,0.796,-0.038,-0.0068,-0.0106,0.0024,-0.0031,-0.0004,-18.31,37.14,-175.28,135,8,7,2,Bench,1
2026-03-27T04:15:11.582Z,-0.064,-0.6027,0.794,-0.038,-0.0068,-0.0106,0.0029,-0.0042,-0.0017,-18.31,37.14,-175.28,135,8,7,2,Bench,1
2026-03-27T04:15:11.595Z,-0.066,-0.6033,0.7963,0.0096,-0.0037,-0.0206,0.0031,-0.0019,-0.0051,-18.31,37.14,-175.28,135,8,7,2,Bench,1
2026-03-27T04:15:11.606Z,-0.0687,-0.6024,0.7948,0.0332,-0.0131,-0.0002,0.0043,-0.0029,-0.0045,-18.31,37.14,-175.28,135,8,7,2,Bench,1
2026-03-27T04:15:11.613Z,-0.0721,-0.6015,0.7939,0.0332,-0.0131,-0.0002,0.0009,-0.0024,0.0002,-18.31,37.14,-175.28,135,8,7,2,Bench,1
2026-03-27T04:15:11.625Z,-0.073,-0.603,0.7948,0.0763,-0.0164,-0.0018,0.0041,-0.0032,-0.0058,-18.31,37.14,-175.28,135,8,7,2,Bench,1
2026-03-27T04:15:11.632Z,-0.0744,-0.603,0.7937,0.0763,-0.0164,-0.0018,0.0032,-0.0016,-0.007,-18.31,37.14,-175.28,135,8,7,2,Bench,1
2026-03-27T04:15:11.644Z,-0.0762,-0.6028,0.793,0.1071,-0.0113,0.0149,0.0025,-0.0027,-0.0015,-18.31,37.14,-175.28,135,8,7,2,Bench,1
2026-03-27T04:15:11.656Z,-0.0768,-0.6056,0.7935,0.1113,0.0168,0.0124,0.0022,-0.0025,-0.0077,-18.31,37.14,-175.28,135,8,7,2,Bench,1
2026-03-27T04:15:11.664Z,-0.0774,-0.6028,0.7912,0.114,-0.0069,0.0313,0.0024,-0.0025,-0.002,-18.31,37.14,-175.28,135,8,7,2,Bench,1
2026-03-27T04:15:11.675Z,-0.077,-0.6054,0.7911,0.1137,0.0102,0.0336,0.0032,0.0004,-0.0051,-18.31,37.14,-175.28,135,8,7,2,Bench,1
2026-03-27T04:15:11.682Z,-0.0755,-0.6022,0.7928,0.1137,0.0102,0.0336,0.0045,-0.0024,-0.0059,-18.31,37.14,-175.28,135,8,7,2,Bench,1
2026-03-27T04:15:11.692Z,-0.0752,-0.6016,0.7959,0.0963,-0.0155,0.015,0.0032,-0.0036,-0.0016,-18.31,37.14,-175.28,135,8,7,2,Bench,1
2026-03-27T04:15:11.706Z,-0.0732,-0.6023,0.7956,0.0749,-0.016,-0.0036,0.0038,-0.0025,-0.0035,-18.31,37.14,-175.28,135,8,7,2,Bench,1
2026-03-27T04:15:11.715Z,-0.0713,-0.6033,0.7931,0.0524,-0.003,0.0099,0.0045,-0.0021,-0.0043,-18.31,37.14,-175.28,135,8,7,2,Bench,1
2026-03-27T04:15:11.725Z,-0.0692,-0.6037,0.7939,0.0343,-0.0021,0.0033,0.0021,-0.002,-0.0032,-18.31,37.14,-175.28,135,8,7,2,Bench,1
2026-03-27T04:15:11.732Z,-0.0679,-0.6043,0.7961,0.0343,-0.0021,0.0033,0.0012,-0.0023,-0.0019,-18.31,37.14,-175.28,135,8,7,2,Bench,1
2026-03-27T04:15:11.744Z,-0.0657,-0.602,0.796,-0.002,-0.0237,-0.0139,0.0003,-0.0025,-0.0065,-18.31,37.14,-175.28,135,8,7,2,Bench,1
2026-03-27T04:15:11.756Z,-0.0633,-0.6016,0.7952,-0.0244,-0.0207,-0.0094,0.0016,-0.0029,-0.0069,-18.31,37.14,-175.28,135,8,7,2,Bench,1
2026-03-27T04:15:11.765Z,-0.0616,-0.6006,0.7956,-0.0397,-0.0301,-0.0095,0.0006,0.0003,-0.0047,-18.31,37.14,-175.28,135,8,7,2,Bench,1
2026-03-27T04:15:11.776Z,-0.06,-0.6029,0.7945,-0.0572,-0.0042,0.0004,0.0009,-0.0026,-0.0056,-18.31,37.14,-175.28,135,8,7,2,Bench,1
2026-03-27T04:15:11.782Z,-0.058,-0.603,0.7929,-0.0572,-0.0042,0.0004,0.0012,-0.0009,-0.0052,-18.31,37.14,-175.28,135,8,7,2,Bench,1
2026-03-27T04:15:11.795Z,-0.0576,-0.6052,0.7924,-0.0795,0.0193,0.0174,0.0004,-0.0039,-0.006,-18.31,37.14,-175.28,135,8,7,2,Bench,1
2026-03-27T04:15:11.806Z,-0.0581,-0.606,0.7939,-0.0722,0.0198,0.0047,0.0048,-0.0048,-0.0001,-18.31,37.14,-175.28,135,8,7,2,Bench,1
2026-03-27T04:15:11.813Z,-0.0577,-0.606,0.7941,-0.0722,0.0198,0.0047,0,-0.0045,-0.0038,-18.31,37.14,-175.28,135,8,7,2,Bench,1
2026-03-27T04:15:11.825Z,-0.0582,-0.6036,0.7912,-0.0733,-0.0033,0.0312,0.0026,-0.0016,-0.0049,-18.3,37.14,-175.28,135,8,7,2,Bench,1
2026-03-27T04:15:11.832Z,-0.0587,-0.6046,0.7926,-0.0733,-0.0033,0.0312,0.0036,-0.0033,-0.0034,-18.3,37.14,-175.28,135,8,7,2,Bench,1
2026-03-27T04:15:11.844Z,-0.0593,-0.604,0.7944,-0.0583,0.0029,0.0011,0.0042,-0.0047,-0.0033,-18.3,37.14,-175.28,135,8,7,2,Bench,1
2026-03-27T04:15:11.856Z,-0.0617,-0.6039,0.7935,-0.034,-0.0014,0.0098,0.004,-0.0029,-0.0016,-18.3,37.14,-175.28,135,8,7,2,Bench,1
2026-03-27T04:15:11.864Z,-0.0634,-0.6026,0.7944,-0.019,-0.0115,-0.0017,0.0064,-0.0031,-0.0061,-18.3,37.14,-175.28,135,8,7,2,Bench,1
2026-03-27T04:15:11.874Z,-0.0654,-0.6028,0.7949,0.0007,-0.0095,-0.0029,0.0044,-0.0026,-0.003,-18.3,37.14,-175.28,135,8,7,2,Bench,1
2026-03-27T04:15:11.882Z,-0.0676,-0.6034,0.7958,0.0007,-0.0095,-0.0029,0.0018,-0.0033,-0.0044,-18.3,37.14,-175.28,135,8,7,2,Bench,1
2026-03-27T04:15:11.894Z,-0.0693,-0.6022,0.7963,0.043,-0.0182,-0.014,0.0028,-0.0018,-0.0029,-18.3,37.14,-175.29,135,8,7,2,Bench,1
2026-03-27T04:15:11.908Z,-0.0712,-0.6012,0.7942,0.0553,-0.0236,0.0032,0.0055,-0.0033,-0.0038,-18.3,37.14,-175.29,135,8,7,2,Bench,1
2026-03-27T04:15:11.914Z,-0.0725,-0.602,0.7944,0.07,-0.017,-0.0019,0.0036,0.0003,-0.0029,-18.3,37.14,-175.29,135,8,7,2,Bench,1
2026-03-27T04:15:11.924Z,-0.0736,-0.6013,0.7955,0.0818,-0.0226,-0.0091,0.002,-0.0021,-0.0032,-18.31,37.14,-175.29,135,8,7,2,Bench,1
2026-03-27T04:15:11.934Z,-0.0753,-0.6022,0.7943,0.0998,-0.0148,0.0053,0.0023,-0.0025,-0.0053,-18.31,37.14,-175.29,135,8,7,2,Bench,1
2026-03-27T04:15:11.944Z,-0.0766,-0.6032,0.791,0.1078,-0.002,0.0315,0.0023,0.0004,-0.0029,-18.31,37.14,-175.29,135,8,7,2,Bench,1
2026-03-27T04:15:11.956Z,-0.0759,-0.6049,0.7932,0.0998,0.0083,0.0134,0.0005,-0.0021,-0.0055,-18.31,37.14,-175.29,135,8,7,2,Bench,1
2026-03-27T04:15:11.964Z,-0.0755,-0.6042,0.7927,0.0997,0.0043,0.0176,0.0014,-0.0031,-0.0052,-18.31,37.14,-175.29,135,8,7,2,Bench,1
2026-03-27T04:15:11.974Z,-0.0753,-0.604,0.7924,0.0944,0.0003,0.018,0.0019,-0.0025,-0.0031,-18.31,37.14,-175.29,135,8,7,2,Bench,1
2026-03-27T04:15:11.984Z,-0.0732,-0.6028,0.7931,0.0734,-0.0111,0.0122,0.0036,-0.0016,-0.0048,-18.31,37.14,-175.29,135,8,7,2,Bench,1
2026-03-27T04:15:11.995Z,-0.0718,-0.6025,0.7934,0.0609,-0.0111,0.012,0.0028,-0.0023,-0.0042,-18.31,37.14,-175.29,135,8,7,2,Bench,1
2026-03-27T04:15:12.005Z,-0.0707,-0.6045,0.792,0.0493,0.008,0.0255,0.001,-0.0036,-0.0038,-18.31,37.14,-175.29,135,8,7,2,Bench,1
2026-03-27T04:15:12.014Z,-0.0693,-0.6044,0.7933,0.0356,0.0033,0.0088,-0.0014,-0.0039,-0.0056,-18.31,37.14,-175.29,135,8,7,2,Bench,1
2026-03-27T04:15:12.025Z,-0.0671,-0.6041,0.7927,0.0137,0.0026,0.0168,0.0004,-0.0023,-0.0016,-18.31,37.14,-175.29,135,8,7,2,Bench,1
2026-03-27T04:15:12.035Z,-0.0655,-0.6044,0.7935,-0.0036,0.0061,0.0053,0.0029,-0.0035,-0.0045,-18.31,37.14,-175.29,135,8,7,2,Bench,1
2026-03-27T04:15:12.044Z,-0.0628,-0.6028,0.7949,-0.0273,-0.013,-0.0063,0.0032,-0.0014,-0.0049,-18.31,37.14,-175.29,135,8,7,2,Bench,1
2026-03-27T04:15:12.056Z,-0.0614,-0.6017,0.7959,-0.0421,-0.0197,-0.0137,0.0043,-0.0016,-0.0045,-18.31,37.14,-175.29,135,8,7,2,Bench,1
2026-03-27T04:15:12.064Z,-0.0605,-0.6027,0.795,-0.0487,-0.0114,-0.0043,0.0016,-0.0015,-0.0039,-18.3,37.14,-175.29,135,8,7,2,Bench,1
2026-03-27T04:15:12.075Z,-0.0597,-0.6025,0.7955,-0.0564,-0.012,-0.0127,0.0026,-0.0032,-0.0034,-18.3,37.15,-175.29,135,8,7,2,Bench,1
2026-03-27T04:15:12.084Z,-0.0589,-0.6034,0.7955,-0.0665,-0.0043,-0.0094,0.0007,0.0003,-0.0054,-18.3,37.15,-175.29,135,8,7,2,Bench,1
2026-03-27T04:15:12.094Z,-0.0574,-0.6035,0.7934,-0.0791,-0.0025,0.0091,0.0005,-0.0041,-0.0057,-18.3,37.15,-175.29,135,8,7,2,Bench,1
2026-03-27T04:15:12.106Z,-0.0581,-0.6044,0.7956,-0.0701,0.005,-0.0135,0.0004,-0.0036,-0.0048,-18.3,37.15,-175.29,135,8,7,2,Bench,1
2026-03-27T04:15:12.114Z,-0.0588,-0.6031,0.7955,-0.0628,-0.0086,-0.0082,0.0017,-0.0048,-0.0029,-18.3,37.15,-175.29,135,8,7,2,Bench,1
2026-03-27T04:15:12.124Z,-0.0594,-0.6026,0.7932,-0.0582,-0.0116,0.0101,0.0023,-0.0026,-0.0024,-18.3,37.15,-175.29,135,8,7,2,Bench,1
2026-03-27T04:15:12.135Z,-0.0609,-0.6035,0.7943,-0.0417,-0.0057,-0.0027,0.0029,-0.0015,-0.0044,-18.3,37.15,-175.29,135,8,7,2,Bench,1
2026-03-27T04:15:12.144Z,-0.0628,-0.6031,0.7939,-0.025,-0.007,0.0079,0.0023,-0.0005,-0.0034,-18.3,37.15,-175.29,135,8,7,2,Bench,1
2026-03-27T04:15:12.156Z,-0.0643,-0.6039,0.7933,-0.0091,0.0003,0.0052,0.0007,-0.0001,-0.0039,-18.3,37.15,-175.29,135,8,7,2,Bench,1
2026-03-27T04:15:12.163Z,-0.0657,-0.6038,0.7928,0.0048,-0.0027,0.0206,0.0045,-0.0024,-0.005,-18.3,37.15,-175.29,135,8,7,2,Bench,1
2026-03-27T04:15:12.174Z,-0.0676,-0.6062,0.7936,0.0203,0.027,0.0091,0.0025,-0.0067,-0.003,-18.3,37.15,-175.29,135,8,7,2,Bench,1
2026-03-27T04:15:12.184Z,-0.0699,-0.6023,0.7921,0.047,-0.019,0.0189,0.0027,-0.0024,0,-18.3,37.15,-175.29,135,8,7,2,Bench,1
2026-03-27T04:15:12.194Z,-0.0712,-0.6037,0.7948,0.061,-0.011,-0.0044,0.006,-0.0007,-0.008,-18.3,37.15,-175.29,135,8,7,2,Bench,1
2026-03-27T04:15:12.205Z,-0.0722,-0.6031,0.7953,0.0654,0.0015,-0.0083,0.0039,-0.0035,-0.0023,-18.3,37.15,-175.29,135,8,7,2,Bench,1
2026-03-27T04:15:12.214Z,-0.0742,-0.6009,0.7925,0.0906,-0.0283,0.0156,0.0028,-0.0024,-0.0019,-18.31,37.15,-175.29,135,8,7,2,Bench,1
2026-03-27T04:15:12.224Z,-0.075,-0.6048,0.7965,0.0965,0.0061,-0.0231,0.0047,-0.0024,-0.0053,-18.3,37.15,-175.29,135,8,7,2,Bench,1
2026-03-27T04:15:12.233Z,-0.075,-0.6024,0.7921,0.0938,-0.0116,0.0274,0.0029,-0.001,-0.0065,-18.3,37.15,-175.29,135,8,7,2,Bench,1
2026-03-27T04:15:12.243Z,-0.0752,-0.6028,0.7932,0.0952,-0.0058,0.0032,0.002,-0.0023,-0.0058,-18.3,37.15,-175.29,135,8,7,2,Bench,1
2026-03-27T04:15:12.256Z,-0.0744,-0.6039,0.7969,0.0881,-0.0094,-0.0208,0.0059,-0.0023,-0.0042,-18.3,37.15,-175.29,135,8,7,2,Bench,1
2026-03-27T04:15:12.264Z,-0.0741,-0.5993,0.7914,0.085,-0.038,0.0278,0.0013,-0.0022,-0.004,-18.3,37.15,-175.29,135,8,7,2,Bench,1
2026-03-27T04:15:12.274Z,-0.0738,-0.6049,0.7958,0.081,0.0114,-0.0181,0.0039,-0.0003,-0.0037,-18.3,37.15,-175.29,135,8,7,2,Bench,1
2026-03-27T04:15:12.284Z,-0.0721,-0.6011,0.7925,0.0625,-0.0352,0.0252,0.005,-0.0014,-0.0066,-18.3,37.15,-175.29,135,8,7,2,Bench,1
2026-03-27T04:15:12.293Z,-0.0707,-0.602,0.7947,0.0458,-0.0056,-0.0126,0.0017,-0.0024,-0.0002,-18.3,37.15,-175.29,135,8,7,2,Bench,1
2026-03-27T04:15:12.305Z,-0.0682,-0.6057,0.7956,0.0261,0.012,-0.0006,0.0035,-0.0035,-0.0017,-18.3,37.15,-175.29,135,8,7,2,Bench,1
2026-03-27T04:15:12.315Z,-0.0665,-0.6009,0.79,0.0095,-0.0268,0.0398,0.002,-0.004,-0.0065,-18.3,37.15,-175.29,135,8,7,2,Bench,1
2026-03-27T04:15:12.325Z,-0.0652,-0.6065,0.7951,-0.0047,0.0306,-0.0089,-0.0005,-0.0018,-0.0015,-18.3,37.15,-175.29,135,8,7,2,Bench,1
2026-03-27T04:15:12.333Z,-0.0632,-0.6024,0.7911,-0.0247,-0.0241,0.038,0.0056,-0.0023,-0.0067,-18.3,37.15,-175.29,135,8,7,2,Bench,1
2026-03-27T04:15:12.343Z,-0.0616,-0.604,0.7952,-0.0382,0.0126,-0.0205,0.0003,-0.0013,-0.0033,-18.3,37.15,-175.29,135,8,7,2,Bench,1
2026-03-27T04:15:12.355Z,-0.0607,-0.6059,0.7961,-0.0503,0.01,-0.0029,0.0048,-0.0006,-0.0038,-18.3,37.15,-175.29,135,8,7,2,Bench,1
2026-03-27T04:15:12.363Z,-0.0597,-0.6005,0.7893,-0.0583,-0.0301,0.0452,0.0029,-0.0021,-0.0068,-18.3,37.15,-175.29,135,8,7,2,Bench,1
2026-03-27T04:15:12.374Z,-0.0594,-0.6072,0.7971,-0.0622,0.0372,-0.0348,0.0008,-0.0015,-0.0032,-18.3,37.15,-175.29,135,8,7,2,Bench,1
2026-03-27T04:15:12.385Z,-0.058,-0.6026,0.7946,-0.0724,-0.0232,0.0069,0.0044,-0.0043,-0.0043,-18.3,37.15,-175.29,135,8,7,2,Bench,1
2026-03-27T04:15:12.394Z,-0.059,-0.6012,0.7943,-0.0627,-0.0178,-0.0076,0.0031,-0.0048,-0.0006,-18.3,37.15,-175.29,135,8,7,2,Bench,1
2026-03-27T04:15:12.405Z,-0.0604,-0.6049,0.7975,-0.0461,0.0042,-0.0218,0.0037,-0.0023,-0.0032,-18.3,37.15,-175.29,135,8,7,2,Bench,1
2026-03-27T04:15:12.413Z,-0.061,-0.5984,0.7919,-0.0458,-0.0509,0.0221,0.0009,-0.0047,-0.0028,-18.3,37.15,-175.29,135,8,7,2,Bench,1
2026-03-27T04:15:12.425Z,-0.0609,-0.6061,0.798,-0.0423,0.0296,-0.0395,0.002,0.0003,-0.0036,-18.3,37.15,-175.29,135,8,7,2,Bench,1
2026-03-27T04:15:12.433Z,-0.0633,-0.6028,0.7941,-0.0221,-0.0188,0.0131,0.0059,-0.0025,-0.0035,-18.3,37.15,-175.29,135,8,7,2,Bench,1
2026-03-27T04:15:12.443Z,-0.0641,-0.6018,0.793,-0.0121,-0.0125,0.0057,0.0021,-0.0032,-0.0028,-18.31,37.15,-175.29,135,8,7,2,Bench,1
2026-03-27T04:15:12.455Z,-0.0655,-0.6064,0.7972,0.002,0.0228,-0.0246,0.0019,-0.0036,-0.0047,-18.31,37.15,-175.29,135,8,7,2,Bench,1
2026-03-27T04:15:12.463Z,-0.068,-0.6006,0.7916,0.0272,-0.0341,0.0285,0.0016,0.0005,-0.0056,-18.31,37.15,-175.29,135,8,7,2,Bench,1
2026-03-27T04:15:12.473Z,-0.0693,-0.6046,0.7948,0.041,0.0114,-0.0064,0.0016,-0.0002,-0.0041,-18.31,37.15,-175.29,135,8,7,2,Bench,1
2026-03-27T04:15:12.483Z,-0.0718,-0.6041,0.7926,0.0621,-0.0036,0.0246,0.0024,-0.0016,-0.0056,-18.31,37.15,-175.29,135,8,7,2,Bench,1
2026-03-27T04:15:12.493Z,-0.0726,-0.6007,0.7889,0.072,-0.0243,0.0479,0.0027,-0.002,-0.0043,-18.31,37.15,-175.29,135,8,7,2,Bench,1
2026-03-27T04:15:12.506Z,-0.0735,-0.6065,0.7941,0.0801,0.0245,0.0024,0.0047,-0.0014,-0.005,-18.31,37.15,-175.29,135,8,7,2,Bench,1
2026-03-27T04:15:12.513Z,-0.0735,-0.6024,0.7915,0.0797,-0.0186,0.0314,0.0045,-0.0024,-0.0051,-18.31,37.15,-175.29,135,8,7,2,Bench,1
2026-03-27T04:15:12.523Z,-0.0741,-0.6034,0.7927,0.0844,0.0015,0.0126,0.0031,-0.0044,-0.0057,-18.31,37.15,-175.29,135,8,7,2,Bench,1
2026-03-27T04:15:12.534Z,-0.0745,-0.6051,0.7953,0.0875,0.0077,-0.0065,0.0043,-0.0022,-0.0018,-18.31,37.15,-175.29,135,8,7,2,Bench,1
2026-03-27T04:15:12.544Z,-0.0743,-0.6006,0.793,0.0859,-0.0287,0.0139,0.0029,-0.0046,-0.0034,-18.31,37.15,-175.29,135,8,7,2,Bench,1
2026-03-27T04:15:12.555Z,-0.0734,-0.6038,0.7964,0.0777,0,-0.0289,-0.0022,-0.0005,-0.0053,-18.31,37.15,-175.29,135,8,7,2,Bench,1
2026-03-27T04:15:12.563Z,-0.0715,-0.604,0.7926,0.0543,-0.01,0.0278,0.0048,0.0011,-0.0052,-18.31,37.15,-175.29,135,8,7,2,Bench,1
2026-03-27T04:15:12.573Z,-0.0722,-0.5991,0.7946,0.0627,-0.0242,-0.0006,0.0005,-0.0039,-0.0024,-18.31,37.15,-175.29,135,8,7,2,Bench,1
2026-03-27T04:15:12.583Z,-0.0692,-0.6037,0.7975,0.0384,-0.0286,-0.0375,0.0064,-0.0012,-0.0074,-18.31,37.15,-175.29,135,8,7,2,Bench,1
2026-03-27T04:15:12.593Z,-0.0688,-0.6035,0.7925,0.0285,0.0202,0.0138,-0.0026,-0.0015,-0.0015,-18.31,37.15,-175.29,135,8,7,2,Bench,1
2026-03-27T04:15:12.605Z,-0.0671,-0.5978,0.7939,0.0146,-0.067,0.016,-0.0005,0.0012,-0.0039,-18.31,37.15,-175.29,135,8,7,2,Bench,1
2026-03-27T04:15:12.613Z,-0.0647,-0.6121,0.7976,-0.0117,0.0777,-0.0303,0.0069,-0.0038,-0.0097,-18.31,37.15,-175.29,135,8,7,2,Bench,1
2026-03-27T04:15:12.624Z,-0.0641,-0.5948,0.7921,-0.0184,-0.0778,0.0113,-0.0058,-0.0018,-0.0016,-18.31,37.15,-175.29,135,8,7,2,Bench,1
2026-03-27T04:15:12.633Z,-0.0616,-0.6116,0.7966,-0.038,0.0606,-0.0102,0.0069,-0.0013,-0.006,-18.31,37.15,-175.29,135,8,7,2,Bench,1
2026-03-27T04:15:12.643Z,-0.0603,-0.5998,0.7887,-0.0545,-0.0258,0.0556,0.0002,-0.0009,-0.0029,-18.31,37.15,-175.29,135,8,7,2,Bench,1
2026-03-27T04:15:12.655Z,-0.0602,-0.6071,0.7903,-0.0538,0.0171,0.0331,0.0038,-0.0022,-0.0047,-18.31,37.15,-175.29,135,8,7,2,Bench,1
2026-03-27T04:15:12.663Z,-0.0584,-0.6028,0.7946,-0.067,-0.0001,-0.0015,0.0021,-0.0001,-0.0031,-18.31,37.15,-175.29,135,8,7,2,Bench,1
2026-03-27T04:15:12.673Z,-0.0593,-0.6052,0.7922,-0.0639,-0.0008,0.026,0.0059,-0.0026,-0.0038,-18.31,37.15,-175.29,135,8,7,2,Bench,1
2026-03-27T04:15:12.683Z,-0.0595,-0.6024,0.7942,-0.0592,0.0046,-0.005,0.0026,-0.0034,-0.0015,-18.3,37.15,-175.29,135,8,7,2,Bench,1
2026-03-27T04:15:12.693Z,-0.0585,-0.6056,0.7941,-0.0662,-0.0059,0.0128,0.0073,-0.0032,-0.0088,-18.3,37.15,-175.29,135,8,7,2,Bench,1
2026-03-27T04:15:12.705Z,-0.0604,-0.6033,0.7925,-0.0496,0.0129,0.0065,-0.0003,-0.003,-0.0018,-18.3,37.15,-175.29,135,8,7,2,Bench,1
2026-03-27T04:15:12.713Z,-0.0623,-0.6034,0.7977,-0.0309,-0.0218,-0.0266,0.0075,-0.0055,-0.001,-18.3,37.15,-175.29,135,8,7,2,Bench,1
2026-03-27T04:15:12.723Z,-0.0625,-0.6023,0.7943,-0.0251,-0.0058,0.0025,0.0056,-0.0022,-0.0025,-18.3,37.15,-175.29,135,8,7,2,Bench,1
2026-03-27T04:15:12.733Z,-0.0649,-0.6033,0.7952,-0.002,-0.0094,-0.0127,0.0017,-0.0031,-0.0029,-18.3,37.15,-175.29,135,8,7,2,Bench,1
2026-03-27T04:15:12.743Z,-0.0656,-0.6039,0.7964,0.0033,-0.0015,-0.0157,0.0037,-0.0032,-0.0056,-18.3,37.15,-175.29,135,8,7,2,Bench,1
2026-03-27T04:15:12.755Z,-0.0681,-0.6004,0.7927,0.0269,-0.0282,0.02,0.0021,-0.0007,-0.0032,-18.31,37.15,-175.29,135,8,7,2,Bench,1
2026-03-27T04:15:12.763Z,-0.07,-0.6057,0.7936,0.0472,0.018,0.0101,0.0035,-0.0025,-0.0056,-18.31,37.15,-175.29,135,8,7,2,Bench,1
2026-03-27T04:15:12.773Z,-0.0705,-0.6011,0.7913,0.0498,-0.0335,0.0272,0.006,-0.0014,-0.0052,-18.31,37.15,-175.29,135,8,7,2,Bench,1
2026-03-27T04:15:12.783Z,-0.0722,-0.6053,0.7968,0.0682,0.0288,-0.0303,0.0006,-0.0037,-0.0017,-18.31,37.14,-175.29,135,8,7,2,Bench,1
2026-03-27T04:15:12.793Z,-0.0736,-0.6046,0.793,0.0812,-0.0048,0.028,0.0048,-0.0023,-0.0028,-18.31,37.14,-175.29,135,8,7,2,Bench,1
2026-03-27T04:15:12.804Z,-0.074,-0.6031,0.7885,0.0849,-0.0001,0.052,0.004,-0.003,-0.0057,-18.31,37.14,-175.29,135,8,7,2,Bench,1
2026-03-27T04:15:12.813Z,-0.0746,-0.6049,0.7959,0.0892,0.0074,-0.0159,0.0049,-0.0006,-0.0055,-18.31,37.14,-175.29,135,8,7,2,Bench,1
2026-03-27T04:15:12.823Z,-0.0743,-0.6015,0.7917,0.088,-0.0262,0.0327,0.0038,-0.0062,-0.003,-18.31,37.14,-175.29,135,8,7,2,Bench,1
2026-03-27T04:15:12.832Z,-0.0738,-0.6033,0.7923,0.0819,-0.0023,0.0166,0.0052,-0.0046,-0.0033,-18.31,37.14,-175.29,135,8,7,2,Bench,1
2026-03-27T04:15:12.843Z,-0.0733,-0.6029,0.7946,0.0763,-0.014,0.0002,0.0049,0.0013,-0.0042,-18.31,37.14,-175.29,135,8,7,2,Bench,1
2026-03-27T04:15:12.854Z,-0.0715,-0.6001,0.7912,0.0632,-0.0324,0.0202,-0.0016,0.0002,-0.0055,-18.31,37.14,-175.29,135,8,7,2,Bench,1
2026-03-27T04:15:12.863Z,-0.0708,-0.6048,0.7974,0.0525,0.0024,-0.0211,0.0057,-0.0023,-0.0085,-18.31,37.14,-175.29,135,8,7,2,Bench,1
2026-03-27T04:15:12.873Z,-0.0711,-0.6002,0.7935,0.0507,-0.0233,0.0047,0.0014,-0.0012,-0.0024,-18.31,37.14,-175.29,135,8,7,2,Bench,1
2026-03-27T04:15:12.882Z,-0.0692,-0.6005,0.7973,0.0364,-0.0384,-0.0297,-0.0006,-0.0046,-0.0073,-18.31,37.14,-175.29,135,8,7,2,Bench,1
2026-03-27T04:15:12.893Z,-0.0662,-0.6055,0.796,0.004,0.0175,0.0027,0.0098,-0.0017,-0.008,-18.31,37.14,-175.29,135,8,7,2,Bench,1
2026-03-27T04:15:12.904Z,-0.0656,-0.6,0.7936,-0.0047,-0.0295,-0.0156,-0.0049,-0.0017,-0.0021,-18.31,37.14,-175.29,135,8,7,2,Bench,1
2026-03-27T04:15:12.913Z,-0.0618,-0.6033,0.7948,-0.0298,-0.0208,0.0141,0.0013,0.0006,-0.0095,-18.3,37.14,-175.29,135,8,7,2,Bench,1
2026-03-27T04:15:12.923Z,-0.0626,-0.606,0.7919,-0.0312,0.0396,0.0314,0.0061,-0.0038,-0.0049,-18.3,37.14,-175.29,135,8,7,2,Bench,1
2026-03-27T04:15:12.932Z,-0.0632,-0.6029,0.7874,-0.0202,-0.0078,0.0477,-0.0047,-0.0009,0.0015,-18.3,37.14,-175.29,135,8,7,2,Bench,1
2026-03-27T04:15:12.943Z,-0.0591,-0.6063,0.7977,-0.0598,-0.0035,-0.017,0.0136,0.0009,-0.0139,-18.3,37.14,-175.29,135,8,7,2,Bench,1
2026-03-27T04:15:12.954Z,-0.0581,-0.6062,0.7909,-0.0851,0.0651,0.0304,-0.002,-0.0058,0.0031,-18.3,37.14,-175.29,135,8,7,2,Bench,1
2026-03-27T04:15:12.963Z,-0.0579,-0.6048,0.7906,-0.0631,-0.0193,0.033,-0.0004,-0.003,-0.0019,-18.3,37.14,-175.29,135,8,7,2,Bench,1
2026-03-27T04:15:12.973Z,-0.059,-0.6078,0.798,-0.0555,0.0318,-0.0267,0.0094,-0.0001,-0.0096,-18.3,37.14,-175.29,135,8,7,2,Bench,1
2026-03-27T04:15:12.982Z,-0.0629,-0.5972,0.782,-0.0343,-0.0417,0.1299,0.0064,-0.0022,0.0019,-18.3,37.15,-175.29,135,8,7,2,Bench,1
2026-03-27T04:15:12.993Z,-0.06,-0.6107,0.7911,-0.0499,0.0579,0.0145,0.0041,-0.0023,-0.0019,-18.3,37.15,-175.29,135,8,7,2,Bench,1
2026-03-27T04:15:13.004Z,-0.0606,-0.6039,0.8049,-0.044,-0.0107,-0.1072,0.0024,-0.0023,-0.0054,-18.3,37.14,-175.29,135,8,7,2,Bench,1
2026-03-27T04:15:13.013Z,-0.0642,-0.5992,0.7966,-0.0127,-0.0355,-0.0053,0.0016,-0.0034,-0.0045,-18.3,37.14,-175.29,135,8,7,2,Bench,1
2026-03-27T04:15:13.024Z,-0.0643,-0.6018,0.7914,-0.0065,-0.03,0.0403,0.0116,-0.0036,-0.0018,-18.3,37.14,-175.29,135,8,7,2,Bench,1
2026-03-27T04:15:13.032Z,-0.067,-0.597,0.7917,0.0187,-0.0609,0.0042,0.0052,-0.0018,-0.0026,-18.3,37.14,-175.29,135,8,7,2,Bench,1
2026-03-27T04:15:13.043Z,-0.0683,-0.6036,0.8051,0.0295,0.0096,-0.1024,0.0004,0.0002,-0.0028,-18.3,37.14,-175.29,135,8,7,2,Bench,1
2026-03-27T04:15:13.054Z,-0.0702,-0.6072,0.7977,0.045,0.0211,-0.0079,0.0038,-0.0018,-0.005,-18.31,37.14,-175.29,135,8,7,2,Bench,1
2026-03-27T04:15:13.063Z,-0.0719,-0.5977,0.7902,0.0628,-0.0528,0.0306,0.0019,-0.002,-0.0052,-18.31,37.14,-175.29,135,8,7,2,Bench,1
2026-03-27T04:15:13.073Z,-0.0711,-0.6022,0.7992,0.0559,-0.0249,-0.0459,0.0045,-0.0019,-0.0067,-18.31,37.14,-175.29,135,8,7,2,Bench,1
2026-03-27T04:15:13.082Z,-0.0703,-0.6015,0.7932,0.0471,-0.0065,0.0131,0.0003,-0.0004,-0.0042,-18.31,37.14,-175.29,135,8,7,2,Bench,1
2026-03-27T04:15:13.093Z,-0.0728,-0.6078,0.7935,0.0755,0.0364,0.0088,-0.0006,-0.0027,-0.0017,-18.31,37.14,-175.29,135,8,7,2,Bench,1
2026-03-27T04:15:13.104Z,-0.075,-0.6023,0.7898,0.0933,-0.0237,0.0556,0.0026,-0.0031,-0.0045,-18.31,37.14,-175.29,135,8,7,2,Bench,1
2026-03-27T04:15:13.113Z,-0.0734,-0.603,0.7874,0.0751,0.0054,0.0605,0.0037,-0.0014,-0.0069,-18.31,37.14,-175.29,135,8,7,2,Bench,1
2026-03-27T04:15:13.123Z,-0.0729,-0.6086,0.7953,0.0715,0.0452,-0.0151,0.0035,-0.0019,-0.0021,-18.31,37.14,-175.29,135,8,7,2,Bench,1
2026-03-27T04:15:13.132Z,-0.0715,-0.6022,0.7936,0.0604,-0.0223,0.0136,0.0032,-0.0023,-0.0059,-18.31,37.14,-175.29,135,8,7,2,Bench,1
2026-03-27T04:15:13.143Z,-0.0706,-0.6073,0.791,0.0509,0.0432,0.0343,0.0007,-0.0037,-0.0053,-18.3,37.14,-175.29,135,8,7,2,Bench,1
2026-03-27T04:15:13.155Z,-0.0714,-0.6064,0.7867,0.0588,0.0163,0.0822,0.0068,-0.0048,-0.0066,-18.3,37.14,-175.29,135,8,7,2,Bench,1
2026-03-27T04:15:13.163Z,-0.0712,-0.6016,0.7913,0.0545,-0.0184,0.0144,0.0053,-0.0013,-0.0034,-18.3,37.14,-175.29,135,8,7,2,Bench,1
2026-03-27T04:15:13.173Z,-0.0682,-0.6031,0.7986,0.0266,-0.0114,-0.0341,0.0059,-0.002,-0.0045,-18.3,37.14,-175.29,135,8,7,2,Bench,1
2026-03-27T04:15:13.182Z,-0.0656,-0.6003,0.7918,0,-0.0308,0.0284,0.0057,-0.0004,-0.0077,-18.3,37.14,-175.29,135,8,7,2,Bench,1
2026-03-27T04:15:13.193Z,-0.0653,-0.6025,0.7976,-0.0018,-0.009,-0.0385,0.0027,-0.0034,-0.0043,-18.3,37.14,-175.29,135,8,7,2,Bench,1
2026-03-27T04:15:13.205Z,-0.0629,-0.6019,0.797,-0.0239,-0.022,-0.0158,0.0048,-0.001,-0.0069,-18.3,37.14,-175.29,135,8,7,2,Bench,1
2026-03-27T04:15:13.213Z,-0.0616,-0.6029,0.7933,-0.0364,-0.0032,0.0088,0.0018,-0.0026,-0.004,-18.3,37.14,-175.3,135,8,7,2,Bench,1
2026-03-27T04:15:13.223Z,-0.0619,-0.603,0.7963,-0.0341,-0.0123,-0.0186,0.0013,-0.0002,-0.0058,-18.3,37.14,-175.3,135,8,7,2,Bench,1
2026-03-27T04:15:13.232Z,-0.0612,-0.5993,0.7967,-0.0406,-0.0417,-0.0221,-0.0025,-0.0032,-0.0051,-18.3,37.14,-175.3,135,8,7,2,Bench,1
2026-03-27T04:15:13.243Z,-0.0597,-0.6039,0.7967,-0.0591,0.0044,-0.0179,0.0037,-0.003,-0.0057,-18.3,37.14,-175.3,135,8,7,2,Bench,1
2026-03-27T04:15:13.254Z,-0.0585,-0.5999,0.7926,-0.0643,-0.0367,0.0176,0.0002,-0.0036,-0.003,-18.3,37.13,-175.3,135,8,7,2,Bench,1
2026-03-27T04:15:13.263Z,-0.0596,-0.6044,0.7975,-0.0545,0.0128,-0.0329,0.0009,-0.0036,-0.0025,-18.29,37.14,-175.3,135,8,7,2,Bench,1
2026-03-27T04:15:13.274Z,-0.0605,-0.608,0.7919,-0.0431,0.0371,0.0383,0.0059,-0.0058,-0.0041,-18.29,37.14,-175.3,135,8,7,2,Bench,1
2026-03-27T04:15:13.282Z,-0.0638,-0.6049,0.7885,-0.015,0.0132,0.0514,0.0002,-0.0024,-0.0001,-18.29,37.14,-175.3,135,8,7,2,Bench,1
2026-03-27T04:15:13.293Z,-0.0631,-0.6051,0.7945,-0.0231,0.0116,0.0008,0.0054,-0.0034,-0.0028,-18.29,37.14,-175.3,135,8,7,2,Bench,1
2026-03-27T04:15:13.304Z,-0.0633,-0.6041,0.7907,-0.0178,0.0057,0.0397,0.0054,-0.0035,-0.0055,-18.29,37.14,-175.3,135,8,7,2,Bench,1
2026-03-27T04:15:13.313Z,-0.065,-0.6058,0.7933,-0.0017,0.0219,0.0064,0.0007,-0.0009,-0.0043,-18.29,37.14,-175.3,135,8,7,2,Bench,1
2026-03-27T04:15:13.323Z,-0.0657,-0.6021,0.7926,0.0062,-0.023,0.0283,0.0053,0.0002,-0.0051,-18.29,37.14,-175.3,135,8,7,2,Bench,1
2026-03-27T04:15:13.332Z,-0.0682,-0.6031,0.7894,0.0329,0.0029,0.0462,0.0036,-0.0031,-0.0052,-18.29,37.14,-175.3,135,8,7,2,Bench,1
2026-03-27T04:15:13.343Z,-0.0702,-0.6063,0.7935,0.0479,0.0234,0.0083,0.0051,-0.0021,-0.0049,-18.29,37.14,-175.3,135,8,7,2,Bench,1
2026-03-27T04:15:13.354Z,-0.0713,-0.6034,0.7944,0.0595,-0.0027,-0.0008,0.003,-0.0018,-0.0042,-18.29,37.14,-175.3,135,8,7,2,Bench,1
2026-03-27T04:15:13.363Z,-0.0722,-0.6053,0.7964,0.0687,0.0159,-0.0137,0.004,-0.0051,-0.0018,-18.29,37.13,-175.3,135,8,7,2,Bench,1
2026-03-27T04:15:13.374Z,-0.0723,-0.601,0.7908,0.0689,-0.034,0.0397,0.0039,-0.004,-0.0034,-18.29,37.13,-175.3,135,8,7,2,Bench,1
2026-03-27T04:15:13.382Z,-0.0726,-0.6004,0.7962,0.0709,-0.0222,-0.0277,0.0019,-0.0022,-0.0031,-18.29,37.13,-175.3,135,8,7,2,Bench,1
2026-03-27T04:15:13.393Z,-0.0723,-0.6037,0.798,0.0703,-0.0022,-0.023,0.0015,-0.0033,-0.005,-18.29,37.13,-175.3,135,8,7,2,Bench,1
2026-03-27T04:15:13.404Z,-0.0733,-0.6017,0.7916,0.0797,-0.0198,0.0253,0.0023,-0.0047,-0.0004,-18.29,37.13,-175.3,135,8,7,2,Bench,1
2026-03-27T04:15:13.413Z,-0.0733,-0.6022,0.7973,0.0787,-0.0175,-0.0285,0.0006,0.0002,-0.004,-18.3,37.13,-175.3,135,8,7,2,Bench,1
2026-03-27T04:15:13.423Z,-0.0726,-0.6,0.7948,0.0699,-0.033,0.0013,0.0021,-0.0037,-0.0067,-18.3,37.13,-175.3,135,8,7,2,Bench,1
2026-03-27T04:15:13.432Z,-0.071,-0.6032,0.7936,0.055,0.0004,0.0046,-0.001,-0.0014,-0.0035,-18.3,37.13,-175.3,135,8,7,2,Bench,1
2026-03-27T04:15:13.443Z,-0.0702,-0.6047,0.7943,0.0432,0.0043,0.0063,-0.0004,-0.0003,-0.006,-18.3,37.13,-175.3,135,8,7,2,Bench,1
2026-03-27T04:15:13.456Z,-0.0682,-0.6021,0.7911,0.0274,-0.0108,0.032,0.0036,-0.0026,-0.0054,-18.3,37.13,-175.3,135,8,7,2,Bench,1
2026-03-27T04:15:13.463Z,-0.0686,-0.6074,0.7934,0.0304,0.0357,0.0128,0.0036,-0.0026,-0.0054,-18.3,37.13,-175.3,135,8,7,2,Bench,1
2026-03-27T04:15:13.474Z,-0.0663,-0.6035,0.7907,0.0069,-0.0093,0.0381,0.0022,-0.0032,-0.0037,-18.3,37.13,-175.3,135,8,7,2,Bench,1
2026-03-27T04:15:13.482Z,-0.0649,-0.6037,0.793,-0.0044,0.0045,0.0113,0.0022,-0.0034,-0.0058,-18.3,37.14,-175.3,135,8,7,2,Bench,1
2026-03-27T04:15:13.493Z,-0.0641,-0.6053,0.7926,-0.0132,0.0152,0.0241,0.0041,-0.0043,-0.0051,-18.3,37.14,-175.3,135,8,7,2,Bench,1
2026-03-27T04:15:13.504Z,-0.0623,-0.6047,0.7908,-0.032,0.0094,0.0337,0.0028,-0.0024,-0.0052,-18.3,37.14,-175.3,135,8,7,2,Bench,1
2026-03-27T04:15:13.513Z,-0.0609,-0.6062,0.7944,-0.0452,0.0281,-0.0003,0.0059,0.0004,-0.003,-18.3,37.14,-175.3,135,8,7,2,Bench,1
2026-03-27T04:15:13.523Z,-0.0606,-0.6046,0.7926,-0.0479,0.0053,0.0193,0.0039,-0.0033,-0.0003,-18.3,37.14,-175.3,135,8,7,2,Bench,1
2026-03-27T04:15:13.532Z,-0.0609,-0.6042,0.7954,-0.0413,0.0055,-0.0137,0.0037,-0.0007,-0.0042,-18.29,37.14,-175.3,135,8,7,2,Bench,1
2026-03-27T04:15:13.543Z,-0.0617,-0.6018,0.7959,-0.036,-0.0236,-0.0112,0.0057,-0.0019,-0.0029,-18.29,37.14,-175.3,135,8,7,2,Bench,1
2026-03-27T04:15:13.554Z,-0.0609,-0.5997,0.7945,-0.0446,-0.0368,-0.003,0.0038,-0.001,-0.0047,-18.29,37.14,-175.3,135,8,7,2,Bench,1
2026-03-27T04:15:13.563Z,-0.0607,-0.6033,0.7969,-0.0449,-0.0013,-0.0231,0.0031,-0.0028,-0.0055,-18.29,37.14,-175.3,135,8,7,2,Bench,1
2026-03-27T04:15:13.573Z,-0.0622,-0.602,0.7953,-0.0272,-0.0179,-0.0052,0.001,0.0005,-0.0045,-18.29,37.14,-175.3,135,8,7,2,Bench,1
2026-03-27T04:15:13.582Z,-0.0643,-0.6025,0.7949,-0.0083,-0.01,-0.0045,0.0023,-0.001,-0.0056,-18.29,37.14,-175.3,135,8,7,2,Bench,1
2026-03-27T04:15:13.593Z,-0.065,-0.6029,0.7949,-0.0016,-0.0086,-0.0051,0.0014,-0.003,-0.0027,-18.29,37.14,-175.3,135,8,7,2,Bench,1
2026-03-27T04:15:13.604Z,-0.0654,-0.6019,0.7962,0.0023,-0.0175,-0.0162,0.0017,-0.0019,-0.0046,-18.29,37.14,-175.3,135,8,7,2,Bench,1
2026-03-27T04:15:13.613Z,-0.0665,-0.6022,0.7962,0.0129,-0.0139,-0.0145,0.0015,-0.0008,-0.0029,-18.29,37.14,-175.3,135,8,7,2,Bench,1
2026-03-27T04:15:13.622Z,-0.0675,-0.604,0.7925,0.0247,0.0028,0.0233,0.0028,-0.0027,-0.0068,-18.29,37.14,-175.3,135,8,7,2,Bench,1
2026-03-27T04:15:13.632Z,-0.0696,-0.6051,0.7894,0.0421,0.0169,0.0536,0.0054,-0.0041,-0.0048,-18.29,37.14,-175.3,135,8,7,2,Bench,1
2026-03-27T04:15:13.643Z,-0.0711,-0.6059,0.7929,0.0563,0.0173,0.0137,0.0031,-0.0026,-0.0027,-18.29,37.14,-175.3,135,8,7,2,Bench,1
2026-03-27T04:15:13.654Z,-0.0711,-0.6049,0.7921,0.0583,0.0126,0.0254,0.0044,-0.0017,-0.0024,-18.29,37.14,-175.3,135,8,7,2,Bench,1
2026-03-27T04:15:13.663Z,-0.0722,-0.6049,0.7917,0.0699,0.0049,0.0288,0.0039,-0.0033,-0.0034,-18.29,37.14,-175.3,135,8,7,2,Bench,1
2026-03-27T04:15:13.673Z,-0.0729,-0.6021,0.7928,0.0735,-0.0131,0.0171,0.0044,-0.002,-0.0068,-18.29,37.14,-175.3,135,8,7,2,Bench,1
2026-03-27T04:15:13.682Z,-0.072,-0.603,0.7911,0.0661,-0.0031,0.0285,0.0031,-0.0009,-0.0037,-18.29,37.14,-175.3,135,8,7,2,Bench,1
2026-03-27T04:15:13.693Z,-0.0711,-0.607,0.7949,0.0572,0.0277,-0.0015,0.0031,-0.0039,-0.0068,-18.29,37.14,-175.3,135,8,7,2,Bench,1
2026-03-27T04:15:13.705Z,-0.0719,-0.6023,0.7933,0.0637,-0.0228,0.0185,0.0041,-0.0006,-0.005,-18.29,37.14,-175.3,135,8,7,2,Bench,1
2026-03-27T04:15:13.713Z,-0.0719,-0.6023,0.7933,0.0655,-0.0154,0.0114,0.0044,-0.0024,-0.0041,-18.29,37.14,-175.3,135,8,7,2,Bench,1
2026-03-27T04:15:13.723Z,-0.0704,-0.6039,0.7955,0.0487,-0.0041,-0.0095,0.0048,-0.0016,-0.0079,-18.29,37.13,-175.3,135,8,7,2,Bench,1
2026-03-27T04:15:13.732Z,-0.0702,-0.5992,0.7964,0.0453,-0.0364,-0.0242,0.0023,-0.0006,-0.0002,-18.29,37.13,-175.3,135,8,7,2,Bench,1
2026-03-27T04:15:13.743Z,-0.0681,-0.6037,0.7976,0.0263,-0.0042,-0.0238,0.0036,0.0005,-0.0059,-18.29,37.13,-175.3,135,8,7,2,Bench,1
2026-03-27T04:15:13.756Z,-0.0663,-0.6015,0.7927,0.0074,-0.0212,0.0186,0,0.0015,-0.0027,-18.29,37.13,-175.3,135,8,7,2,Bench,1
2026-03-27T04:15:13.763Z,-0.0657,-0.6032,0.7959,0.0022,0.0004,-0.0165,0,0.0015,-0.0027,-18.29,37.13,-175.3,135,8,7,2,Bench,1
2026-03-27T04:15:13.773Z,-0.0647,-0.6039,0.7955,-0.0078,-0.0044,-0.0036,-0.0002,-0.001,-0.0046,-18.29,37.13,-175.3,135,8,7,2,Bench,1
2026-03-27T04:15:13.782Z,-0.064,-0.6023,0.7932,-0.0143,-0.0102,0.0096,0.0008,-0.0025,-0.006,-18.29,37.13,-175.3,135,8,7,2,Bench,1
2026-03-27T04:15:13.793Z,-0.0631,-0.6045,0.7964,-0.0249,0.0076,-0.0157,0.0013,-0.0041,-0.0047,-18.29,37.13,-175.3,135,8,7,2,Bench,1
2026-03-27T04:15:13.806Z,-0.0616,-0.6054,0.792,-0.0447,-0.0148,0.0303,0.003,-0.0006,-0.0047,-18.29,37.13,-175.3,135,8,7,2,Bench,1
2026-03-27T04:15:13.813Z,-0.0616,-0.6054,0.792,-0.0371,0.0219,0.0197,0.0011,-0.0037,-0.0028,-18.29,37.13,-175.3,135,8,7,2,Bench,1
2026-03-27T04:15:13.823Z,-0.0616,-0.6049,0.7929,-0.0369,0.0053,0.0193,0,-0.0036,-0.0034,-18.29,37.13,-175.3,135,8,7,2,Bench,1
2026-03-27T04:15:13.832Z,-0.0617,-0.6037,0.7923,-0.0352,0.0036,0.0194,0.0043,-0.0024,-0.0038,-18.29,37.13,-175.3,135,8,7,2,Bench,1
2026-03-27T04:15:13.843Z,-0.0618,-0.6059,0.7944,-0.0346,0.0205,0.0026,0.0046,-0.0032,-0.0028,-18.29,37.13,-175.3,135,8,7,2,Bench,1
2026-03-27T04:15:13.855Z,-0.0625,-0.6029,0.7924,-0.0284,-0.0119,0.0222,0.0032,-0.0028,-0.0033,-18.29,37.14,-175.3,135,8,7,2,Bench,1
2026-03-27T04:15:13.863Z,-0.0626,-0.6039,0.7938,-0.0264,0.0077,0.0044,0.0032,-0.0028,-0.0033,-18.29,37.14,-175.3,135,8,7,2,Bench,1
2026-03-27T04:15:13.876Z,-0.0636,-0.605,0.7937,-0.0143,0.0075,0.0093,0.0051,-0.0007,-0.0031,-18.29,37.14,-175.3,135,8,7,2,Bench,1
2026-03-27T04:15:13.882Z,-0.0654,-0.6015,0.7931,0.003,-0.0204,0.0108,0.0051,-0.0007,-0.0031,-18.29,37.14,-175.3,135,8,7,2,Bench,1
2026-03-27T04:15:13.893Z,-0.0672,-0.6034,0.7956,0.0184,-0.0023,-0.0105,0.0017,-0.0018,-0.0032,-18.29,37.14,-175.3,135,8,7,2,Bench,1
2026-03-27T04:15:13.907Z,-0.068,-0.6023,0.7939,0.0274,-0.0139,0.007,0.0009,-0.0019,-0.0053,-18.29,37.14,-175.3,135,8,7,2,Bench,1
2026-03-27T04:15:13.913Z,-0.0686,-0.6023,0.7955,0.0341,-0.0135,-0.0142,0.0009,-0.0019,-0.0053,-18.29,37.14,-175.3,135,8,7,2,Bench,1
2026-03-27T04:15:13.923Z,-0.0689,-0.6026,0.7957,0.0356,-0.0129,-0.0039,0.0024,-0.0025,-0.0047,-18.29,37.14,-175.3,135,8,7,2,Bench,1
2026-03-27T04:15:13.932Z,-0.0698,-0.6008,0.7925,0.045,-0.027,0.0185,0.0057,-0.0037,-0.0047,-18.29,37.14,-175.3,135,8,7,2,Bench,1
2026-03-27T04:15:13.942Z,-0.0715,-0.6038,0.7948,0.0633,0.0009,-0.0073,0.0027,-0.0009,-0.0027,-18.29,37.13,-175.3,135,8,7,2,Bench,1
2026-03-27T04:15:13.955Z,-0.0722,-0.603,0.794,0.0676,-0.0094,0.0107,0.0023,-0.0004,-0.0019,-18.29,37.13,-175.3,135,8,7,2,Bench,1
2026-03-27T04:15:13.963Z,-0.072,-0.602,0.7938,0.0677,-0.0154,0.0056,0.0023,-0.0004,-0.0019,-18.29,37.13,-175.3,135,8,7,2,Bench,1
2026-03-27T04:15:13.973Z,-0.0724,-0.6035,0.7931,0.0674,-0.0057,0.012,0.002,-0.0026,-0.0032,-18.29,37.13,-175.3,135,8,7,2,Bench,1
2026-03-27T04:15:13.982Z,-0.0717,-0.6015,0.7921,0.0615,-0.0195,0.0271,0.0028,-0.0048,-0.0037,-18.29,37.13,-175.3,135,8,7,2,Bench,1
2026-03-27T04:15:13.993Z,-0.0709,-0.6048,0.7938,0.0542,0.0109,0.0084,0.0048,-0.002,-0.0024,-18.29,37.13,-175.3,135,8,7,2,Bench,1
2026-03-27T04:15:14.008Z,-0.0707,-0.6043,0.7925,0.0519,0.0075,0.0167,0.0045,-0.0021,-0.0061,-18.29,37.14,-175.3,135,8,7,2,Bench,1
2026-03-27T04:15:14.013Z,-0.0701,-0.6021,0.7911,0.0485,-0.0203,0.0336,0.0045,-0.0021,-0.0061,-18.29,37.14,-175.3,135,8,7,2,Bench,1
2026-03-27T04:15:14.023Z,-0.069,-0.606,0.7945,0.0321,0.0259,0.0014,0.0043,-0.0007,-0.0051,-18.29,37.14,-175.3,135,8,7,2,Bench,1
2026-03-27T04:15:14.032Z,-0.0678,-0.6001,0.7923,0.0233,-0.0398,0.0215,0.0012,-0.0013,-0.0043,-18.29,37.14,-175.3,135,8,7,2,Bench,1
2026-03-27T04:15:14.043Z,-0.0666,-0.6046,0.7948,0.0117,0.0101,-0.0023,0.0037,-0.002,-0.0056,-18.29,37.14,-175.3,135,8,7,2,Bench,1
2026-03-27T04:15:14.055Z,-0.0652,-0.6029,0.7935,-0.0036,-0.0054,0.0102,0.005,-0.0012,-0.0025,-18.29,37.14,-175.3,135,8,7,2,Bench,1
2026-03-27T04:15:14.063Z,-0.0643,-0.6045,0.7933,-0.0124,0.0008,0.0119,0.005,-0.0012,-0.0025,-18.29,37.14,-175.3,135,8,7,2,Bench,1
2026-03-27T04:15:14.073Z,-0.0641,-0.6015,0.7953,-0.0123,-0.0109,-0.0105,-0.0013,-0.0023,-0.002,-18.29,37.14,-175.3,135,8,7,2,Bench,1
2026-03-27T04:15:14.082Z,-0.0625,-0.6049,0.7943,-0.0278,-0.0039,0.0072,0.0057,-0.0018,-0.0061,-18.29,37.14,-175.3,135,8,7,2,Bench,1
2026-03-27T04:15:14.094Z,-0.062,-0.6025,0.7936,-0.0362,0.0016,0.004,0.0025,-0.004,-0.0031,-18.29,37.14,-175.3,135,8,7,2,Bench,1
2026-03-27T04:15:14.107Z,-0.062,-0.6009,0.7956,-0.0319,-0.0364,-0.0096,0.0046,-0.0001,-0.004,-18.29,37.14,-175.3,135,8,7,2,Bench,1
2026-03-27T04:15:14.113Z,-0.0611,-0.6041,0.7945,-0.0411,0.0061,0.0026,0.0046,-0.0001,-0.004,-18.29,37.14,-175.3,135,8,7,2,Bench,1
2026-03-27T04:15:14.125Z,-0.0623,-0.6025,0.7922,-0.0311,-0.0089,0.021,0.0047,-0.0032,-0.0051,-18.29,37.14,-175.3,135,8,7,2,Bench,1
2026-03-27T04:15:14.132Z,-0.0622,-0.6059,0.7943,-0.0297,0.0161,0.0019,0.0047,-0.0032,-0.0051,-18.29,37.14,-175.3,135,8,7,2,Bench,1
2026-03-27T04:15:14.144Z,-0.0632,-0.6013,0.7933,-0.0193,-0.0215,0.0158,0.0023,-0.0017,-0.002,-18.29,37.14,-175.3,135,8,7,2,Bench,1
2026-03-27T04:15:14.155Z,-0.0637,-0.6053,0.7937,-0.0161,0.0153,0.0046,0.0028,-0.0025,-0.0039,-18.29,37.14,-175.3,135,8,7,2,Bench,1
2026-03-27T04:15:14.162Z,-0.0634,-0.602,0.7934,-0.0174,-0.0176,0.0147,0.0028,-0.0025,-0.0039,-18.29,37.14,-175.3,135,8,7,2,Bench,1
2026-03-27T04:15:14.176Z,-0.0671,-0.6033,0.7942,0.0047,-0.0071,0.009,0.0045,-0.002,-0.003,-18.29,37.14,-175.3,135,8,7,2,Bench,1
2026-03-27T04:15:14.182Z,-0.0671,-0.6033,0.7942,0.0183,0.0006,0.0055,0.0045,-0.002,-0.003,-18.29,37.14,-175.3,135,8,7,2,Bench,1
2026-03-27T04:15:14.194Z,-0.0684,-0.604,0.7924,0.0306,-0.003,0.0209,0.003,-0.0057,-0.0015,-18.29,37.14,-175.3,135,8,7,2,Bench,1
2026-03-27T04:15:14.206Z,-0.0687,-0.6039,0.7937,0.0345,0.0089,0.0051,0.0023,-0.0031,-0.0043,-18.29,37.13,-175.3,135,8,7,2,Bench,1
2026-03-27T04:15:14.213Z,-0.0696,-0.6035,0.7946,0.042,-0.0068,0.0025,0.0023,-0.0031,-0.0043,-18.29,37.13,-175.3,135,8,7,2,Bench,1
2026-03-27T04:15:14.226Z,-0.0692,-0.602,0.7938,0.0417,-0.0142,0.0059,0.005,-0.0008,-0.0032,-18.29,37.13,-175.3,135,8,7,2,Bench,1
2026-03-27T04:15:14.232Z,-0.0711,-0.6043,0.7943,0.0584,0.0037,0.0042,0.005,-0.0008,-0.0032,-18.29,37.13,-175.3,135,8,7,2,Bench,1
2026-03-27T04:15:14.244Z,-0.0718,-0.6018,0.7918,0.063,-0.0138,0.0279,0.0005,-0.0008,-0.0031,-18.29,37.13,-175.3,135,8,7,2,Bench,1
2026-03-27T04:15:14.256Z,-0.0722,-0.6037,0.7952,0.0669,-0.0013,-0.0101,0.0054,-0.0007,-0.0053,-18.29,37.13,-175.3,135,8,7,2,Bench,1
2026-03-27T04:15:14.264Z,-0.0714,-0.6032,0.7956,0.0568,-0.0065,-0.0054,0.0033,-0.0033,-0.0046,-18.29,37.13,-175.3,135,8,7,2,Bench,1
2026-03-27T04:15:14.274Z,-0.0712,-0.6015,0.7929,0.0574,-0.0201,0.0148,0.0012,-0.002,-0.0043,-18.29,37.13,-175.3,135,8,7,2,Bench,1
2026-03-27T04:15:14.282Z,-0.0708,-0.6043,0.7955,0.0508,0.0063,-0.0095,0.0012,-0.002,-0.0043,-18.29,37.13,-175.3,135,8,7,2,Bench,1
2026-03-27T04:15:14.294Z,-0.0698,-0.6014,0.7932,0.0423,-0.023,0.0178,0.001,-0.0027,-0.0034,-18.29,37.13,-175.3,135,8,7,2,Bench,1
2026-03-27T04:15:14.306Z,-0.0692,-0.6035,0.7938,0.0363,-0.0003,0.0072,0.0058,-0.0029,-0.0053,-18.29,37.13,-175.3,135,8,7,2,Bench,1
2026-03-27T04:15:14.314Z,-0.0686,-0.6024,0.793,0.0315,-0.0138,0.0161,0.0026,-0.0012,-0.0038,-18.29,37.13,-175.3,135,8,7,2,Bench,1
2026-03-27T04:15:14.325Z,-0.0662,-0.6044,0.7948,0.0259,-0.0035,0.008,0.0017,-0.0008,-0.0042,-18.29,37.13,-175.3,135,8,7,2,Bench,1
2026-03-27T04:15:14.332Z,-0.0662,-0.6044,0.7948,0.0057,0.0046,-0.002,0.0017,-0.0008,-0.0042,-18.29,37.13,-175.3,135,8,7,2,Bench,1
2026-03-27T04:15:14.345Z,-0.0651,-0.6031,0.7926,-0.0042,-0.0082,0.0223,0.0014,0.0002,-0.0057,-18.29,37.13,-175.3,135,8,7,2,Bench,1
2026-03-27T04:15:14.356Z,-0.0638,-0.6042,0.7938,-0.017,0.0092,0.0017,0.0048,-0.0017,-0.0026,-18.29,37.13,-175.3,135,8,7,2,Bench,1
2026-03-27T04:15:14.364Z,-0.0636,-0.6041,0.7934,-0.0191,0.0007,0.0149,-0.0004,0.0007,-0.0027,-18.29,37.13,-175.3,135,8,7,2,Bench,1
2026-03-27T04:15:14.376Z,-0.0625,-0.6049,0.7939,-0.0228,-0.0051,0.0133,0.0016,-0.0029,-0.0057,-18.29,37.13,-175.3,135,8,7,2,Bench,1
2026-03-27T04:15:14.382Z,-0.0625,-0.6049,0.7939,-0.0318,0.0102,0.0058,0.0016,-0.0029,-0.0057,-18.29,37.13,-175.3,135,8,7,2,Bench,1
2026-03-27T04:15:14.394Z,-0.0621,-0.6023,0.793,-0.0322,-0.0152,0.0161,0.0058,-0.0007,-0.0045,-18.29,37.13,-175.3,135,8,7,2,Bench,1
2026-03-27T04:15:14.407Z,-0.0623,-0.6048,0.7934,-0.0292,0.0128,0.0079,0.0045,-0.0047,-0.0033,-18.29,37.13,-175.3,135,8,7,2,Bench,1
2026-03-27T04:15:14.414Z,-0.0629,-0.6034,0.7935,-0.0238,-0.0036,0.0154,0.0025,-0.0053,-0.0046,-18.29,37.13,-175.3,135,8,7,2,Bench,1
2026-03-27T04:15:14.426Z,-0.063,-0.604,0.7953,-0.0255,0.0052,0.012,0.0027,-0.0047,-0.0009,-18.29,37.13,-175.3,135,8,7,2,Bench,1
2026-03-27T04:15:14.432Z,-0.063,-0.604,0.7953,-0.0228,0.0004,-0.0061,0.0027,-0.0047,-0.0009,-18.29,37.14,-175.3,135,8,7,2,Bench,1
2026-03-27T04:15:14.444Z,-0.064,-0.6016,0.7937,-0.0128,-0.0248,0.0082,0.0015,-0.0024,-0.0059,-18.29,37.14,-175.3,135,8,7,2,Bench,1
2026-03-27T04:15:14.456Z,-0.0662,-0.6019,0.795,0.0084,-0.0173,-0.0077,0.003,-0.0026,-0.0028,-18.29,37.14,-175.3,135,8,7,2,Bench,1
2026-03-27T04:15:14.464Z,-0.0665,-0.6031,0.7939,0.0095,-0.0054,0.011,0.003,-0.0006,-0.0055,-18.29,37.14,-175.3,135,8,7,2,Bench,1
2026-03-27T04:15:14.475Z,-0.0681,-0.6043,0.7948,0.0072,-0.0036,0.0232,0.0042,0,-0.0033,-18.29,37.14,-175.3,135,8,7,2,Bench,1
2026-03-27T04:15:14.482Z,-0.0681,-0.6043,0.7948,0.0277,0.0035,-0.0057,0.0042,0,-0.0033,-18.29,37.13,-175.3,135,8,7,2,Bench,1
2026-03-27T04:15:14.494Z,-0.0694,-0.6042,0.7939,0.0321,0,0.0049,0.0022,-0.0017,-0.0035,-18.29,37.13,-175.3,135,8,7,2,Bench,1
2026-03-27T04:15:14.505Z,-0.0694,-0.6042,0.7939,0.0391,0.0057,0.0034,0.0017,-0.0036,-0.0038,-18.29,37.13,-175.3,135,8,7,2,Bench,1
2026-03-27T04:15:14.514Z,-0.0698,-0.603,0.7941,0.043,-0.0065,0.0073,0.0036,-0.0026,-0.0058,-18.29,37.13,-175.3,135,8,7,2,Bench,1
2026-03-27T04:15:14.525Z,-0.0708,-0.6029,0.7937,0.0548,-0.0087,0.0073,0.0056,-0.0038,-0.0042,-18.29,37.13,-175.3,135,8,7,2,Bench,1
2026-03-27T04:15:14.532Z,-0.0708,-0.6039,0.7941,0.0524,0.0038,0.0042,0.0056,-0.0038,-0.0042,-18.29,37.13,-175.3,135,8,7,2,Bench,1
2026-03-27T04:15:14.544Z,-0.0707,-0.6033,0.7933,0.0531,-0.0057,0.0128,0.003,-0.0015,-0.0053,-18.29,37.13,-175.29,135,8,7,2,Bench,1
2026-03-27T04:15:14.556Z,-0.071,-0.6035,0.7943,0.0526,0,0.0037,0.0055,-0.0048,-0.0057,-18.29,37.13,-175.29,135,8,7,2,Bench,1
2026-03-27T04:15:14.564Z,-0.0704,-0.6039,0.7935,0.0494,0.0023,0.0107,0.003,-0.0003,-0.0047,-18.29,37.13,-175.29,135,8,7,2,Bench,1
2026-03-27T04:15:14.575Z,-0.0697,-0.6029,0.7952,0.049,-0.0094,0.0135,0.0029,-0.001,-0.0053,-18.29,37.13,-175.29,135,8,7,2,Bench,1
2026-03-27T04:15:14.584Z,-0.0697,-0.6029,0.7952,0.0408,-0.008,-0.0084,0.0023,0.0007,-0.0077,-18.29,37.13,-175.29,135,8,7,2,Bench,1
2026-03-27T04:15:14.593Z,-0.0679,-0.6025,0.7936,0.0341,-0.0139,0.0025,0.0023,0.0007,-0.0077,-18.29,37.13,-175.29,135,8,7,2,Bench,1
2026-03-27T04:15:14.606Z,-0.0672,-0.6037,0.7944,0.0215,-0.0115,0.0078,0.0016,-0.0014,-0.0041,-18.29,37.13,-175.29,135,8,7,2,Bench,1
2026-03-27T04:15:14.614Z,-0.0672,-0.6037,0.7944,0.0147,0.0014,0.0006,0.0036,-0.0001,-0.0031,-18.29,37.13,-175.29,135,8,7,2,Bench,1
2026-03-27T04:15:14.626Z,-0.0648,-0.6038,0.7947,0.0036,0.001,-0.0003,0.0027,0.001,-0.0041,-18.29,37.13,-175.29,135,8,7,2,Bench,1
2026-03-27T04:15:14.634Z,-0.0648,-0.6038,0.7947,-0.0075,-0.0005,-0.004,0.0011,-0.0023,-0.003,-18.29,37.13,-175.29,135,8,7,2,Bench,1
2026-03-27T04:15:14.644Z,-0.0642,-0.6025,0.7943,-0.0111,-0.0129,0.0048,0.0009,-0.0007,-0.0031,-18.29,37.13,-175.29,135,8,7,2,Bench,1
2026-03-27T04:15:14.657Z,-0.0634,-0.6034,0.7937,-0.02,-0.0015,0.0068,0.0008,-0.0013,-0.0032,-18.29,37.13,-175.29,135,8,7,2,Bench,1
2026-03-27T04:15:14.663Z,-0.063,-0.6031,0.7936,-0.0249,-0.0064,0.0054,0.0032,-0.0015,-0.0043,-18.29,37.14,-175.29,135,8,7,2,Bench,1
2026-03-27T04:15:14.675Z,-0.0626,-0.6049,0.7938,-0.0309,-0.0029,0.0016,0.0048,-0.0043,-0.0052,-18.29,37.14,-175.29,135,8,7,2,Bench,1
2026-03-27T04:15:14.685Z,-0.0626,-0.6049,0.7938,-0.027,0.0138,0.0102,0.0011,-0.0031,-0.0034,-18.29,37.14,-175.29,135,8,7,2,Bench,1
2026-03-27T04:15:14.693Z,-0.0631,-0.6042,0.7925,-0.0243,0.0006,0.0211,0.0018,-0.0019,-0.005,-18.29,37.14,-175.29,135,8,7,2,Bench,1
2026-03-27T04:15:14.707Z,-0.0633,-0.6037,0.7941,-0.0195,-0.0004,0.0055,0.0032,-0.0051,-0.0027,-18.29,37.14,-175.29,135,8,7,2,Bench,1
2026-03-27T04:15:14.714Z,-0.0633,-0.6037,0.7941,-0.0231,-0.0027,0.0037,0.0059,-0.0018,-0.0026,-18.29,37.14,-175.29,135,8,7,2,Bench,1
2026-03-27T04:15:14.725Z,-0.0655,-0.6031,0.7947,-0.0098,-0.0095,0.0049,0.0057,-0.0003,-0.0031,-18.29,37.14,-175.29,135,8,7,2,Bench,1
2026-03-27T04:15:14.734Z,-0.0655,-0.6031,0.7947,-0.0012,-0.007,-0.0021,0.0045,-0.0054,-0.0036,-18.29,37.14,-175.29,135,8,7,2,Bench,1
2026-03-27T04:15:14.744Z,-0.0652,-0.6032,0.7941,-0.0001,-0.0048,0.0059,0.003,-0.002,-0.0042,-18.29,37.14,-175.29,135,8,7,2,Bench,1
2026-03-27T04:15:14.757Z,-0.0669,-0.6024,0.7932,0.0046,-0.0077,0.0142,0.0031,0,-0.0027,-18.29,37.14,-175.29,135,8,7,2,Bench,1
2026-03-27T04:15:14.763Z,-0.0669,-0.6024,0.7932,0.0152,-0.0125,0.0108,0.0017,-0.0019,-0.0018,-18.29,37.14,-175.29,135,8,7,2,Bench,1
2026-03-27T04:15:14.775Z,-0.069,-0.6044,0.7939,0.0255,-0.0061,0.0051,0.0027,-0.0028,-0.0014,-18.29,37.14,-175.29,135,8,7,2,Bench,1
2026-03-27T04:15:14.784Z,-0.069,-0.6044,0.7939,0.0341,0.0084,0.0065,0.0024,-0.0036,-0.005,-18.29,37.14,-175.29,135,8,7,2,Bench,1
2026-03-27T04:15:14.794Z,-0.0697,-0.6024,0.7935,0.0415,-0.0153,0.0121,0.003,0.0001,-0.0038,-18.29,37.14,-175.29,135,8,7,2,Bench,1
2026-03-27T04:15:14.807Z,-0.0704,-0.6033,0.7947,0.0481,-0.0024,0.0028,0.0008,-0.0005,0.0003,-18.29,37.14,-175.29,135,8,7,2,Bench,1
2026-03-27T04:15:14.813Z,-0.0708,-0.6025,0.7942,0.0466,-0.0073,-0.0005,0.0008,-0.0005,0.0003,-18.29,37.14,-175.29,135,8,7,2,Bench,1
2026-03-27T04:15:14.824Z,-0.0709,-0.6039,0.7939,0.0525,-0.0108,0.0014,0.0029,-0.0017,-0.003,-18.29,37.14,-175.29,135,8,7,2,Bench,1
2026-03-27T04:15:14.833Z,-0.0709,-0.6039,0.7939,0.0536,0.0006,0.011,0.0041,-0.0027,-0.0048,-18.29,37.14,-175.29,135,8,7,2,Bench,1
2026-03-27T04:15:14.843Z,-0.0703,-0.6029,0.7926,0.0463,-0.0096,0.0178,0.001,-0.0006,-0.0034,-18.29,37.14,-175.29,135,8,7,2,Bench,1
2026-03-27T04:15:14.858Z,-0.07,-0.6031,0.7932,0.0417,0.0023,0.0081,0.0026,-0.0031,-0.0032,-18.29,37.14,-175.29,135,8,7,2,Bench,1
2026-03-27T04:15:14.863Z,-0.07,-0.6031,0.7932,0.0444,-0.009,0.0129,0.0052,0.0004,-0.0047,-18.29,37.14,-175.29,135,8,7,2,Bench,1
2026-03-27T04:15:14.875Z,-0.0688,-0.6028,0.7951,0.0332,-0.0046,0.0033,0.0018,-0.0008,-0.0037,-18.29,37.14,-175.29,135,8,7,2,Bench,1
2026-03-27T04:15:14.884Z,-0.0668,-0.6042,0.7933,0.0321,-0.0092,-0.0046,0.0018,-0.0008,-0.0037,-18.29,37.14,-175.29,135,8,7,2,Bench,1
2026-03-27T04:15:14.893Z,-0.0668,-0.6042,0.7933,0.0095,0.0029,0.0136,0.0018,-0.0009,-0.0055,-18.29,37.14,-175.29,135,8,7,2,Bench,1
2026-03-27T04:15:14.906Z,-0.0663,-0.6032,0.7938,0.0032,0.0017,0,0.004,0.0005,-0.0029,-18.29,37.14,-175.29,135,8,7,2,Bench,1
2026-03-27T04:15:14.914Z,-0.0663,-0.6032,0.7938,0.0088,-0.0081,0.0102,0.0027,-0.0016,-0.0051,-18.29,37.14,-175.29,135,8,7,2,Bench,1
2026-03-27T04:15:14.925Z,-0.0659,-0.6031,0.7929,-0.0009,-0.0041,0.0157,0.0045,-0.003,-0.0017,-18.29,37.14,-175.28,135,8,7,2,Bench,1
2026-03-27T04:15:14.933Z,-0.064,-0.6033,0.7933,-0.0184,-0.0034,0.0105,0.0021,-0.0004,-0.0066,-18.29,37.14,-175.28,135,8,7,2,Bench,1
2026-03-27T04:15:14.943Z,-0.0637,-0.6033,0.7949,-0.0197,-0.0047,-0.0016,0.0019,-0.0004,-0.0044,-18.29,37.14,-175.28,135,8,7,2,Bench,1
