time,seconds_elapsed,z,y,x
1775719700216043800,0.052043701171875,-6.458465945777297,-6.627530719062686,3.245679373037815
1775719700226056700,0.062056640625,-6.442127974438667,-6.652095835998654,3.2278456101834774
1775719700236069600,0.072069580078125,-6.416825190877914,-6.680868926018476,3.2188091940298675
1775719700246083800,0.082083740234375,-6.385401294088363,-6.71292176836133,3.214611742340028
1775719700256096800,0.0920966796875,-6.352631827908754,-6.747000563573837,3.2081837551191446
1775719700266109700,0.102109619140625,-6.321018546026945,-6.781098063486814,3.1987209302470085
1775719700276123000,0.112122802734375,-6.291344123253226,-6.813181300967932,3.1890339412301776
1775719700286135600,0.122135498046875,-6.264136382853985,-6.843287100896239,3.178111857460439
1775719700296148700,0.132148681640625,-6.241175778505205,-6.87085023060441,3.1637817188128827
1775719700306163000,0.142162841796875,-6.226815829241276,-6.894868235051631,3.1397344882711766
1775719700316175600,0.152175537109375,-6.227061912956834,-6.9149027228206394,3.0948662957578894
1775719700326188800,0.162188720703125,-6.248975054079294,-6.92954090450406,3.0169796307399865
1775719700336201700,0.17220166015625,-6.30176147237122,-6.932372328537702,2.8983436067044734
1775719700346214700,0.182214599609375,-6.38624651274085,-6.92012367233932,2.738269949126243
1775719700356228900,0.192228759765625,-6.4916492534548045,-6.8961196964174505,2.5440935309380293
1775719700366241800,0.20224169921875,-6.606385055181383,-6.865538680192828,2.3217307365767654
1775719700376254700,0.212254638671875,-6.720850223273039,-6.833442583230138,2.0747597167901692
1775719700386267600,0.222267578125,-6.826334797051548,-6.80232906756401,1.816552140457183
1775719700396280800,0.23228076171875,-6.917365313541889,-6.772856889364123,1.5648820030689239
1775719700406293500,0.24229345703125,-6.991378644257783,-6.746438838037848,1.3328808811381458
1775719700416307700,0.2523076171875,-7.047766301912069,-6.725933810147643,1.1230252477809786
1775719700426321000,0.26232080078125,-7.087173598670959,-6.713396400135755,0.9341616221133618
1775719700436333600,0.27233349609375,-7.1104574436247345,-6.709977531602978,0.7668040911372751
1775719700446346800,0.2823466796875,-7.119456158116459,-6.715194389468431,0.6244102479606867
1775719700456359700,0.292359619140625,-7.1158414747506376,-6.729082629567384,0.5046090160707012
1775719700466373600,0.30237353515625,-7.098064995041489,-6.755221279430389,0.3934890302211046
1775719700476386800,0.31238671875,-7.060218956249952,-6.800574917373061,0.27546710122963414
1775719700486399700,0.322399658203125,-6.997717199629545,-6.8687155566632745,0.15194837405332362
1775719700496412700,0.33241259765625,-6.912168913942575,-6.9564189745575185,0.02327563196456758
1775719700506425600,0.342425537109375,-6.805936736667156,-7.059633265316486,-0.10580326607255265
1775719700516438800,0.352438720703125,-6.666645754876733,-7.188770517361164,-0.21864528994178398
1775719700526452700,0.36245263671875,-6.488676375123858,-7.346196875301003,-0.3175772454727441
1775719700536465700,0.372465576171875,-6.278549523609876,-7.521720030945539,-0.4170469428759068
1775719700546478800,0.382478759765625,-6.03883358951807,-7.7083508560597895,-0.5330944482555613
1775719700556491500,0.392491455078125,-5.768738883775472,-7.902116355359554,-0.6697608171634376
1775719700566504700,0.402504638671875,-5.477127927273512,-8.096292189025878,-0.788348325882107
1775719700576518000,0.412517822265625,-5.171473832371831,-8.287128064614533,-0.8658782133515923
1775719700586531600,0.422531494140625,-4.863811904779077,-8.468727909824251,-0.8912675792172551
1775719700596544800,0.432544677734375,-4.572288042038679,-8.632335002225638,-0.8645103590644896
1775719700606558000,0.442557861328125,-4.303723030081391,-8.775494349882006,-0.7994155902761966
1775719700616570600,0.452570556640625,-4.0575416993677615,-8.899550937661528,-0.7104493128392845
1775719700626583800,0.462583740234375,-3.827197112472355,-9.008339813682436,-0.610546119389683
1775719700636597800,0.47259765625,-3.606636252966523,-9.105404349640011,-0.5041639391843229
1775719700646610700,0.482610595703125,-3.393865316684544,-9.192274823841451,-0.3926256913900375
1775719700656623900,0.492623779296875,-3.1878613903194664,-9.270021495866775,-0.2731704416598193
1775719700666636800,0.50263671875,-2.9896351122185587,-9.338771206966042,-0.14085401158975436
1775719700676649700,0.512649658203125,-2.801059875038266,-9.398107777553797,0.005540523162134923
1775719700686662700,0.52266259765625,-2.6238494969591497,-9.447719657462835,0.16249693920239805
1775719700696676600,0.532676513671875,-2.458724985732138,-9.487801492482424,0.3265830472923815
1775719700706689800,0.542689697265625,-2.307126311032474,-9.518511688044667,0.49545551287606354
1775719700716702700,0.55270263671875,-2.170086761430651,-9.5403073402673,0.6660474226634949
1775719700726716000,0.5627158203125,-2.046104846322536,-9.554361000061034,0.8354700694758445
1775719700736728600,0.572728515625,-1.9312720139622688,-9.5622239885211,1.0022262735579162
1775719700746742800,0.58274267578125,-1.8205226515233515,-9.565806523182987,1.1625140122782438
1775719700756755700,0.592755615234375,-1.7116759078353643,-9.566471124571562,1.3127023087233305
1775719700766768600,0.6027685546875,-1.6064396097294986,-9.564593640261888,1.451993728905171
1775719700776781800,0.61278173828125,-1.5076168319277465,-9.559681902822852,1.5842800926305354
1775719700786794800,0.622794677734375,-1.4159000867389142,-9.550873157945274,1.7165207175180315
1775719700796807700,0.6328076171875,-1.3295857851155102,-9.537736612996458,1.8531541705369947
1775719700806822000,0.64282177734375,-1.248218730635941,-9.52031318450868,1.9939858058981597
1775719700816834800,0.652834716796875,-1.174568168817833,-9.498490059757232,2.1376329370714724
1775719700826847700,0.66284765625,-1.1122763286210595,-9.472610353091358,2.2809797701239583
1775719700836860700,0.672860595703125,-1.0618949256442487,-9.444258703354,2.4184185481764375
1775719700846873900,0.682873779296875,-1.0228709291145206,-9.41535468043089,2.5446447350800034
1775719700856886500,0.692886474609375,-0.994658468652144,-9.386751686280965,2.658933085300028
1775719700866900700,0.702900634765625,-0.9747286103013902,-9.358648458346725,2.7633316174075007
1775719700876913700,0.71291357421875,-0.9607960926692932,-9.331339595660566,2.8589097141996023
1775719700886926600,0.722926513671875,-0.9515826394483446,-9.305348245313763,2.9453993723899123
1775719700896939800,0.732939697265625,-0.943255686738342,-9.281348361045122,3.02278247179985
1775719700906952700,0.74295263671875,-0.9336929086230694,-9.259849645942449,3.0909187271758913
1775719700916966700,0.752966552734375,-0.9274814136970788,-9.2417218685776,3.1465462141126395
1775719700926979800,0.762979736328125,-0.927025413557887,-9.227224556669592,3.188937787379324
1775719700936992800,0.77299267578125,-0.9305765301682054,-9.215620628115534,3.2212948733657596
1775719700947005700,0.783005615234375,-0.9380649131622165,-9.205928086140752,3.2467391112238166
1775719700957018600,0.7930185546875,-0.9512555263858288,-9.197093037778139,3.267869285275042
1775719700967031800,0.80303173828125,-0.9717769208889454,-9.187731335192918,3.288105725356936
1775719700977045800,0.813045654296875,-0.998929935426265,-9.176467013856769,3.3113431008204817
1775719700987058700,0.82305859375,-1.0277701723981647,-9.163038207963108,3.3395836913987993
1775719700997071600,0.833071533203125,-1.053893405496329,-9.148570706671476,3.370958488349616
1775719701007084500,0.84308447265625,-1.074449579051882,-9.133688194838166,3.4046585133776066
1775719701017097700,0.85309765625,-1.0879978466067461,-9.119408325073122,3.4384660904332995
1775719701027111000,0.86311083984375,-1.0965128692347557,-9.107468296432495,3.467285065421462
1775719701037124600,0.87312451171875,-1.1029805308789014,-9.098715081134438,3.4881513278394936
1775719701047137800,0.8831376953125,-1.1082683350887148,-9.09259338338375,3.5024095702946183
1775719701057150700,0.893150634765625,-1.1178934378504752,-9.087325672113895,3.5130057831108568
1775719701067163600,0.90316357421875,-1.1412785512216388,-9.081390436846018,3.5208243479073045
1775719701077176800,0.9131767578125,-1.17901711105071,-9.074365652775764,3.5264997631952166
1775719701087190500,0.9231904296875,-1.2243751329075545,-9.066600863993168,3.5310113954007623
1775719701097203700,0.93320361328125,-1.2714626819707453,-9.059404815009236,3.5328403643935915
1775719701107217000,0.943216796875,-1.3150177460588515,-9.053878160542249,3.5310610797613857
1775719701117229800,0.953229736328125,-1.3463240078181027,-9.05065101518929,3.5275355359837413
1775719701127242800,0.96324267578125,-1.3599328464537859,-9.049694152855873,3.524769870662689
1775719701137255700,0.973255615234375,-1.3555261359274386,-9.050210285684466,3.525143087889254
1775719701147269600,0.98326953125,-1.3334906835995615,-9.0507807790488,3.5320723026305436
1775719701157282800,0.99328271484375,-1.298047760426998,-9.050223729687929,3.5466754130005835
1775719701167295700,1.003295654296875,-1.2538524987392128,-9.047328592768311,3.5698853159353137
1775719701177308700,1.01330859375,-1.2060696608882397,-9.041000558790564,3.6022318805277345
1775719701187322400,1.023322265625,-1.1559952049687503,-9.031184682697058,3.643044660170376
1775719701197336300,1.03333642578125,-1.103846500058472,-9.019872430565952,3.6869776176601645
1775719701207349200,1.043349365234375,-1.0489802798178047,-9.009227117910982,3.728785838080942
1775719701217362400,1.053362548828125,-0.9928484235554933,-9.000977175959944,3.7639156036511063
1775719701227375400,1.063375244140625,-0.9383866193972528,-8.99528042562306,3.7914056681230663
1775719701237388300,1.07338818359375,-0.8872374469183385,-8.991167145085335,3.813411748225987
1775719701247401200,1.083401123046875,-0.8425319706860929,-8.987249094858765,3.8327377954646944
1775719701257415200,1.093415283203125,-0.8058661546550691,-8.98235255498886,3.8520518600046634
1775719701267428400,1.103428466796875,-0.77430146115534,-8.976387509104608,3.8723821158498524
1775719701277441300,1.113441162109375,-0.7436549054138362,-8.969384352344274,3.894550108516216
1775719701287454500,1.123454345703125,-0.7151037875816225,-8.961046732109784,3.9190129341214894
1775719701297467400,1.13346728515625,-0.6918376244150102,-8.951773292329907,3.9442999355912205
1775719701307480300,1.143480224609375,-0.6736332746826111,-8.94212400497496,3.9692616506293414
1775719701317494300,1.153494384765625,-0.6596472002323717,-8.93289206624925,3.992332145093381
1775719701327507200,1.163507080078125,-0.6512143029298633,-8.924672519436479,4.012046022605896
1775719701337520400,1.173520263671875,-0.6501908051010221,-8.917534338119626,4.028053739076853
1775719701347533600,1.183533447265625,-0.6591261720329523,-8.911331976348162,4.040310286320746
1775719701357546200,1.193546142578125,-0.6808210672948509,-8.906272354871033,4.047860263308882
1775719701367560400,1.203560546875,-0.7114956800870597,-8.903359682294726,4.0489907286435365
1775719701377573400,1.213573486328125,-0.7447590672634542,-8.903374879863858,4.042973368050157
1775719701387586300,1.22358642578125,-0.7771741670474409,-8.905409600561857,4.032380370104312
1775719701397599500,1.233599609375,-0.8114956119094043,-8.90846255839169,4.018849272879958
1775719701407612400,1.2436123046875,-0.8493219230871647,-8.912431462022662,4.002198582330346
1775719701417625300,1.253625244140625,-0.887259439554438,-8.917588114133476,3.982432390108704
1775719701427639300,1.263639404296875,-0.9221213479686527,-8.924080983284115,3.959903747436404
1775719701437652200,1.27365234375,-0.9523099308095871,-8.931731205776334,3.9354394605264065
1775719701447665400,1.28366552734375,-0.9767695415444672,-8.939998098862171,3.9105923117786645
1775719701457678300,1.29367822265625,-0.9964629607908427,-8.949197888883948,3.8844989623621102
1775719701467691500,1.30369140625,-1.009214086618647,-8.960063566291332,3.8560523278176784
1775719701477704200,1.3137041015625,-1.014466746449843,-8.97267637962699,3.825223766572773
1775719701487718400,1.323718505859375,-1.0165743131883442,-8.985870207720994,3.7935593390256166
1775719701497731300,1.3337314453125,-1.0207429771751164,-8.99766644397676,3.764367439071834
1775719701507744300,1.343744140625,-1.0284669224906713,-9.007416853618622,3.7388629954591392
1775719701517757400,1.35375732421875,-1.0354897337995468,-9.015884822234511,3.7164468732506033
1775719701527770400,1.363770263671875,-1.0383261993344872,-9.023440936702489,3.697268125528097
1775719701537784300,1.373784423828125,-1.0371902541071176,-9.029635699689388,3.682430329619348
1775719701547797500,1.383797607421875,-1.0325804952893405,-9.034581339398025,3.671581018824875
1775719701557810400,1.393810546875,-1.0246019906908272,-9.039383186721802,3.661985799744725
1775719701567823400,1.4038232421875,-1.0128745088223368,-9.044677785998582,3.652162909388542
1775719701577836300,1.413836181640625,-0.9999618357572704,-9.050101564612984,3.642270753188431
1775719701587849500,1.423849365234375,-0.9909970235351473,-9.05555456932187,3.6311508087590334
1775719701597863400,1.433863525390625,-0.9844968478608875,-9.060910543397068,3.6195410349860784
1775719701607876400,1.44387646484375,-0.9766592130377888,-9.065719989505409,3.6096059164270757
1775719701617889300,1.45388916015625,-0.9664400168403983,-9.06918795787692,3.603641162803769
1775719701627902200,1.463902099609375,-0.953860448187217,-9.070590225890278,3.603461714583635
1775719701637915400,1.473915283203125,-0.9365740170173347,-9.070378628966212,3.6085227973654863
1775719701647928300,1.48392822265625,-0.9124433459758758,-9.06991568762958,3.6158614696905014
1775719701657942300,1.4939423828125,-0.8817480557218194,-9.070589641368388,3.6217809228673574
1775719701667955500,1.50395556640625,-0.8470324969757348,-9.07336495130062,3.6231127559930085
1775719701677968400,1.513968505859375,-0.8113836029022932,-9.077941757696866,3.6198099150553342
1775719701687981300,1.523981201171875,-0.7756916734047233,-9.082973322123289,3.615008359992504
1775719701697994500,1.533994384765625,-0.7414687204811722,-9.087564157044888,3.6106463653907177
1775719701708008200,1.54400830078125,-0.709649979155138,-9.091106944218277,3.608122399871051
1775719701718021400,1.554021484375,-0.6796583801910281,-9.09406696306765,3.606438392306864
1775719701728034300,1.564034423828125,-0.6500809880509972,-9.097367758178711,3.603564298175275
1775719701738047500,1.574047607421875,-0.6203193984504789,-9.101067781740426,3.5994641693800684
1775719701748060400,1.584060302734375,-0.5919319832799956,-9.104837947928905,3.5947082070246337
1775719701758073300,1.5940732421875,-0.5638322990097105,-9.108427496853471,3.59012730897516
1775719701768087300,1.60408740234375,-0.535261782357283,-9.111460580939054,3.5868031329885124
1775719701778100200,1.614100341796875,-0.5066684328185395,-9.114225953999162,3.5839342995539307
1775719701788113400,1.624113525390625,-0.47884175680335606,-9.117192402589321,3.5802097260728476
1775719701798126300,1.634126220703125,-0.4518858722733333,-9.120325439918041,3.5757281967446204
1775719701808139300,1.64413916015625,-0.42536501815970984,-9.122979753819108,3.572211420795321
1775719701818152400,1.65415234375,-0.3977231241269037,-9.124525229695438,3.571450665555894
1775719701828166100,1.664166259765625,-0.36839725906252857,-9.124648563814162,3.5742768288925286
1775719701838179300,1.674179443359375,-0.3371807214133441,-9.123373137050866,3.5806107080891727
1775719701848192500,1.684192626953125,-0.30398287375383076,-9.12135186035633,3.5887256254836917
1775719701858205400,1.694205322265625,-0.269437410877645,-9.119633950522541,3.595841594968736
1775719701868218400,1.70421826171875,-0.23531431986568493,-9.118836078143119,3.6002576578453183
1775719701878232300,1.714232421875,-0.20561505491165444,-9.11896584200263,3.601749649968743
1775719701888245200,1.724245361328125,-0.183180648127757,-9.11941417029202,3.6018218384221194
1775719701898258400,1.734258544921875,-0.16853674908960237,-9.120406688460708,3.600026771698892
1775719701908271400,1.744271240234375,-0.16234982234928755,-9.12310601054728,3.5934628831386566
1775719701918284500,1.754284423828125,-0.16409977128915487,-9.12791779474318,3.581140284921229
1775719701928297200,1.764297119140625,-0.17273133296892046,-9.13424056802392,3.564576395872235
1775719701938311400,1.7743115234375,-0.1857635042278096,-9.141635938972234,3.5449095723718402
1775719701948324400,1.784324462890625,-0.19947342861779033,-9.149952516418695,3.5226378270700573
1775719701958337300,1.794337158203125,-0.21068706094631923,-9.158854200276732,3.49876975248754
1775719701968350500,1.8043505859375,-0.21662545628566293,-9.167929487136005,3.47455271833688
1775719701978363400,1.81436328125,-0.21891663596276192,-9.17651962082684,3.451659918527305
1775719701988376300,1.824376220703125,-0.22155854703998193,-9.183929020300507,3.4317253840014335
1775719701998390500,1.834390625,-0.2255991094013676,-9.190386233615875,3.414130398339033
1775719702008403200,1.8444033203125,-0.23205820414656772,-9.19679376257062,3.3963974655106663
1775719702018416400,1.85441650390625,-0.24490153830247,-9.203926098668575,3.3761107565462587
1775719702028429300,1.86442919921875,-0.266879360425286,-9.212312818741799,3.351488064204156
1775719702038442500,1.8744423828125,-0.2971659968132153,-9.222235662341117,3.3215129049181935
1775719702048456400,1.88445654296875,-0.33157179549038407,-9.233449130272865,3.286922068530321
1775719702058469400,1.894469482421875,-0.3652483665775507,-9.245209126171469,3.250087837129831
1775719702068482300,1.904482421875,-0.39507977001126854,-9.256828836816549,3.2133222870513793
1775719702078495200,1.9144951171875,-0.4194225494334474,-9.267441416245699,3.1794664869397877
1775719702088508400,1.92450830078125,-0.4365247100776061,-9.276246653991937,3.151364135788381
1775719702098521300,1.934521240234375,-0.44759299738500263,-9.28280498959422,3.1304283152654766
1775719702108535300,1.944535400390625,-0.4573362101010978,-9.287684578329324,3.1145088615998624
1775719702118548500,1.954548583984375,-0.4698494355197996,-9.292734847456217,3.097530546531081
1775719702128561200,1.96456103515625,-0.48688302443977444,-9.2995538798213,3.0743492851689456
1775719702138574300,1.97457421875,-0.5084107099086046,-9.308415816190838,3.043894525672495
1775719702148587500,1.98458740234375,-0.5343369591299444,-9.319104383465648,3.006518734741211
1775719702158600400,1.994600341796875,-0.5645894375199452,-9.331465852388739,2.9623259572714566
1775719702168614400,2.004614501953125,-0.5993206322265788,-9.344548621323705,2.913864708702266
1775719702178627300,2.01462744140625,-0.6386378760818392,-9.356882033196092,2.8655379001677033
1775719702188639700,2.0246396484375,-0.6803177208825946,-9.36732802388668,2.821480147254467
1775719702198652700,2.034652587890625,-0.719469362379983,-9.375877825567125,2.7831051161527633
1775719702208665600,2.04466552734375,-0.7503226196747272,-9.383203053888678,2.7500775835588573
1775719702218678800,2.0546787109375,-0.7701767093755304,-9.390181076207757,2.7206094970121977
1775719702228692700,2.064692626953125,-0.7805830256428569,-9.396960945606232,2.6941063977509736
1775719702238705700,2.07470556640625,-0.7862301646843552,-9.403578317919372,2.6692586644813416
1775719702248718800,2.08471875,-0.793367030826956,-9.410192183101177,2.6437197340771554
1775719702258731800,2.094731689453125,-0.8070575563967227,-9.416876190909743,2.6156252739712595
1775719702268744700,2.10474462890625,-0.8281136422984302,-9.423775887295603,2.5840035165220496
1775719702278758700,2.114758544921875,-0.8538092976342886,-9.430894194868207,2.549433138400316
1775719702288771600,2.124771484375,-0.8820006422434001,-9.437958726426958,2.513442372086644
1775719702298784800,2.13478466796875,-0.9123734956100582,-9.444663192501663,2.4771534996092317
1775719702308798000,2.1447978515625,-0.9449133908174931,-9.45091640767753,2.4408438766047356
1775719702318810600,2.154810546875,-0.9793328161612153,-9.456920616528391,2.4037393038302657
1775719702328823800,2.16482373046875,-1.0153525163084267,-9.462942945557833,2.3647784356646238
1775719702338837500,2.17483740234375,-1.0526485930670053,-9.469041846954822,2.323696337561309
1775719702348850700,2.1848505859375,-1.0902023709136992,-9.475365204757452,2.2801992872707544
1775719702358864000,2.19486376953125,-1.124614124407619,-9.482170793119073,2.234739412474632
1775719702368876800,2.204876708984375,-1.1525208068564534,-9.489437569251656,2.18921436348781
1775719702378889700,2.2148896484375,-1.1717148982785641,-9.497091883397102,2.1453952416360376
1775719702388902700,2.224902587890625,-1.1816410298135132,-9.505278696984051,2.103282046919316
1775719702398916600,2.23491650390625,-1.182922301795706,-9.513781736913323,2.06374527856186
1775719702408929800,2.2449296875,-1.1774568759966642,-9.522208204475044,2.0276902148403226
1775719702418942700,2.254942626953125,-1.1666296309035271,-9.53045873094797,1.994928639706224
1775719702428956000,2.264955810546875,-1.1521774002462626,-9.538428102391958,1.965004626085609
1775719702438968600,2.274968505859375,-1.1379298983808606,-9.545911736145616,1.9367735339879988
1775719702448982800,2.284982666015625,-1.126531283140555,-9.552750057733059,1.9095188857071101
1775719702458995700,2.29499560546875,-1.1181656058553606,-9.559115501111746,1.8823913709372282
1775719702469008600,2.305008544921875,-1.1118916401524097,-9.565515431281923,1.853377457898855
1775719702479021800,2.315021728515625,-1.1055438785608858,-9.572263736498355,1.8220684196606278
1775719702489034800,2.32503466796875,-1.097731889635697,-9.578990414404869,1.791180675574392
1775719702499047700,2.335047607421875,-1.0891557844702153,-9.585311434119939,1.7623652077175676
1775719702509062000,2.345061767578125,-1.0814067047134042,-9.590878420597313,1.7366610037490724
1775719702519074600,2.355074462890625,-1.0763584083478897,-9.595098668640851,1.7163744409151374
1775719702529087700,2.365087646484375,-1.0751113308962434,-9.59774947541058,1.7022693431951104
1775719702539100700,2.3751005859375,-1.0770121960815042,-9.59909095314741,1.6934848559759557
1775719702549113900,2.38511376953125,-1.0806488720834255,-9.599580782490968,1.688386948315054
1775719702559126500,2.39512646484375,-1.0848084759809076,-9.59944517341256,1.6864814069546759
1775719702569140700,2.405140625,-1.08897925885953,-9.598749592363834,1.687754057238996
1775719702579153700,2.415153564453125,-1.0918798756718635,-9.597586978325246,1.6924873693712055
1775719702589166600,2.42516650390625,-1.0932280754104255,-9.596208091187476,1.699424182897061
1775719702599179800,2.4351796875,-1.0934037973035127,-9.59469301044941,1.7078345761068163
1775719702609192700,2.445192626953125,-1.093322767956555,-9.592908465120196,1.717885722260922
1775719702619205600,2.45520556640625,-1.0947498781502247,-9.590562194254995,1.7300360326513646
1775719702629219800,2.4652197265625,-1.0978636993218214,-9.587502806684375,1.7449578535817563
1775719702639232500,2.475232421875,-1.1021288094203918,-9.583740823802351,1.7628434927538037
1775719702649245700,2.48524560546875,-1.1070447115778923,-9.579556816115975,1.7823979419209062
1775719702659259000,2.4952587890625,-1.113017794638127,-9.575400280958414,1.8009153031252323
1775719702669271800,2.505271728515625,-1.120166862675175,-9.571647650426625,1.8163607095383107
1775719702679285800,2.51528564453125,-1.1279042519941926,-9.568494154831766,1.8281493470095096
1775719702689298700,2.525298583984375,-1.1357682633675634,-9.566256020516157,1.834976562681049
1775719702699311600,2.5353115234375,-1.143562205179408,-9.564787701529264,1.8377933736674485
1775719702709324800,2.54532470703125,-1.1516337218236177,-9.563554944863915,1.8391747450232505
1775719702719337700,2.555337646484375,-1.1595157072450966,-9.562364273774623,1.840413200777024
1775719702729351000,2.565350830078125,-1.166067466976121,-9.561241991746424,1.8420999848201869
1775719702739364600,2.575364501953125,-1.1708840004123746,-9.560306756722927,1.8439013351537286
1775719702749377800,2.585377685546875,-1.1735665174946188,-9.559749707362055,1.8450813387185334
1775719702759390700,2.595390625,-1.1741055197421462,-9.559605914977192,1.8454831975176929
1775719702769403600,2.605403564453125,-1.1730489964265376,-9.559905190184711,1.8446039304651318
1775719702779416800,2.615416748046875,-1.1703656756266951,-9.56068903403878,1.8422439233355223
1775719702789429800,2.6254296875,-1.1672137144017964,-9.561664601072668,1.8391743066318331
1775719702799443700,2.635443603515625,-1.1642733501009643,-9.562565349304675,1.8363572033844888
1775719702809457000,2.645456787109375,-1.1621783505830914,-9.563307107582688,1.833820378383249
1775719702819469600,2.655469482421875,-1.161645924206823,-9.563756604915858,1.8318129840835928
1775719702829482800,2.665482666015625,-1.1618381588432938,-9.564002688631415,1.8304019482418894
1775719702839495700,2.67549560546875,-1.1603427326537668,-9.564352232721447,1.8295283802777527
1775719702849509600,2.685509521484375,-1.1553893480300903,-9.56501917219758,1.8291699222289024
1775719702859522800,2.695522705078125,-1.1455512601047753,-9.566279985913633,1.8287651408202945
1775719702869535700,2.70553564453125,-1.1298295940335839,-9.568291910257935,1.8280232364118099
1775719702879548700,2.715548583984375,-1.1074340031564236,-9.571089432021974,1.8270836174741387
1775719702889561600,2.7255615234375,-1.0781480682436375,-9.574391396176814,1.8272950682677327
1775719702899574800,2.73557470703125,-1.0428504718258977,-9.577807342100144,1.8298763169325887
1775719702909588700,2.745588623046875,-1.001634591275081,-9.580765022861957,1.837403205306083
1775719702919601700,2.7556015625,-0.9564213116511702,-9.582339724832773,1.8532181756839154
1775719702929614800,2.76561474609375,-0.9089387719210237,-9.581736498242616,1.8800396932445465
1775719702939627500,2.77562744140625,-0.8614438111007213,-9.578645546489954,1.917775257398933
1775719702949640700,2.785640625,-0.8151688935946673,-9.573680617558956,1.962277393078804
1775719702959653600,2.795653564453125,-0.7693713843420148,-9.567792144042253,2.0089375835753978
1775719702969667600,2.80566748046875,-0.724251335959509,-9.562192424339056,2.0519116329051554
1775719702979680800,2.8156806640625,-0.6802344265133142,-9.558245732539891,2.085095525104552
1775719702989693700,2.825693603515625,-0.6385714597821235,-9.556429038506746,2.1064855191357434
1775719702999706600,2.83570654296875,-0.6019897783705964,-9.556039162406325,2.118988296225667
1775719703009719600,2.845719482421875,-0.5729826969318091,-9.55603097909987,2.1270587899565694
1775719703019732700,2.855732666015625,-0.551058194165118,-9.555393850240112,2.135688232744485
1775719703029746700,2.86574658203125,-0.5348919261315838,-9.553291909524798,2.149158101300895
1775719703039759600,2.875759521484375,-0.5222333374254405,-9.549158170720935,2.1705365510247647
1775719703049772800,2.885772705078125,-0.5117289676111191,-9.542239769634604,2.203218046659976
1775719703059785700,2.89578564453125,-0.5031851572800428,-9.53215793608129,2.2483704629421233
1775719703069798700,2.905798583984375,-0.4936187259029597,-9.519501283603907,2.3034417773008347
1775719703079812900,2.915812744140625,-0.4792252396956086,-9.505908227059244,2.36186722439304
1775719703089825500,2.925825439453125,-0.45781646789871155,-9.49269277165532,2.4185857214368878
1775719703099838700,2.935838623046875,-0.4297023167116567,-9.480238363751768,2.4720123373284935
1775719703109852000,2.945851806640625,-0.39780572437644,-9.468054589483142,2.5235072545051573
1775719703119864600,2.955864501953125,-0.3670153031848371,-9.455643436199425,2.574194946952164
1775719703129877800,2.965877685546875,-0.3404670861402526,-9.443082645311952,2.6234827094733713
1775719703139891700,2.9758916015625,-0.31920064542349424,-9.430795995190739,2.6699413860484955
1775719703149904600,2.985904541015625,-0.30373218692839143,-9.41889337595105,2.7134061415046453
1775719703159917800,2.995917724609375,-0.29591159457163885,-9.407378294724225,2.7539190614178777
1775719703169930800,3.0059306640625,-0.297119801317621,-9.396544181498884,2.7905291286736724
1775719703179943700,3.015943603515625,-0.30555742959417403,-9.386597372502088,2.8229057961434125
1775719703189957400,3.025957275390625,-0.3182175526702776,-9.377928328356147,2.850189524388313
1775719703199971000,3.03597119140625,-0.33428722846154124,-9.37032954379022,2.8732494974583385
1775719703209984300,3.045984375,-0.35417836223710325,-9.362674645122885,2.89572991707474
1775719703219997200,3.0559970703125,-0.3741738331699744,-9.354037749680876,2.921017503066361
1775719703230010400,3.06601025390625,-0.3894903890389949,-9.344112567993998,2.950632889129221
1775719703240023300,3.076023193359375,-0.39726657599844034,-9.333129401686787,2.984171586115658
1775719703250036200,3.0860361328125,-0.39734281957242634,-9.321160731473565,3.021335195600986
1775719703260050200,3.09605029296875,-0.39170572700090706,-9.309560310050845,3.0576182228595017
1775719703270063000,3.10606298828125,-0.38201150452569127,-9.300417218652367,3.0865336439594624
1775719703280076300,3.116076171875,-0.3700937973147258,-9.295071181449293,3.1040415358602997
1775719703290089500,3.12608935546875,-0.35976774320937693,-9.293290727773309,3.110578244152665
1775719703300102100,3.13610205078125,-0.35276955488510425,-9.29448373695016,3.107816085962951
1775719703310115300,3.146115234375,-0.3470429208666086,-9.298242797222732,3.097197076793015
1775719703320129300,3.15612939453125,-0.33897271939665075,-9.303610461735724,3.0819360870361328
1775719703330142200,3.16614208984375,-0.3278622369153425,-9.308519861087202,3.0682857473462817
1775719703340155400,3.1761552734375,-0.3139695398369804,-9.311366482689976,3.0610882370576262
1775719703350168300,3.186168212890625,-0.296128598323185,-9.311951004579663,3.06109028288424
1775719703360181200,3.19618115234375,-0.2747081178221851,-9.310867885518073,3.0663804982468483
1775719703370195200,3.2061953125,-0.2487145937846042,-9.30913945429027,3.073832275557518
1775719703380208000,3.2162080078125,-0.21823504690676926,-9.308090237498282,3.0793218128845092
1775719703390221300,3.22622119140625,-0.18628261446477845,-9.30868937243521,3.079608228610456
1775719703400234200,3.236234130859375,-0.15568088424568996,-9.31191944039762,3.0715277980074283
1775719703410247400,3.246247314453125,-0.1299210867655929,-9.31820480427742,3.0536168782636524
1775719703420260000,3.256260009765625,-0.1122267415151,-9.326884954339265,3.027703269328177
1775719703430274300,3.2662744140625,-0.10407949275355785,-9.335957318589092,2.9999080844298005
1775719703440287200,3.276287353515625,-0.10568876371425576,-9.343760101294517,2.9754648403078314
1775719703450300200,3.286300048828125,-0.11542319946885109,-9.349601813060044,2.956691166254878
1775719703460313300,3.296313232421875,-0.13067242572270332,-9.353482453885674,2.9437498516172167
1775719703470326300,3.306326171875,-0.14613454580856486,-9.355459306916593,2.9367367579847574
1775719703480339200,3.316339111328125,-0.15848731996854767,-9.356544179543853,2.9326386750161646
1775719703490353400,3.326353515625,-0.16831128803696482,-9.357845325270295,2.927936196413636
1775719703500366300,3.336366455078125,-0.17781453625103458,-9.359339363220334,2.9225860675573347
1775719703510379300,3.346379150390625,-0.18851568901278076,-9.360904128319024,2.9168998386144636
1775719703520392200,3.35639208984375,-0.2012954564131796,-9.362038100785016,2.9124016504123804
1775719703530405400,3.3664052734375,-0.21815089402096344,-9.361720120877028,2.9122128498420117
1775719703540419300,3.37641943359375,-0.23861579083018003,-9.359619933727384,2.9173581037759777
1775719703550432300,3.386432373046875,-0.26200094073396174,-9.356538918846844,2.925219046409428
1775719703560445200,3.396445068359375,-0.28971997338989747,-9.353333400803804,2.932845303504169
1775719703570458000,3.4064580078125,-0.3212286441197619,-9.350490870854259,2.9386268095150587
1775719703580471300,3.41647119140625,-0.3550082006573677,-9.348166227298975,2.942136571201682
1775719703590484500,3.426484375,-0.39053134945929047,-9.346659914389251,2.9424215256229043
1775719703600498200,3.436498291015625,-0.42663949507493526,-9.346294588208197,2.9385598817586898
1775719703610511400,3.446511474609375,-0.45935913076344875,-9.34696094316244,2.9314971037656066
1775719703620524300,3.456524169921875,-0.48564917179588224,-9.348200714090465,2.923296553914249
1775719703630537200,3.466537109375,-0.5038919538425282,-9.349112568238377,2.9172862075835466
1775719703640550400,3.47655029296875,-0.5141155339540914,-9.348992741250992,2.9158839395701883
1775719703650563300,3.486563232421875,-0.5143435705563053,-9.348179671302438,2.9184505751878023
1775719703660577300,3.496577392578125,-0.5041561212040484,-9.346673358392716,2.9250460279300805
1775719703670590200,3.506590087890625,-0.4880749011054635,-9.344815163305402,2.933698997724056
1775719703680603400,3.516603271484375,-0.4685622087208554,-9.343388929894566,2.941410887275636
1775719703690616300,3.5266162109375,-0.4459083687663078,-9.3430808868587,2.945910829043388
1775719703700629200,3.536629150390625,-0.4208506825404241,-9.343429846426844,2.948486524750292
1775719703710642400,3.546642333984375,-0.3923169177018106,-9.344056453892588,2.9504367820352315
1775719703720656100,3.55665625,-0.35831670415084804,-9.344882967844605,2.952146508562565
1775719703730669300,3.56666943359375,-0.3193561282461509,-9.34597427021265,2.9531629921287297
1775719703740682200,3.57668212890625,-0.2756108205492608,-9.347842402172088,2.951653464348614
1775719703750695200,3.586695068359375,-0.2283175563135184,-9.35063349419534,2.9468463563278315
1775719703760708400,3.596708251953125,-0.18236978840259835,-9.353662486627698,2.940425675630569
1775719703770722000,3.60672216796875,-0.14140013769781215,-9.356839363098144,2.9325682401284574
1775719703780735200,3.6167353515625,-0.10807354909209534,-9.360972517380118,2.9207725883945823
1775719703790748400,3.62674853515625,-0.08370653027780353,-9.366569314473868,2.9035797537922856
1775719703800761300,3.63676123046875,-0.0661588817553129,-9.37376302537024,2.880729624080658
1775719703810774300,3.646774169921875,-0.05327432510645594,-9.383017175927758,2.8507056572169063
1775719703820787200,3.656787109375,-0.04439127288365271,-9.394186804717778,2.8138337241545317
1775719703830801200,3.66680126953125,-0.03880701104449108,-9.40649215953946,2.7725018890738484
1775719703840814300,3.676814453125,-0.03651439974542008,-9.419012618416547,2.729695597526431
1775719703850827300,3.6868271484375,-0.04078964079564903,-9.431155476152897,2.6873864418461917
1775719703860840400,3.69684033203125,-0.05182139548494014,-9.442918979182839,2.6455586399421094
1775719703870853000,3.70685302734375,-0.06513355729556643,-9.454407172402739,2.603908824953437
1775719703880866300,3.7168662109375,-0.07527002537925727,-9.464961299642919,2.564998664061725
1775719703890880300,3.72688037109375,-0.07853754840837791,-9.474124264785647,2.5308497262224554
1775719703900893200,3.73689306640625,-0.07352520013907923,-9.481929385578631,2.501601712167263
1775719703910906400,3.74690625,-0.06094598767892457,-9.488042900022863,2.4786533827781674
1775719703920919300,3.756919189453125,-0.04537952130259946,-9.492596325543522,2.461490358792245
1775719703930932200,3.76693212890625,-0.030336096986266783,-9.495980122762917,2.448639060525596
1775719703940945400,3.7769453125,-0.01722089621957857,-9.498747833910583,2.4380042692646384
1775719703950959000,3.786958984375,-0.005214402759351651,-9.501321483790873,2.4280118675604463
1775719703960972300,3.79697216796875,0.006039597541361581,-9.503820314869284,2.4182117735579607
1775719703970985200,3.806985107421875,0.015849218565662158,-9.506182952347396,2.4088594233229754
1775719703980998400,3.816998291015625,0.02469004935673438,-9.50841641048789,2.399951894246042
1775719703991011300,3.82701123046875,0.03339285649167141,-9.510471589452028,2.3916961070761085
1775719704001024300,3.837024169921875,0.04290638178787194,-9.511657584366201,2.3868226558208465
1775719704011038200,3.8470380859375,0.054445953568560065,-9.511544187119602,2.3870379060067237
1775719704021051100,3.857051025390625,0.06804989226683975,-9.510455807361007,2.391025368207693
1775719704031064300,3.867064208984375,0.08232499452522024,-9.508885781565308,2.396815203655511
1775719704041077200,3.8770771484375,0.09448988143028691,-9.507305818897485,2.402625058978051
1775719704051090200,3.887090087890625,0.10182579554263502,-9.506286412721872,2.4063496324591336
1775719704061104400,3.8971044921875,0.10268718901178799,-9.506385781443118,2.40591854756549
1775719704071117000,3.907116943359375,0.09670250684530474,-9.507649517768622,2.401172960473597
1775719704081130200,3.917130126953125,0.08514228956880979,-9.509874792602657,2.3927868249222635
1775719704091143400,3.927143310546875,0.0696975133433938,-9.513055760726331,2.3806086036115883
1775719704101156400,3.93715625,0.053279494471917856,-9.516760460463166,2.3661755891114473
1775719704111169300,3.947169189453125,0.03782799624477047,-9.520233105009794,2.352466504971683
1775719704121183200,3.957183349609375,0.022183208501804618,-9.523032964861393,2.341317334447801
1775719704131196200,3.967196044921875,0.0043571343365227215,-9.52514367340505,2.332813125474751
1775719704141209300,3.977209228515625,-0.015342971235199366,-9.527127540698647,2.3246499850243327
1775719704151222300,3.98722216796875,-0.0369212383970851,-9.529707035797834,2.313807250101119
1775719704161235500,3.9972353515625,-0.05941183234762866,-9.533429855713248,2.2979461024940013
1775719704171248000,4.007248046875,-0.08277709480742923,-9.538566049557923,2.275801490703225
1775719704181262300,4.017262451171875,-0.10912872070083394,-9.544628710597753,2.2491142670467497
1775719704191275000,4.02727490234375,-0.13892744570765644,-9.550711245381832,2.221484063451737
1775719704201288200,4.0372880859375,-0.1725415277515538,-9.55619756783843,2.1953772700317202
1775719704211301400,4.04730126953125,-0.21368907404020426,-9.560911736878753,2.171103683388233
1775719704221314300,4.057314208984375,-0.2639091124428436,-9.564768996828795,2.148467927079648
1775719704231327200,4.0673271484375,-0.3221030158014968,-9.568093757337332,2.1256082988873124
1775719704241341200,4.077341064453125,-0.3853474074827507,-9.571376432269812,2.100158508071303
1775719704251354000,4.08735400390625,-0.448826923094131,-9.574749123573303,2.0719848452493546
1775719704261367300,4.0973671875,-0.5047331173744052,-9.578303601184487,2.042483440954983
1775719704271380200,4.107380126953125,-0.5444660293584689,-9.58225204654932,2.013546830936521
1775719704281393400,4.117393310546875,-0.5658617224780842,-9.586423194754124,1.9876340987838803
1775719704291407000,4.127406982421875,-0.5741174731153994,-9.590357027071715,1.966176007952541
1775719704301420300,4.137420166015625,-0.5769290964700281,-9.593733810028434,1.9487958340846
1775719704311433200,4.14743310546875,-0.5830971541130915,-9.595794834211468,1.9367821556858718
1775719704321446100,4.157446044921875,-0.6014742665965109,-9.595782559251784,1.931206985902041
1775719704331459300,4.167459228515625,-0.6387273809961974,-9.593737317159771,1.929408265917003
1775719704341472300,4.17747216796875,-0.6966970471449196,-9.59017699432969,1.9270536656148731
1775719704351486200,4.187486328125,-0.7702686985079199,-9.58622387278974,1.918688426721096
1775719704361499400,4.19749951171875,-0.8493922118443995,-9.582823708957433,1.9022063707366585
1775719704371512000,4.207511962890625,-0.9240065771933644,-9.5808363345325,1.8772763660110532
1775719704381525200,4.217525146484375,-0.9866136208191514,-9.58047685357034,1.8470066076926885
1775719704391538200,4.2275380859375,-1.0303710756115614,-9.581699673363566,1.816514000403881
1775719704401551400,4.23755126953125,-1.0548323668468742,-9.583962942120433,1.790351677404344
1775719704411565300,4.2475654296875,-1.068399485232681,-9.586035656741261,1.7711054174035787
1775719704421578200,4.257578125,-1.0818302638877182,-9.586668693947791,1.7594994430229067
1775719704431591200,4.267591064453125,-1.1035594267453999,-9.585054829010367,1.7547884888529777
1775719704441604000,4.27760400390625,-1.138139011086896,-9.580807692959905,1.755888997440785
1775719704451617300,4.2876171875,-1.1862675936356186,-9.57419558134377,1.7600937556542455
1775719704461630500,4.29763037109375,-1.244255379962921,-9.566289338263868,1.763041499543935
1775719704471644200,4.30764404296875,-1.3024836970478295,-9.558915594625473,1.7609750685334205
1775719704481657300,4.3176572265625,-1.352266403479129,-9.553281388130783,1.7540166276976465
1775719704491670000,4.327669921875,-1.3902595956563948,-9.54916810759306,1.7466956371597944
1775719704501683200,4.33768310546875,-1.4177562359996139,-9.545683188086748,1.7436485245488582
1775719704511696400,4.3476962890625,-1.4379248715423047,-9.541989009743927,1.7473381728470325
1775719704521709300,4.357709228515625,-1.4508144559927283,-9.537654195410013,1.760301114794612
1775719704531723300,4.36772314453125,-1.4578354406706988,-9.532540797919035,1.7820720709674058
1775719704541736200,4.377736083984375,-1.4630493759267031,-9.526603224563598,1.809338263555616
1775719704551749000,4.3877490234375,-1.4703965238191186,-9.519799974289535,1.8389517499223351
1775719704561762300,4.39776220703125,-1.4840271358951926,-9.512024079591034,1.8680089175805448
1775719704571775200,4.407775146484375,-1.505784063542634,-9.503482461217045,1.8938949078567324
1775719704581789200,4.4177890625,-1.5357469478689134,-9.494482577681541,1.9148576163865625
1775719704591802000,4.427802001953125,-1.5718934892661869,-9.486069554123281,1.927184306257218
1775719704601815300,4.437815185546875,-1.6073568707048893,-9.479757302236557,1.9289853643298147
1775719704611828200,4.447828125,-1.6368693809151649,-9.476271798208355,1.9212752283439039
1775719704621841200,4.457841064453125,-1.6589008877202867,-9.475753327292203,1.9048720828145742
1775719704631854300,4.467854248046875,-1.6741173076830804,-9.477731933888792,1.8815723096393047
1775719704641868000,4.477867919921875,-1.684904513026774,-9.480849189126491,1.8560608517639339
1775719704651881200,4.487881103515625,-1.6944988553240894,-9.483560786172747,1.8333432623907924
1775719704661894400,4.497894287109375,-1.7059081380888819,-9.48458019234836,1.8174131412006913
1775719704671907000,4.507906982421875,-1.7220812742546199,-9.483399458131194,1.8083077514640986
1775719704681920300,4.517920166015625,-1.7451583445899188,-9.480277526718378,1.802540566239506
1775719704691933200,4.52793310546875,-1.772024285814166,-9.476512621226906,1.7961216391079127
1775719704701947100,4.537947021484375,-1.7974769992396233,-9.473694641196728,1.785657382108271
1775719704711960300,4.547960205078125,-1.8187720084637402,-9.472525597417354,1.770230095873773
1775719704721973200,4.55797314453125,-1.8348156730309129,-9.47273777886331,1.7524474786847828
1775719704731986200,4.567986083984375,-1.845535219965875,-9.473938386824727,1.7346176613532005
1775719704741999000,4.5779990234375,-1.8505974717915057,-9.475775539124012,1.7191178944043815
1775719704752012300,4.58801220703125,-1.850260348791629,-9.4779978913486,1.707187364244461
1775719704762026200,4.598026123046875,-1.847342561648786,-9.480262329149246,1.6977487970307468
1775719704772039200,4.6080390625,-1.8443973019771276,-9.482202357301116,1.690099012929946
1775719704782052400,4.61805224609375,-1.8427613713383673,-9.48359410392046,1.6840628015056252
1775719704792065000,4.62806494140625,-1.846060559014231,-9.48405879882276,1.677812655069679
1775719704802078200,4.638078125,-1.8572050533629954,-9.483393028390408,1.6692590539969503
1775719704812091100,4.648091064453125,-1.87407011731565,-9.481836446598171,1.6592251512385905
1775719704822105000,4.65810498046875,-1.8929661025740205,-9.479939673066138,1.648577646626532
1775719704832118300,4.6681181640625,-1.9106224630348383,-9.4783152867347,1.637512647254765
1775719704842131200,4.678131103515625,-1.9239828798674046,-9.47725145689547,1.6280008686743677
1775719704852144000,4.68814404296875,-1.9307418526083229,-9.47687853192985,1.6221648559972643
1775719704862157300,4.6981572265625,-1.9291203888863324,-9.477684003093838,1.6193832624547182
1775719704872170200,4.708170166015625,-1.9191547290585933,-9.47986426974237,1.6184586949557065
1775719704882184200,4.71818408203125,-1.9047535710014403,-9.482610353580117,1.6193813627585767
1775719704892197000,4.728197021484375,-1.8907813058808445,-9.485039626553654,1.6215262658327816
1775719704902210300,4.738210205078125,-1.8815964211672542,-9.486525481197237,1.623521531303227
1775719704912223200,4.74822314453125,-1.8802404765136538,-9.486738831686973,1.6238399496026337
1775719704922236200,4.758236083984375,-1.886444884111732,-9.486108717089891,1.6203187897391615
1775719704932250400,4.76825048828125,-1.8977568439818917,-9.485090479958057,1.6130607814349234
1775719704942263000,4.778262939453125,-1.912585287540406,-9.483746664133667,1.6034265455186365
1775719704952276200,4.788276123046875,-1.9288788352154194,-9.482143320590257,1.5933490958794951
1775719704962289400,4.798289306640625,-1.94332690115422,-9.480656881424784,1.584618969196081
1775719704972302000,4.808302001953125,-1.9534451211951671,-9.479622862201929,1.5783565478004513
1775719704982315300,4.818315185546875,-1.9590501015953719,-9.479040093877911,1.5748999776057897
1775719704992328200,4.828328125,-1.960208770111203,-9.478861814701556,1.5745309981629252
1775719705002342100,4.838342041015625,-1.9571637033268807,-9.479072242581843,1.577049118463695
1775719705012355300,4.848355224609375,-1.950080905459076,-9.479951363503933,1.5805324305348096
1775719705022368300,4.8583681640625,-1.9396786077797412,-9.481670442381501,1.5830224937848745
1775719705032381200,4.868381103515625,-1.9285031337708234,-9.483933126616478,1.5831198166795073
1775719705042394000,4.87839404296875,-1.9188642216794192,-9.486140865793823,1.5816121885955332
1775719705052408300,4.888408203125,-1.9120684240594505,-9.487739533162117,1.580253175202012
1775719705062421200,4.898421142578125,-1.9084860355280338,-9.48843979038596,1.5803743173636495
1775719705072434200,4.90843408203125,-1.9066257946141063,-9.48855318763256,1.5819402515061198
1775719705082447400,4.918447265625,-1.9038404016792774,-9.488587089902161,1.5850820566631854
1775719705092460000,4.9284599609375,-1.8989039681904016,-9.488809792742133,1.5896709918886422
1775719705102473200,4.93847314453125,-1.8917527812615036,-9.48933936957419,1.5950158600479363
1775719705112487400,4.9484873046875,-1.8830425283223389,-9.490140749084949,1.6005474829509854
1775719705122500000,4.9585,-1.8743847362227737,-9.490886014494299,1.6062899721257389
1775719705132513300,4.96851318359375,-1.8670741209484636,-9.491391041406988,1.6118055206768214
1775719705142526200,4.978526123046875,-1.862335255858302,-9.491561137276888,1.616275797958672
1775719705152539100,4.9885390625,-1.8613113196380435,-9.491355385571717,1.618662693095207
1775719705162552000,4.998552001953125,-1.8647825028799474,-9.490694291314481,1.6185463732391594
1775719705172566300,5.008566162109375,-1.8712620741575956,-9.489799388301371,1.6163224135793746
1775719705182579200,5.0185791015625,-1.8800510914213955,-9.488866491365432,1.6115819410540162
1775719705192592100,5.028592041015625,-1.8901897697284817,-9.488110704562068,1.6041573440112173
1775719705202605300,5.038605224609375,-1.8997931721150874,-9.487572359901666,1.5959782753393053
1775719705212618200,5.0486181640625,-1.9070904895164071,-9.487215801548958,1.5893755160734055
1775719705222631200,5.058631103515625,-1.9108323063932358,-9.487245612165331,1.5846940802589058
1775719705232645400,5.068645263671875,-1.909810708260536,-9.488243391031027,1.5799505389936268
1775719705242658000,5.078657958984375,-1.9043936516478657,-9.490489124131201,1.57298347645998
1775719705252671200,5.088671142578125,-1.8967218018457292,-9.493671261298656,1.5630214698940514
1775719705262684400,5.098684326171875,-1.8890083048589525,-9.49713455349505,1.551277402216941
1775719705272697000,5.108697021484375,-1.8816016818642616,-9.50071124293804,1.5383300962299107
1775719705282710300,5.118710205078125,-1.874133245679736,-9.504531678009032,1.5237733092196284
1775719705292724200,5.12872412109375,-1.8678733085021375,-9.508322886985539,1.5077277449563145
1775719705302737200,5.138737060546875,-1.8644145463503896,-9.511606730961798,1.4912112021803856
1775719705312750300,5.148750244140625,-1.8656039022654294,-9.51392026860118,1.474857010359317
1775719705322763300,5.15876318359375,-1.8711767339617014,-9.51520446319282,1.4594406839102505
1775719705332776200,5.168776123046875,-1.8791450824923812,-9.515562775111198,1.4468109194397925
1775719705342789000,5.1787890625,-1.886917616190016,-9.515391510197519,1.4377961305961011
1775719705352803300,5.18880322265625,-1.8930431133329868,-9.515119707518815,1.431522457154095
1775719705362816300,5.198816162109375,-1.897701460532844,-9.514892913025617,1.4268636715628207
1775719705372829200,5.2088291015625,-1.9006180786319076,-9.514810495439171,1.4235229828327893
1775719705382842400,5.21884228515625,-1.9010256365194915,-9.515108601602911,1.4209836736135184
1775719705392855000,5.22885498046875,-1.8991249174647031,-9.515809443348646,1.4188286875367164
1775719705402868200,5.2388681640625,-1.895198537801206,-9.51684521613717,1.4171357660137116
1775719705412882400,5.24888232421875,-1.8906039034873245,-9.517896771016716,1.4162097372099756
1775719705422895000,5.25889501953125,-1.8871287747226655,-9.51848889169097,1.416866593683511
1775719705432908300,5.268908203125,-1.8859961174309252,-9.518362050440906,1.4192169562019408
1775719705442921200,5.278921142578125,-1.8880727775745092,-9.517402265498042,1.4228855617120861
1775719705452934100,5.28893408203125,-1.8939464919134974,-9.515679679489136,1.426604874496162
1775719705462947000,5.298947021484375,-1.9030634259574115,-9.513446805870533,1.429357680335641
1775719705472961300,5.308961181640625,-1.9147152853064238,-9.510844514417649,1.4311167989626525
1775719705482974200,5.31897412109375,-1.926545569962263,-9.508053422394394,1.4337896714337168
1775719705492987100,5.328987060546875,-1.934502812577039,-9.505587909063696,1.4394066345326602
1775719705503000300,5.339000244140625,-1.9350550396323203,-9.503980473867058,1.4492320091068744
1775719705513013200,5.34901318359375,-1.926815180683881,-9.503534483665227,1.463079478804022
1775719705523027200,5.359027099609375,-1.9098989710658787,-9.504341708394884,1.4799183854021132
1775719705533040400,5.369040283203125,-1.885080756151676,-9.50630804003179,1.4989806671380996
1775719705543053000,5.379052978515625,-1.8543175152279436,-9.509256368443369,1.5185289788253604
1775719705553066200,5.389066162109375,-1.818388269843161,-9.51309550821483,1.5378114791832864
1775719705563079200,5.3990791015625,-1.7803019925549626,-9.517066165411471,1.5576722178205846
1775719705573092000,5.409092041015625,-1.743917404618114,-9.52035059390962,1.578632588262856
1775719705583106300,5.419106201171875,-1.7109132528997957,-9.522807339411973,1.5997808824926614
1775719705593119200,5.429119140625,-1.6820302727647125,-9.524297870230674,1.6213897799715398
1775719705603132200,5.439132080078125,-1.6573256012275814,-9.524666703543067,1.644495053488016
1775719705613145000,5.44914501953125,-1.6357310245350003,-9.52404477225244,1.6695257421091199
1775719705623158300,5.459158203125,-1.6161040946535765,-9.522751225310563,1.6958204593166708
1775719705633171200,5.469171142578125,-1.5975621835298834,-9.521156065073608,1.7221406032264233
1775719705643185200,5.47918505859375,-1.5775203892372547,-9.519896420401334,1.7473950176008044
1775719705653198300,5.4891982421875,-1.5523190202243624,-9.519526418045162,1.771810496933013
1775719705663211300,5.499211181640625,-1.5221575445860624,-9.519857841956615,1.7960367373034356
1775719705673224200,5.50922412109375,-1.489786283943802,-9.520202125349641,1.8211796541273593
1775719705683237400,5.5192373046875,-1.457099089220166,-9.519839721778034,1.8493004177182912
1775719705693250300,5.529250244140625,-1.4248304121695459,-9.51832054938674,1.8819746068298815
1775719705703264300,5.53926416015625,-1.393564190159738,-9.515667989051341,1.9184426352664827
1775719705713277400,5.54927734375,-1.3633020306259394,-9.512056228294968,1.9576916727237401
1775719705723290000,5.5592900390625,-1.3329898944705725,-9.507726674658059,1.9991662772759795
1775719705733303300,5.56930322265625,-1.3018300554446876,-9.502900861936807,2.04218153539896
1775719705743316200,5.579316162109375,-1.2697029788218437,-9.497828380978106,2.0855445840463043
1775719705753329200,5.5893291015625,-1.2351681104049086,-9.493050499051808,2.127609994098544
1775719705763343400,5.59934326171875,-1.1964394435599446,-9.489555642673373,2.165005658774078
1775719705773356300,5.609356201171875,-1.1531547208458184,-9.487554824244976,2.1970225530207155
1775719705783369200,5.619369140625,-1.105727345369011,-9.486565228685736,2.2254992904424666
1775719705793382100,5.629382080078125,-1.054272906333208,-9.486609067827462,2.2501414181374013
1775719705803395300,5.639395263671875,-0.9999540177769959,-9.48806803446412,2.268704079788178
1775719705813408300,5.649408203125,-0.9463642472129314,-9.490513674050568,2.2814279522828755
1775719705823422200,5.659422119140625,-0.8987163608532398,-9.492672313389182,2.291699024797976
1775719705833435400,5.669435302734375,-0.8588982913363724,-9.493463756027817,2.3036548355296254
1775719705843448000,5.679447998046875,-0.8244158106938004,-9.492513907957077,2.3201119032032786
1775719705853461200,5.689461181640625,-0.7916473674274981,-9.489799388301371,2.3425204266272486
1775719705863474200,5.69947412109375,-0.759552074182406,-9.485259406784177,2.3713569372721013
1775719705873487400,5.7094873046875,-0.7272348087497055,-9.478882857489586,2.4067189041629433
1775719705883501300,5.719501220703125,-0.6919586204461753,-9.470914070567488,2.448137540744245
1775719705893514200,5.72951416015625,-0.6519356029417366,-9.461684469929336,2.494374099001288
1775719705903527200,5.739527099609375,-0.6072437899086625,-9.45144072381258,2.543996208043396
1775719705913540000,5.7495400390625,-0.5588799738319591,-9.440005137562752,2.5969921774327753
1775719705923553300,5.75955322265625,-0.5092642214654013,-9.42704278013706,2.6536560216799376
1775719705933566200,5.769566162109375,-0.46013475477844473,-9.412675232088565,2.7129733030453322
1775719705943580200,5.779580078125,-0.4110487619070336,-9.397183063924311,2.773875223253667
1775719705953593300,5.78959326171875,-0.36176428732145577,-9.380132560402155,2.8377117356091737
1775719705963606000,5.79960595703125,-0.31425606516078114,-9.361589187973737,2.9038386969894168
1775719705973619200,5.809619140625,-0.26977508186679333,-9.342872212544084,2.9678862217471003
1775719705983632400,5.81963232421875,-0.2292703087273985,-9.325156523111461,3.026430765174329
1775719705993645300,5.829645263671875,-0.19366355502894148,-9.308643195205926,3.079295801660418
1775719706003659300,5.8396591796875,-0.16073095244318245,-9.29352979722619,3.1264792853787537
1775719706013672200,5.849672119140625,-0.12678313579973763,-9.280003960698842,3.167938546231389
1775719706023685000,5.85968505859375,-0.09051957129351794,-9.268038797616958,3.2040082230001685
1775719706033698300,5.8696982421875,-0.052147143140854314,-9.258389510262012,3.2326269992411136
1775719706043711200,5.879711181640625,-0.012163159597216871,-9.252263720858096,3.2505180452406406
1775719706053724400,5.889724365234375,0.02420285036168061,-9.250189837193489,3.2563439749151466
1775719706063738400,5.89973828125,0.05211180696599185,-9.251517286404967,3.252244138380885
1775719706073751300,5.909751220703125,0.07085624122472946,-9.255350580957531,3.2409649117365475
1775719706083764200,5.91976416015625,0.08257023799056187,-9.26066622302234,3.2254674828752874
1775719706093777200,5.929777099609375,0.09093224374763667,-9.266267696291207,3.2091143139675258
1775719706103790300,5.939790283203125,0.10022717384011484,-9.2711876170367,3.19459654379338
1775719706113803300,5.94980322265625,0.11547461912883444,-9.275193345546722,3.1824262135282155
1775719706123817200,5.959817138671875,0.14074891638061962,-9.278342164966464,3.1722105244621632
1775719706133830400,5.969830322265625,0.17458936365945263,-9.280859700745344,3.1631539423033592
1775719706143843000,5.979843017578125,0.2121820122118108,-9.283019509127735,3.15450915581584
1775719706153856300,5.989856201171875,0.2491218776775524,-9.28524712204933,3.145236885079741
1775719706163869200,5.999869140625,0.28134561960790305,-9.287778686353564,3.135030840624869
1775719706173882400,6.00988232421875,0.3065065835451707,-9.291005247184634,3.123086428070068
1775719706183896300,6.019896240234375,0.32347704410105943,-9.295757994669675,3.1071941546723245
1775719706193909500,6.029909423828125,0.3318858298756182,-9.302752968123555,3.085290658161044
1775719706203922400,6.03992236328125,0.3342455082116648,-9.311413244441152,3.058802171947062
1775719706213935400,6.049935302734375,0.3324514278691262,-9.32049613008499,3.0312101084053515
1775719706223948500,6.059948486328125,0.3281802898885682,-9.328999170014262,3.005403174714744
1775719706233961500,6.06996142578125,0.32450138218011704,-9.336694400691986,2.9818115789860484
1775719706243975400,6.079975341796875,0.32390736180972307,-9.343297744479775,2.9611291487023235
1775719706253988600,6.089988525390625,0.3260784953037277,-9.34832463273108,2.9449764708027244
1775719706264001300,6.100001220703125,0.3300650441892445,-9.351503262767196,2.9344205899968743
1775719706274014500,6.110014404296875,0.33425288780052215,-9.352973919841647,2.9292522474482654
1775719706284027600,6.120027587890625,0.33517391163557764,-9.353253905826806,2.9282559298872948
1775719706294040300,6.130040283203125,0.3282478386994451,-9.353239877301453,2.9290830283612013
1775719706304054500,6.140054443359375,0.3095436496861279,-9.35416166832149,2.9281781884759663
1775719706314067500,6.1500673828125,0.27541911563575266,-9.35681072152555,2.9231209050863978
1775719706324080400,6.160080322265625,0.2260559680570848,-9.361689725738763,2.911708991973102
1775719706334093600,6.170093505859375,0.16400937132565305,-9.369458021652697,2.890804151110351
1775719706344106500,6.1801064453125,0.09107662065438926,-9.380101580742002,2.8593369997009632
1775719706354119400,6.190119384765625,0.012329655862587968,-9.392556573167443,2.8195974022477865
1775719706364133400,6.20013330078125,-0.0680676562523935,-9.405627651664615,2.7748782628163693
1775719706374146600,6.210146484375,-0.14794164089630357,-9.417651851457357,2.730623818287253
1775719706384159500,6.220159423828125,-0.22300313809141514,-9.426917692452669,2.6932985884994265
1775719706394172400,6.23017236328125,-0.2925176412844099,-9.43223099642992,2.667926246833801
1775719706404185600,6.240185546875,-0.355450537597388,-9.4329745082736,2.657635738965869
1775719706414198300,6.2501982421875,-0.40976434811968354,-9.430257066008448,2.659460908566415
1775719706424212500,6.26021240234375,-0.4546776584163308,-9.426030972746014,2.667135680978
1775719706434225700,6.2702255859375,-0.4911831693191081,-9.421537168458103,2.6765198876559735
1775719706444238300,6.28023828125,-0.5187035923967137,-9.41779564384222,2.684485751968622
1775719706454251500,6.29025146484375,-0.5373719429116696,-9.416244907268881,2.6862495467707515
1775719706464264400,6.300264404296875,-0.5478271398220211,-9.417484093675016,2.6797926257163285
1775719706474277400,6.31027734375,-0.5522419971222058,-9.421341938146949,2.6652815775439143
1775719706484291600,6.32029150390625,-0.5526709265913814,-9.427444931197165,2.6435253805488346
1775719706494304500,6.330304443359375,-0.5467354355951771,-9.434666699144243,2.618876969243586
1775719706504317400,6.3403173828125,-0.5355100580299272,-9.441772731757164,2.5954811883479354
1775719706514330400,6.350330322265625,-0.5223828288987279,-9.448111287128924,2.575019415077567
1775719706524343600,6.360343505859375,-0.5091862243257462,-9.453668336734175,2.557206695011258
1775719706534356500,6.3703564453125,-0.4956150142867118,-9.45845498648882,2.542120769560337
1775719706544370400,6.380370361328125,-0.48434404401406644,-9.46195744165182,2.5312410636276006
1775719706554383600,6.390383544921875,-0.47642863124702123,-9.464614678162336,2.52279413779974
1775719706564396300,6.400396240234375,-0.4705179458985105,-9.467645424160361,2.5125103519335386
1775719706574409500,6.410409423828125,-0.46498807656113056,-9.47180663549304,2.497811672234535
1775719706584422700,6.420422607421875,-0.45859643929526206,-9.477240350979566,2.478300331556797
1775719706594435300,6.430435302734375,-0.4516518808543682,-9.483935464704036,2.4538515344768763
1775719706604449500,6.440449462890625,-0.4440554709086194,-9.491721296274662,2.4249618323400615
1775719706614462500,6.45046240234375,-0.43498124349527056,-9.499732753294706,2.395049070765823
1775719706624475400,6.460475341796875,-0.4219799422986805,-9.50679553128779,2.369208673197031
1775719706634488600,6.470488525390625,-0.40100251112375407,-9.512666469147801,2.3492089644804595
1775719706644501500,6.48050146484375,-0.3715700804123655,-9.517306403908133,2.335213172353804
1775719706654514400,6.490514404296875,-0.3350019526021555,-9.520431257930397,2.3279903814934193
1775719706664528400,6.5005283203125,-0.2933082254065201,-9.522640166151524,2.3245830572679638
1775719706674541600,6.51054150390625,-0.2487229414878413,-9.524747952085733,2.321145922426134
1775719706684554500,6.520554443359375,-0.2041768753346987,-9.527183070278166,2.3154938880138096
1775719706694567400,6.5305673828125,-0.16393442465960978,-9.530227844801544,2.3061349619075653
1775719706704580600,6.54058056640625,-0.1322951954857912,-9.53407692144513,2.292218518627435
1775719706714593500,6.550593505859375,-0.11207465622592716,-9.538846035543084,2.2733774784266947
1775719706724607500,6.560607421875,-0.10278805557037703,-9.544770749416946,2.248812946012616
1775719706734620700,6.57062060546875,-0.1023754196488764,-9.551693826678395,2.2192415452219545
1775719706744633300,6.58063330078125,-0.10894750978187658,-9.559096796411275,2.186815777913481
1775719706754646500,6.590646484375,-0.11734091532421298,-9.56626771095395,2.1547896774470803
1775719706764659500,6.600659423828125,-0.12447487712367437,-9.572505144038796,2.126509631641209
1775719706774672400,6.61067236328125,-0.1288343053090386,-9.57758756186962,2.10323221642822
1775719706784686600,6.6206865234375,-0.1285715353201609,-9.582125205299258,2.082478766734898
1775719706794699500,6.630699462890625,-0.12376062790709547,-9.586661095163226,2.061793267711252
1775719706804712400,6.64071240234375,-0.1166088929889258,-9.591264789566397,2.0406921736240387
1775719706814725400,6.650725341796875,-0.11061957117994316,-9.595759178376197,2.0197906937621535
1775719706824738600,6.660738525390625,-0.10933448153915815,-9.599904607617855,2.00007024037838
1775719706834751500,6.67075146484375,-0.11496108924928121,-9.603514614808558,1.9823444679431617
1775719706844764400,6.680764404296875,-0.12704924852317198,-9.606604982039332,1.9665695373147725
1775719706854778600,6.690778564453125,-0.14226174122951923,-9.60964741847515,1.9505968921571968
1775719706864791300,6.700791259765625,-0.15420297544654457,-9.613014849081635,1.9330106743231414
1775719706874804500,6.710804443359375,-0.15826774066742508,-9.616660512107611,1.9144646715462206
1775719706884817400,6.7208173828125,-0.15231026616827584,-9.620096916297078,1.8976111519008874
1775719706894830600,6.73083056640625,-0.13592547827954404,-9.622747723066807,1.8853709712699054
1775719706904843500,6.740843505859375,-0.1126740286248736,-9.624187985002994,1.8795399270288644
1775719706914857500,6.750857421875,-0.08822129515535197,-9.624145899426937,1.8810715205103157
1775719706924870400,6.760870361328125,-0.06981384233259595,-9.622969841384887,1.887841891428083
1775719706934883600,6.770883544921875,-0.062129375077481376,-9.621725394281745,1.894442020345479
1775719706944896500,6.780896484375,-0.06772624066988937,-9.62119172579646,1.8969567796453832
1775719706954909400,6.790909423828125,-0.08504777968577108,-9.62195686495006,1.8923817268148064
1775719706964922400,6.80092236328125,-0.10892702411627396,-9.624246437191962,1.8794713918372987
1775719706974936600,6.8109365234375,-0.13500361419427206,-9.627655953374504,1.860217386921495
1775719706984949500,6.820949462890625,-0.159749996848125,-9.631287003353238,1.8393387034133075
1775719706994962400,6.83096240234375,-0.18133136699926108,-9.634735682502388,1.8191721136972308
1775719707004975600,6.8409755859375,-0.19796428443016484,-9.637924249410629,1.8004509004838765
1775719707014988500,6.850988525390625,-0.21113281368613243,-9.640759180575609,1.7836976263426243
1775719707025001500,6.86100146484375,-0.22444255977738647,-9.643027125507592,1.7697623322315512
1775719707035015700,6.871015625,-0.24159221282508223,-9.644529931285977,1.7592754250086844
1775719707045028400,6.8810283203125,-0.2665894558343105,-9.645237202772497,1.7517805392086505
1775719707055041500,6.89104150390625,-0.30414478631727393,-9.645426003342866,1.744602172011882
1775719707065054500,6.901054443359375,-0.3577423748616129,-9.645359367847442,1.7347781126119195
1775719707075067600,6.911067626953125,-0.4273549133352935,-9.645043726027012,1.720721384078264
1775719707085080300,6.921080322265625,-0.5054315844999626,-9.644609426262974,1.7018933494895696
1775719707095094500,6.931094482421875,-0.5807467915946617,-9.644263973826169,1.6796707040265202
1775719707105107500,6.941107421875,-0.645880102295056,-9.644148823013902,1.656387297464162
1775719707115120400,6.951120361328125,-0.6978146529980004,-9.644342299759387,1.6340421946652233
1775719707125133600,6.961133544921875,-0.7380298320736736,-9.644732175859808,1.6139586070574818
1775719707135146500,6.971146484375,-0.7704744502130896,-9.64504781768024,1.5968090270750224
1775719707145159400,6.981159423828125,-0.8009239490125328,-9.644963646528124,1.582274013505131
1775719707155173600,6.991173583984375,-0.836044508362934,-9.644146484926342,1.5690363462693988
1775719707165186300,7.001186279296875,-0.8808001804124563,-9.642553662776946,1.554270738814026
1775719707175199500,7.011199462890625,-0.9352511709157377,-9.640222004958988,1.5368230526678264
1775719707185212400,7.02121240234375,-0.9923822673484682,-9.637822542601823,1.5158939541466534
1775719707195225300,7.031225341796875,-1.042169211563468,-9.636688570135831,1.489470203731954
1775719707205238300,7.04123828125,-1.0786696078997104,-9.63754957087934,1.4575624689482152
1775719707215252200,7.051252197265625,-1.1009301011551171,-9.640340662902593,1.4220337671883403
1775719707225265200,7.06126513671875,-1.110986581071466,-9.644396660295127,1.3862579587996005
1775719707235278300,7.0712783203125,-1.1121049906421452,-9.64903542601168,1.3526710387572645
1775719707245291300,7.081291259765625,-1.109597830126807,-9.653389529567956,1.3233541972495615
1775719707255304400,7.091304443359375,-1.1111510509181768,-9.656373513814806,1.3000634841635823
1775719707265317000,7.101317138671875,-1.1251732926603406,-9.656860420548915,1.284292645188421
1775719707275330300,7.111330322265625,-1.1568286601182072,-9.654263974314928,1.2756576494425536
1775719707285344300,7.12134423828125,-1.2049298432033508,-9.649061729496717,1.2704891607634723
1775719707295357200,7.131357177734375,-1.263186144273728,-9.642318100455403,1.2650938775911926
1775719707305370400,7.141370361328125,-1.3232172729969023,-9.63540203745663,1.2563789484769106
1775719707315383300,7.15138330078125,-1.3737234713971613,-9.630216159251331,1.2418503646478056
1775719707325396200,7.161396240234375,-1.4054438669152558,-9.62831646310985,1.2209117676459251
1775719707335409200,7.1714091796875,-1.4154583343207836,-9.630005731371044,1.1957581832975148
1775719707345423000,7.181423095703125,-1.4070144772328435,-9.634151160612701,1.172096737203002
1775719707355436300,7.191436279296875,-1.3860897626258433,-9.6391330406785,1.1559665633961558
1775719707365449200,7.20144921875,-1.3584398314170538,-9.643762454044818,1.1501654759019613
1775719707375462400,7.21146240234375,-1.3310764620646833,-9.646991352963447,1.1550715142525732
1775719707385475000,7.22147509765625,-1.3116747192412614,-9.648059858977794,1.1682667305860668
1775719707395488300,7.23148828125,-1.3065801725812256,-9.64681950352788,1.184105154904723
1775719707405502200,7.241502197265625,-1.3187697920687496,-9.643584174868463,1.1968726473454385
1775719707415515100,7.25151513671875,-1.346996792513132,-9.638867667740582,1.2034187810532748
1775719707425528300,7.2615283203125,-1.383612412726879,-9.633608724299073,1.2039901512004434
1775719707435541200,7.271541259765625,-1.4186553767964243,-9.629157005587219,1.1988022271685301
1775719707445554200,7.28155419921875,-1.4455574122473596,-9.626220367613435,1.1902253182854503
1775719707455567400,7.2915673828125,-1.4624175077639519,-9.624582537278533,1.1828475560590623
1775719707465581000,7.3015810546875,-1.4691514921940863,-9.623758945935965,1.1811989851344376
1775719707475594200,7.31159423828125,-1.4674270064890385,-9.623274961811303,1.1872791087657213
1775719707485607400,7.321607421875,-1.4616815947048365,-9.6225384642303,1.200267842741683
1775719707495620400,7.331620361328125,-1.4553583830326795,-9.621371174016595,1.2171803990978747
1775719707505633300,7.34163330078125,-1.450173527740687,-9.619925651383399,1.2346756507128476
1775719707515646200,7.351646240234375,-1.447486480613798,-9.618229368859529,1.2509450868599117
1775719707525660200,7.36166015625,-1.4487895260363817,-9.616356560724974,1.2637573682904242
1775719707535673300,7.37167333984375,-1.4544687407165764,-9.614546296432614,1.2709930186323821
1775719707545686300,7.381686279296875,-1.4626181449025868,-9.613184360429644,1.2719270846121011
1775719707555699500,7.391699462890625,-1.4718147200539706,-9.612404608228802,1.2672152536593377
1775719707565712100,7.401712158203125,-1.4822062040783464,-9.611936406195163,1.2586178134448827
1775719707575725300,7.411725341796875,-1.493274856711924,-9.611603813239931,1.2480290532827376
1775719707585738200,7.42173828125,-1.5024052347593009,-9.611402737709879,1.238595454505086
1775719707595752200,7.431752197265625,-1.5066659609436988,-9.611778000763058,1.2304771761097013
1775719707605765400,7.441765380859375,-1.5048746936127542,-9.613239890009165,1.221215280637145
1775719707615778300,7.4517783203125,-1.498093947431445,-9.615682022464275,1.210277487841621
1775719707625791200,7.461791259765625,-1.4872960745632648,-9.618719782724977,1.1994047231063245
1775719707635804200,7.47180419921875,-1.4733558120161294,-9.622155602392553,1.1890012563832104
1775719707645817300,7.4818173828125,-1.458929665648192,-9.625634092158078,1.1785937710721046
1775719707655831300,7.491831298828125,-1.4467473526842891,-9.628779404446481,1.1678726897671818
1775719707665844200,7.50184423828125,-1.4388095454223453,-9.631327335363626,1.1566164056070147
1775719707675857400,7.511857421875,-1.435846603963524,-9.633232876724005,1.1443584701236336
1775719707685870000,7.5218701171875,-1.437421013673395,-9.634641574478149,1.1304375698640943
1775719707695883300,7.53188330078125,-1.4436727675445378,-9.635584408286213,1.1143145564503967
1775719707705896400,7.541896484375,-1.4547368901334703,-9.635894789409637,1.0971110543236136
1775719707715910100,7.55191015625,-1.4696445364080368,-9.635527125141024,1.0803400983951985
1775719707725923300,7.56192333984375,-1.485613236042857,-9.63476841572821,1.0651746779672802
1775719707735936300,7.571936279296875,-1.500910904548317,-9.633857146102189,1.0518773894988
1775719707745949200,7.58194921875,-1.5151353908643126,-9.632807344788313,1.0410518249060958
1775719707755962400,7.59196240234375,-1.5282121684499084,-9.631666358059643,1.032446566711366
1775719707765975300,7.601975341796875,-1.5402777231663465,-9.630521279677748,1.0251822747968136
1775719707775989200,7.6119892578125,-1.5514466213040052,-9.629431730875373,1.0185471476312726
1775719707786002200,7.622002197265625,-1.5615122343748806,-9.628473114976286,1.0122161910440772
1775719707796015400,7.632015380859375,-1.570187708261609,-9.62746013854146,1.008413583890721
1775719707806028300,7.6420283203125,-1.57803725271821,-9.626304538765549,1.0072045734271406
1775719707816041200,7.652041259765625,-1.5849001242250202,-9.625138417595624,1.0075611317798494
1775719707826054400,7.662054443359375,-1.5905466056793927,-9.624089200803637,1.00869108565785
1775719707836067000,7.672067138671875,-1.5945390363164245,-9.623017187657952,1.0126097204063087
1775719707846081300,7.682081298828125,-1.598189960039407,-9.62161959581971,1.020113081773743
1775719707856094500,7.692094482421875,-1.6010137852884827,-9.620142509004474,1.0295605629462747
1775719707866107100,7.702107177734375,-1.6012573847860097,-9.618950084349512,1.040262793420255
1775719707876120300,7.712120361328125,-1.5996369439773261,-9.618054012292623,1.0509932270754128
1775719707886133200,7.72213330078125,-1.597301340636611,-9.617210547205806,1.0622064758114516
1775719707896146200,7.732146240234375,-1.59467333022058,-9.616208676686883,1.075149032558128
1775719707906160400,7.742160400390625,-1.5913817413292823,-9.61518810146749,1.089065183577314
1775719707916173300,7.75217333984375,-1.5872690453134477,-9.614370939865708,1.1021963216986506
1775719707926186200,7.762186279296875,-1.5816450679518281,-9.613991585159301,1.1135316624443978
1775719707936199200,7.77219921875,-1.5744083946965635,-9.613985155418515,1.123803027220443
1775719707946212400,7.78221240234375,-1.5645120007127522,-9.61440308856964,1.1340029341954738
1775719707956225300,7.792225341796875,-1.5515344457179308,-9.615281624969839,1.1443267598111182
1775719707966239200,7.8022392578125,-1.5357001861177384,-9.616731823778151,1.1534678053829819
1775719707976252400,7.81225244140625,-1.5185647807911038,-9.618515784585476,1.1612576555415988
1775719707986265000,7.82226513671875,-1.5023073273427783,-9.620098085340857,1.1692702085401863
1775719707996278300,7.8322783203125,-1.486261616948992,-9.621537762755155,1.1778892760645598
1775719708006291200,7.842291259765625,-1.4695859380885958,-9.623158641955255,1.1855490701027214
1775719708016304000,7.85230419921875,-1.453163357206434,-9.62512964976728,1.1897869268681853
1775719708026317300,7.8623173828125,-1.437775964590907,-9.627175476381183,1.1919169976994395
1775719708036331300,7.872331298828125,-1.422854728182405,-9.629189154291153,1.1935553394909948
1775719708046344200,7.88234423828125,-1.4071953867577016,-9.631271805784106,1.195318111379817
1775719708056357400,7.892357421875,-1.3896955320328472,-9.633603463602066,1.1970123480770736
1775719708066370300,7.902370361328125,-1.3711268790327011,-9.63613210529685,1.1980742782201617
1775719708076383200,7.91238330078125,-1.3529409417398273,-9.638528645044564,1.1994618601210414
1775719708086396200,7.922396240234375,-1.3352644152738153,-9.640734630656242,1.201548749397695
1775719708096410400,7.932410400390625,-1.3178602760083973,-9.64284767728746,1.2037892948661
1775719708106423300,7.94242333984375,-1.301218499417603,-9.644884736073017,1.2055674835197627
1775719708116436200,7.952436279296875,-1.2863361337147652,-9.64666869688034,1.2072753103509544
1775719708126449400,7.962449462890625,-1.273354194805771,-9.648171502658725,1.209032602347061
1775719708136462300,7.97246240234375,-1.2600848172575234,-9.649736267757415,1.2104519676256924
1775719708146475300,7.982475341796875,-1.2458996400386095,-9.651507953605055,1.2109992993101477
1775719708156489500,7.992489501953125,-1.2312655500084162,-9.65341758661866,1.2107452514838426
1775719708166502100,8.002502197265626,-1.2178357212014495,-9.654948449447751,1.2121188048593698
1775719708176515300,8.012515380859375,-1.2079014794252811,-9.655652798324823,1.2164333801228553
1775719708186528300,8.0225283203125,-1.2017707215853035,-9.655589669960737,1.2229954420521854
1775719708196541400,8.03254150390625,-1.1989924890436232,-9.654950203013419,1.2307497094407678
1775719708206554400,8.042554443359375,-1.199454480532184,-9.653860654211044,1.238823564172536
1775719708216567600,8.052567626953126,-1.202622077717632,-9.652539050218463,1.2460247277230023
1775719708226581500,8.06258154296875,-1.2070360947676002,-9.651301617377996,1.2513373010478912
1775719708236594400,8.072594482421875,-1.2105940795101224,-9.650431264284252,1.2546017096713185
1775719708246607600,8.082607666015624,-1.211556348671019,-9.65011737602949,1.2560828881397843
1775719708256620300,8.092620361328125,-1.2104184306822716,-9.650250062498449,1.256167351552844
1775719708266633500,8.102633544921876,-1.207444675568491,-9.650692545568942,1.25563368306756
1775719708276646400,8.112646484375,-1.2030253978215157,-9.651251348495483,1.2555800531841814
1775719708286660400,8.122660400390625,-1.1981778847251088,-9.651707860091328,1.2567064268656074
1775719708296673500,8.132673583984374,-1.1933050179917364,-9.65203869948089,1.258797846186906
1775719708306686500,8.1426865234375,-1.1887496197097003,-9.652347911560534,1.2607331981636583
1775719708316699400,8.152699462890626,-1.1852773404892534,-9.652737203139067,1.2610250207170843
1775719708326712300,8.16271240234375,-1.1826388817444442,-9.653227617004513,1.2597485710404812
1775719708336725500,8.1727255859375,-1.179866567486897,-9.653902739787101,1.2571635229833424
1775719708346738700,8.18273876953125,-1.1773893637184052,-9.65476490957439,1.2528598344400523
1775719708356752400,8.19275244140625,-1.1758753789588807,-9.65573229330182,1.2468122248388827
1775719708366765600,8.202765625,-1.174921731495857,-9.656698507985473,1.2402126804433762
1775719708376778200,8.2127783203125,-1.173738439995423,-9.657695117807387,1.2335573142074048
1775719708386791400,8.22279150390625,-1.1721254518408328,-9.658732059639691,1.2269484174616634
1775719708396804600,8.2328046875,-1.1702085853688418,-9.659755557468532,1.220703750918433
1775719708406817500,8.242817626953125,-1.168277251980081,-9.660756843465567,1.2146169052854179
1775719708416831500,8.25283154296875,-1.1660322495322675,-9.661815997129677,1.2083427934519946
1775719708426844400,8.262844482421874,-1.1634284237094223,-9.662976857602596,1.2015426119178534
1775719708436857300,8.272857421875,-1.1601742442190646,-9.664290278288721,1.1941080780029296
1775719708446870500,8.28287060546875,-1.1567469731841236,-9.665677933254837,1.1861671289358287
1775719708456883500,8.292883544921875,-1.153826555692777,-9.66707026439607,1.1776383700434119
1775719708466896600,8.302896728515625,-1.152050047539547,-9.668272041401266,1.1694776407457887
1775719708476910600,8.31291064453125,-1.1515955087050795,-9.669247608435153,1.1618461229540407
1775719708486923500,8.322923583984375,-1.1523577252492307,-9.670001057150959,1.1547929165069013
1775719708496936400,8.3329365234375,-1.154610545677319,-9.670606037306785,1.1474383890256286
1775719708506949400,8.342949462890624,-1.1576657685294747,-9.671189974674581,1.139412318958342
1775719708516962600,8.352962646484375,-1.1601655494559555,-9.6718861402452,1.1309475652128458
1775719708526975500,8.3629755859375,-1.1618235457960515,-9.672606855735182,1.1230386917844415
1775719708536988400,8.372988525390625,-1.1630075679488479,-9.67320715971589,1.1166375195052474
1775719708547002600,8.383002685546876,-1.1631984143458307,-9.673827921962738,1.1110445948690175
1775719708557015300,8.393015380859374,-1.1615219325009734,-9.674656774002313,1.1055543999549
1775719708567028500,8.403028564453125,-1.1573184163965284,-9.675776133421063,1.1001586783912032
1775719708577041400,8.41304150390625,-1.150675252055004,-9.677186000218986,1.094715318293497
1775719708587054600,8.4230546875,-1.1415426089853047,-9.678882282742858,1.0892681588035076
1775719708597067500,8.433067626953125,-1.1305717176377772,-9.680724111217259,1.0843311407927423
1775719708607081500,8.44308154296875,-1.1189013727840036,-9.68255191116631,1.0800992753766476
1775719708617094400,8.453094482421875,-1.1066775587659328,-9.684354576674103,1.076531061501056
1775719708627107300,8.463107421875,-1.0936130561400204,-9.686145551744103,1.0737800822924821
1775719708637120500,8.47312060546875,-1.0790138182274998,-9.68794412559867,1.0723057719562201
1775719708647133700,8.4831337890625,-1.0615707351911812,-9.68986311096251,1.0723926465220748
1775719708657146400,8.493146484375,-1.041364471051842,-9.691871528175472,1.0740428248818963
1775719708667160600,8.50316064453125,-1.0197663141626865,-9.693733814916014,1.0779496961273252
1775719708677173500,8.513173583984376,-0.9978813762214034,-9.69523428260684,1.084906675658375
1775719708687186400,8.5231865234375,-0.9771323835074901,-9.69614438318908,1.0956307526379823
1775719708697199600,8.53319970703125,-0.9593278467476367,-9.695952075487375,1.1129298971589654
1775719708707212500,8.543212646484376,-0.9456375403735786,-9.694531687295436,1.1367496756203472
1775719708717225500,8.5532255859375,-0.9362696272432803,-9.692257897144556,1.1635736773990093
1775719708727238400,8.56323828125,-0.9287488763496279,-9.689875970444083,1.1891572506625205
1775719708737252400,8.57325244140625,-0.9234158447586,-9.687637836128472,1.2113364953752606
1775719708747265500,8.583265625,-0.9203905786532908,-9.685752168512344,1.2285982304953038
1775719708757278500,8.593278564453126,-0.9178861215516925,-9.684479664358497,1.2404516037657856
1775719708767291600,8.603291748046875,-0.9150421302974223,-9.683810971316694,1.2477557892993092
1775719708777304300,8.61330419921875,-0.911291764787957,-9.68359352917373,1.2521747747853398
1775719708787317500,8.6233173828125,-0.9060084906227887,-9.683643798056245,1.255609717670083
1775719708797330400,8.633330322265625,-0.8990837328609078,-9.683720954945683,1.259988955667615
1775719708807344400,8.643344482421876,-0.8913040387701243,-9.683644382578134,1.2660960403710604
1775719708817357600,8.653357666015625,-0.882913811565563,-9.683532738897204,1.272812489144504
1775719708827370500,8.66337060546875,-0.8725668242700397,-9.68361281839609,1.279312080296874
1775719708837383400,8.673383544921874,-0.8597340845733881,-9.68389689603448,1.2858449891969561
1775719708847396400,8.683396240234375,-0.8453042849436402,-9.68439841581583,1.291611882160604
1775719708857409500,8.693409423828125,-0.8285033722683787,-9.685250648730992,1.2960975031420587
1775719708867423500,8.703423583984375,-0.8103503143317997,-9.686230891939998,1.3002549150824545
1775719708877436400,8.7134365234375,-0.7931476889878512,-9.687189507839083,1.3037088549286127
1775719708887449600,8.72344970703125,-0.7785965280007571,-9.688146954694389,1.3053672896601258
1775719708897462300,8.733462158203125,-0.7673840099170803,-9.68902256848514,1.305499391607195
1775719708907475500,8.743475341796875,-0.7591482426218688,-9.689707043617963,1.3052464397594332
1775719708917488600,8.753488525390624,-0.7528077144887297,-9.690016255697607,1.306625034636259
1775719708927502300,8.76350244140625,-0.7454933728873729,-9.689998135519026,1.3109417287915943
1775719708937515500,8.773515625,-0.7347383893128484,-9.689666711607575,1.3194389235019683
1775719708947528400,8.783528564453125,-0.7193162907101214,-9.689151747822761,1.331654408083111
1775719708957541400,8.793541259765625,-0.6980066684387624,-9.688580669936536,1.3470745339244603
1775719708967554600,8.803554443359374,-0.6713165221728384,-9.68781260817349,1.3660251719795167
1775719708977567500,8.8135673828125,-0.6409108625151216,-9.686754039031266,1.38796081719473
1775719708987580400,8.823580322265625,-0.6096876759294421,-9.68517992158234,1.412789553502947
1775719708997594600,8.8335947265625,-0.580641175795719,-9.682712070164085,1.4416462301529942
1775719709007607600,8.843607666015625,-0.5543330145847052,-9.679280926671623,1.4746540351331232
1775719709017620500,8.853620361328124,-0.5311518993530422,-9.674895258933304,1.511508286408335
1775719709027633400,8.86363330078125,-0.5128658261539414,-9.669507720676064,1.551762993776798
1775719709037646600,8.873646484375,-0.5008002714375034,-9.663386022925376,1.5932845062106846
1775719709047659500,8.883659423828124,-0.49455103831700975,-9.656979078492522,1.6335734081096946
1775719709057672400,8.89367236328125,-0.49205786979440597,-9.650484455776214,1.6722477144189178
1775719709067686700,8.903686767578124,-0.4926164535252377,-9.644143562316893,1.7082769130468367
1775719709077699300,8.91369921875,-0.4955590463157743,-9.638135846334695,1.741016568610072
1775719709087712500,8.92371240234375,-0.5013581610485911,-9.632340896320342,1.7711664999410508
1775719709097725400,8.933725341796874,-0.5110777006281539,-9.626474050113558,1.8000531333379446
1775719709107738400,8.94373828125,-0.5249306136853993,-9.620473348394036,1.8279310280837118
1775719709117751300,8.953751220703126,-0.5411946795376017,-9.614406011179089,1.854911389467865
1775719709127765500,8.963765625,-0.5581330644547939,-9.60834276561737,1.8811276346117256
1775719709137778400,8.9737783203125,-0.574604562512599,-9.602142157411574,1.9076441778764128
1775719709147791400,8.983791259765624,-0.5892185596028342,-9.595839257875085,1.9346983351491391
1775719709157804500,8.993804443359375,-0.600077588073723,-9.589762568309903,1.9613116167865692
1775719709167817500,9.0038173828125,-0.6066569664640352,-9.584236498364806,1.9861438602261243
1775719709177830400,9.013830322265624,-0.6102863359423354,-9.579424129647016,2.008126413322985
1775719709187844600,9.0238447265625,-0.61360806424357,-9.575317863371968,2.026613233258575
1775719709197857000,9.03385693359375,-0.6187437466315925,-9.571804302293062,2.0415949676826597
1775719709207870000,9.043869873046875,-0.6253973593018949,-9.568723287412524,2.0539690038263796
1775719709217883000,9.0538828125,-0.6338708078105002,-9.565881926506757,2.0645764686889945
1775719709227896000,9.06389599609375,-0.6438496924459934,-9.563438040485977,2.0728002532854677
1775719709237908700,9.07390869140625,-0.6522202651020139,-9.561546527650952,2.0789009082481265
1775719709247922000,9.083921875,-0.6565014495525509,-9.560405540922284,2.0827967466428876
1775719709257936100,9.09393603515625,-0.6542489213854074,-9.560439443191886,2.0833419594354927
1775719709267948800,9.10394873046875,-0.6422827353902161,-9.562082534223794,2.079526054409146
1775719709277962000,9.1139619140625,-0.62146206567958,-9.565272854697703,2.0711695833437145
1775719709287975000,9.123974853515625,-0.5957592134179547,-9.569483165869116,2.0592308698773385
1775719709297987800,9.13398779296875,-0.5706642639216035,-9.573850128906965,2.046001385948062
1775719709308000800,9.144000732421874,-0.5509914856044575,-9.577636077186465,2.0336318798489867
1775719709318014000,9.154013916015625,-0.5399131883597001,-9.580474515482782,2.0232113158605993
1775719709328028000,9.16402783203125,-0.5382015986688434,-9.582392916324734,2.014560099632293
1775719709338040800,9.174040771484375,-0.5435602396251633,-9.583823241388798,2.006300951461494
1775719709348054000,9.184053955078125,-0.5505491121318191,-9.585383330312371,1.9969199596539138
1775719709358066700,9.194066650390624,-0.5556985307842492,-9.587596330186724,1.984836138628423
1775719709368080000,9.204079833984375,-0.5592398931855336,-9.590883096772432,1.9678858806103467
1775719709378093000,9.214093017578126,-0.5602097976636141,-9.59556687067449,1.9446468977116047
1775719709388106800,9.224106689453125,-0.5594476907173171,-9.60166635659337,1.9145277999103067
1775719709398120000,9.234119873046875,-0.5595527219943702,-9.608317631176114,1.8808305513612924
1775719709408132900,9.2441328125,-0.5624054445443675,-9.614642742544412,1.8473614124797284
1775719709418145800,9.254145751953125,-0.5675974967621267,-9.620314942961931,1.8159752173520625
1775719709428159000,9.264158935546876,-0.5744783057844266,-9.625391515573858,1.7866797108933328
1775719709438172000,9.274171875,-0.5822129186244681,-9.630041971728206,1.7588915402576326
1775719709448185000,9.28418505859375,-0.5906885956227779,-9.634298460128903,1.7325569294311105
1775719709458198800,9.29419873046875,-0.6000728388333693,-9.638179685476421,1.7075705183431504
1775719709468212000,9.3042119140625,-0.6115732339477166,-9.64178092483878,1.682983189575374
1775719709478225000,9.314224853515626,-0.6241465555232018,-9.645455229437351,1.6571103510417042
1775719709488237800,9.32423779296875,-0.6371618852451443,-9.649437577071785,1.6287328362107276
1775719709498251000,9.3342509765625,-0.6501405362185091,-9.653711601129174,1.597982016377151
1775719709508264000,9.344263916015626,-0.664027315012738,-9.657816113838553,1.5671692372232675
1775719709518278000,9.35427783203125,-0.6824643775224686,-9.661075407895446,1.5389168100766837
1775719709528291000,9.364291015625,-0.7082371897477656,-9.663049922838807,1.514677710224688
1775719709538303700,9.3743037109375,-0.7395266465026885,-9.664040687441826,1.4932622894912957
1775719709548317000,9.38431689453125,-0.7716354568164795,-9.664770755282044,1.4721325538314878
1775719709558329900,9.394329833984376,-0.7999302618000655,-9.665631171503662,1.4512261055335403
1775719709568343000,9.404343017578125,-0.8223712261889129,-9.66660673853755,1.432065185728669
1775719709578355700,9.414355712890625,-0.8375149462416768,-9.66781845241487,1.4150085447266698
1775719709588370000,9.424369873046874,-0.8433220981504768,-9.669534608682989,1.399752231144905
1775719709598382800,9.4343828125,-0.8400520635038614,-9.67175286925435,1.3863335082538426
1775719709608395800,9.444395751953126,-0.8289964895475656,-9.674054716455936,1.3768812047757208
1775719709618409000,9.454408935546875,-0.8128194809243082,-9.67593044719994,1.3733391482546924
1775719709628422000,9.464421875,-0.7945851013798266,-9.676869189354777,1.3773904694721102
1775719709638434800,9.474434814453126,-0.7771369037769734,-9.676700847050547,1.3884846949383616
1775719709648449000,9.484448974609375,-0.7608609648238867,-9.675824064216018,1.4035330648578703
1775719709658461700,9.494461669921876,-0.7456562352988868,-9.67473743802309,1.4190971292145549
1775719709668475000,9.504474853515624,-0.7321026339817792,-9.673879944410919,1.4319408286966382
1775719709678487800,9.51448779296875,-0.7206550650332123,-9.673474870741368,1.440468126284331
1775719709688501000,9.5245009765625,-0.7096727024435997,-9.67365490348339,1.4447013799399138
1775719709698514000,9.534513916015625,-0.6963296020720153,-9.674407183155417,1.4461597620546818
1775719709708526800,9.54452685546875,-0.6795482708800583,-9.675458153513073,1.4470992348618805
1775719709718540800,9.554540771484374,-0.6608556992392987,-9.676447164550423,1.4491530986517667
1775719709728554000,9.564553955078125,-0.6412124027449637,-9.677251466670631,1.4525971016258001
1775719709738567000,9.57456689453125,-0.6193970229085535,-9.677875736048817,1.457902368427068
1775719709748580000,9.584580078125,-0.5957962574927136,-9.677898532402514,1.4675453721717
1775719709758592800,9.5945927734375,-0.5735300286162645,-9.677166126474738,1.4811828523799777
1775719709768606000,9.60460595703125,-0.5547543087366968,-9.675951489987968,1.4961996581174433
1775719709778619000,9.614618896484375,-0.5399515110760927,-9.674752635592222,1.5093036159709095
1775719709788632800,9.6246328125,-0.5276553990067914,-9.673901571720839,1.5190730225741862
1775719709798646000,9.63464599609375,-0.5176046181788668,-9.673549105021356,1.524756328907609
1775719709808659000,9.644658935546875,-0.5098864084843546,-9.673825583875178,1.5256198138691484
1775719709818671900,9.654671875,-0.5029247527781874,-9.674673725137113,1.5225528275139628
1775719709828684800,9.664684814453125,-0.4955066950740292,-9.675648707649112,1.5187812000207601
1775719709838698000,9.674697998046875,-0.48522247081641107,-9.676430213415623,1.517113412939012
1775719709848712000,9.6847119140625,-0.469446882600896,-9.677083124366401,1.5179112853184342
1775719709858724900,9.694724853515625,-0.446575600503385,-9.678002577298878,1.5189556798048316
1775719709868738000,9.704738037109376,-0.4178182195093482,-9.679541038912534,1.5173273479506373
1775719709878750700,9.714750732421875,-0.38732637940552084,-9.681527244293688,1.5127449885964392
1775719709888764000,9.724763916015625,-0.3600407149318606,-9.683492991408706,1.5068896866969763
1775719709898777000,9.734777099609374,-0.3399753936331719,-9.685248310643434,1.50025273290053
1775719709908789800,9.744789794921875,-0.32978279318176207,-9.686681558316945,1.4932615588389335
1775719709918804000,9.754803955078126,-0.330339367618598,-9.687460725995898,1.4880654515005647
1775719709928817000,9.76481689453125,-0.34057328646108503,-9.687706809711456,1.484160699146986
1775719709938829800,9.774829833984375,-0.3571983311127871,-9.687800917735695,1.479632115806639
1775719709948843000,9.784843017578124,-0.37467312446162104,-9.688038818144797,1.4737486107259987
1775719709958856000,9.79485595703125,-0.38711105615440755,-9.688777069291472,1.4656466989435255
1775719709968868900,9.804868896484376,-0.3926221842586994,-9.690302671423554,1.4540559221319853
1775719709978881800,9.8148818359375,-0.39462957855835556,-9.692409288313984,1.4393869069188832
1775719709988896000,9.82489599609375,-0.398431966516003,-9.69491571817696,1.421343300706148
1775719709998909000,9.834908935546874,-0.407686811193265,-9.697391168379783,1.4017105256058275
1775719710008921900,9.844921875,-0.42740554754398763,-9.698939566865564,1.3850152652621268
1775719710018935000,9.85493505859375,-0.4600776908289641,-9.699099141341447,1.373382987396419
1775719710028947700,9.86494775390625,-0.5037786661937833,-9.697781044480204,1.3673445840150118
1775719710038961000,9.8749609375,-0.5554000958269462,-9.695167647111415,1.3658749498538671
1775719710048975000,9.88497509765625,-0.6095654012566432,-9.691923550623654,1.3658112369678914
1775719710058987800,9.89498779296875,-0.6615633360520005,-9.688676531526445,1.3646527145825325
1775719710069001000,9.9050009765625,-0.7059949637789279,-9.68605787346065,1.3609649659804999
1775719710079014000,9.915013916015624,-0.7385580937314778,-9.684740945643187,1.353041333374381
1775719710089026800,9.92502685546875,-0.7581940106369555,-9.684925654560328,1.340805975048989
1775719710099039700,9.935039794921876,-0.7649792137976735,-9.686612000212072,1.3246684947185217
1775719710109053000,9.945052978515625,-0.7623764108881353,-9.68932125917077,1.306228874925524
1775719710119067000,9.95506689453125,-0.7557108885843307,-9.692048053786158,1.2897627471625803
1775719710129079800,9.965079833984374,-0.7497952347997575,-9.693967623671888,1.2787484550647437
1775719710139093000,9.975093017578125,-0.7488116305898874,-9.694497785025835,1.2752943690881133
1775719710149105700,9.985105712890626,-0.758104797983542,-9.693193132168053,1.27970648644194
1775719710159118800,9.995118896484374,-0.7799559797856956,-9.690167646867037,1.2894612799979746
1775719710169132000,10.005132080078125,-0.8139931278135627,-9.685935708385705,1.3001764430187641
1775719710179145000,10.01514501953125,-0.8553546273801476,-9.681270054662226,1.308345720949024
1775719710189159000,10.025158935546875,-0.8943345655724406,-9.67740578044951,1.3108679329030215
1775719710199172000,10.035172119140626,-0.9235671628627926,-9.675118546295165,1.3074809208132325
1775719710209184800,10.045184814453124,-0.9411449051294475,-9.674247608679533,1.3013770509801805
1775719710219198000,10.055197998046875,-0.9483438767228275,-9.67434639287889,1.295391985221207
1775719710229211100,10.065211181640626,-0.9479959400679916,-9.674982937216758,1.2908951121933758
1775719710239224000,10.07522412109375,-0.9448827034182846,-9.675499654567242,1.2892952757813037
1775719710249238000,10.085238037109375,-0.9451582324240356,-9.675233112585545,1.2911026174642144
1775719710259251000,10.0952509765625,-0.9552143470142036,-9.673732644894718,1.2949340123206377
1775719710269264000,10.105263916015625,-0.9802478851795196,-9.670714173856377,1.2987562009572982
1775719710279277000,10.115277099609376,-1.0216638914123177,-9.66630570976436,1.2996589950159192
1775719710289290000,10.1252900390625,-1.0735181434206664,-9.661521398097277,1.2934301836289466
1775719710299303200,10.13530322265625,-1.1260760867189614,-9.657381814074515,1.279568539275974
1775719710309315800,10.14531591796875,-1.1715486018009482,-9.654414780962467,1.261011430583149
1775719710319330000,10.155330078125,-1.2048831545174121,-9.652890932396053,1.2411148899801074
1775719710329343000,10.165343017578126,-1.2251050546173006,-9.652534374043345,1.2239630449753254
1775719710339356000,10.17535595703125,-1.2337529829099774,-9.652643095114827,1.2143727212660014
1775719710349369000,10.185369140625,-1.2348907547682524,-9.652603932148217,1.2135313020057976
1775719710359382000,10.195382080078126,-1.235765784037113,-9.651792031243444,1.2190789992608129
1775719710369395000,10.20539501953125,-1.2442604945294558,-9.649278002595901,1.2302914442792534
1775719710379408000,10.215407958984375,-1.2660009094335138,-9.644631053572892,1.2444690227136015
1775719710389421800,10.225421875,-1.301487817878276,-9.638380761006474,1.256238370962441
1775719710399435000,10.23543505859375,-1.34810095436275,-9.631436640956997,1.2603314854949712
1775719710409448000,10.245447998046876,-1.4014889918096363,-9.624790042549371,1.2528494591765105
1775719710419461000,10.255461181640625,-1.4528734343491494,-9.619743280553816,1.232912440432608
1775719710429473800,10.265473876953125,-1.4925215541265904,-9.617176644936203,1.2052717154435812
1775719710439487000,10.275487060546874,-1.5164052646696566,-9.616842882937192,1.1778119730446488
1775719710449500200,10.285500244140625,-1.5238433057159184,-9.618035307592153,1.158316122196987
1775719710459513900,10.295513916015626,-1.5168702518329022,-9.620183425536752,1.1495935942981392
1775719710469527000,10.305527099609375,-1.501115341079235,-9.622505146482586,1.1508375299446285
1775719710479540000,10.3155400390625,-1.4847633412152528,-9.624131870901584,1.1584260123122483
1775719710489553000,10.325552978515624,-1.4747938819952309,-9.624664954864977,1.166710075728595
1775719710499566000,10.335566162109375,-1.4768828170984982,-9.623860652744769,1.170681390512362
1775719710509579000,10.3455791015625,-1.4941760433353484,-9.621636546954512,1.1670194339387119
1775719710519592000,10.355592041015624,-1.5259398396037518,-9.61817150119245,1.1544215259112418
1775719710529606000,10.36560595703125,-1.5685636141911148,-9.613690556386112,1.1344375262204558
1775719710539619000,10.375619140625,-1.616449839351326,-9.60864028725922,1.1097273017253726
1775719710549632000,10.385632080078125,-1.6620866781495511,-9.604037177377938,1.0818252223864198
1775719710559645000,10.39564501953125,-1.6977881061278282,-9.601163667768239,1.0514518575631082
1775719710569658000,10.405658203125,-1.7182323437415061,-9.600836335510015,1.0207789252713322
1775719710579670800,10.4156708984375,-1.7219769370973108,-9.60295405831635,0.9942133552331477
1775719710589685000,10.42568505859375,-1.7122621832907199,-9.606729485201836,0.9743217830661683
1775719710599698200,10.4356982421875,-1.694795354052633,-9.61104793292284,0.962193026920408
1775719710609710800,10.4457109375,-1.6752191314451395,-9.614987025937438,0.9570931464981287
1775719710619724000,10.45572412109375,-1.6574001277685164,-9.618142275097966,0.956421238585934
1775719710629737000,10.465737060546875,-1.6444281257316469,-9.620341246446966,0.9566989595487714
1775719710639750000,10.47575,-1.6372341225743292,-9.62169499914348,0.9554338349837809
1775719710649762800,10.4857626953125,-1.6347762080281971,-9.622533788055181,0.9511666059933602
1775719710659777000,10.495777099609375,-1.6343787331432102,-9.623432782721519,0.9427227489054203
1775719710669790000,10.5057900390625,-1.6326337891720235,-9.624929743281006,0.9303755277033895
1775719710679803000,10.515802978515625,-1.628651879929006,-9.626944005712867,0.9164146607596426
1775719710689816000,10.525816162109376,-1.6236302523747086,-9.628880526733397,0.9049276365835219
1775719710699828700,10.535828857421874,-1.6184332682535052,-9.630386839643121,0.898175751170516
1775719710709842000,10.545842041015625,-1.6135827594824135,-9.631462944442033,0.8953519259214401
1775719710719855000,10.555855224609376,-1.6104739798121153,-9.632086629298328,0.8942360736340284
1775719710729868800,10.565868896484375,-1.6112787203237413,-9.632045128244162,0.8932386600945145
1775719710739882000,10.575882080078125,-1.6172414281204341,-9.631346040064097,0.8899877685397863
1775719710749895200,10.585895263671874,-1.6276206371851265,-9.63027344239652,0.882647634910047
1775719710759907800,10.595907958984375,-1.6395558435201645,-9.629283262315392,0.8712827758088707
1775719710769921000,10.605921142578126,-1.648695135526359,-9.628995677545666,0.8571093620929866
1775719710779934000,10.615933837890625,-1.6521953987322746,-9.62971756207943,0.8421378568019717
1775719710789947100,10.625947021484375,-1.647307480560243,-9.631719549551606,0.8287156267795711
1775719710799961000,10.635961181640624,-1.6324826902635394,-9.635054246932267,0.8192056017648428
1775719710809974000,10.64597412109375,-1.6094478516347706,-9.639269818800686,0.8151835066419094
1775719710819987000,10.655987060546876,-1.5823424025662243,-9.643571315386891,0.8173748792063444
1775719710829999900,10.665999755859374,-1.5539984977439045,-9.647496379876136,0.8254111053414642
1775719710840013000,10.676012939453125,-1.5262464213348925,-9.650858549785614,0.8377717705469578
1775719710850026000,10.68602587890625,-1.5011023354671895,-9.65353332195282,0.8522916596129536
1775719710860039000,10.696038818359375,-1.4795610963970423,-9.655596684223413,0.8664475376721471
1775719710870053000,10.70605322265625,-1.4588937175519763,-9.657627313268184,0.878765678910166
1775719710880065800,10.716065673828124,-1.4362068155780434,-9.660054832676053,0.8894052924767136
1775719710890079000,10.726078857421875,-1.4109082698009907,-9.662945293420552,0.8984447773702442
1775719710900092000,10.736091796875,-1.382862763403356,-9.6663261680305,0.9056614307507872
1775719710910105000,10.74610498046875,-1.3518882178165017,-9.670050741511583,0.9126414258312433
1775719710920118000,10.756117919921875,-1.319832160603255,-9.673663086789846,0.9212298790216445
1775719710930131000,10.766130859375,-1.2880496596343816,-9.676931733196973,0.9318345674052834
1775719710940145000,10.776144775390625,-1.2567790537104009,-9.67988473778367,0.9437865056794136
1775719710950157800,10.78615771484375,-1.226415625759214,-9.682494043499231,0.956877311790362
1775719710960171000,10.7961708984375,-1.1974802578497676,-9.684673725625872,0.9713410867549478
1775719710970184200,10.80618408203125,-1.1711789647709578,-9.686478729221225,0.9853181011158972
1775719710980196900,10.81619677734375,-1.1475114542618394,-9.688185533139109,0.9963100352514535
1775719710990210000,10.8262099609375,-1.1258119558900594,-9.690032622310518,1.003087712692842
1775719711000223000,10.836222900390625,-1.1070196502018719,-9.691889063832162,1.0060684090040624
1775719711010237000,10.84623681640625,-1.0925344671230763,-9.693587099921702,1.0055526415016502
1775719711020250000,10.85625,-1.082403095339611,-9.69515654119551,1.0013576009646057
1775719711030263000,10.866262939453126,-1.0763922375522554,-9.696527829548716,0.9945497475806623
1775719711040276000,10.87627587890625,-1.0742140897955745,-9.697407534992694,0.9883099033430218
1775719711050289000,10.886288818359375,-1.0747620790671557,-9.69784475736618,0.983396631534025
1775719711060302000,10.896302001953124,-1.0759930821668355,-9.69821943589747,0.9783384713616221
1775719711070316000,10.90631591796875,-1.0775844430115074,-9.698744921076297,0.9713680478271096
1775719711080329000,10.916328857421876,-1.079457543407008,-9.6993569154948,0.9631446285568177
1775719711090342100,10.926342041015625,-1.0817422933433205,-9.69998644556999,0.9541993978179991
1775719711100354800,10.936354736328125,-1.0847489278133957,-9.70067968853116,0.9436657288439572
1775719711110368000,10.946367919921874,-1.0898689742408691,-9.7014424895972,0.9298371099777519
1775719711120381000,10.956380859375,-1.0977068282596767,-9.702218734666705,0.9123493110168724
1775719711130393900,10.966393798828125,-1.1099029505532234,-9.702595751285552,0.8933905627205967
1775719711140408000,10.976407958984375,-1.128583320299536,-9.702136901602149,0.874777339926362
1775719711150421000,10.9864208984375,-1.1526985015109181,-9.700970195910333,0.8560737354349345
1775719711160434000,10.996433837890624,-1.1799362717222421,-9.699397832027078,0.8365521656241267
1775719711170446800,11.00644677734375,-1.2072249684032053,-9.697706225678324,0.8169942823909223
1775719711180460000,11.0164599609375,-1.2319640536665917,-9.696032154986261,0.7997474525790661
1775719711190473000,11.026472900390624,-1.2519305907659233,-9.69465619045794,0.7852892305724323
1775719711200486100,11.036486083984375,-1.2654917908675969,-9.69389163582623,0.7728958321411162
1775719711210500400,11.046500244140624,-1.2726169665724039,-9.693883452519774,0.7612365201380104
1775719711220513300,11.05651318359375,-1.2747894883058966,-9.694456283971666,0.7502151407122611
1775719711230526200,11.066526123046875,-1.2741805626273155,-9.695189274421333,0.74173621231094
1775719711240539400,11.076539306640624,-1.2724968473240732,-9.695705407249926,0.7378644854441284
1775719711250552000,11.086552001953125,-1.2714224960908294,-9.695824649715423,0.7381490014739334
1775719711260565200,11.096565185546876,-1.2721433577112853,-9.695479781800508,0.7414281692750752
1775719711270578200,11.106578125,-1.2751330410465598,-9.69463631671369,0.747303856375441
1775719711280592100,11.116592041015625,-1.279893241185695,-9.693325818637012,0.7561101901002227
1775719711290605300,11.126605224609374,-1.2843364843301475,-9.691834703296422,0.7676061282351613
1775719711300618200,11.1366181640625,-1.2867650266513229,-9.690414899626374,0.7813214229200035
1775719711310631200,11.146631103515626,-1.2865376476362347,-9.689273328375815,0.7957254305213689
1775719711320644000,11.15664404296875,-1.2843974207371474,-9.688403559803962,0.8096654008075594
1775719711330657300,11.1666572265625,-1.2813902017451821,-9.687712070408462,0.8226062770538032
1775719711340670200,11.176670166015626,-1.2779026518903671,-9.68719476853609,0.834044128325954
1775719711350684200,11.18668408203125,-1.2743224553160368,-9.686868605321646,0.8432368310198187
1775719711360697300,11.196697265625,-1.270565002478659,-9.686661100050806,0.8512642893265933
1775719711370710000,11.2067099609375,-1.2668690705701708,-9.686202250367403,0.861932033009082
1775719711380723200,11.21672314453125,-1.2632273530669509,-9.685464583742618,0.8754462521638721
1775719711390736400,11.226736328125,-1.259150312886387,-9.684704120764136,0.8896235383372754
1775719711400749300,11.236749267578125,-1.2548419481679796,-9.683993926668167,0.9033465048719197
1775719711410762200,11.24676220703125,-1.2498083379149436,-9.683438630872963,0.9161856743093579
1775719711420776200,11.256776123046874,-1.2429038192234934,-9.683211836379765,0.9278902136936783
1775719711430789000,11.2667890625,-1.233623219050467,-9.683346860936284,0.9387916200015693
1775719711440802300,11.27680224609375,-1.2221329069387168,-9.683792266616225,0.949181350460276
1775719711450815200,11.286815185546875,-1.2076722007140517,-9.68469710650146,0.9584254180151969
1775719711460828400,11.296828369140625,-1.1894517766296864,-9.686044429457187,0.9675341687526553
1775719711470841000,11.306841064453126,-1.1680787337332963,-9.687574123242497,0.9782020585656166
1775719711480854300,11.316854248046875,-1.14404597010836,-9.689089788502454,0.9915077495362609
1775719711490868200,11.3268681640625,-1.1178131391558797,-9.690469844684005,1.00781912512891
1775719711500881200,11.336881103515625,-1.0917509155299514,-9.691546534004807,1.0258552056223154
1775719711510894300,11.346894287109375,-1.06720552620776,-9.692412210923433,1.043356960043311
1775719711520907300,11.3569072265625,-1.0468996741514653,-9.693008423250912,1.058287256541103
1775719711530920200,11.366920166015625,-1.033193366490677,-9.693251584357023,1.0694704754650592
1775719711540933000,11.37693310546875,-1.0254982819434255,-9.69317968816459,1.0774920885529369
1775719711550946300,11.3869462890625,-1.022619146310538,-9.692814361983537,1.0834987816218287
1775719711560960300,11.396960205078125,-1.024055316593498,-9.69208312509954,1.0886766226511448
1775719711570973200,11.40697314453125,-1.028359443528205,-9.69107365579605,1.093605676551163
1775719711580986400,11.416986328125,-1.0334978293299675,-9.689950789245962,1.098700223211199
1775719711590999000,11.4269990234375,-1.0383663852144032,-9.688717448058723,1.1049562879312782
1775719711601012200,11.43701220703125,-1.043285940633714,-9.687272509947418,1.1129645300809294
1775719711611025400,11.447025390625,-1.0483972192328423,-9.685583241686224,1.122823295468092
1775719711621038000,11.4570380859375,-1.0525357803422957,-9.683870008027553,1.1336834199175239
1775719711631052300,11.46705224609375,-1.0536336585815995,-9.682537298119067,1.1439872987236828
1775719711641065200,11.477065185546875,-1.0509892815526574,-9.681684480682016,1.153600272656232
1775719711651078100,11.487078125,-1.0453683729309589,-9.681216863170265,1.162599352474138
1775719711661091300,11.49709130859375,-1.0378272368364037,-9.681009942421317,1.171045620714873
1775719711671104300,11.507104248046875,-1.0295486533127725,-9.680931031966209,1.1789799208454788
1775719711681117200,11.5171171875,-1.0221588353224098,-9.680791331234573,1.1865274866808204
1775719711691130000,11.527130126953125,-1.0166280161369592,-9.680541740387678,1.1933002687513827
1775719711701144300,11.537144287109374,-1.0123369678795338,-9.680319622069597,1.1987457477409391
1775719711711157200,11.5471572265625,-1.0081569787811486,-9.68021791526079,1.2030685063108801
1775719711721170200,11.557170166015625,-1.0032293131206185,-9.680114454886317,1.208019552846998
1775719711731183400,11.567183349609374,-0.9968296752113849,-9.680017424252629,1.2140803141906857
1775719711741196000,11.577196044921875,-0.9876417217578738,-9.680137835761904,1.2206067933499813
1775719711751209200,11.587209228515626,-0.975538465379551,-9.680510760727524,1.2273622589595614
1775719711761222100,11.59722216796875,-0.9613814913418144,-9.6810391685158,1.234347880063206
1775719711771236000,11.607236083984375,-0.9462490964006632,-9.681641226062178,1.2412982837229967
1775719711781249300,11.617249267578124,-0.930915333668515,-9.682219318211079,1.2483571161933242
1775719711791262200,11.62726220703125,-0.9160774646945297,-9.682631406143306,1.2561176671922205
1775719711801275100,11.637275146484376,-0.9019435062061995,-9.682809685319661,1.2649426325522362
1775719711811288000,11.6472880859375,-0.8874250053796917,-9.682844756633044,1.2749030316829681
1775719711821301200,11.65730126953125,-0.8728028249830007,-9.68267933693826,1.2862054930724203
1775719711831314400,11.667314453125,-0.858140897097811,-9.682297059622407,1.298882603815943
1775719711841328000,11.677328125,-0.8434201516974716,-9.681716044864057,1.3127914483115075
1775719711851341300,11.68734130859375,-0.8290702854361385,-9.681008188855648,1.327068979988992
1775719711861354200,11.697354248046874,-0.815430467140302,-9.680310269719362,1.3405375333711504
1775719711871367200,11.7073671875,-0.8032978385370224,-9.679655020681023,1.3525389368101954
1775719711881380400,11.71738037109375,-0.7934639883954078,-9.67887760656774,1.363868578467518
1775719711891393300,11.727393310546875,-0.7868194358143955,-9.677884503877163,1.3747246112637221
1775719711901406200,11.73740625,-0.7846172495950013,-9.676649409124254,1.3846309421196579
1775719711911420400,11.74742041015625,-0.787653475485742,-9.675080552372336,1.3938554281912743
1775719711921433000,11.75743310546875,-0.795614882818982,-9.673183194318414,1.402467627583444
1775719711931446300,11.7674462890625,-0.8064120250348001,-9.671163671189547,1.4102014367058873
1775719711941459200,11.777459228515625,-0.8173827702518552,-9.669186818158625,1.4174264195233583
1775719711951472400,11.787472412109375,-0.8270880986429751,-9.6672386067003,1.4250591063588858
1775719711961485000,11.797485107421876,-0.8349055674608796,-9.665226682356,1.4341215337365865
1775719711971498200,11.807498291015625,-0.840495569487661,-9.663200729486345,1.4444740009248256
1775719711981511200,11.81751123046875,-0.8427754240531474,-9.661224460977316,1.4563193370193241
1775719711991525000,11.827525146484374,-0.840834811379388,-9.65927917212844,1.4702711438737808
1775719712001538300,11.837538330078125,-0.8340539921328425,-9.657442604351044,1.4861165093898772
1775719712011551200,11.84755126953125,-0.8235505721665919,-9.65578840740323,1.5026296911649406
1775719712021564200,11.857564208984375,-0.8123304552983492,-9.654237086308003,1.5186191413268446
1775719712031577000,11.8675771484375,-0.8035256559435278,-9.65269336399734,1.5330455799557268
1775719712041590300,11.87759033203125,-0.799653490685299,-9.65112450724542,1.54490567522794
1775719712051603200,11.887603271484375,-0.8016931798193603,-9.64980231873095,1.5520974864281714
1775719712061617200,11.8976171875,-0.809662478198111,-9.648992755913733,1.5529888823099434
1775719712071630300,11.90763037109375,-0.8220674209367483,-9.648787004208565,1.54774060639292
1775719712081643300,11.917643310546875,-0.834577504550293,-9.649309566777944,1.537746889514476
1775719712091656200,11.92765625,-0.8427759355098009,-9.650315528950095,1.5269285583801566
1775719712101669400,11.93766943359375,-0.8455055066041648,-9.65112450724542,1.520294673323631
1775719712111682300,11.947682373046876,-0.8437330901041626,-9.651243749710916,1.5205211755558847
1775719712121695200,11.9576953125,-0.8369916530199348,-9.65082698560357,1.5268778511062264
1775719712131709400,11.96770947265625,-0.8250534510102122,-9.650467504641414,1.535627559272945
1775719712141722000,11.97772216796875,-0.8097872005563229,-9.650518358045815,1.543416459583491
1775719712151735300,11.9877353515625,-0.7950218122966587,-9.650980714860557,1.5481928802050648
1775719712161748200,11.997748291015625,-0.7848083151876926,-9.651617843720317,1.549436450525373
1775719712171761200,12.00776123046875,-0.7802147037871181,-9.651932316496968,1.5497946163132785
1775719712181774000,12.017774169921875,-0.7789595891594886,-9.651151395252347,1.5552711480282246
1775719712191787300,12.027787353515626,-0.7780042611960322,-9.648388360279798,1.5728027130655944
1775719712201800700,12.03780078125,-0.7771379266902804,-9.643129416838288,1.6051486931361256
1775719712211813600,12.047813720703125,-0.7766472205638885,-9.635395607715845,1.6511659095540643
1775719712221826800,12.057826904296874,-0.7748616523213684,-9.625786067849397,1.7071053850494324
1775719712231839700,12.06783984375,-0.7674791408546269,-9.61494552488327,1.770362782342732
1775719712241852700,12.077852783203125,-0.7504916195660829,-9.603486557757854,1.838533816771209
1775719712251865900,12.087865966796874,-0.7219398441467434,-9.59178092239499,1.9096984800577164
1775719712261878800,12.097878662109375,-0.6825680570926517,-9.580226678201555,1.9808463383398949
1775719712271892700,12.107892822265624,-0.6342150181382894,-9.56904535897374,2.0497619075253604
1775719712281905700,12.11790576171875,-0.5817158192899078,-9.558326981082558,2.11432936450392
1775719712291918800,12.1279189453125,-0.5317585965419188,-9.548447976624965,2.1713534203656017
1775719712301931800,12.137931884765624,-0.4909416156481951,-9.539645076966286,2.2191306321933864
1775719712311944700,12.14794482421875,-0.46293629513047635,-9.531966797423362,2.2578024542845783
1775719712321958000,12.1579580078125,-0.4485295110501349,-9.52568727876246,2.2870243109852075
1775719712331970800,12.167970703125,-0.44781854976918545,-9.520901213529706,2.307009260524064
1775719712341984800,12.17798486328125,-0.4558201795149594,-9.517205281621218,2.3206468868628143
1775719712351998000,12.187998046875,-0.4674043439226225,-9.513995087403059,2.3314821691319345
1775719712362010600,12.1980107421875,-0.47889556934982536,-9.510755082568526,2.3423450700603423
1775719712372023800,12.20802392578125,-0.48683388806842265,-9.507585220360756,2.3535515237294136
1775719712382036700,12.21803662109375,-0.4875721392150968,-9.505025599005817,2.3637109525635838
1775719712392049700,12.228049560546875,-0.47919780369941145,-9.503810377997159,2.3703043594792486
1775719712402062600,12.2380625,-0.46205542064271865,-9.504278580030798,2.3718290848284957
1775719712412076800,12.248076904296875,-0.43914424492623655,-9.506134437030553,2.3687420785985887
1775719712422089700,12.25808984375,-0.41460543147530404,-9.50889922556877,2.3620608472689986
1775719712432102700,12.2681025390625,-0.39371494793146844,-9.512129878053068,2.352612050922215
1775719712442115800,12.27811572265625,-0.38098899307753886,-9.515719426977634,2.340151505538821
1775719712452128800,12.288128662109376,-0.3788132930062711,-9.519609420153499,2.3246324493676425
1775719712462141700,12.2981416015625,-0.38683910734523086,-9.523850710985064,2.3058678354039785
1775719712472155000,12.30815478515625,-0.4026870666772127,-9.528350945013761,2.284462351542711
1775719712482168600,12.31816845703125,-0.4229086014509201,-9.532862869480251,2.26187452602908
1775719712492181800,12.328181640625,-0.4457935832802206,-9.537087793698907,2.239558649324626
1775719712502195000,12.33819482421875,-0.4702423072949052,-9.541279984691739,2.2165816783629357
1775719712512208000,12.348207763671875,-0.49378597222864623,-9.54551192317307,2.1931153164491057
1775719712522220800,12.358220703125,-0.514374294488132,-9.54963455606103,2.170316186272353
1775719712532233700,12.368233642578126,-0.531131733347848,-9.553722702157497,2.148174058699608
1775719712542247000,12.378246826171875,-0.5434692368734627,-9.558021860656142,2.125846637687832
1775719712552260900,12.3882607421875,-0.5519341002168133,-9.562856441205739,2.1017931235358116
1775719712562273800,12.398273681640624,-0.5589569845909252,-9.568142272654175,2.0757173097759485
1775719712572286700,12.40828662109375,-0.5689017477611079,-9.573786416020988,2.046785522063076
1775719712582299600,12.418299560546876,-0.5844440386774018,-9.57954571020007,2.015220609367639
1775719712592312800,12.428312744140625,-0.6078952030221,-9.584939678198099,1.9823687256015836
1775719712602325800,12.43832568359375,-0.6387552188511938,-9.58982218954265,1.948765292815864
1775719712612338700,12.448338623046874,-0.6743030637029558,-9.593998598444461,1.9159572481915355
1775719712622352000,12.458351806640625,-0.7111910711172967,-9.597350246959925,1.8855968889802692
1775719712632365800,12.46836572265625,-0.745604285915941,-9.599922143274545,1.859016486699134
1775719712642378800,12.478378662109375,-0.7759788197830318,-9.602100071835517,1.8351868444308637
1775719712652391700,12.4883916015625,-0.8012221282415092,-9.604378538161516,1.8122759244427085
1775719712662404900,12.49840478515625,-0.8183416053466498,-9.607108255386352,1.7900198151014743
1775719712672417800,12.508417724609375,-0.8268069436140358,-9.61071241735816,1.7666294410333037
1775719712682430700,12.5184306640625,-0.8286389813467859,-9.615162967026233,1.7413702043533323
1775719712692444000,12.52844384765625,-0.8285347172547132,-9.619479661181568,1.7174145976178348
1775719712702457600,12.53845751953125,-0.830172912915796,-9.622634325820208,1.6988487210966645
1775719712712470800,12.548470703125,-0.838764069519937,-9.623884033620357,1.6875176181346176
1775719712722484000,12.55848388671875,-0.8577923759210855,-9.622975102081893,1.6831285893954335
1775719712732496600,12.56849658203125,-0.8829008059535175,-9.620832829356193,1.6823868311174213
1775719712742509800,12.578509765625,-0.9058717125006019,-9.6189734652251,1.6808163669303058
1775719712752522800,12.588522705078125,-0.9205189542733132,-9.61850760127902,1.6755134382165968
1775719712762536000,12.598535888671876,-0.9212222802370786,-9.61987012180388,1.667280739661306
1775719712772550000,12.6085498046875,-0.9067890465412288,-9.623117140901089,1.6564207613423465
1775719712782562800,12.618562744140625,-0.879288679870963,-9.627789224365353,1.6440544701136648
1775719712792575700,12.62857568359375,-0.8435660629741847,-9.633495911574363,1.6292771722204982
1775719712802588700,12.638588623046875,-0.8051354292277246,-9.63964040567875,1.6122859976701438
1775719712812601900,12.648601806640626,-0.7684390719279647,-9.64523194207549,1.5966750254318116
1775719712822614800,12.65861474609375,-0.7382092072285711,-9.649518825614452,1.5849951090320944
1775719712832627700,12.668627685546875,-0.7198354192133992,-9.652291797459124,1.5765458451166747
1775719712842642000,12.678641845703124,-0.7161932633187621,-9.653766546186803,1.5691536890387534
1775719712852654600,12.688654541015625,-0.7248623074647039,-9.654404844090342,1.5612228960394858
1775719712862667800,12.698667724609376,-0.7411718564264476,-9.65489291986823,1.5505097788453102
1775719712872680700,12.7086806640625,-0.7564001860227435,-9.656134444361925,1.5353538568980991
1775719712882694000,12.71869384765625,-0.7631566745456307,-9.658855393758415,1.5147592510282992
1775719712892706800,12.728706787109376,-0.7570064082875847,-9.66330477438271,1.4892549535460768
1775719712902719700,12.7387197265625,-0.7355967597078532,-9.668982820019126,1.462893746973574
