time,seconds_elapsed,z,y,x
1775719700212288500,0.04828857421875,-0.021885057911276817,-0.3950383961200714,0.3273237943649292
1775719700222302700,0.058302734375,-0.028383970260620117,-0.29150959849357605,0.4045323133468628
1775719700232316000,0.06831591796875,-0.04320259764790535,-0.16503262519836426,0.47690263390541077
1775719700242328600,0.07832861328125,-0.05754531919956207,-0.11534443497657776,0.5353584885597229
1775719700252341800,0.088341796875,-0.06407245993614197,-0.17712578177452087,0.5711082220077515
1775719700262354700,0.098354736328125,-0.08641424775123596,-0.24610458314418793,0.580925464630127
1775719700272368600,0.10836865234375,-0.12837421894073486,-0.2904728353023529,0.567996084690094
1775719700282381800,0.1183818359375,-0.1194334551692009,-0.3076592981815338,0.5369595885276794
1775719700292394800,0.128394775390625,-0.02701989933848381,-0.2638625502586365,0.45045000314712524
1775719700302407700,0.13840771484375,0.09053122997283936,-0.302791565656662,0.33174970746040344
1775719700312420900,0.1484208984375,0.1996726244688034,-0.5420787334442139,0.2149202972650528
1775719700322433800,0.158433837890625,0.30060669779777527,-0.9871273040771484,0.07997206598520279
1775719700332447700,0.16844775390625,0.33848750591278076,-1.599855899810791,-0.14234276115894318
1775719700342460700,0.178460693359375,0.31630364060401917,-2.247987747192383,-0.36303040385246277
1775719700352473900,0.188473876953125,0.3334091305732727,-2.7042198181152344,-0.5299062132835388
1775719700362486800,0.19848681640625,0.4079645872116089,-3.007308006286621,-0.6272985339164734
1775719700372499700,0.208499755859375,0.48623010516166687,-3.242446184158325,-0.6391208171844482
1775719700382513700,0.218513671875,0.5076517462730408,-3.309650182723999,-0.5983837842941284
1775719700392526600,0.228526611328125,0.45324310660362244,-3.188451051712036,-0.5338628888130188
1775719700402539800,0.238539794921875,0.355985552072525,-2.9399240016937256,-0.4458877444267273
1775719700412553000,0.248552978515625,0.2707683742046356,-2.6842405796051025,-0.32577598094940186
1775719700422565600,0.258565673828125,0.22171881794929504,-2.417896270751953,-0.19505897164344788
1775719700432578800,0.268578857421875,0.204966202378273,-2.120763063430786,-0.05684517323970795
1775719700442592500,0.278592529296875,0.2079252302646637,-1.754526972770691,0.06631084531545639
1775719700452605700,0.288605712890625,0.2595370411872864,-1.3906224966049194,0.18664871156215668
1775719700462619000,0.298618896484375,0.3991335332393646,-1.1683112382888794,0.3628418445587158
1775719700472631800,0.3086318359375,0.6146131157875061,-1.100723385810852,0.6478938460350037
1775719700482644700,0.318644775390625,0.7167679667472839,-1.0605812072753906,0.9888561964035034
1775719700492657700,0.32865771484375,0.5818396806716919,-1.2856305837631226,1.2876557111740112
1775719700502671600,0.338671630859375,0.20367030799388885,-1.6774295568466187,1.5261913537979126
1775719700512684800,0.348684814453125,-0.19674848020076752,-1.8396155834197998,1.9675828218460083
1775719700522697700,0.35869775390625,-0.5374847650527954,-2.0760552883148193,2.429084062576294
1775719700532711000,0.3687109375,-0.7722261548042297,-2.4690024852752686,2.7388885021209717
1775719700542723600,0.3787236328125,-0.8099844455718994,-2.936384677886963,2.9941999912261963
1775719700552737800,0.38873779296875,-0.7550343871116638,-3.3949759006500244,3.230959415435791
1775719700562750700,0.398750732421875,-1.019440770149231,-3.5225980281829834,3.327755928039551
1775719700572763600,0.408763671875,-1.327296257019043,-3.4340994358062744,3.38600754737854
1775719700582776800,0.41877685546875,-1.6228232383728027,-3.1015703678131104,3.327971935272217
1775719700592789800,0.428789794921875,-1.814205288887024,-2.616828203201294,3.0959553718566895
1775719700602802700,0.438802734375,-1.9033657312393188,-2.192370653152466,2.8305647373199463
1775719700612817000,0.44881689453125,-1.9359972476959229,-1.924180269241333,2.580021858215332
1775719700622829600,0.45882958984375,-1.9411797523498535,-1.8771439790725708,2.407660484313965
1775719700632842800,0.4688427734375,-1.962302327156067,-1.9275519847869873,2.2992074489593506
1775719700642855700,0.478855712890625,-1.9782838821411133,-1.9963563680648804,2.2142293453216553
1775719700652868900,0.488868896484375,-1.9882599115371704,-1.9427450895309448,2.1500511169433594
1775719700662882800,0.4988828125,-2.0158650875091553,-1.7586394548416138,2.078646421432495
1775719700672895700,0.508895751953125,-2.057107448577881,-1.5474345684051514,1.9884915351867676
1775719700682908700,0.51890869140625,-2.0832343101501465,-1.4049415588378906,1.8815842866897583
1775719700692921600,0.528921630859375,-2.090609550476074,-1.3279777765274048,1.7616647481918335
1775719700702934800,0.538934814453125,-2.0903098583221436,-1.2489069700241089,1.6304348707199097
1775719700712948000,0.548947998046875,-2.059610366821289,-1.1748130321502686,1.4888564348220825
1775719700722961700,0.558961669921875,-2.009596347808838,-1.103508710861206,1.368093490600586
1775719700732974800,0.568974853515625,-1.9300296306610107,-0.9365628957748413,1.2786672115325928
1775719700742987500,0.578987548828125,-1.8085098266601562,-0.7522774934768677,1.2379493713378906
1775719700753000700,0.589000732421875,-1.6874885559082031,-0.7416682243347168,1.2314776182174683
1775719700763014000,0.599013916015625,-1.5929386615753174,-0.9078090190887451,1.2260764837265015
1775719700773026800,0.60902685546875,-1.5607982873916626,-1.1811095476150513,1.211023211479187
1775719700783040800,0.619040771484375,-1.5928747653961182,-1.3939733505249023,1.19257652759552
1775719700793053700,0.6290537109375,-1.6403099298477173,-1.4519051313400269,1.170819878578186
1775719700803066600,0.639066650390625,-1.6598281860351562,-1.353358507156372,1.1207727193832397
1775719700813079800,0.649079833984375,-1.6534368991851807,-1.1359326839447021,1.011370301246643
1775719700823092700,0.6590927734375,-1.614707589149475,-0.904376745223999,0.8516751527786255
1775719700833106700,0.669106689453125,-1.5148603916168213,-0.6538987159729004,0.6794834136962891
1775719700843119600,0.67911962890625,-1.361706256866455,-0.3985130190849304,0.5025461912155151
1775719700853132800,0.6891328125,-1.2175970077514648,-0.20482291281223297,0.341570645570755
1775719700863145700,0.699145751953125,-1.1111056804656982,-0.12210087478160858,0.23760908842086792
1775719700873158700,0.70915869140625,-1.0232168436050415,-0.15701918303966522,0.18763354420661926
1775719700883171800,0.719171875,-0.9396947622299194,-0.26783835887908936,0.17544212937355042
1775719700893185500,0.729185546875,-0.8518128395080566,-0.3545572757720947,0.20228172838687897
1775719700903198700,0.73919873046875,-0.752336859703064,-0.3153265118598938,0.21184781193733215
1775719700913212000,0.7492119140625,-0.6042661666870117,-0.25207245349884033,0.1437196135520935
1775719700923224600,0.759224609375,-0.450588196516037,-0.1367218941450119,0.04398024082183838
1775719700933237800,0.76923779296875,-0.33342936635017395,0.016462862491607666,-0.049734532833099365
1775719700943250700,0.779250732421875,-0.24581748247146606,0.16444620490074158,-0.14511911571025848
1775719700953264600,0.7892646484375,-0.1947449892759323,0.26515576243400574,-0.24518685042858124
1775719700963277800,0.79927783203125,-0.18297354876995087,0.3122606873512268,-0.3460274338722229
1775719700973290800,0.809290771484375,-0.21909107267856598,0.339138925075531,-0.42843523621559143
1775719700983303700,0.8193037109375,-0.26904532313346863,0.3902367055416107,-0.4586871564388275
1775719700993316600,0.829316650390625,-0.297751247882843,0.4086463451385498,-0.429625928401947
1775719701003330800,0.839330810546875,-0.3282756209373474,0.34528788924217224,-0.34550946950912476
1775719701013343700,0.84934375,-0.3458375632762909,0.18278072774410248,-0.20607326924800873
1775719701023356700,0.859356689453125,-0.3074161410331726,-0.03323358669877052,-0.07497011125087738
1775719701033369900,0.869369873046875,-0.2303040474653244,-0.12751054763793945,-0.02004534751176834
1775719701043382500,0.879382568359375,-0.13709419965744019,0.05799486115574837,-0.07830891758203506
1775719701053395700,0.889395751953125,-0.06569166481494904,0.3647971451282501,-0.253221333026886
1775719701063410000,0.899409912109375,-0.015597335062921047,0.5087196826934814,-0.4785013198852539
1775719701073422600,0.909422607421875,0.0022895196452736855,0.4622272849082947,-0.6165928840637207
1775719701083435800,0.919435791015625,-0.007503456436097622,0.2892403304576874,-0.6222784519195557
1775719701093448700,0.92944873046875,0.0007861651247367263,0.09215469658374786,-0.5566887855529785
1775719701103461600,0.939461669921875,0.02093990333378315,-0.053045906126499176,-0.4550436735153198
1775719701113475800,0.949475830078125,0.034697525203228,-0.06145190820097923,-0.3016645014286041
1775719701123488800,0.95948876953125,0.03127243369817734,-0.002398442942649126,-0.12537869811058044
1775719701133501700,0.969501708984375,0.0003326288133393973,0.039270173758268356,0.05854267254471779
1775719701143514600,0.9795146484375,-0.08024903386831284,0.026225745677947998,0.25873756408691406
1775719701153527800,0.98952783203125,-0.17576277256011963,-0.04861387610435486,0.42769619822502136
1775719701163540700,0.999540771484375,-0.28737637400627136,-0.14924433827400208,0.5586323738098145
1775719701173554700,1.0095546875,-0.4021762013435364,-0.259721040725708,0.6335780024528503
1775719701183568000,1.01956787109375,-0.49941858649253845,-0.283586710691452,0.6691733002662659
1775719701193581300,1.029581298828125,-0.5179821848869324,-0.24852752685546875,0.6796565651893616
1775719701203594500,1.039594482421875,-0.4763694703578949,-0.1580847054719925,0.6788418889045715
1775719701213607400,1.049607421875,-0.38843855261802673,-0.11303360760211945,0.6714262962341309
1775719701223620400,1.059620361328125,-0.302900493144989,-0.1005907878279686,0.6417810916900635
1775719701233634300,1.06963427734375,-0.2411942481994629,-0.06772418320178986,0.5922073721885681
1775719701243647200,1.079647216796875,-0.21454346179962158,-0.06772658228874207,0.5144487023353577
1775719701253660400,1.089660400390625,-0.22243067622184753,-0.10540898144245148,0.44041547179222107
1775719701263673300,1.09967333984375,-0.23755769431591034,-0.15652862191200256,0.4108562469482422
1775719701273686500,1.1096865234375,-0.25970959663391113,-0.1587909758090973,0.4113851487636566
1775719701283700500,1.119700439453125,-0.2869036793708801,-0.1522475928068161,0.38114362955093384
1775719701293713400,1.12971337890625,-0.2903013229370117,-0.14094354212284088,0.31209638714790344
1775719701303726300,1.139726318359375,-0.28131741285324097,-0.06406180560588837,0.22343628108501434
1775719701313739300,1.1497392578125,-0.24265845119953156,0.09933697432279587,0.10564493387937546
1775719701323752400,1.15975244140625,-0.19032573699951172,0.288856565952301,-0.04340260103344917
1775719701333765400,1.169765380859375,-0.13843590021133423,0.4487370550632477,-0.1994638442993164
1775719701343779300,1.179779296875,-0.09277867525815964,0.4986153841018677,-0.34063267707824707
1775719701353792500,1.18979248046875,-0.04212374985218048,0.4314243793487549,-0.46099478006362915
1775719701363805200,1.19980517578125,0.02413756027817726,0.30631572008132935,-0.4956377148628235
1775719701373818400,1.209818359375,0.09714412689208984,0.18713048100471497,-0.46169039607048035
1775719701383831300,1.219831298828125,0.13680924475193024,0.11531327664852142,-0.4115681052207947
1775719701393844500,1.229844482421875,0.1606173813343048,0.0356844924390316,-0.40688785910606384
1775719701403858400,1.2398583984375,0.19476841390132904,0.006878145970404148,-0.43263423442840576
1775719701413871400,1.249871337890625,0.23632119596004486,0.07228484749794006,-0.4583832919597626
1775719701423884300,1.25988427734375,0.2749258279800415,0.15758483111858368,-0.45585301518440247
1775719701433897200,1.269897216796875,0.2994604706764221,0.19092361629009247,-0.4159910976886749
1775719701443910400,1.279910400390625,0.29823756217956543,0.16458894312381744,-0.3376603424549103
1775719701453924400,1.28992431640625,0.3060009479522705,0.09499415755271912,-0.25746670365333557
1775719701463937300,1.299937255859375,0.33074331283569336,0.06915456801652908,-0.15969006717205048
1775719701473950500,1.309950439453125,0.35907161235809326,0.0750364288687706,-0.08002053201198578
1775719701483963100,1.319963134765625,0.3641800880432129,0.06676997244358063,-0.04776326194405556
1775719701493976300,1.329976318359375,0.32537490129470825,0.04128751903772354,-0.06836840510368347
1775719701503989500,1.339989501953125,0.2788156569004059,-0.007268299348652363,-0.08994533866643906
1775719701514003200,1.350003173828125,0.24447019398212433,-0.021043766289949417,-0.067936971783638
1775719701524016400,1.360016357421875,0.20973245799541473,-0.0023731428664177656,-0.02357936091721058
1775719701534029300,1.370029296875,0.1593361347913742,-0.009662747383117676,0.020779846236109734
1775719701544042200,1.380042236328125,0.11324932426214218,-0.02594265155494213,0.0656820759177208
1775719701554055400,1.390055419921875,0.10239321738481522,-0.04798110947012901,0.11126180738210678
1775719701564069400,1.4000693359375,0.10895764082670212,-0.029986660927534103,0.14801423251628876
1775719701574082300,1.410082275390625,0.1097579225897789,-0.004598213825374842,0.1463441699743271
1775719701584095200,1.42009521484375,0.12456642836332321,-0.033058084547519684,0.10210958868265152
1775719701594108400,1.4301083984375,0.12689296901226044,-0.03474067151546478,0.08255825936794281
1775719701604121300,1.440121337890625,0.10873899608850479,-0.012790895998477936,0.09341730177402496
1775719701614134300,1.45013427734375,0.0660911351442337,0.029947511851787567,0.10346727073192596
1775719701624148500,1.4601484375,0.003920173272490501,0.07048828154802322,0.11282854527235031
1775719701634161200,1.4701611328125,-0.05031456798315048,0.10340015590190887,0.15648707747459412
1775719701644174300,1.48017431640625,-0.07058309018611908,0.10104725509881973,0.23564288020133972
1775719701654187500,1.4901875,-0.05449653044342995,0.05072922259569168,0.32722926139831543
1775719701664200200,1.5002001953125,-0.0037031255196779966,-0.003483947366476059,0.3869120180606842
1775719701674213400,1.51021337890625,0.041797515004873276,-0.033239446580410004,0.40601596236228943
1775719701684227600,1.5202275390625,0.05613863468170166,-0.006975085008889437,0.39390015602111816
1775719701694240300,1.530240234375,0.05173776298761368,0.02997041493654251,0.3620293140411377
1775719701704253400,1.54025341796875,0.032333970069885254,0.061709970235824585,0.32026827335357666
1775719701714266400,1.550266357421875,0.02743428759276867,0.08517587929964066,0.29119881987571716
1775719701724279300,1.560279296875,0.0444452278316021,0.1044294685125351,0.2836671471595764
1775719701734292200,1.570292236328125,0.0592726431787014,0.13784947991371155,0.27135053277015686
1775719701744306400,1.580306396484375,0.06383304297924042,0.12914040684700012,0.25738173723220825
1775719701754319400,1.5903193359375,0.05847129970788956,0.10246911644935608,0.2674442231655121
1775719701764332300,1.600332275390625,0.040349554270505905,0.06784402579069138,0.28730154037475586
1775719701774345500,1.610345458984375,0.0340421237051487,0.02335219457745552,0.30447253584861755
1775719701784358100,1.620358154296875,0.045047104358673096,-0.0035811527632176876,0.3051505982875824
1775719701794372400,1.630372314453125,0.05381716042757034,0.00376064982265234,0.29143399000167847
1775719701804385500,1.640385498046875,0.039734628051519394,-0.0024658208712935448,0.29129281640052795
1775719701814398200,1.650398193359375,0.005864813458174467,-0.04302017018198967,0.3198549747467041
1775719701824411400,1.660411376953125,-0.037160951644182205,-0.08045702427625656,0.3542422354221344
1775719701834424300,1.67042431640625,-0.07573764026165009,-0.11456999182701111,0.3893989026546478
1775719701844437200,1.680437255859375,-0.09360744804143906,-0.13984204828739166,0.4217533767223358
1775719701854451500,1.690451416015625,-0.07776962965726852,-0.14912903308868408,0.4382697641849518
1775719701864464400,1.70046435546875,-0.04514377564191818,-0.13728542625904083,0.42739713191986084
1775719701874477300,1.710477294921875,-0.011835354380309582,-0.13445048034191132,0.3702462315559387
1775719701884490200,1.720490234375,-0.000045273736759554595,-0.15173812210559845,0.29318925738334656
1775719701894503400,1.73050341796875,0.02177613601088524,-0.1462392359972,0.20645171403884888
1775719701904516400,1.740516357421875,0.08126955479383469,-0.10899945348501205,0.09747782349586487
1775719701914530300,1.7505302734375,0.14426183700561523,-0.03939294442534447,-0.014696653932332993
1775719701924543500,1.76054345703125,0.19007965922355652,0.005112470127642155,-0.10866176337003708
1775719701934556200,1.77055615234375,0.2225997895002365,0.01709003746509552,-0.15490169823169708
1775719701944569300,1.7805693359375,0.24953313171863556,0.011828429996967316,-0.15509185194969177
1775719701954582500,1.79058251953125,0.2647738754749298,-0.008942095562815666,-0.11575163155794144
1775719701964596200,1.80059619140625,0.26547402143478394,-0.03237098827958107,-0.044076379388570786
1775719701974609400,1.810609375,0.2459903359413147,-0.1236678808927536,0.02696024440228939
1775719701984622300,1.820622314453125,0.208796888589859,-0.2499038428068161,0.061228737235069275
1775719701994635300,1.83063525390625,0.1834595799446106,-0.30939432978630066,0.06837426126003265
1775719702004648400,1.8406484375,0.18898829817771912,-0.2750643193721771,0.027170900255441666
1775719702014661400,1.850661376953125,0.2209014892578125,-0.1932048797607422,-0.07914461940526962
1775719702024675300,1.86067529296875,0.2732480466365814,-0.09135947376489639,-0.21880051493644714
1775719702034688300,1.870688232421875,0.3347870409488678,-0.0026786073576658964,-0.34075331687927246
1775719702044701400,1.880701416015625,0.38549602031707764,0.061161626130342484,-0.4006502032279968
1775719702054714400,1.89071435546875,0.40670597553253174,0.07542045414447784,-0.3882462680339813
1775719702064727300,1.900727294921875,0.39984381198883057,0.00917512271553278,-0.3204922676086426
1775719702074740500,1.910740478515625,0.35801461338996887,-0.09439228475093842,-0.22336438298225403
1775719702084754400,1.92075439453125,0.29039719700813293,-0.15208886563777924,-0.12157916277647018
1775719702094767400,1.930767333984375,0.21020835638046265,-0.14625680446624756,-0.06288255751132965
1775719702104780500,1.940780517578125,0.15884344279766083,-0.11621022969484329,-0.0648152157664299
1775719702114793200,1.950793212890625,0.18444973230361938,-0.06983979791402817,-0.11529809981584549
1775719702124806400,1.960806396484375,0.26111841201782227,0.0023457121569663286,-0.19180192053318024
1775719702134820400,1.9708203125,0.3438364565372467,0.09753214567899704,-0.27001842856407166
1775719702144833300,1.980833251953125,0.4207884967327118,0.18472164869308472,-0.34467774629592896
1775719702154846500,1.990846435546875,0.5012490153312683,0.2801850438117981,-0.4201884865760803
1775719702164859400,2.000859375,0.5493558049201965,0.3827047646045685,-0.4984513521194458
1775719702174872300,2.010872314453125,0.5458486676216125,0.4424661099910736,-0.5643656253814697
1775719702184885200,2.02088525390625,0.4955224096775055,0.43843141198158264,-0.5809451341629028
1775719702194899000,2.03089892578125,0.4297979772090912,0.3779446482658386,-0.5279107093811035
1775719702204911600,2.04091162109375,0.36385783553123474,0.2936108410358429,-0.403438001871109
1775719702214924800,2.0509248046875,0.31445035338401794,0.16493836045265198,-0.24473385512828827
1775719702224937700,2.060937744140625,0.27534475922584534,0.06393850594758987,-0.11663500219583511
1775719702234950700,2.07095068359375,0.264835387468338,0.038295190781354904,-0.0665755644440651
1775719702244963600,2.080963623046875,0.2802441716194153,0.09077437967061996,-0.10470829904079437
1775719702254977800,2.090977783203125,0.3175257742404938,0.1698811799287796,-0.2042285054922104
1775719702264990700,2.10099072265625,0.3633909821510315,0.24218600988388062,-0.30077528953552246
1775719702275003600,2.111003662109375,0.39501550793647766,0.26493579149246216,-0.3499148488044739
1775719702285016800,2.121016845703125,0.4055544137954712,0.23253870010375977,-0.36503762006759644
1775719702295029800,2.13102978515625,0.4052255153656006,0.1971103996038437,-0.3775542080402374
1775719702305042700,2.141042724609375,0.4041866362094879,0.18684178590774536,-0.3973257839679718
1775719702315057000,2.151056884765625,0.4162842929363251,0.19947555661201477,-0.4195634424686432
1775719702325069600,2.161069580078125,0.4379086494445801,0.205116406083107,-0.43445903062820435
1775719702335082800,2.171082763671875,0.45906320214271545,0.19103147089481354,-0.44478145241737366
1775719702345095700,2.181095703125,0.4807514250278473,0.15479250252246857,-0.43462973833084106
1775719702355108900,2.19110888671875,0.4991099536418915,0.12806501984596252,-0.38918983936309814
1775719702365122800,2.201122802734375,0.4957304000854492,0.11891893297433853,-0.31233686208724976
1775719702375135700,2.2111357421875,0.4714255928993225,0.09573131799697876,-0.21265926957130432
1775719702385148700,2.221148681640625,0.4496137499809265,0.04758962243795395,-0.10411468148231506
1775719702395161600,2.23116162109375,0.41171085834503174,-0.011796205304563046,0.00041811628034338355
1775719702405174800,2.2411748046875,0.3665476441383362,-0.07323852926492691,0.08153586834669113
1775719702415187700,2.251187744140625,0.3290378153324127,-0.10446595400571823,0.14242026209831238
1775719702425201700,2.26120166015625,0.3007904589176178,-0.08851628005504608,0.17427965998649597
1775719702435214800,2.27121484375,0.28848347067832947,-0.06687996536493301,0.16006264090538025
1775719702445227500,2.2812275390625,0.28208601474761963,-0.028001541271805763,0.11990349739789963
1775719702455240700,2.29124072265625,0.2890363335609436,0.028476115316152573,0.07712621241807938
1775719702465254000,2.30125390625,0.3185734450817108,0.0734875351190567,0.04709587246179581
1775719702475266800,2.311266845703125,0.34395551681518555,0.10708490759134293,0.04568919166922569
1775719702485280800,2.32128076171875,0.3361665606498718,0.12000256776809692,0.060570403933525085
1775719702495293700,2.331293701171875,0.3112074136734009,0.09722907841205597,0.0727280005812645
1775719702505306600,2.341306640625,0.27405792474746704,0.06704534590244293,0.0668240338563919
1775719702515319800,2.35131982421875,0.21208588778972626,0.05705210193991661,0.03688398003578186
1775719702525332700,2.361332763671875,0.1465470939874649,0.044788509607315063,-0.0009558085002936423
1775719702535346000,2.371345947265625,0.09066199511289597,0.030614901334047318,-0.029955768957734108
1775719702545359600,2.381359619140625,0.053882673382759094,0.0162961483001709,-0.04319647327065468
1775719702555372800,2.391372802734375,0.017102554440498352,-0.0035888757556676865,-0.04483911022543907
1775719702565385700,2.4013857421875,-0.018378740176558495,-0.029513683170080185,-0.03989628329873085
1775719702575398700,2.411398681640625,-0.05482649803161621,-0.030669761821627617,-0.023988423869013786
1775719702585411800,2.421411865234375,-0.07631314545869827,-0.035828303545713425,-0.006706904619932175
1775719702595425800,2.43142578125,-0.09115094691514969,-0.04334214702248573,0.006490389816462994
1775719702605438700,2.441438720703125,-0.11237048357725143,-0.06925869733095169,0.01230460312217474
1775719702615452000,2.451451904296875,-0.13856613636016846,-0.1068343073129654,0.0011499529937282205
1775719702625464600,2.461464599609375,-0.17051555216312408,-0.1265968233346939,-0.012116051279008389
1775719702635477800,2.471477783203125,-0.19927501678466797,-0.09458216279745102,-0.029709693044424057
1775719702645490700,2.48149072265625,-0.20719100534915924,-0.030839139595627785,-0.04706737771630287
1775719702655504600,2.491504638671875,-0.18661515414714813,0.01733771152794361,-0.06857932358980179
1775719702665517800,2.501517822265625,-0.14925047755241394,0.03627438470721245,-0.08419397473335266
1775719702675530800,2.51153076171875,-0.11234012246131897,0.037646178156137466,-0.08856235444545746
1775719702685543700,2.521543701171875,-0.05769392102956772,0.019000323489308357,-0.08798844367265701
1775719702695556600,2.531556640625,-0.018811771646142006,0.018559835851192474,-0.08615246415138245
1775719702705569800,2.54156982421875,-0.008451541885733604,0.015808524563908577,-0.08956583589315414
1775719702715583700,2.551583740234375,-0.008978581055998802,0.008569253608584404,-0.08475030958652496
1775719702725596700,2.5615966796875,-0.012823919765651226,0.0251636765897274,-0.07188164442777634
1775719702735609900,2.57160986328125,-0.010964500717818737,0.04048217833042145,-0.057795923203229904
1775719702745622500,2.58162255859375,-0.002843723399564624,0.04387584328651428,-0.034695662558078766
1775719702755635700,2.5916357421875,0.003973702434450388,0.038113031536340714,-0.011487811803817749
1775719702765650000,2.60164990234375,0.01678483933210373,0.02219425141811371,0.006678142584860325
1775719702775662600,2.61166259765625,0.03139520809054375,0.013161075301468372,0.026558639481663704
1775719702785675800,2.62167578125,0.03722619637846947,0.010848119854927063,0.030480677261948586
1775719702795688700,2.631688720703125,0.033060215413570404,0.02045600675046444,0.025977538898587227
1775719702805701600,2.64170166015625,0.03453027829527855,0.04535496607422829,0.012397280894219875
1775719702815714800,2.65171484375,0.03260348364710808,0.08481475710868835,-0.014340856112539768
1775719702825728800,2.661728759765625,0.030398918315768242,0.10893074423074722,-0.025352494791150093
1775719702835741700,2.67174169921875,0.022369220852851868,0.097067691385746,-0.00007430219557136297
1775719702845754600,2.681754638671875,0.010855576954782009,0.04265451803803444,0.04742290824651718
1775719702855767800,2.691767822265625,0.004171309061348438,-0.01618403010070324,0.11199843883514404
1775719702865780700,2.70178076171875,0.0049643986858427525,-0.04874783009290695,0.17971836030483246
1775719702875793700,2.711793701171875,0.00836791843175888,-0.037388917058706284,0.24982847273349762
1775719702885807900,2.721807861328125,0.0011717908782884479,0.017901236191391945,0.30997809767723083
1775719702895820500,2.731820556640625,-0.01787780039012432,0.07404199987649918,0.3606109321117401
1775719702905833700,2.741833740234375,-0.06408817321062088,0.17057093977928162,0.40425774455070496
1775719702915847000,2.751846923828125,-0.14919693768024445,0.2398192584514618,0.42861607670783997
1775719702925859600,2.761859619140625,-0.26382312178611755,0.285759299993515,0.4416794180870056
1775719702935872800,2.771872802734375,-0.37955665588378906,0.29083824157714844,0.43560072779655457
1775719702945886700,2.78188671875,-0.44710400700569153,0.259528249502182,0.42798861861228943
1775719702955899600,2.791899658203125,-0.46701353788375854,0.2406781166791916,0.42636117339134216
1775719702965912800,2.801912841796875,-0.42236483097076416,0.232259601354599,0.4198968708515167
1775719702975925800,2.81192578125,-0.3130393922328949,0.2239132523536682,0.4094010889530182
1775719702985938700,2.821938720703125,-0.18807296454906464,0.22768668830394745,0.3813316524028778
1775719702995953000,2.831952880859375,-0.10075803846120834,0.2576616406440735,0.31649646162986755
1775719703005965800,2.8419658203125,-0.05655195936560631,0.31145936250686646,0.22189457714557648
1775719703015978800,2.851978759765625,-0.06559472531080246,0.3929920196533203,0.1311044842004776
1775719703025991700,2.86199169921875,-0.118596151471138,0.4507908821105957,0.059179168194532394
1775719703036004900,2.8720048828125,-0.20404180884361267,0.49440306425094604,0.015514777041971684
1775719703046017500,2.882017578125,-0.3277733325958252,0.49912911653518677,-0.007949802093207836
1775719703056031700,2.89203173828125,-0.46336978673934937,0.44080987572669983,-0.018577147275209427
1775719703066045000,2.902044921875,-0.5701987743377686,0.3552291989326477,0.015903599560260773
1775719703076057600,2.9120576171875,-0.5999262928962708,0.25051212310791016,0.09492997080087662
1775719703086070800,2.92207080078125,-0.5825340151786804,0.15946581959724426,0.19375161826610565
1775719703096083700,2.932083740234375,-0.5506876707077026,0.10880611091852188,0.27644091844558716
1775719703106096600,2.9420966796875,-0.5328729748725891,0.10874325782060623,0.3123413920402527
1775719703116110800,2.95211083984375,-0.5266305208206177,0.13148745894432068,0.28649061918258667
1775719703126123800,2.962123779296875,-0.5095322132110596,0.1737254559993744,0.2254919856786728
1775719703136136700,2.97213671875,-0.4765942394733429,0.21988309919834137,0.15471553802490234
1775719703146149600,2.982149658203125,-0.44536256790161133,0.24993446469306946,0.08439584076404572
1775719703156162800,2.992162841796875,-0.41448187828063965,0.26361697912216187,-0.006117547396570444
1775719703166175700,3.00217578125,-0.3728278875350952,0.2616981863975525,-0.1030837744474411
1775719703176189700,3.012189697265625,-0.3280585706233978,0.2923487722873688,-0.1865730732679367
1775719703186203000,3.022202880859375,-0.2681041657924652,0.35279586911201477,-0.2468193769454956
1775719703196216300,3.03221630859375,-0.22155210375785828,0.40891212224960327,-0.3009398579597473
1775719703206229200,3.042229248046875,-0.2219150811433792,0.3953065872192383,-0.3417978286743164
1775719703216242400,3.052242431640625,-0.25793513655662537,0.3492887616157532,-0.3215649724006653
1775719703226256400,3.06225634765625,-0.3095666468143463,0.27801430225372314,-0.2446315884590149
1775719703236269300,3.072269287109375,-0.3527926802635193,0.19099950790405273,-0.1334933489561081
1775719703246282200,3.0822822265625,-0.3965129852294922,0.09772069752216339,-0.023577231913805008
1775719703256295200,3.092295166015625,-0.383556991815567,0.03326421231031418,0.056110139936208725
1775719703266308400,3.102308349609375,-0.2936723530292511,0.04754994064569473,0.09295310825109482
1775719703276321300,3.1123212890625,-0.16351036727428436,0.12076157331466675,0.09115813672542572
1775719703286335200,3.122335205078125,-0.04677522927522659,0.1687125861644745,0.05060778185725212
1775719703296348400,3.132348388671875,0.051058389246463776,0.18184170126914978,0.008351673372089863
1775719703306361000,3.142361083984375,0.13575729727745056,0.20329506695270538,-0.008524511940777302
1775719703316374300,3.152374267578125,0.18323640525341034,0.2518002688884735,0.006641923915594816
1775719703326387200,3.16238720703125,0.155075341463089,0.28101250529289246,0.028922194615006447
1775719703336400400,3.172400390625,0.07847483456134796,0.2583197057247162,0.06747224926948547
1775719703346414300,3.182414306640625,-0.000046871635277057067,0.21613070368766785,0.12568335235118866
1775719703356427300,3.19242724609375,-0.05582944303750992,0.16556526720523834,0.17863312363624573
1775719703366440200,3.202440185546875,-0.07563244551420212,0.1245933249592781,0.24403956532478333
1775719703376453000,3.212453125,-0.049313221126794815,0.1097954735159874,0.29723939299583435
1775719703386466300,3.22246630859375,0.009875800460577011,0.10758691281080246,0.3067985475063324
1775719703396479500,3.2324794921875,0.1037607491016388,0.13086746633052826,0.2836458384990692
1775719703406493200,3.2424931640625,0.21213676035404205,0.18120548129081726,0.20890900492668152
1775719703416506400,3.25250634765625,0.2948867678642273,0.22960656881332397,0.10284356027841568
1775719703426519000,3.26251904296875,0.3041207492351532,0.26092907786369324,-0.010861702263355255
1775719703436532200,3.2725322265625,0.2607213258743286,0.25809651613235474,-0.11389487981796265
1775719703446545400,3.28254541015625,0.1988672912120819,0.22431592643260956,-0.18635496497154236
1775719703456559000,3.29255908203125,0.1352241337299347,0.14778466522693634,-0.21886390447616577
1775719703466572300,3.302572265625,0.07132158428430557,0.08705899864435196,-0.1926104575395584
1775719703476585200,3.312585205078125,0.04441966116428375,0.04905010014772415,-0.14237259328365326
1775719703486598100,3.32259814453125,0.05465472489595413,0.021223796531558037,-0.10880424082279205
1775719703496611300,3.332611328125,0.06079224497079849,0.009814813733100891,-0.10508034378290176
1775719703506624300,3.342624267578125,0.06400375068187714,-0.024101341143250465,-0.1091880053281784
1775719703516638200,3.35263818359375,0.04825727641582489,-0.06252302974462509,-0.12029951065778732
1775719703526651400,3.3626513671875,-0.00509808911010623,-0.12977556884288788,-0.14633190631866455
1775719703536664300,3.372664306640625,-0.06307430565357208,-0.17234167456626892,-0.16929848492145538
1775719703546677200,3.38267724609375,-0.08919113129377365,-0.18238845467567444,-0.1960853487253189
1775719703556690200,3.392690185546875,-0.08362938463687897,-0.19430556893348694,-0.24327656626701355
1775719703566703400,3.402703369140625,-0.06243621185421944,-0.19751253724098206,-0.2804660201072693
1775719703576717300,3.41271728515625,-0.03959161788225174,-0.18221241235733032,-0.3064539432525635
1775719703586730200,3.422730224609375,-0.0015507587231695652,-0.1410340815782547,-0.33776578307151794
1775719703596743400,3.432743408203125,0.04573153704404831,-0.10485291481018066,-0.3548177480697632
1775719703606756000,3.442756103515625,0.07884740829467773,-0.08067593723535538,-0.3199545741081238
1775719703616769300,3.452769287109375,0.08615459501743317,-0.12577363848686218,-0.23449985682964325
1775719703626783500,3.462783447265625,0.05227652192115784,-0.1952163577079773,-0.12301141023635864
1775719703636796200,3.472796142578125,-0.006256564520299435,-0.3088776767253876,-0.005604356061667204
1775719703646809300,3.482809326171875,-0.0513814315199852,-0.38760286569595337,0.13317856192588806
1775719703656822300,3.492822265625,-0.09571853280067444,-0.3833279609680176,0.24294473230838776
1775719703666835200,3.502835205078125,-0.10899253189563751,-0.30779775977134705,0.2730909287929535
1775719703676848000,3.51284814453125,-0.08541982620954514,-0.16157904267311096,0.26292911171913147
1775719703686862300,3.5228623046875,-0.04133971780538559,-0.030366960912942886,0.25480857491493225
1775719703696875300,3.532875244140625,-0.02376951090991497,-0.016888702288269997,0.2740824222564697
1775719703706888200,3.54288818359375,-0.02094682678580284,-0.08894425630569458,0.3373362123966217
1775719703716901400,3.5529013671875,-0.022846193984150887,-0.15258795022964478,0.4201136529445648
1775719703726914000,3.5629140625,-0.015189073048532009,-0.2114563137292862,0.48793530464172363
1775719703736927200,3.57292724609375,0.014915565960109234,-0.2524951100349426,0.5546440482139587
1775719703746941400,3.58294140625,0.05259423702955246,-0.24397191405296326,0.5867391228675842
1775719703756954000,3.5929541015625,0.06634999811649323,-0.2124938815832138,0.5539675951004028
1775719703766967300,3.60296728515625,0.08346346765756607,-0.14955966174602509,0.4778291583061218
1775719703776980200,3.612980224609375,0.13078944385051727,-0.07539621740579605,0.36889466643333435
1775719703786993200,3.6229931640625,0.18365691602230072,-0.03917190432548523,0.2602209448814392
1775719703797006300,3.63300634765625,0.25125807523727417,-0.058822568506002426,0.19731760025024414
1775719703807020300,3.643020263671875,0.3306567370891571,-0.12885890901088715,0.1700793206691742
1775719703817033200,3.653033203125,0.40289926528930664,-0.2020295262336731,0.14888721704483032
1775719703827046100,3.663046142578125,0.4456925094127655,-0.21588249504566193,0.11968538910150528
1775719703837059300,3.673059326171875,0.45737528800964355,-0.16499215364456177,0.06895723193883896
1775719703847072300,3.683072265625,0.44900602102279663,-0.14640328288078308,-0.014753113500773907
1775719703857085200,3.693085205078125,0.4439167380332947,-0.15083850920200348,-0.08374816179275513
1775719703867099400,3.703099365234375,0.44256436824798584,-0.15606284141540527,-0.10127175599336624
1775719703877112000,3.713112060546875,0.4082285165786743,-0.14192543923854828,-0.06430841237306595
1775719703887125200,3.723125244140625,0.3554941713809967,-0.14059174060821533,0.01239408552646637
1775719703897138400,3.733138427734375,0.3040504455566406,-0.15283988416194916,0.10424970835447311
1775719703907151000,3.743151123046875,0.23409585654735565,-0.13533759117126465,0.17885097861289978
1775719703917165300,3.753165283203125,0.17461414635181427,-0.13677676022052765,0.20148678123950958
1775719703927178500,3.763178466796875,0.13084723055362701,-0.1519905924797058,0.19555458426475525
1775719703937191200,3.773191162109375,0.11143225431442261,-0.17322105169296265,0.17838598787784576
1775719703947204400,3.783204345703125,0.10681113600730896,-0.15138286352157593,0.16320917010307312
1775719703957217300,3.79321728515625,0.10547316074371338,-0.10325395315885544,0.14275901019573212
1775719703967230200,3.803230224609375,0.0999167412519455,-0.066973976790905,0.11652874201536179
1775719703977244400,3.813244384765625,0.09640776365995407,-0.03750583156943321,0.09934869408607483
1775719703987257300,3.82325732421875,0.08965771645307541,-0.03099679760634899,0.09806877374649048
1775719703997270300,3.833270263671875,0.04841866344213486,-0.05321661755442619,0.11331909894943237
1775719704007283200,3.843283203125,-0.0067809405736625195,-0.10922262817621231,0.15107128024101257
1775719704017296400,3.85329638671875,-0.04234718903899193,-0.155040442943573,0.18354745209217072
1775719704027309000,3.86330908203125,-0.05819273367524147,-0.15698881447315216,0.1909438520669937
1775719704037323300,3.8733232421875,-0.056295230984687805,-0.1397792100906372,0.1592746078968048
1775719704047336400,3.88333642578125,-0.031985364854335785,-0.11646296083927155,0.09922219067811966
1775719704057349000,3.89334912109375,0.015547001734375954,-0.09988132119178772,0.02454928494989872
1775719704067362300,3.9033623046875,0.05920899659395218,-0.07981333881616592,-0.05366642400622368
1775719704077375200,3.913375244140625,0.09512624889612198,-0.05345044285058975,-0.11530981212854385
1775719704087388200,3.92338818359375,0.1356489062309265,-0.04156395420432091,-0.15815554559230804
1775719704097402400,3.93340234375,0.15786074101924896,0.0009366337326355278,-0.17363597452640533
1775719704107415300,3.943415283203125,0.14481417834758759,0.043531764298677444,-0.17062793672084808
1775719704117428200,3.95342822265625,0.11730558425188065,0.016652213409543037,-0.16905000805854797
1775719704127441200,3.963441162109375,0.08816900849342346,-0.05883215740323067,-0.17646345496177673
1775719704137454300,3.973454345703125,0.08965957909822464,-0.11444348841905594,-0.18140548467636108
1775719704147467300,3.98346728515625,0.12052987515926361,-0.1444043219089508,-0.19515644013881683
1775719704157481200,3.993481201171875,0.17547568678855896,-0.1609441488981247,-0.19874319434165955
1775719704167494400,4.003494384765625,0.24266217648983002,-0.16550055146217346,-0.20659232139587402
1775719704177507000,4.013507080078125,0.28665733337402344,-0.16661880910396576,-0.2430131882429123
1775719704187520300,4.023520263671875,0.2906435430049896,-0.13867639005184174,-0.2849249541759491
1775719704197533200,4.033533203125,0.2713976800441742,-0.07223477959632874,-0.33841294050216675
1775719704207547100,4.043547119140625,0.2531220018863678,-0.030293190851807594,-0.4355567991733551
1775719704217560300,4.053560302734375,0.23802721500396729,0.05711068958044052,-0.5506157279014587
1775719704227573200,4.0635732421875,0.24562227725982666,0.1432090848684311,-0.6507383584976196
1775719704237586200,4.073586181640625,0.280524343252182,0.1924767643213272,-0.710788369178772
1775719704247599000,4.08359912109375,0.30866914987564087,0.173829585313797,-0.7020002007484436
1775719704257612300,4.0936123046875,0.315460205078125,0.08837433904409409,-0.5926398634910583
1775719704267626200,4.103626220703125,0.3036765158176422,0.0001781654718797654,-0.3901200592517853
1775719704277639200,4.11363916015625,0.26416826248168945,-0.052980925887823105,-0.18716642260551453
1775719704287652400,4.12365234375,0.21440443396568298,-0.09114908427000046,-0.05161286145448685
1775719704297665000,4.1336650390625,0.17158107459545135,-0.13108904659748077,0.003686880227178335
1775719704307678200,4.14367822265625,0.10954274237155914,-0.1796451210975647,-0.035045869648456573
1775719704317691400,4.15369140625,0.04041773080825806,-0.17320773005485535,-0.17331773042678833
1775719704327705000,4.163705078125,0.011663580313324928,-0.07886338979005814,-0.39966750144958496
1775719704337718300,4.17371826171875,0.03369724377989769,0.09279251843690872,-0.652657687664032
1775719704347731200,4.183731201171875,0.11969790607690811,0.26275092363357544,-0.8411237597465515
1775719704357744000,4.193744140625,0.21720528602600098,0.386997789144516,-0.9100149273872375
1775719704367757300,4.20375732421875,0.3059844374656677,0.33850908279418945,-0.8377580642700195
1775719704377770200,4.213770263671875,0.3400561213493347,0.14900226891040802,-0.6668864488601685
1775719704387784200,4.2237841796875,0.3165241479873657,-0.03148601949214935,-0.42315366864204407
1775719704397797400,4.23379736328125,0.2505517899990082,-0.16992858052253723,-0.1970728486776352
1775719704407810300,4.243810302734375,0.1647000014781952,-0.2518253028392792,-0.08215079456567764
1775719704417823200,4.2538232421875,0.08294015377759933,-0.2663629651069641,-0.09246122092008591
1775719704427836200,4.263836181640625,0.020228305831551552,-0.2084812968969345,-0.2019520252943039
1775719704437850000,4.27385009765625,-0.028477979823946953,-0.09304791688919067,-0.36235636472702026
1775719704447863300,4.28386328125,-0.040585774928331375,0.046661779284477234,-0.5296697020530701
1775719704457876200,4.293876220703125,-0.007465106900781393,0.15006379783153534,-0.6484509706497192
1775719704467889400,4.303889404296875,0.059725914150476456,0.20745785534381866,-0.6449981927871704
1775719704477902000,4.313902099609375,0.10973475128412247,0.1973692625761032,-0.5448369383811951
1775719704487915300,4.323915283203125,0.09855400025844574,0.14030490815639496,-0.4079241156578064
1775719704497929200,4.33392919921875,0.035652004182338715,0.050332944840192795,-0.28444984555244446
1775719704507942100,4.343942138671875,-0.055272575467824936,-0.06965631246566772,-0.1913214921951294
1775719704517955300,4.353955322265625,-0.1679336130619049,-0.13194844126701355,-0.1012997254729271
1775719704527968300,4.36396826171875,-0.2592046558856964,-0.13883617520332336,-0.040526121854782104
1775719704537981200,4.373981201171875,-0.3086252212524414,-0.11145089566707611,-0.03243836760520935
1775719704547994000,4.383994140625,-0.31945788860321045,-0.04929963871836662,-0.07120227068662643
1775719704558008300,4.39400830078125,-0.3063359558582306,-0.022374281659722328,-0.14928269386291504
1775719704568021200,4.404021240234375,-0.26271605491638184,0.02045627310872078,-0.2439170628786087
1775719704578034200,4.4140341796875,-0.19783878326416016,0.09903949499130249,-0.34849193692207336
1775719704588047400,4.42404736328125,-0.09061458706855774,0.1557786762714386,-0.4229469895362854
1775719704598060000,4.43406005859375,0.027486750856041908,0.1865033060312271,-0.40960055589675903
1775719704608073200,4.4440732421875,0.12350089848041534,0.17181037366390228,-0.33879750967025757
1775719704618087200,4.454087158203125,0.20549988746643066,0.12306653708219528,-0.24795573949813843
1775719704628100000,4.46410009765625,0.2703510522842407,0.08850989490747452,-0.16873042285442352
1775719704638113300,4.47411328125,0.2782326936721802,0.0546930730342865,-0.1183660551905632
1775719704648126200,4.484126220703125,0.22715619206428528,0.0002412823960185051,-0.0989215224981308
1775719704658139100,4.49413916015625,0.14702805876731873,-0.030731547623872757,-0.11635404080152512
1775719704668152300,4.50415234375,0.09013548493385315,0.02028716169297695,-0.18181774020195007
1775719704678166300,4.514166259765625,0.07650276273488998,0.10205525904893875,-0.27446964383125305
1775719704688179200,4.52417919921875,0.09982912242412567,0.16398388147354126,-0.31873244047164917
1775719704698192100,4.534192138671875,0.15413923561573029,0.19145731627941132,-0.30212152004241943
1775719704708205300,4.544205322265625,0.20909570157527924,0.19209221005439758,-0.2558206021785736
1775719704718218200,4.55421826171875,0.22540569305419922,0.1747198849916458,-0.19512128829956055
1775719704728231200,4.564231201171875,0.21205313503742218,0.11521127820014954,-0.12857262790203094
1775719704738245400,4.574245361328125,0.16952404379844666,0.0433296300470829,-0.05389172583818436
1775719704748258000,4.584258056640625,0.11807524412870407,-0.023566313087940216,0.01489372830837965
1775719704758271200,4.594271240234375,0.08362112939357758,-0.07312747091054916,0.04553472623229027
1775719704768284400,4.604284423828125,0.06354408711194992,-0.08262350410223007,0.04424522444605827
1775719704778297000,4.614297119140625,0.05668485164642334,-0.03207404538989067,0.020250942558050156
1775719704788311300,4.624311279296875,0.07510380446910858,0.030299581587314606,-0.04788470268249512
1775719704798324200,4.63432421875,0.11212573945522308,0.08380941301584244,-0.14437901973724365
1775719704808337200,4.644337158203125,0.13400733470916748,0.12541677057743073,-0.20828662812709808
1775719704818350300,4.654350341796875,0.1420101374387741,0.13282649219036102,-0.22487598657608032
1775719704828363300,4.66436328125,0.14463122189044952,0.1239914521574974,-0.20620402693748474
1775719704838376200,4.674376220703125,0.12356241792440414,0.11598306149244308,-0.1551019698381424
1775719704848390400,4.684390380859375,0.07310616970062256,0.07288140058517456,-0.0759190022945404
1775719704858403300,4.6944033203125,0.022814501076936722,-0.026858512312173843,0.03304050862789154
1775719704868416300,4.704416259765625,-0.017620805650949478,-0.1382223218679428,0.1396218091249466
1775719704878429200,4.71442919921875,-0.05451224371790886,-0.22296969592571259,0.194547638297081
1775719704888442400,4.7244423828125,-0.07058442384004593,-0.24157480895519257,0.1863033026456833
1775719704898455000,4.734455078125,-0.060022324323654175,-0.20789673924446106,0.12565140426158905
1775719704908469200,4.74446923828125,-0.030519559979438782,-0.15485109388828278,0.028252942487597466
1775719704918482200,4.754482177734375,0.02648567035794258,-0.09513956308364868,-0.05968303605914116
1775719704928495000,4.7644951171875,0.07869427651166916,-0.031187480315566063,-0.12114746123552322
1775719704938508300,4.77450830078125,0.10710408538579941,0.00086872314568609,-0.1614016741514206
1775719704948521200,4.784521240234375,0.11219524592161179,0.016264457255601883,-0.1774810403585434
1775719704958534100,4.7945341796875,0.09733720868825912,0.022591061890125275,-0.155000239610672
1775719704968548400,4.80454833984375,0.06532707810401917,-0.0024205471854656935,-0.10177083313465118
1775719704978561300,4.814561279296875,0.02550376206636429,-0.048234108835458755,-0.04585377499461174
1775719704988574200,4.82457421875,-0.01673583686351776,-0.08973494917154312,0.007851531729102135
1775719704998587100,4.834587158203125,-0.05067649483680725,-0.10626092553138733,0.05368080362677574
1775719705008600300,4.844600341796875,-0.055697884410619736,-0.09962645918130875,0.0960511639714241
1775719705018613200,4.85461328125,-0.03719929978251457,-0.07434027642011642,0.12621758878231049
1775719705028627200,4.864627197265625,-0.007188138086348772,-0.06047346442937851,0.1275760680437088
1775719705038640400,4.874640380859375,0.011424428783357143,-0.044378116726875305,0.10501856356859207
1775719705048653000,4.884653076171875,0.012352540157735348,-0.021758025512099266,0.07043661922216415
1775719705058666200,4.894666259765625,-0.0013004215434193611,-0.002079928759485483,0.03195686638355255
1775719705068679400,4.904679443359375,-0.014456703327596188,0.006738330237567425,0.01483247522264719
1775719705078692000,4.914692138671875,-0.030965639278292656,0.009892844595015049,0.028751220554113388
1775719705088706300,4.924706298828125,-0.05053428187966347,-0.015691878274083138,0.05590081587433815
1775719705098719200,4.93471923828125,-0.06594599038362503,-0.054788678884506226,0.08663316071033478
1775719705108732200,4.944732177734375,-0.07067017257213593,-0.07146752625703812,0.10572536289691925
1775719705118745300,4.954745361328125,-0.07603005319833755,-0.08867527544498444,0.10468300431966782
1775719705128758300,4.96475830078125,-0.07454587519168854,-0.09731030464172363,0.0896739587187767
1775719705138771200,4.974771240234375,-0.0650559663772583,-0.10784177482128143,0.06410787999629974
1775719705148785200,4.98478515625,-0.040833983570337296,-0.1090678945183754,0.022188926115632057
1775719705158798300,4.99479833984375,-0.012733371928334236,-0.09845706820487976,-0.027758926153182983
1775719705168811300,5.004811279296875,0.01913214847445488,-0.050036270171403885,-0.0640048161149025
1775719705178824200,5.01482421875,0.052738044410943985,-0.014635401777923107,-0.09447856992483139
1775719705188837400,5.02483740234375,0.08614127337932587,0.0018194715958088636,-0.11045673489570618
1775719705198851000,5.03485107421875,0.09230463206768036,0.011195928789675236,-0.10305314511060715
1775719705208864300,5.0448642578125,0.07303266227245331,0.018510034307837486,-0.07716349512338638
1775719705218877400,5.05487744140625,0.04891907423734665,-0.0002234392159152776,-0.035537488758563995
1775719705228890000,5.06489013671875,0.04518532007932663,-0.042274486273527145,0.02406885102391243
1775719705238903300,5.0749033203125,0.06197362393140793,-0.08765022456645966,0.0768231451511383
1775719705248916200,5.084916259765625,0.0935099795460701,-0.09731962531805038,0.0980948731303215
1775719705258930200,5.09493017578125,0.10941197723150253,-0.0880209356546402,0.09390199184417725
1775719705268943400,5.104943359375,0.12614621222019196,-0.07295916229486465,0.0885932520031929
1775719705278956300,5.114956298828125,0.14831383526325226,-0.04947008192539215,0.08617722988128662
1775719705288969200,5.12496923828125,0.16914668679237366,-0.017291905358433723,0.06491082161664963
1775719705298982100,5.134982177734375,0.18317115306854248,0.03579021990299225,0.026032665744423866
1775719705308995300,5.144995361328125,0.18909534811973572,0.07551366835832596,-0.03202211484313011
1775719705319009300,5.15500927734375,0.18315757811069489,0.10109998285770416,-0.0812021791934967
1775719705329022200,5.165022216796875,0.14929893612861633,0.09326229989528656,-0.10260280966758728
1775719705339035400,5.175035400390625,0.10628010332584381,0.06808184832334518,-0.0925309956073761
1775719705349048000,5.185048095703125,0.07717494666576385,0.06060449033975601,-0.07118549942970276
1775719705359061200,5.195061279296875,0.061170145869255066,0.056490708142519,-0.05692107230424881
1775719705369074400,5.205074462890625,0.04857872053980827,0.06102287396788597,-0.0385814793407917
1775719705379088100,5.215088134765625,0.04072266072034836,0.06548579782247543,-0.010616425424814224
1775719705389101300,5.225101318359375,0.03651806339621544,0.058567970991134644,0.013703295029699802
1775719705399114200,5.2351142578125,0.029378928244113922,0.05090845376253128,0.035284753888845444
1775719705409127200,5.245127197265625,0.0222693532705307,0.05248744413256645,0.040114130824804306
1775719705419140400,5.255140380859375,0.0067995828576385975,0.07091598212718964,0.022715698927640915
1775719705429153300,5.2651533203125,-0.002216282533481717,0.1102125272154808,-0.008735966868698597
1775719705439167200,5.275167236328125,-0.004984372295439243,0.16514767706394196,-0.05144055560231209
1775719705449180200,5.28518017578125,0.005995041690766811,0.21291813254356384,-0.10017853230237961
1775719705459193300,5.295193359375,0.02442171983420849,0.2491999715566635,-0.13906840980052948
1775719705469206300,5.305206298828125,0.03466476872563362,0.2447381168603897,-0.163629412651062
1775719705479219200,5.31521923828125,0.013704360462725163,0.20395073294639587,-0.15597468614578247
1775719705489232400,5.325232421875,-0.02803429774940014,0.1618829071521759,-0.10295434296131134
1775719705499246000,5.33524609375,-0.07595735043287277,0.1515389233827591,-0.019083412364125252
1775719705509259300,5.34525927734375,-0.11623553186655045,0.1542723923921585,0.07338526844978333
1775719705519272400,5.3552724609375,-0.14932504296302795,0.14115312695503235,0.16513435542583466
1775719705529285000,5.36528515625,-0.1768653243780136,0.12404205650091171,0.2508828341960907
1775719705539298300,5.37529833984375,-0.1830153614282608,0.09232540428638458,0.3140127956867218
1775719705549311200,5.385311279296875,-0.1759451925754547,0.11390899121761322,0.36693406105041504
1775719705559325200,5.3953251953125,-0.1776866465806961,0.15647003054618835,0.3760332763195038
1775719705569338400,5.40533837890625,-0.18413281440734863,0.18555627763271332,0.34750896692276
1775719705579351300,5.415351318359375,-0.17961476743221283,0.21191145479679108,0.30608880519866943
1775719705589364200,5.4253642578125,-0.17895697057247162,0.2531276047229767,0.2535632848739624
1775719705599377200,5.435377197265625,-0.18440765142440796,0.32029464840888977,0.19867926836013794
1775719705609390300,5.445390380859375,-0.1934158056974411,0.3931499421596527,0.15259113907814026
1775719705619404300,5.455404296875,-0.197757288813591,0.4508878290653229,0.1225738525390625
1775719705629417200,5.465417236328125,-0.1920594573020935,0.46997150778770447,0.10612403601408005
1775719705639430400,5.475430419921875,-0.1848609298467636,0.45301327109336853,0.1301095336675644
1775719705649443000,5.485443115234375,-0.1773896962404251,0.4492957890033722,0.1898500919342041
1775719705659456300,5.495456298828125,-0.17830076813697815,0.448193222284317,0.23857076466083527
1775719705669469200,5.50546923828125,-0.19426988065242767,0.4237408936023712,0.2609274685382843
1775719705679483100,5.515483154296875,-0.23396669328212738,0.4047059416770935,0.26401832699775696
1775719705689496300,5.525496337890625,-0.2850514352321625,0.4064561724662781,0.2574315369129181
1775719705699509200,5.53550927734375,-0.3249993920326233,0.3963872790336609,0.24671684205532074
1775719705709522200,5.545522216796875,-0.35599032044410706,0.3875192403793335,0.23651745915412903
1775719705719535000,5.55553515625,-0.38274872303009033,0.3770112097263336,0.23876143991947174
1775719705729548300,5.56554833984375,-0.402280330657959,0.3551975190639496,0.25243037939071655
1775719705739562200,5.575562255859375,-0.40984636545181274,0.31843921542167664,0.26752811670303345
1775719705749575200,5.5855751953125,-0.3986256718635559,0.2940356135368347,0.30072253942489624
1775719705759588400,5.59558837890625,-0.3485739529132843,0.2740967869758606,0.34923550486564636
1775719705769601300,5.605601318359375,-0.2960050404071808,0.24990756809711456,0.403435617685318
1775719705779614200,5.6156142578125,-0.26945117115974426,0.19060589373111725,0.4588325619697571
1775719705789627400,5.62562744140625,-0.237563818693161,0.12651319801807404,0.51667720079422
1775719705799641000,5.63564111328125,-0.17409083247184753,0.08602356165647507,0.5557276606559753
1775719705809654300,5.645654296875,-0.11505255103111267,0.07435918599367142,0.544460117816925
1775719705819667500,5.65566748046875,-0.09665330499410629,0.054667238146066666,0.47752660512924194
1775719705829680000,5.66568017578125,-0.11997780203819275,0.07525214552879333,0.38856053352355957
1775719705839693300,5.675693359375,-0.1623620092868805,0.1556636244058609,0.31823018193244934
1775719705849706200,5.685706298828125,-0.2175901085138321,0.2729111611843109,0.27460041642189026
1775719705859720200,5.69572021484375,-0.28106069564819336,0.3418755829334259,0.25104501843452454
1775719705869733400,5.7057333984375,-0.35093432664871216,0.3545897901058197,0.24976615607738495
1775719705879746300,5.715746337890625,-0.41925665736198425,0.31692177057266235,0.29385584592819214
1775719705889759200,5.72575927734375,-0.47309350967407227,0.24303288757801056,0.3644067347049713
1775719705899772200,5.735772216796875,-0.5166143774986267,0.1483798772096634,0.43788519501686096
1775719705909785300,5.745785400390625,-0.5558704137802124,0.10280494391918182,0.4874436855316162
1775719705919799300,5.75579931640625,-0.5964833498001099,0.09898543357849121,0.4986518621444702
1775719705929812200,5.765812255859375,-0.6235170960426331,0.09797157347202301,0.4894711673259735
1775719705939825400,5.775825439453125,-0.6396827697753906,0.1050044447183609,0.4906434714794159
1775719705949838000,5.785838134765625,-0.6774927377700806,0.09894069284200668,0.4936525821685791
1775719705959851300,5.795851318359375,-0.7020651698112488,0.08269434422254562,0.47718706727027893
1775719705969864200,5.8058642578125,-0.6729488372802734,0.09776411205530167,0.43899014592170715
1775719705979878100,5.815878173828125,-0.6111462116241455,0.14374224841594696,0.3813508152961731
1775719705989891300,5.825891357421875,-0.5529734492301941,0.17122581601142883,0.3162437081336975
1775719705999904300,5.835904296875,-0.4930885434150696,0.15248754620552063,0.29857656359672546
1775719706009917200,5.845917236328125,-0.43341562151908875,0.10150665044784546,0.33298274874687195
1775719706019930000,5.85593017578125,-0.37909379601478577,0.03068733960390091,0.38258785009384155
1775719706029943300,5.865943359375,-0.29499807953834534,-0.03513481840491295,0.4280879497528076
1775719706039957200,5.875957275390625,-0.17443838715553284,-0.035720713436603546,0.4471580684185028
1775719706049970200,5.88597021484375,-0.04285958409309387,-0.019523367285728455,0.39200931787490845
1775719706059983400,5.8959833984375,0.0594063363969326,0.018849054351449013,0.28260505199432373
1775719706069996000,5.90599609375,0.13321930170059204,0.09234511107206345,0.1554846614599228
1775719706080009200,5.91600927734375,0.17400401830673218,0.17487700283527374,0.054723434150218964
1775719706090022400,5.9260224609375,0.1775721162557602,0.2337869256734848,0.004169711377471685
1775719706100036000,5.9360361328125,0.15337038040161133,0.2398301661014557,0.01780323125422001
1775719706110049300,5.94604931640625,0.12894386053085327,0.19305680692195892,0.10679089277982712
1775719706120062200,5.956062255859375,0.108966164290905,0.12538908421993256,0.24455781280994415
1775719706130075100,5.9660751953125,0.09947226196527481,0.036497823894023895,0.36292174458503723
1775719706140088300,5.97608837890625,0.09775186330080032,-0.057971157133579254,0.4285486936569214
1775719706150101200,5.986101318359375,0.10760103166103363,-0.12116264551877975,0.435674786567688
1775719706160115200,5.996115234375,0.11617720872163773,-0.13729873299598694,0.38523024320602417
1775719706170128400,6.00612841796875,0.13761645555496216,-0.09721975773572922,0.2927013635635376
1775719706180141300,6.016141357421875,0.18050320446491241,-0.017903367057442665,0.17674760520458221
1775719706190154200,6.026154296875,0.24611416459083557,0.05759831517934799,0.05760097876191139
1775719706200167400,6.03616748046875,0.28907015919685364,0.14202824234962463,-0.02960369922220707
1775719706210180600,6.0461806640625,0.2930918037891388,0.18422123789787292,-0.08706246316432953
1775719706220194600,6.056194580078125,0.27150046825408936,0.16749924421310425,-0.10395435988903046
1775719706230207500,6.06620751953125,0.2492268681526184,0.11123277992010117,-0.07415145635604858
1775719706240220700,6.076220703125,0.21777945756912231,0.059474244713783264,-0.021822741255164146
1775719706250233300,6.0862333984375,0.16891790926456451,0.01275760680437088,0.02076333574950695
1775719706260246500,6.09624658203125,0.10977150499820709,-0.021528994664549828,0.05101098492741585
1775719706270259500,6.106259521484375,0.052807021886110306,-0.05799273028969765,0.06466687470674515
1775719706280273400,6.1162734375,0.012689962051808834,-0.11917832493782043,0.042277149856090546
1775719706290286600,6.12628662109375,-0.002978213131427765,-0.1850777119398117,-0.027764253318309784
1775719706300299500,6.136299560546875,0.02371544949710369,-0.22216862440109253,-0.14697159826755524
1775719706310312400,6.1463125,0.07037962228059769,-0.2411830574274063,-0.3115685284137726
1775719706320325400,6.156325439453125,0.13891340792179108,-0.21182729303836823,-0.48217329382896423
1775719706330339300,6.16633935546875,0.24197454750537872,-0.08419876545667648,-0.6520033478736877
1775719706340352500,6.1763525390625,0.3521668314933777,0.04326997697353363,-0.8067732453346252
1775719706350365400,6.186365478515625,0.43594828248023987,0.18165528774261475,-0.8994943499565125
1775719706360378600,6.196378662109375,0.485590398311615,0.2747761607170105,-0.9395642876625061
1775719706370391300,6.206391357421875,0.47614815831184387,0.2609277367591858,-0.9232929348945618
1775719706380404500,6.216404541015625,0.39294567704200745,0.20327535271644592,-0.8462633490562439
1775719706390417700,6.226417724609375,0.25667494535446167,0.048716139048337936,-0.7440725564956665
1775719706400431400,6.236431396484375,0.08408425003290176,-0.1135939359664917,-0.6258503198623657
1775719706410444500,6.246444580078125,-0.041123468428850174,-0.22429995238780975,-0.5000830888748169
1775719706420457500,6.25645751953125,-0.09627726674079895,-0.2387704998254776,-0.3967372179031372
1775719706430470400,6.266470458984375,-0.10862021893262863,-0.1792754828929901,-0.3264918327331543
1775719706440483600,6.276483642578125,-0.08670107275247574,-0.09280770272016525,-0.2523728609085083
1775719706450496500,6.28649658203125,-0.008281898684799671,-0.03874233737587929,-0.17601923644542694
1775719706460510500,6.296510498046875,0.08047007769346237,-0.009939716197550297,-0.09631135314702988
1775719706470523600,6.306523681640625,0.16589495539665222,0.020074374973773956,-0.04308435320854187
1775719706480536600,6.31653662109375,0.2425047904253006,0.028142688795924187,-0.006579872220754623
1775719706490549500,6.326549560546875,0.26899656653404236,0.05356868728995323,0.05772614851593971
1775719706500562400,6.3365625,0.2496362030506134,0.04470755159854889,0.1138290986418724
1775719706510575600,6.34657568359375,0.21395862102508545,-0.01429531630128622,0.1441880613565445
1775719706520589600,6.356589599609375,0.18168696761131287,-0.0992078110575676,0.16609762609004974
1775719706530602500,6.3666025390625,0.15226995944976807,-0.1402503103017807,0.18231788277626038
1775719706540615700,6.37661572265625,0.1018480658531189,-0.16022323071956635,0.15572887659072876
1775719706550628400,6.38662841796875,0.08109378814697266,-0.1538769155740738,0.11953359097242355
1775719706560641500,6.3966416015625,0.10909399390220642,-0.10660367459058762,0.0880528911948204
1775719706570654500,6.406654541015625,0.16124029457569122,-0.054480817168951035,0.07168244570493698
1775719706580668400,6.41666845703125,0.21412400901317596,-0.019958794116973877,0.07274078577756882
1775719706590681600,6.426681640625,0.26671797037124634,-0.0019361181184649467,0.0730222761631012
1775719706600694500,6.436694580078125,0.31256401538848877,-0.01363138947635889,0.08470769971609116
1775719706610707500,6.44670751953125,0.3150719404220581,-0.056469134986400604,0.10999654233455658
1775719706620720400,6.456720458984375,0.26185449957847595,-0.11528318375349045,0.16989129781723022
1775719706630733600,6.466733642578125,0.19822733104228973,-0.1540345698595047,0.2699774205684662
1775719706640747500,6.47674755859375,0.1332360804080963,-0.20747169852256775,0.3698699176311493
1775719706650760400,6.486760498046875,0.05983217433094978,-0.25362640619277954,0.4540114402770996
1775719706660773600,6.496773681640625,0.02442970871925354,-0.3113890290260315,0.5189973711967468
1775719706670786300,6.506786376953125,0.030705714598298073,-0.32667770981788635,0.5504695177078247
1775719706680799500,6.516799560546875,0.05786542966961861,-0.29834115505218506,0.5378709435462952
1775719706690812700,6.526812744140625,0.10054152458906174,-0.270175039768219,0.48038819432258606
1775719706700826400,6.536826416015625,0.15094023942947388,-0.23513928055763245,0.3765701651573181
1775719706710839600,6.546839599609375,0.20434434711933136,-0.182012140750885,0.23739977180957794
1775719706720852500,6.5568525390625,0.2662825584411621,-0.09753934293985367,0.10585799068212509
1775719706730865400,6.566865478515625,0.31909969449043274,0.00019387812062632293,-0.00818176381289959
1775719706740878600,6.576878662109375,0.34450703859329224,0.005946306046098471,-0.08038192242383957
1775719706750891500,6.5868916015625,0.3352661430835724,-0.027691015973687172,-0.08310234546661377
1775719706760905500,6.596905517578125,0.2909247875213623,-0.09062550961971283,-0.05313751846551895
1775719706770918400,6.60691845703125,0.23577576875686646,-0.17230172455310822,-0.005270129535347223
1775719706780931600,6.616931640625,0.21347525715827942,-0.2483333796262741,0.06438910961151123
1775719706790944500,6.626944580078125,0.21529580652713776,-0.3055889308452606,0.12139113992452621
1775719706800957400,6.63695751953125,0.21963968873023987,-0.3309917747974396,0.14700356125831604
1775719706810970600,6.646970703125,0.21600845456123352,-0.3334922194480896,0.1299593299627304
1775719706820984300,6.656984375,0.2042412906885147,-0.2945195138454437,0.06672470271587372
1775719706830997500,6.66699755859375,0.180461123585701,-0.25127270817756653,-0.01739736646413803
1775719706841010700,6.6770107421875,0.1607859581708908,-0.17359896004199982,-0.0996168702840805
1775719706851023400,6.6870234375,0.16818927228450775,-0.09424634277820587,-0.14436782896518707
1775719706861036500,6.69703662109375,0.18747934699058533,-0.042634014040231705,-0.10983408987522125
1775719706871049500,6.707049560546875,0.19685927033424377,-0.062013834714889526,-0.02177666872739792
1775719706881063400,6.7170634765625,0.17183993756771088,-0.12978889048099518,0.10053885728120804
1775719706891076600,6.72707666015625,0.12053999304771423,-0.19396202266216278,0.22192440927028656
1775719706901089500,6.737089599609375,0.051965728402137756,-0.26494884490966797,0.30071988701820374
1775719706911102500,6.7471025390625,-0.026321884244680405,-0.31474968791007996,0.31565383076667786
1775719706921115400,6.757115478515625,-0.07795258611440659,-0.33482351899147034,0.24660365283489227
1775719706931128600,6.767128662109375,-0.06558859348297119,-0.27707207202911377,0.11923398077487946
1775719706941142500,6.777142578125,-0.019351860508322716,-0.17807093262672424,-0.042456381022930145
1775719706951155500,6.787155517578125,0.05824572965502739,-0.08942069113254547,-0.17808425426483154
1775719706961168600,6.797168701171875,0.1480477899312973,-0.04084676504135132,-0.24884550273418427
1775719706971181300,6.807181396484375,0.2107982486486435,-0.03616572916507721,-0.2670860290527344
1775719706981194500,6.817194580078125,0.21889346837997437,-0.07115886360406876,-0.24118758738040924
1775719706991207400,6.82720751953125,0.20712947845458984,-0.17559392750263214,-0.1869610995054245
1775719707001221400,6.837221435546875,0.18870973587036133,-0.28681790828704834,-0.11228553205728531
1775719707011234600,6.847234619140625,0.16446137428283691,-0.385726660490036,-0.06070462614297867
1775719707021247500,6.85724755859375,0.1337764412164688,-0.4416772723197937,-0.05792961269617081
1775719707031260400,6.867260498046875,0.09625649452209473,-0.4232543110847473,-0.1064193844795227
1775719707041273600,6.877273681640625,0.06704428046941757,-0.323939710855484,-0.2114800214767456
1775719707051286500,6.88728662109375,0.07067763060331345,-0.1831120252609253,-0.37478959560394287
1775719707061299500,6.897299560546875,0.10803645849227905,-0.018626680597662926,-0.5737473964691162
1775719707071313400,6.9073134765625,0.15892334282398224,0.11610503494739532,-0.7655988931655884
1775719707081326600,6.91732666015625,0.2120579332113266,0.16767661273479462,-0.8493006825447083
1775719707091339500,6.927339599609375,0.24304167926311493,0.1272205412387848,-0.7974103689193726
1775719707101352400,6.9373525390625,0.24601882696151733,0.02623293548822403,-0.6655542850494385
1775719707111365600,6.94736572265625,0.22571249306201935,-0.07460685819387436,-0.5082919597625732
1775719707121378300,6.95737841796875,0.19472873210906982,-0.15579065680503845,-0.3759438097476959
1775719707131392500,6.967392578125,0.15959632396697998,-0.19214759767055511,-0.29521405696868896
1775719707141405700,6.97740576171875,0.13409201800823212,-0.18038202822208405,-0.28440988063812256
1775719707151418400,6.98741845703125,0.12435843795537949,-0.14598409831523895,-0.3488594591617584
1775719707161431600,6.997431640625,0.15011386573314667,-0.07773953676223755,-0.46687743067741394
1775719707171444500,7.007444580078125,0.18698187172412872,0.014757640659809113,-0.5820226669311523
1775719707181457400,7.01745751953125,0.2316707819700241,0.09227053821086884,-0.6100590825080872
1775719707191471600,7.0274716796875,0.2962396442890167,0.13015320897102356,-0.5250259637832642
1775719707201484300,7.037484375,0.35176682472229004,0.12013546377420425,-0.37965890765190125
1775719707211497200,7.047497314453125,0.38206613063812256,0.08655539900064468,-0.22513458132743835
1775719707221510100,7.05751025390625,0.3738452196121216,0.04833237826824188,-0.09459814429283142
1775719707231523300,7.0675234375,0.3471132218837738,0.037155091762542725,-0.005378253757953644
1775719707241536300,7.077536376953125,0.2985307574272156,0.06739448755979538,0.02142566256225109
1775719707251550200,7.08755029296875,0.23189447820186615,0.11579637229442596,-0.0365859754383564
1775719707261563400,7.0975634765625,0.1605132520198822,0.17115390300750732,-0.185712069272995
1775719707271576000,7.107576171875,0.10725774616003036,0.25442376732826233,-0.38665395975112915
1775719707281589200,7.11758935546875,0.09475526958703995,0.37006035447120667,-0.5690972805023193
1775719707291602400,7.1276025390625,0.11857085675001144,0.4812372028827667,-0.6791905164718628
1775719707301615400,7.137615478515625,0.16747474670410156,0.5327725410461426,-0.69517982006073
1775719707311629300,7.14762939453125,0.234014630317688,0.5309352278709412,-0.5785467028617859
1775719707321642200,7.157642333984375,0.2963395118713379,0.4758608043193817,-0.3644927442073822
1775719707331655200,7.1676552734375,0.32444465160369873,0.3784027099609375,-0.12228383123874664
1775719707341668400,7.17766845703125,0.27965959906578064,0.24787478148937225,0.07969722896814346
1775719707351681300,7.187681396484375,0.1739150732755661,0.11318115144968033,0.21846096217632294
1775719707361694200,7.197694091796875,0.04789029434323311,0.007420632056891918,0.293934166431427
1775719707371708200,7.207708251953125,-0.0708526000380516,-0.0461115688085556,0.28634387254714966
1775719707381721300,7.217721435546875,-0.1519429236650467,-0.045223403722047806,0.19423659145832062
1775719707391734300,7.227734375,-0.1630677431821823,0.005675196181982756,0.030404778197407722
1775719707401747200,7.237747314453125,-0.1092897355556488,0.11361657828092575,-0.16471917927265167
1775719707411760400,7.247760498046875,-0.026751719415187836,0.2172851860523224,-0.34319278597831726
1775719707421773300,7.257773193359375,0.04799735173583031,0.3110255300998688,-0.4293561577796936
1775719707431786200,7.2677861328125,0.11903264373540878,0.37658241391181946,-0.4063293933868408
1775719707441800400,7.277800537109375,0.15323109924793243,0.3910534977912903,-0.31552067399024963
1775719707451813000,7.287813232421875,0.12411902099847794,0.32011809945106506,-0.2009538859128952
1775719707461826300,7.297826416015625,0.040702953934669495,0.19648003578186035,-0.08191164582967758
1775719707471839200,7.307839111328125,-0.059550944715738297,0.07730996608734131,0.019304456189274788
1775719707481852400,7.317852294921875,-0.14490872621536255,-0.017522800713777542,0.06498539447784424
1775719707491865000,7.327864990234375,-0.1882902830839157,-0.06850582361221313,0.07388008385896683
1775719707501879300,7.33787939453125,-0.1922629177570343,-0.07910040766000748,0.060814082622528076
1775719707511892200,7.347892333984375,-0.1742950975894928,-0.058517105877399445,0.030769631266593933
1775719707521905200,7.3579052734375,-0.12951351702213287,-0.018562765792012215,-0.01782027631998062
1775719707531918300,7.36791845703125,-0.06286151707172394,0.013885455206036568,-0.06752578169107437
1775719707541931300,7.37793115234375,0.012120844796299934,0.06710366904735565,-0.09707514941692352
1775719707551944200,7.387944091796875,0.07906658947467804,0.12826289236545563,-0.1137944757938385
1775719707561958400,7.39795849609375,0.12664689123630524,0.19474178552627563,-0.13580043613910675
1775719707571971000,7.40797119140625,0.15059669315814972,0.22842492163181305,-0.14666400849819183
1775719707581984300,7.417984375,0.13541269302368164,0.24076999723911285,-0.12407214939594269
1775719707591997400,7.42799755859375,0.11804195493459702,0.21407820284366608,-0.06524345278739929
1775719707602010400,7.43801025390625,0.12642185389995575,0.15119005739688873,0.0070832096971571445
1775719707612023300,7.448023193359375,0.12822002172470093,0.06675293296575546,0.06729568541049957
1775719707622037200,7.458037353515625,0.11421738564968109,-0.007822236977517605,0.11804141849279404
1775719707632050200,7.46805029296875,0.10290347784757614,-0.042983684688806534,0.1546550840139389
1775719707642063400,7.4780634765625,0.10382972657680511,-0.04309367388486862,0.15449689328670502
1775719707652076300,7.488076171875,0.1119941771030426,-0.011531753465533257,0.12437468022108078
1775719707662089500,7.49808935546875,0.12860378623008728,0.05916878208518028,0.06866028904914856
1775719707672102100,7.50810205078125,0.15405668318271637,0.15450409054756165,0.005650694947689772
1775719707682116400,7.518116455078125,0.18172159790992737,0.21702472865581512,-0.049185123294591904
1775719707692129300,7.52812939453125,0.20973245799541473,0.24123099446296692,-0.09907624870538712
1775719707702142200,7.53814208984375,0.21799837052822113,0.23149527609348297,-0.14902250468730927
1775719707712155400,7.5481552734375,0.20448122918605804,0.19451569020748138,-0.18273839354515076
1775719707722168300,7.558168212890625,0.18393094837665558,0.16914081573486328,-0.18623672425746918
1775719707732181200,7.56818115234375,0.1625409722328186,0.1521272212266922,-0.17547941207885742
1775719707742194200,7.578194091796875,0.13464783132076263,0.14945420622825623,-0.16369332373142242
1775719707752208100,7.5882080078125,0.11054115742444992,0.1337551325559616,-0.14883208274841309
1775719707762221300,7.59822119140625,0.0946173220872879,0.11112971603870392,-0.13728594779968262
1775719707772234200,7.608234130859375,0.08607017248868942,0.09494595229625702,-0.12610892951488495
1775719707782247400,7.618247314453125,0.08475323766469955,0.09678726643323898,-0.1141260415315628
1775719707792260000,7.628260009765625,0.0586707703769207,0.13152900338172913,-0.10279002785682678
1775719707802273300,7.638273193359375,0.03401469066739082,0.129879429936409,-0.09590469300746918
1775719707812287200,7.648287353515625,0.01828739419579506,0.12795397639274597,-0.08450902253389359
1775719707822300200,7.658300048828125,0.010494719259440899,0.11177313327789307,-0.07024673372507095
1775719707832313300,7.668313232421875,-0.023208916187286377,0.11928431689739227,-0.05257053300738335
1775719707842326300,7.678326171875,-0.06125243753194809,0.11011265218257904,-0.051475442945957184
1775719707852339200,7.688339111328125,-0.07952065765857697,0.10657757520675659,-0.039985232055187225
1775719707862352400,7.698352294921875,-0.08965132385492325,0.1236250028014183,-0.012116850353777409
1775719707872366000,7.708365966796875,-0.08844704180955887,0.12150485813617706,0.005060538649559021
1775719707882379300,7.718379150390625,-0.09431637823581696,0.12380529940128326,0.009753827005624771
1775719707892392200,7.72839208984375,-0.1118980422616005,0.13856826722621918,0.011894210241734982
1775719707902405400,7.7384052734375,-0.11900415271520615,0.14550979435443878,0.01774703897535801
1775719707912418300,7.748418212890625,-0.111841581761837,0.12612704932689667,0.027723506093025208
1775719707922431200,7.75843115234375,-0.09326816350221634,0.11762090772390366,0.04676510766148567
1775719707932444400,7.7684443359375,-0.08474897593259811,0.10806628316640854,0.06340986490249634
1775719707942458000,7.7784580078125,-0.08607230335474014,0.10332239419221878,0.09400692582130432
1775719707952471300,7.78847119140625,-0.09105347841978073,0.0854848101735115,0.1276082992553711
1775719707962484500,7.798484375,-0.08132628351449966,0.05293884873390198,0.16156838834285736
1775719707972497200,7.8084970703125,-0.06648554652929306,0.06572548300027847,0.17144259810447693
1775719707982510300,7.81851025390625,-0.06778011471033096,0.08582888543605804,0.1559792160987854
1775719707992523300,7.828523193359375,-0.07040119916200638,0.11323095113039017,0.1524164378643036
1775719708002537200,7.838537109375,-0.057186588644981384,0.11556867510080338,0.15994492173194885
1775719708012550400,7.84855029296875,-0.020351344719529152,0.0995660051703453,0.15561994910240173
1775719708022563300,7.858563232421875,-0.003686081152409315,0.09281808882951736,0.1451806277036667
1775719708032576300,7.868576171875,-0.00011185276525793597,0.09233445674180984,0.14215873181819916
1775719708042589200,7.878589111328125,-0.0017566210590302944,0.09772656112909317,0.15020893514156342
1775719708052602400,7.888602294921875,-0.001279382617212832,0.09350678324699402,0.1715291440486908
1775719708062616300,7.8986162109375,0.004850681405514479,0.08282218128442764,0.1818227916955948
1775719708072629200,7.908629150390625,-0.0012570120161399245,0.08099231868982315,0.17670206725597382
1775719708082642400,7.918642333984375,-0.008280034177005291,0.08229167759418488,0.17158427834510803
1775719708092655000,7.928655029296875,-0.008950884453952312,0.08271511644124985,0.16892696917057037
1775719708102668300,7.938668212890625,-0.004868524614721537,0.07500793039798737,0.16193243861198425
1775719708112681200,7.94868115234375,-0.006286125164479017,0.06754841655492783,0.14108975231647491
1775719708122694100,7.958694091796875,-0.009817210957407951,0.038658447563648224,0.12620534002780914
1775719708132708400,7.968708251953125,-0.009704026393592358,0.017110809683799744,0.13543212413787842
1775719708142721300,7.97872119140625,-0.0035206989850848913,-0.011240137740969658,0.1496472805738449
1775719708152734200,7.988734130859375,0.0037294907961040735,-0.02370985597372055,0.15501540899276733
1775719708162747400,7.998747314453125,-0.01558002457022667,-0.005677592940628529,0.137294739484787
1775719708172760300,8.00876025390625,-0.04622049257159233,0.005200620740652084,0.09609377384185791
1775719708182773200,8.018773193359374,-0.06499897688627243,0.0172658059746027,0.0547466017305851
1775719708192787200,8.028787109375,-0.07537704706192017,0.021945778280496597,0.021330589428544044
1775719708202800600,8.038800537109376,-0.07949642091989517,0.016107862815260887,-0.011927233077585697
1775719708212813300,8.048813232421875,-0.06834044307470322,0.01793798804283142,-0.03947976604104042
1775719708222826500,8.058826416015625,-0.04644925892353058,0.027779966592788696,-0.052085570991039276
1775719708232839700,8.068839599609374,-0.024994032457470894,0.02533944509923458,-0.039738357067108154
1775719708242852400,8.078852294921875,-0.0073476615361869335,0.021144965663552284,-0.009215336292982101
1775719708252866600,8.088866455078126,0.004259992390871048,0.006381999235600233,0.012497149407863617
1775719708262879500,8.09887939453125,0.009503490291535854,-0.001663410454057157,0.03272705525159836
1775719708272892400,8.108892333984375,0.00227939966134727,0.00205276464112103,0.046486008912324905
1775719708282905600,8.118905517578124,-0.012122975662350655,-0.010790862143039703,0.0505707673728466
1775719708292918500,8.12891845703125,-0.023443806916475296,-0.02431892231106758,0.052988916635513306
1775719708302931500,8.138931396484375,-0.019520703703165054,-0.025726934894919395,0.04803889989852905
1775719708312944400,8.1489443359375,-0.001659948262386024,-0.03255261853337288,0.03711408004164696
1775719708322958600,8.15895849609375,0.014307566918432713,-0.02761911042034626,0.028917668387293816
1775719708332971500,8.168971435546876,0.029705164954066277,-0.011410846374928951,0.0305163636803627
1775719708342984400,8.178984375,0.04987328499555588,-0.004659200087189674,0.024622788652777672
1775719708352997600,8.18899755859375,0.06853938102722168,0.004917527083307505,0.012083561159670353
1775719708363010300,8.19901025390625,0.07448648661375046,0.02022564224898815,0.005470665637403727
1775719708373023500,8.2090234375,0.07518769800662994,0.025798840448260307,0.008706672117114067
1775719708383037400,8.219037353515626,0.07345850765705109,0.01828419789671898,0.014080931432545185
1775719708393050400,8.22905029296875,0.06821500509977341,0.010268083773553371,0.018426410853862762
1775719708403063600,8.2390634765625,0.06605038791894913,0.0020671456586569548,0.018327608704566956
1775719708413076500,8.249076416015624,0.06870263069868088,0.006164152640849352,0.02197214402258396
1775719708423089400,8.25908935546875,0.07462204247713089,-0.0001573928166180849,0.026280073449015617
1775719708433102300,8.269102294921876,0.08111562579870224,0.0016170714516192675,0.034328147768974304
1775719708443115500,8.279115478515624,0.08536629378795624,0.003034405643120408,0.03381149470806122
1775719708453129500,8.28912939453125,0.09208518266677856,0.0033044503070414066,0.027885694056749344
1775719708463142400,8.299142333984374,0.08721745759248734,0.007112504448741674,0.015299594029784203
1775719708473155600,8.309155517578125,0.08429570496082306,0.026329874992370605,-0.0005507417372427881
1775719708483168300,8.319168212890625,0.08184985816478729,0.05202937871217728,-0.014738465659320354
1775719708493181400,8.329181396484374,0.08648988604545593,0.058276090770959854,-0.033065807074308395
1775719708503194600,8.339194580078125,0.09397203475236893,0.055137552320957184,-0.03981665521860123
1775719708513208300,8.349208251953126,0.09784160554409027,0.05745583400130272,-0.03241413086652756
1775719708523221500,8.359221435546875,0.09116799384355545,0.05285309627652168,-0.023629162460565567
1775719708533234400,8.369234375,0.07302946597337723,0.060139235109090805,-0.020307667553424835
1775719708543247400,8.379247314453124,0.06865203380584717,0.07146512717008591,-0.009337575174868107
1775719708553260500,8.389260498046875,0.06952661275863647,0.08368770778179169,0.008273642510175705
1775719708563273500,8.3992734375,0.06892047822475433,0.09114855527877808,0.036003805696964264
1775719708573287400,8.409287353515625,0.06968586891889572,0.0818951353430748,0.060684118419885635
1775719708583300600,8.419300537109375,0.07034473866224289,0.08537774533033371,0.0868467465043068
1775719708593313500,8.4293134765625,0.06534066051244736,0.10763831436634064,0.10204194486141205
1775719708603326500,8.439326416015625,0.06240265816450119,0.13964791595935822,0.10375861823558807
1775719708613339400,8.44933935546875,0.05841643735766411,0.1611872911453247,0.10804524272680283
1775719708623352600,8.4593525390625,0.04995211213827133,0.1679743528366089,0.11656229943037033
1775719708633365500,8.469365478515625,0.03320961818099022,0.14230361580848694,0.13543452322483063
1775719708643379500,8.47937939453125,0.013882526196539402,0.12029445171356201,0.16970594227313995
1775719708653392600,8.489392578125,-0.004571315832436085,0.09788288921117783,0.20079942047595978
1775719708663405300,8.4994052734375,-0.031693216413259506,0.08422885835170746,0.21298125386238098
1775719708673418500,8.50941845703125,-0.06245272606611252,0.09500107914209366,0.2142462432384491
1775719708683431400,8.519431396484375,-0.1001092866063118,0.1055554524064064,0.1994049847126007
1775719708693444600,8.529444580078126,-0.17094138264656067,0.12931697070598602,0.16394419968128204
1775719708703458600,8.53945849609375,-0.2365662008523941,0.15054716169834137,0.11676017194986343
1775719708713471500,8.549471435546875,-0.2622731626033783,0.13966043293476105,0.07423321902751923
1775719708723484400,8.559484375,-0.24071407318115234,0.16183842718601227,0.05546325817704201
1775719708733497300,8.569497314453125,-0.20619258284568787,0.16626407206058502,0.028365861624479294
1775719708743510500,8.579510498046876,-0.15479198098182678,0.14824938774108887,0.00920601561665535
1775719708753523700,8.589523681640625,-0.09920381754636765,0.14351588487625122,0.005819006823003292
1775719708763536400,8.599536376953125,-0.05420251935720444,0.12672492861747742,0.012282232753932476
1775719708773550600,8.609550537109374,-0.027300596237182617,0.11480780690908432,0.024474449455738068
1775719708783563300,8.619563232421875,-0.020080767571926117,0.11822677403688431,0.040168456733226776
1775719708793576400,8.629576416015626,-0.03177497535943985,0.13273194432258606,0.05458787828683853
1775719708803589600,8.639589599609375,-0.049436260014772415,0.14513935148715973,0.06051633879542351
1775719708813602600,8.6496025390625,-0.053456299006938934,0.14319737255573273,0.06619127094745636
1775719708823615500,8.659615478515626,-0.05066637322306633,0.1433718055486679,0.08964546024799347
1775719708833629400,8.66962939453125,-0.05229676142334938,0.12768232822418213,0.11697189509868622
1775719708843642400,8.679642333984376,-0.047142744064331055,0.08595352619886398,0.1375674456357956
1775719708853655600,8.689655517578124,-0.035231225192546844,0.05408800393342972,0.16881857812404633
1775719708863668500,8.69966845703125,-0.03605520725250244,0.03435371071100235,0.18278498947620392
1775719708873681700,8.709681640625,-0.02930116280913353,0.027717648074030876,0.1709642857313156
1775719708883694300,8.7196943359375,-0.008370582014322281,0.031860727816820145,0.14058640599250793
1775719708893707500,8.72970751953125,0.0070555126294493675,0.03716840595006943,0.10581804066896439
1775719708903721500,8.739721435546874,0.00977433379739523,0.044071588665246964,0.07456611096858978
1775719708913734400,8.749734375,-0.010402306914329529,0.05097024142742157,0.05518016591668129
1775719708923747600,8.75974755859375,-0.039272572845220566,0.0667654499411583,0.06674840301275253
1775719708933760500,8.769760498046875,-0.0846395194530487,0.07896885275840759,0.10363291949033737
1775719708943773400,8.7797734375,-0.12237677723169327,0.06267216801643372,0.15522579848766327
1775719708953786400,8.789786376953124,-0.15567214787006378,0.0579538457095623,0.22014008462429047
1775719708963800300,8.79980029296875,-0.192546546459198,0.07615628838539124,0.27094602584838867
1775719708973813500,8.8098134765625,-0.2183573693037033,0.10274182260036469,0.3026205897331238
1775719708983826400,8.819826416015625,-0.2482963651418686,0.11525867879390717,0.3044064939022064
1775719708993839600,8.829839599609375,-0.29351097345352173,0.08679934591054916,0.2821752429008484
1775719709003852300,8.839852294921876,-0.339890718460083,0.03356222063302994,0.26257967948913574
1775719709013865500,8.849865478515625,-0.38200995326042175,-0.0065652248449623585,0.23555606603622437
1775719709023878700,8.859878662109375,-0.41890856623649597,-0.021349763497710228,0.18402576446533203
1775719709033892400,8.869892333984374,-0.4267153739929199,-0.0038922098465263844,0.11541953682899475
1775719709043905500,8.879905517578125,-0.4089936316013336,0.033968620002269745,0.050761979073286057
1775719709053918500,8.88991845703125,-0.39160850644111633,0.07733447104692459,0.007180680986493826
1775719709063931400,8.899931396484375,-0.36159390211105347,0.09882884472608566,-0.02827691100537777
1775719709073944600,8.909944580078125,-0.3249911367893219,0.13501986861228943,-0.05733199790120125
1775719709083957500,8.91995751953125,-0.2967195510864258,0.16794879734516144,-0.09512491524219513
1775719709093971500,8.929971435546875,-0.28481656312942505,0.19834238290786743,-0.14387354254722595
1775719709103984600,8.939984619140626,-0.27347734570503235,0.21338072419166565,-0.1915888786315918
1775719709113997600,8.94999755859375,-0.2636793255805969,0.22592447698116302,-0.21624015271663666
1775719709124010500,8.960010498046875,-0.25455957651138306,0.2478705197572708,-0.22512765228748322
1775719709134023400,8.9700234375,-0.2580166459083557,0.2768625020980835,-0.2274872213602066
1775719709144036600,8.98003662109375,-0.26149073243141174,0.30263710021972656,-0.21114206314086914
1775719709154049300,8.99004931640625,-0.25218909978866577,0.3197689354419708,-0.1737598031759262
1775719709164063500,9.0000634765625,-0.23351208865642548,0.3208046555519104,-0.1283707618713379
1775719709174076700,9.01007666015625,-0.20140820741653442,0.31668126583099365,-0.10110265016555786
1775719709184089300,9.02008935546875,-0.1660342514514923,0.29177168011665344,-0.09720777720212936
1775719709194102500,9.0301025390625,-0.13144564628601074,0.26077166199684143,-0.11361631006002426
1775719709204115000,9.040114990234375,-0.1045122966170311,0.2701856791973114,-0.12874706089496613
1775719709214127900,9.0501279296875,-0.086568184196949,0.2919125556945801,-0.15504097938537598
1775719709224141800,9.060141845703125,-0.05918928608298302,0.29364973306655884,-0.1709429770708084
1775719709234155000,9.070155029296876,-0.038959916681051254,0.2909618020057678,-0.14809545874595642
1775719709244167700,9.080167724609375,-0.017226656898856163,0.2553931474685669,-0.09627486765384674
1775719709254180900,9.090180908203125,0.01492302305996418,0.19522088766098022,-0.01164413895457983
1775719709264194000,9.100194091796874,0.060691043734550476,0.16440625488758087,0.10223262757062912
1775719709274207000,9.11020703125,0.10655041038990021,0.15304361283779144,0.19546855986118317
1775719709284220000,9.120219970703126,0.1416652500629425,0.1422327756881714,0.24324993789196014
1775719709294233900,9.13023388671875,0.14935220777988434,0.11665976792573929,0.23417814075946808
1775719709304246800,9.140246826171875,0.13567501306533813,0.09375445544719696,0.17698223888874054
1775719709314260000,9.150260009765624,0.11397556960582733,0.0790490135550499,0.08462194353342056
1775719709324273000,9.16027294921875,0.09405405819416046,0.07681355625391006,-0.011933358386158943
1775719709334286000,9.1702861328125,0.09310410916805267,0.07558610290288925,-0.08215079456567764
1775719709344298800,9.180298828125,0.10805456340312958,0.11130282282829285,-0.09614837169647217
1775719709354313000,9.19031298828125,0.1392228752374649,0.11560436338186264,-0.07524335384368896
1775719709364326000,9.200325927734376,0.1890583336353302,0.05101870745420456,-0.04695046320557594
1775719709374338800,9.2103388671875,0.252584308385849,-0.015534484758973122,-0.003457049373537302
1775719709384352000,9.22035205078125,0.3229921758174896,-0.057065948843955994,0.02142805978655815
1775719709394365000,9.230364990234374,0.35165151953697205,-0.07799919694662094,0.012043080292642117
1775719709404377900,9.2403779296875,0.344524085521698,-0.08189406991004944,-0.019182216376066208
1775719709414390800,9.250390869140626,0.3237799406051636,-0.043526969850063324,-0.0488722026348114
1775719709424404700,9.26040478515625,0.3046533763408661,-0.0003384877636563033,-0.07505586743354797
1775719709434418000,9.27041796875,0.2919996380805969,0.04895875230431557,-0.09135095030069351
1775719709444430800,9.280430908203124,0.280005544424057,0.09918836504220963,-0.10676692426204681
1775719709454444000,9.290444091796875,0.2690003216266632,0.13823430240154266,-0.12353978306055069
1775719709464456700,9.300456787109376,0.2625589072704315,0.08588188141584396,-0.13881567120552063
1775719709474470000,9.310469970703124,0.27485793828964233,0.03067615255713463,-0.13610750436782837
1775719709484483000,9.320483154296875,0.2974684238433838,-0.042683281004428864,-0.1285688877105713
1775719709494496800,9.330496826171874,0.3170996606349945,-0.102241151034832,-0.11576174944639206
1775719709504510000,9.340510009765625,0.3135446012020111,-0.1085168868303299,-0.12798964977264404
1775719709514523000,9.35052294921875,0.28499284386634827,-0.07154715061187744,-0.1870838701725006
1775719709524535800,9.360535888671874,0.24483025074005127,-0.035112712532281876,-0.27297160029411316
1775719709534549000,9.370549072265625,0.22070440649986267,-0.009139702655375004,-0.3305209279060364
1775719709544562000,9.38056201171875,0.22148604691028595,-0.01187929604202509,-0.3304745852947235
1775719709554576000,9.390575927734375,0.2155940681695938,-0.029625536873936653,-0.2814521789550781
1775719709564588800,9.4005888671875,0.19173747301101685,-0.07489874213933945,-0.2141013741493225
1775719709574602000,9.41060205078125,0.16520147025585175,-0.1282826066017151,-0.12883947789669037
1775719709584615000,9.420614990234375,0.14565041661262512,-0.1268378347158432,-0.02912219800055027
1775719709594627800,9.4306279296875,0.12672466039657593,-0.14059333503246307,0.06626104563474655
1775719709604641000,9.44064111328125,0.07519408315420151,-0.18207792937755585,0.15270672738552094
1775719709614654000,9.450654052734375,0.0065194182097911835,-0.2530820667743683,0.2108970582485199
1775719709624668000,9.46066796875,-0.07415811717510223,-0.2937312126159668,0.23264417052268982
1775719709634681000,9.47068115234375,-0.1446024626493454,-0.27937066555023193,0.2166164666414261
1775719709644693800,9.48069384765625,-0.17727811634540558,-0.2276962697505951,0.1992073804140091
1775719709654707000,9.49070703125,-0.17398618161678314,-0.18813927471637726,0.18279990553855896
1775719709664720000,9.500719970703125,-0.1396026313304901,-0.18639783561229706,0.16438254714012146
1775719709674732800,9.51073291015625,-0.09517472237348557,-0.2088560163974762,0.1449558585882187
1775719709684747000,9.5207470703125,-0.052009936422109604,-0.23420476913452148,0.14704591035842896
1775719709694760000,9.530760009765626,-0.024460069835186005,-0.21791554987430573,0.17403677105903625
1775719709704772900,9.54077294921875,-0.019363844767212868,-0.1805383563041687,0.20446792244911194
1775719709714785800,9.550785888671875,-0.03260934352874756,-0.17666664719581604,0.2197161167860031
1775719709724799000,9.560799072265626,-0.04984292387962341,-0.22398649156093597,0.23653344810009003
1775719709734812000,9.57081201171875,-0.0711415559053421,-0.2781282961368561,0.2689315974712372
1775719709744824800,9.580824951171875,-0.1223011463880539,-0.29195091128349304,0.2899191677570343
1775719709754839000,9.590839111328124,-0.16050446033477783,-0.3031204640865326,0.2724411189556122
1775719709764851700,9.600851806640625,-0.17036907374858856,-0.2807248830795288,0.2311543971300125
1775719709774865000,9.610864990234376,-0.1435592919588089,-0.2576078474521637,0.18637652695178986
1775719709784877800,9.6208779296875,-0.10589899867773056,-0.22620250284671783,0.1592293381690979
1775719709794891000,9.63089111328125,-0.06322450935840607,-0.2251577526330948,0.13546249270439148
1775719709804904000,9.640904052734374,-0.012110991403460503,-0.2363145351409912,0.11228446662425995
1775719709814916900,9.650916748046875,0.02839382365345955,-0.22743208706378937,0.10545585304498672
1775719709824930800,9.660930908203126,0.030363231897354126,-0.22418729960918427,0.11200855672359467
1775719709834944000,9.670944091796875,0.004275971557945013,-0.24054816365242004,0.14804406464099884
1775719709844957000,9.68095703125,-0.023179886862635612,-0.27980849146842957,0.2124616652727127
1775719709854969900,9.690969970703126,-0.023987624794244766,-0.3269299268722534,0.2961256802082062
1775719709864982800,9.700982666015625,0.008761533536016941,-0.3739030063152313,0.3616652488708496
1775719709874996000,9.710995849609375,0.03846216946840286,-0.40279459953308105,0.37882187962532043
1775719709885010000,9.721010009765624,0.04891374707221985,-0.3902401924133301,0.33682116866111755
1775719709895022800,9.73102294921875,0.058829762041568756,-0.363051176071167,0.2520996332168579
1775719709905036000,9.7410361328125,0.06491987407207489,-0.3179127275943756,0.13949531316757202
1775719709915049000,9.751049072265625,0.04418983310461044,-0.23570600152015686,0.014585067518055439
1775719709925062000,9.761061767578125,0.035905271768569946,-0.15500876307487488,-0.09526233375072479
1775719709935074800,9.77107470703125,0.046911049634218216,-0.12263830006122589,-0.1622363030910492
1775719709945088000,9.781087890625,0.05842389538884163,-0.1381634622812271,-0.16053907573223114
1775719709955102000,9.79110205078125,0.08269088715314865,-0.16104267537593842,-0.09658566117286682
1775719709965115000,9.801114990234375,0.12000896036624908,-0.18767616152763367,-0.019146529957652092
1775719709975127800,9.8111279296875,0.14816735684871674,-0.21372106671333313,0.014510765671730042
1775719709985140700,9.821140625,0.18529263138771057,-0.23842854797840118,-0.009104016236960888
1775719709995154000,9.83115380859375,0.20039914548397064,-0.16235294938087463,-0.07904715090990067
1775719710005167000,9.8411669921875,0.1669040322303772,-0.055439822375774384,-0.2123122662305832
1775719710015180800,9.851180908203125,0.11863557249307632,0.05493595451116562,-0.36244717240333557
1775719710025194000,9.861194091796875,0.0655723512172699,0.1891251802444458,-0.49170050024986267
1775719710035207000,9.87120703125,0.028842033818364143,0.31649166345596313,-0.5874512791633606
1775719710045219800,9.8812197265625,0.027941087260842323,0.4280986189842224,-0.6218070983886719
1775719710055233000,9.89123291015625,0.04785647243261337,0.46817198395729065,-0.6007246971130371
1775719710065246000,9.901245849609374,0.07108455896377563,0.4057352542877197,-0.5046181678771973
1775719710075259000,9.9112587890625,0.11228499561548233,0.2736419439315796,-0.3588052988052368
1775719710085272800,9.92127294921875,0.14051982760429382,0.10004883259534836,-0.20115068554878235
1775719710095286000,9.9312861328125,0.17132568359375,-0.03756921365857124,-0.04912040755152702
1775719710105299000,9.941298828125,0.18732169270515442,-0.113438680768013,0.05329518020153046
1775719710115311900,9.951311767578124,0.1581009477376938,-0.13850994408130646,0.09079461544752121
1775719710125325000,9.961324951171875,0.09555555135011673,-0.162958562374115,0.08018991351127625
1775719710135337700,9.971337646484375,0.016082031652331352,-0.14930133521556854,0.023363379761576653
1775719710145351000,9.981350830078124,-0.06481015682220459,-0.145327627658844,-0.09239757806062698
1775719710155364900,9.99136474609375,-0.11295238137245178,-0.103343166410923,-0.2288086861371994
1775719710165377800,10.001377685546874,-0.11159630119800568,-0.03664270043373108,-0.3643425405025482
1775719710175391000,10.011390869140625,-0.07558823376893997,0.026627615094184875,-0.4409680664539337
1775719710185404000,10.02140380859375,-0.010541590861976147,0.04716378450393677,-0.40519967675209045
1775719710195416800,10.031416748046874,0.047632765024900436,0.026066487655043602,-0.292032390832901
1775719710205430000,10.041429931640625,0.06456407904624939,-0.03790663555264473,-0.16145919263362885
1775719710215443000,10.05144287109375,0.05223444104194641,-0.1224079355597496,-0.04521168768405914
1775719710225457000,10.061456787109375,0.027173031121492386,-0.1956470012664795,0.038772694766521454
1775719710235470000,10.071469970703125,-0.008933573961257935,-0.24066001176834106,0.06614333391189575
1775719710245483000,10.08148291015625,-0.0473502054810524,-0.26025447249412537,0.026250246912240982
1775719710255496000,10.091495849609375,-0.06186842918395996,-0.22647309303283691,-0.08868779242038727
1775719710265508900,10.1015087890625,-0.04909670725464821,-0.11668187379837036,-0.2652798593044281
1775719710275522000,10.11152197265625,-0.0010897654574364424,0.026018017902970314,-0.45689111948013306
1775719710285536000,10.121535888671875,0.09378508478403091,0.1492011994123459,-0.5698842406272888
1775719710295549000,10.131548828125,0.1797921359539032,0.21662205457687378,-0.5728281140327454
1775719710305562000,10.14156201171875,0.22236782312393188,0.19083093106746674,-0.4865150451660156
1775719710315574800,10.15157470703125,0.22219125926494598,0.1201397255063057,-0.3428526818752289
1775719710325588000,10.161587890625,0.17248602211475372,-0.016444221138954163,-0.19175133109092712
1775719710335601200,10.17160107421875,0.06832393258810043,-0.1517477184534073,-0.05585367977619171
1775719710345614000,10.181614013671876,-0.03477555885910988,-0.2531220018863678,0.0296750720590353
1775719710355628000,10.1916279296875,-0.10243289917707443,-0.2965749502182007,0.027514182031154633
1775719710365641000,10.201640869140626,-0.1551823914051056,-0.21548914909362793,-0.07294610887765884
1775719710375654000,10.21165380859375,-0.16671361029148102,-0.07910547405481339,-0.23345616459846497
1775719710385667000,10.2216669921875,-0.11879376322031021,0.10389683395624161,-0.398428350687027
1775719710395680000,10.231679931640626,-0.005164934787899256,0.2893167734146118,-0.535503089427948
1775719710405693000,10.24169287109375,0.1440967172384262,0.3939928412437439,-0.615382730960846
1775719710415705900,10.251705810546875,0.2864445447921753,0.42627567052841187,-0.5856919884681702
1775719710425720000,10.261719970703124,0.35887134075164795,0.4025439918041229,-0.4458714723587036
1775719710435733000,10.27173291015625,0.32772886753082275,0.2818002700805664,-0.2620134949684143
1775719710445746000,10.281745849609376,0.207173153758049,0.11261788755655289,-0.06969998776912689
1775719710455759000,10.291759033203125,0.06512121111154556,-0.07798001915216446,0.09906772524118423
1775719710465772000,10.30177197265625,-0.060440439730882645,-0.22155582904815674,0.20171873271465302
1775719710475785000,10.311784912109376,-0.13067279756069183,-0.2907940149307251,0.2034902721643448
1775719710485798000,10.3217978515625,-0.12195999175310135,-0.23966984450817108,0.12364071607589722
1775719710495811800,10.331811767578126,-0.05179395526647568,-0.12334057688713074,-0.025245435535907745
1775719710505825000,10.341824951171875,0.05385284498333931,0.021083181723952293,-0.2038884162902832
1775719710515838000,10.351837890625,0.17024949193000793,0.15446387231349945,-0.368243545293808
1775719710525851100,10.36185107421875,0.2599916458129883,0.25414785742759705,-0.4876607358455658
1775719710535863800,10.37186376953125,0.3153451681137085,0.30191031098365784,-0.540951132774353
1775719710545877000,10.381876953125,0.3467662036418915,0.29146406054496765,-0.503821849822998
1775719710555891000,10.391890869140624,0.3589256703853607,0.21224115788936615,-0.38135507702827454
1775719710565904000,10.40190380859375,0.3360901176929474,0.07781809568405151,-0.20114536583423615
1775719710575917000,10.4119169921875,0.2620031237602234,-0.05295775830745697,-0.011477957479655743
1775719710585930000,10.421929931640625,0.16962498426437378,-0.17369456589221954,0.1346004158258438
1775719710595943000,10.43194287109375,0.07436344772577286,-0.24583587050437927,0.21424145996570587
1775719710605956000,10.4419560546875,-0.0013787185307592154,-0.27069994807243347,0.23093122243881226
1775719710615969000,10.451968994140625,-0.03923901543021202,-0.24336685240268707,0.20586447417736053
1775719710625983000,10.46198291015625,-0.03187697380781174,-0.18255196511745453,0.14422722160816193
1775719710635996000,10.471995849609375,0.003102849004790187,-0.085915707051754,0.07473229616880417
1775719710646009000,10.482009033203125,0.047682300209999084,-0.02039635181427002,0.01998782344162464
1775719710656022000,10.49202197265625,0.09035519510507584,-0.02743854932487011,0.004491687286645174
1775719710666035000,10.502034912109375,0.12519226968288422,-0.06294035166501999,0.02509043924510479
1775719710676048100,10.512048095703125,0.13507339358329773,-0.08682357519865036,0.05186266452074051
1775719710686060800,10.522060791015624,0.09895028173923492,-0.11301922798156738,0.06261704117059708
1775719710696075000,10.532074951171875,0.04188752919435501,-0.13450907170772552,0.06644587218761444
1775719710706088200,10.542088134765624,0.0033156354911625385,-0.1400926560163498,0.06175897270441055
1775719710716100900,10.552100830078125,-0.005499427672475576,-0.10369683057069778,0.03868481144309044
1775719710726114000,10.562114013671875,0.011516573838889599,-0.00768721429631114,-0.014975753612816334
1775719710736127000,10.572126953125,0.05414898693561554,0.09285616874694824,-0.07839520275592804
1775719710746140000,10.582139892578125,0.11096007376909256,0.1587022989988327,-0.13033883273601532
1775719710756152800,10.59215283203125,0.15744927525520325,0.1888258457183838,-0.14310681819915771
1775719710766167000,10.6021669921875,0.18665723502635956,0.19578441977500916,-0.10947589576244354
1775719710776180000,10.612179931640625,0.18941280245780945,0.1711949110031128,-0.045160818845033646
1775719710786193000,10.62219287109375,0.1614602655172348,0.132346048951149,0.05066956952214241
1775719710796206000,10.6322060546875,0.11195556074380875,0.09667700529098511,0.15772758424282074
1775719710806218800,10.64221875,0.04854916036128998,0.06520643085241318,0.24401266872882843
1775719710816232000,10.65223193359375,-0.01847567968070507,0.05763000622391701,0.2798399031162262
1775719710826245000,10.6622451171875,-0.07545161247253418,0.08447679877281189,0.287621408700943
1775719710836258800,10.6722587890625,-0.10921596735715866,0.14116431772708893,0.27354153990745544
1775719710846272000,10.68227197265625,-0.12133894115686417,0.18442097306251526,0.23978357017040253
1775719710856285200,10.69228515625,-0.1137918159365654,0.18910521268844604,0.2003440111875534
1775719710866297900,10.7022978515625,-0.09532704949378967,0.17861688137054443,0.19601185619831085
1775719710876311000,10.71231103515625,-0.08080882579088211,0.1642022579908371,0.2228700965642929
1775719710886324000,10.722323974609376,-0.06849943101406097,0.13640791177749634,0.2516607344150543
1775719710896337200,10.732337158203125,-0.054314903914928436,0.10459432005882263,0.2835712730884552
1775719710906351000,10.74235107421875,-0.05500546097755432,0.10392453521490097,0.3137994706630707
1775719710916364000,10.752364013671874,-0.07355650514364243,0.1030408963561058,0.3216661810874939
1775719710926377000,10.762376953125,-0.09811990708112717,0.09077943861484528,0.31817904114723206
1775719710936390000,10.772389892578126,-0.11253906041383743,0.0690658837556839,0.3141012191772461
1775719710946403000,10.782403076171875,-0.12704956531524658,0.05654290318489075,0.3072803318500519
1775719710956416000,10.792416015625,-0.14170973002910614,0.06069503724575043,0.29030293226242065
1775719710966430000,10.802429931640624,-0.13392770290374756,0.05650082603096962,0.2606782019138336
1775719710976443100,10.812443115234375,-0.10058493167161942,0.04646310582756996,0.2350279539823532
1775719710986455800,10.822455810546876,-0.053639259189367294,0.05061204358935356,0.21552883088588715
1775719710996469000,10.832468994140624,-0.01606711745262146,0.061586666852235794,0.1829378604888916
1775719711006482000,10.84248193359375,0.01998436078429222,0.06823445111513138,0.13549470901489258
1775719711016495000,10.8524951171875,0.06057679280638695,0.0825827568769455,0.0884086936712265
1775719711026508000,10.862508056640625,0.08831894397735596,0.10617810487747192,0.04442312568426132
1775719711036522000,10.87252197265625,0.0809212177991867,0.13609232008457184,0.0019137475173920393
1775719711046535000,10.882534912109374,0.06531082838773727,0.13155962526798248,-0.02365552820265293
1775719711056547800,10.8925478515625,0.06767784804105759,0.10390349477529526,-0.024688301607966423
1775719711066561000,10.90256103515625,0.0832381621003151,0.05272100120782852,-0.02327576093375683
1775719711076574200,10.91257421875,0.08957915008068085,0.008838232606649399,-0.022665631026029587
1775719711086587000,10.9225869140625,0.09209583699703217,-0.02708168514072895,-0.02178226038813591
1775719711096600000,10.93260009765625,0.10785535722970963,-0.06054616719484329,-0.026252109557390213
1775719711106613800,10.94261376953125,0.1386556178331375,-0.09809274226427078,-0.047088414430618286
1775719711116627000,10.952626953125,0.17774708569049835,-0.09038102626800537,-0.07578930258750916
1775719711126640000,10.96264013671875,0.19828087091445923,-0.01401888020336628,-0.13072019815444946
1775719711136653000,10.972653076171875,0.20135734975337982,0.06461015343666077,-0.20828929543495178
1775719711146666000,10.982666015625,0.20874708890914917,0.11309006810188293,-0.26699626445770264
1775719711156679000,10.992678955078125,0.2186814695596695,0.11688028275966644,-0.29586440324783325
1775719711166692000,11.002692138671875,0.21814991533756256,0.11404667794704437,-0.2909439504146576
1775719711176706000,11.0127060546875,0.18987059593200684,0.11169217526912689,-0.2616976499557495
1775719711186719000,11.022718994140625,0.16067570447921753,0.09319785237312317,-0.20837637782096863
1775719711196732200,11.032732177734376,0.13505582511425018,0.05874773487448692,-0.13626116514205933
1775719711206745000,11.0427451171875,0.12470225244760513,0.016509201377630234,-0.06710393726825714
1775719711216758300,11.05275830078125,0.11552286893129349,-0.006525010801851749,-0.01606392115354538
1775719711226771200,11.062771240234374,0.08554206788539886,-0.00498170917853713,0.008257663808763027
1775719711236784000,11.0727841796875,0.03747493773698807,0.01540665328502655,0.016765929758548737
1775719711246798300,11.08279833984375,-0.0018072210950776935,0.032471656799316406,0.005991313606500626
1775719711256811300,11.092811279296875,-0.027772774919867516,0.052857622504234314,-0.014890532940626144
1775719711266824200,11.10282421875,-0.05119208246469498,0.07935847342014313,-0.04119883477687836
1775719711276837000,11.112837158203124,-0.07713633030653,0.11017044633626938,-0.06066014990210533
1775719711286850300,11.122850341796875,-0.10165871679782867,0.13585397601127625,-0.055574044585227966
1775719711296863200,11.13286328125,-0.12438054382801056,0.13544490933418274,-0.0340421237051487
1775719711306876200,11.142876220703124,-0.13208799064159393,0.10479778796434402,-0.0038219024427235126
1775719711316890000,11.15289013671875,-0.12960459291934967,0.08251671493053436,0.0169688630849123
1775719711326903300,11.1629033203125,-0.12187663465738297,0.057911768555641174,0.025583922863006592
1775719711336916200,11.172916259765625,-0.10570991784334183,0.057245977222919464,0.031097466126084328
1775719711346929400,11.182929443359376,-0.08008445054292679,0.06953034549951553,0.03038773313164711
1775719711356942000,11.192942138671874,-0.06560137867927551,0.10363638401031494,0.02967214211821556
1775719711366955300,11.202955322265625,-0.09490227699279785,0.1368156373500824,0.02467392012476921
1775719711376968200,11.21296826171875,-0.12279782444238663,0.13347816467285156,0.025490978732705116
1775719711386982100,11.222982177734375,-0.1283784806728363,0.11625869572162628,0.031492680311203
1775719711396995300,11.232995361328125,-0.12560133635997772,0.09918677061796188,0.03430843725800514
1775719711407008300,11.24300830078125,-0.11737988889217377,0.09254564344882965,0.04405001550912857
1775719711417021200,11.253021240234375,-0.10411521792411804,0.10330455005168915,0.06319814175367355
1775719711427034000,11.2630341796875,-0.09440106898546219,0.11555642634630203,0.08664461225271225
1775719711437047300,11.27304736328125,-0.09180501848459244,0.10075297951698303,0.11084821820259094
1775719711447060200,11.283060302734375,-0.08416334539651871,0.05261341109871864,0.14686055481433868
1775719711457074200,11.29307421875,-0.09125933796167374,0.008077899925410748,0.19199714064598083
1775719711467087400,11.30308740234375,-0.11304479837417603,-0.0331646129488945,0.22599424421787262
1775719711477100000,11.31310009765625,-0.14786909520626068,-0.07367395609617233,0.25848668813705444
1775719711487113200,11.32311328125,-0.18024113774299622,-0.08592981845140457,0.28133952617645264
1775719711497126400,11.33312646484375,-0.19777406752109528,-0.109048992395401,0.27815839648246765
1775719711507139300,11.343139404296876,-0.18875953555107117,-0.11326983571052551,0.2645227313041687
1775719711517152300,11.35315234375,-0.15842878818511963,-0.10861515998840332,0.21443799138069153
1775719711527166200,11.363166259765626,-0.11799454689025879,-0.09048542380332947,0.1406812220811844
1775719711537179100,11.37317919921875,-0.080956369638443,-0.04652569070458412,0.07563377171754837
1775719711547192300,11.3831923828125,-0.05649283528327942,0.003486876841634512,0.02311783656477928
1775719711557205200,11.393205322265626,-0.047506798058748245,0.027466244995594025,-0.026065422222018242
1775719711567218200,11.40321826171875,-0.04513738304376602,0.017713217064738274,-0.05139527842402458
1775719711577231000,11.413231201171875,-0.051898352801799774,-0.011233746074140072,-0.05264456942677498
1775719711587244300,11.423244384765624,-0.06845255941152573,-0.03835484758019447,-0.04572807252407074
1775719711597258200,11.43325830078125,-0.08808032423257828,-0.05420438200235367,-0.04573952406644821
1775719711607271200,11.443271240234376,-0.10805775970220566,-0.05494553968310356,-0.04911961033940315
1775719711617284400,11.453284423828125,-0.11624245345592499,-0.04722823202610016,-0.03817028924822807
1775719711627297300,11.46329736328125,-0.10665320605039597,-0.04208194091916084,-0.002775812754407525
1775719711637310200,11.473310302734374,-0.10016760975122452,-0.04451553523540497,0.03662565350532532
1775719711647323100,11.4833232421875,-0.09620615839958191,-0.058941878378391266,0.06723762303590775
1775719711657336300,11.49333642578125,-0.0918649435043335,-0.07647852599620819,0.08892081677913666
1775719711667350300,11.503350341796875,-0.08689548075199127,-0.07782289385795593,0.09482664614915848
1775719711677363200,11.51336328125,-0.08298996090888977,-0.06405461579561234,0.08132894337177277
1775719711687376400,11.52337646484375,-0.07064274698495865,-0.0438031405210495,0.058272626250982285
1775719711697389000,11.53338916015625,-0.052332714200019836,-0.019401660189032555,0.044496893882751465
1775719711707402200,11.54340234375,-0.04043717309832573,-0.003906857222318649,0.042388737201690674
1775719711717415400,11.55341552734375,-0.04760586842894554,0.015444735996425152,0.04905356094241142
1775719711727428000,11.563427978515625,-0.06036533787846565,0.01437920518219471,0.0644005611538887
1775719711737442300,11.5734423828125,-0.06416087597608566,0.012061988934874535,0.09530015289783478
1775719711747455200,11.583455322265625,-0.06718675792217255,-0.0023792681749910116,0.12806741893291473
1775719711757468200,11.59346826171875,-0.0722409039735794,-0.022856580093503,0.1502520889043808
1775719711767481300,11.6034814453125,-0.07175914198160172,-0.03232251852750778,0.16029593348503113
1775719711777494300,11.613494384765625,-0.07326862215995789,-0.02636183239519596,0.16035984456539154
1775719711787507200,11.623507080078125,-0.07984902709722519,-0.016145147383213043,0.15386386215686798
1775719711797520100,11.63352001953125,-0.09141300618648529,-0.015592541545629501,0.14501817524433136
1775719711807534300,11.643534423828125,-0.10086482763290405,-0.0005118595436215401,0.14999935030937195
1775719711817547300,11.65354736328125,-0.11374946683645248,0.02147732861340046,0.1470658779144287
1775719711827560200,11.663560302734375,-0.1247728243470192,0.054062437266111374,0.14226846396923065
1775719711837573400,11.673573486328126,-0.13573439419269562,0.08323017507791519,0.1396292746067047
1775719711847586000,11.6835859375,-0.13718289136886597,0.0840858519077301,0.13504810631275177
1775719711857599200,11.69359912109375,-0.12796010076999664,0.07334186136722565,0.12881603837013245
1775719711867612200,11.703612060546876,-0.11632660776376724,0.03765576705336571,0.11678360402584076
1775719711877626000,11.713626220703125,-0.11344879865646362,0.003915912006050348,0.09651961177587509
1775719711887639300,11.723639404296875,-0.10871795564889908,-0.006983873434364796,0.0639217272400856
1775719711897652200,11.73365234375,-0.09706183522939682,0.011713913641870022,0.01369024533778429
1775719711907665200,11.7436650390625,-0.08684408664703369,0.06287962943315506,-0.047805603593587875
1775719711917678000,11.753677978515626,-0.07383880019187927,0.12944826483726501,-0.1088244840502739
1775719711927691300,11.763691162109374,-0.059784505516290665,0.18168431520462036,-0.14276807010173798
1775719711937704400,11.773704345703125,-0.05311674624681473,0.21427367627620697,-0.14507223665714264
1775719711947717000,11.783717041015626,-0.0565173365175724,0.22582487761974335,-0.131877601146698
1775719711957731300,11.7937314453125,-0.07498396188020706,0.21617330610752106,-0.11158564686775208
1775719711967744000,11.803743896484375,-0.0891445204615593,0.19084478914737701,-0.08575671911239624
1775719711977757200,11.813757080078124,-0.10721992701292038,0.16676288843154907,-0.04559890925884247
1775719711987770400,11.823770263671875,-0.13080887496471405,0.1529674381017685,0.0019062906503677368
1775719711997783300,11.833783203125,-0.15042120218276978,0.14838947355747223,0.05272286757826805
1775719712007796200,11.843796142578125,-0.15544258058071136,0.14992770552635193,0.08947209268808365
1775719712017809200,11.85380908203125,-0.14804325997829437,0.1618831753730774,0.09026118367910385
1775719712027823000,11.863822998046874,-0.12930499017238617,0.17688024044036865,0.058582354336977005
1775719712037836300,11.873836181640625,-0.10181264579296112,0.18942292034626007,0.0013693973887711763
1775719712047849200,11.88384912109375,-0.04595097899436951,0.22236329317092896,-0.0652056336402893
1775719712057862400,11.8938623046875,0.025664083659648895,0.27036598324775696,-0.13566675782203674
1775719712067875000,11.903875,0.09102977812290192,0.3081980347633362,-0.18567612767219543
1775719712077888300,11.91388818359375,0.13910488784313202,0.3134186267852783,-0.17997056245803833
1775719712087901200,11.923901123046875,0.1425720602273941,0.3087970018386841,-0.12899553775787354
1775719712097915100,11.9339150390625,0.09105001389980316,0.29964131116867065,-0.06785654276609421
1775719712107928300,11.94392822265625,0.01347586140036583,0.25729864835739136,-0.018070347607135773
1775719712117941200,11.953941162109375,-0.05390211194753647,0.204223170876503,0.04338822141289711
1775719712127954200,11.9639541015625,-0.07828868180513382,0.11973971873521805,0.11078270524740219
1775719712137967000,11.973967041015625,-0.07689078897237778,-0.006389455869793892,0.16188663244247437
1775719712147980300,11.983980224609375,-0.051720984280109406,-0.13642548024654388,0.17186470329761505
1775719712157993200,11.9939931640625,-0.021394237875938416,-0.21068985760211945,0.13172127306461334
1775719712168007200,12.004007080078125,-0.01611851528286934,-0.20004840195178986,0.07037483155727386
1775719712178020400,12.014020263671876,-0.06814629584550858,-0.09696516394615173,0.02329014241695404
1775719712188033300,12.024033203125,-0.19007086753845215,0.06669381260871887,-0.00027297402266412973
1775719712198046200,12.034046142578125,-0.33377692103385925,0.22101441025733948,-0.028721926733851433
1775719712208059000,12.044058837890624,-0.4668939411640167,0.3047649562358856,-0.04932387173175812
1775719712218071800,12.05407177734375,-0.5638154149055481,0.3097698390483856,-0.035541750490665436
1775719712228084700,12.064084716796875,-0.644058346748352,0.246159166097641,0.03929281234741211
1775719712238099000,12.074098876953125,-0.7031394839286804,0.11059628427028656,0.16818635165691376
1775719712248111600,12.084111572265625,-0.7472153306007385,-0.0573519729077816,0.32286781072616577
1775719712258124800,12.094124755859376,-0.7557856440544128,-0.24786172807216644,0.47417715191841125
1775719712268137700,12.1041376953125,-0.7389782071113586,-0.37366971373558044,0.5945832133293152
1775719712278151000,12.11415087890625,-0.6926085948944092,-0.4266519844532013,0.6470115184783936
1775719712288163600,12.12416357421875,-0.6052414178848267,-0.40529903769493103,0.6084420084953308
1775719712298176800,12.1341767578125,-0.5024064183235168,-0.3340810537338257,0.48989006876945496
1775719712308190700,12.144190673828126,-0.40176206827163696,-0.21195167303085327,0.3243442475795746
1775719712318203600,12.15420361328125,-0.2923591732978821,-0.031016239896416664,0.13870196044445038
1775719712328216800,12.164216796875,-0.1873674988746643,0.13173486292362213,-0.045643649995326996
1775719712338229800,12.174229736328124,-0.12067315727472305,0.2521915137767792,-0.15617549419403076
1775719712348242700,12.18424267578125,-0.09451984614133835,0.27534130215644836,-0.19443605840206146
1775719712358255900,12.194255859375,-0.10146057605743408,0.21202251315116882,-0.1726447492837906
1775719712368268800,12.204268798828124,-0.11096300184726715,0.08766566962003708,-0.10041289031505585
1775719712378282800,12.21428271484375,-0.10467075556516647,-0.04905542731285095,0.014466024935245514
1775719712388295700,12.224295654296874,-0.06960863620042801,-0.182833731174469,0.14622218906879425
1775719712398308900,12.234308837890625,-0.021089039742946625,-0.30418306589126587,0.26853665709495544
1775719712408321800,12.24432177734375,0.02280251681804657,-0.39776867628097534,0.34585806727409363
1775719712418334700,12.254334716796874,0.05813920125365257,-0.4210478961467743,0.36374279856681824
1775719712428348000,12.264347900390625,0.08986704051494598,-0.3747325837612152,0.3049758970737457
1775719712438360600,12.274360595703126,0.12612171471118927,-0.2905476689338684,0.1923888921737671
1775719712448374800,12.284374755859375,0.1618722528219223,-0.19617430865764618,0.055451806634664536
