time,seconds_elapsed,z,y,x
1774657072507475700,0.069475830078125,0.0019853105768561363,-0.0010690133785828948,-0.0021380267571657896
1774657072524264700,0.0862646484375,-0.002901607658714056,0.0007635809597559273,0.0009162971982732415
1774657072541053700,0.1030537109375,0.0038179049734026194,-0.001679878099821508,0.000305432389723137
1774657072557843000,0.119843017578125,-0.002290742937475443,0.0032070400193333626,0.000305432389723137
1774657072574632000,0.1366318359375,0.0025961752980947495,-0.001679878099821508,0.0009162971982732415
1774657072591421000,0.1534208984375,-0.002290742937475443,0.0007635809597559273,-0.000305432389723137
1774657072608210000,0.1702099609375,0.0025961752980947495,-0.00045814859913662076,-0.0009162971982732415
1774657072624999200,0.186999267578125,-0.0010690133785828948,0.0001527161948615685,0.0009162971982732415
1774657072641788200,0.2037880859375,0.0007635809597559273,-0.00045814859913662076,-0.000305432389723137
1774657072658577200,0.2205771484375,-0.00045814859913662076,0.0001527161948615685,-0.000305432389723137
1774657072675366100,0.2373662109375,0.0007635809597559273,0.0001527161948615685,-0.000305432389723137
1774657072692155400,0.2541552734375,-0.00045814859913662076,0.0001527161948615685,0.000305432389723137
1774657072708944400,0.2709443359375,0.0001527161948615685,-0.0010690133785828948,-0.0009162971982732415
1774657072725733400,0.2877333984375,-0.00045814859913662076,-0.00045814859913662076,0.000305432389723137
1774657072742522400,0.3045224609375,0.0001527161948615685,0.0007635809597559273,0.000305432389723137
1774657072759311600,0.3213115234375,0.0007635809597559273,-0.0010690133785828948,0.000305432389723137
1774657072776100600,0.3381005859375,-0.0010690133785828948,-0.00045814859913662076,-0.000305432389723137
1774657072792889600,0.3548896484375,0.0001527161948615685,0.0001527161948615685,0.000305432389723137
1774657072809678600,0.3716787109375,-0.00045814859913662076,-0.00045814859913662076,0.0009162971982732415
1774657072826467800,0.3884677734375,0.0001527161948615685,0.0001527161948615685,-0.000305432389723137
1774657072843256800,0.4052568359375,0.0001527161948615685,0.0007635809597559273,0.000305432389723137
1774657072860045800,0.4220458984375,0.0001527161948615685,0.0013744457392022014,0.0009162971982732415
1774657072876834800,0.438834716796875,0.0001527161948615685,-0.00045814859913662076,-0.000305432389723137
1774657072893624000,0.4556240234375,0.0007635809597559273,0.0007635809597559273,-0.000305432389723137
1774657072910413000,0.4724130859375,0.0007635809597559273,-0.00045814859913662076,-0.000305432389723137
1774657072927202000,0.4892021484375,-0.00045814859913662076,0.0001527161948615685,0.000305432389723137
1774657072943991000,0.505990966796875,0.0007635809597559273,0.0001527161948615685,0.0009162971982732415
1774657072960780000,0.522780029296875,0.0007635809597559273,0.0007635809597559273,-0.000305432389723137
1774657072977569300,0.5395693359375,0.0001527161948615685,-0.00045814859913662076,0.0009162971982732415
1774657072994358300,0.556358154296875,0.0001527161948615685,-0.00045814859913662076,0.000305432389723137
1774657073011147300,0.573147216796875,0.0007635809597559273,-0.00045814859913662076,-0.0009162971982732415
1774657073027936500,0.5899365234375,-0.00045814859913662076,-0.00045814859913662076,0.000305432389723137
1774657073044725500,0.6067255859375,0.0001527161948615685,0.0013744457392022014,0.000305432389723137
1774657073061514500,0.623514404296875,0.0001527161948615685,0.0001527161948615685,0.000305432389723137
1774657073078303500,0.640303466796875,-0.00045814859913662076,0.0007635809597559273,-0.000305432389723137
1774657073095092500,0.657092529296875,-0.00045814859913662076,-0.00045814859913662076,-0.000305432389723137
1774657073111881500,0.673881591796875,-0.00045814859913662076,-0.00045814859913662076,-0.000305432389723137
1774657073128670700,0.690670654296875,-0.00045814859913662076,0.0001527161948615685,-0.000305432389723137
1774657073145459700,0.707459716796875,-0.00045814859913662076,0.0001527161948615685,-0.0015271619195118546
1774657073162248700,0.724248779296875,0.0001527161948615685,0.0007635809597559273,-0.0009162971982732415
1774657073179038000,0.741037841796875,-0.00045814859913662076,-0.00045814859913662076,0.000305432389723137
1774657073195827000,0.757826904296875,0.0001527161948615685,0.0001527161948615685,0.000305432389723137
1774657073212616000,0.774615966796875,0.0007635809597559273,0.0007635809597559273,-0.0015271619195118546
1774657073229405000,0.791405029296875,0.0001527161948615685,0.0001527161948615685,0.000305432389723137
1774657073246194000,0.80819384765625,-0.0010690133785828948,-0.00045814859913662076,-0.000305432389723137
1774657073262983200,0.824983154296875,0.0001527161948615685,-0.0010690133785828948,-0.0009162971982732415
1774657073279772200,0.841772216796875,0.0001527161948615685,0.0007635809597559273,-0.000305432389723137
1774657073296561200,0.85856103515625,0.0001527161948615685,-0.0010690133785828948,0.000305432389723137
1774657073313350100,0.87535009765625,0.0001527161948615685,0.0007635809597559273,0.0009162971982732415
1774657073330139400,0.892139404296875,-0.0010690133785828948,0.0001527161948615685,-0.000305432389723137
1774657073346928400,0.908928466796875,0.0001527161948615685,0.0013744457392022014,0.000305432389723137
1774657073363717400,0.92571728515625,0.0001527161948615685,0.0001527161948615685,-0.000305432389723137
1774657073380506400,0.94250634765625,0.0001527161948615685,0.0007635809597559273,-0.000305432389723137
1774657073397295600,0.959295654296875,0.0007635809597559273,-0.0010690133785828948,0.000305432389723137
1774657073414084600,0.976084716796875,-0.00045814859913662076,0.0007635809597559273,-0.0009162971982732415
1774657073430873600,0.99287353515625,-0.00045814859913662076,-0.00045814859913662076,-0.000305432389723137
1774657073447662600,1.00966259765625,0.0001527161948615685,-0.00045814859913662076,-0.000305432389723137
1774657073464451600,1.02645166015625,-0.00045814859913662076,0.0001527161948615685,-0.000305432389723137
1774657073481240800,1.04324072265625,0.0001527161948615685,0.0001527161948615685,-0.0009162971982732415
1774657073498029800,1.06002978515625,-0.0010690133785828948,0.0007635809597559273,0.0009162971982732415
1774657073514818800,1.07681884765625,-0.00045814859913662076,0.0001527161948615685,0.000305432389723137
1774657073531607800,1.09360791015625,0.0007635809597559273,0.0001527161948615685,0.000305432389723137
1774657073548397000,1.11039697265625,0.0001527161948615685,0.0007635809597559273,0.000305432389723137
1774657073565186000,1.12718603515625,-0.00045814859913662076,0.0007635809597559273,-0.000305432389723137
1774657073581975000,1.14397509765625,0.0001527161948615685,0.0001527161948615685,-0.000305432389723137
1774657073598764000,1.160763916015625,-0.00045814859913662076,0.0001527161948615685,0.000305432389723137
1774657073615553300,1.17755322265625,-0.00045814859913662076,0.0001527161948615685,0.000305432389723137
1774657073632342300,1.19434228515625,0.0001527161948615685,0.0001527161948615685,-0.0009162971982732415
1774657073649131300,1.21113134765625,0.0007635809597559273,-0.00045814859913662076,-0.0009162971982732415
1774657073665920300,1.227920166015625,0.0001527161948615685,-0.00045814859913662076,-0.0009162971982732415
1774657073682709200,1.244709228515625,0.0001527161948615685,-0.00045814859913662076,0.0009162971982732415
1774657073699498500,1.26149853515625,0.0001527161948615685,-0.00045814859913662076,-0.000305432389723137
1774657073716287500,1.27828759765625,0.0001527161948615685,-0.00045814859913662076,-0.0009162971982732415
1774657073733076500,1.295076416015625,-0.00045814859913662076,-0.00045814859913662076,0.0015271619195118546
1774657073749865700,1.31186572265625,-0.0010690133785828948,0.0007635809597559273,0.000305432389723137
1774657073766654700,1.32865478515625,0.0001527161948615685,-0.00045814859913662076,0.000305432389723137
1774657073783443700,1.345443603515625,0.0001527161948615685,-0.00045814859913662076,-0.0009162971982732415
1774657073800232700,1.362232666015625,0.0001527161948615685,-0.00045814859913662076,0.000305432389723137
1774657073817022000,1.37902197265625,0.0001527161948615685,0.0001527161948615685,-0.000305432389723137
1774657073833811000,1.39581103515625,0.0001527161948615685,0.0001527161948615685,0.0009162971982732415
1774657073850600000,1.412599853515625,0.0001527161948615685,0.0001527161948615685,-0.000305432389723137
1774657073867389000,1.429388916015625,0.0001527161948615685,-0.00045814859913662076,-0.000305432389723137
1774657073884178200,1.44617822265625,-0.00045814859913662076,0.0001527161948615685,0.000305432389723137
1774657073900967200,1.46296728515625,0.0007635809597559273,0.0001527161948615685,-0.000305432389723137
1774657073917756200,1.479756103515625,-0.0010690133785828948,-0.00045814859913662076,-0.0009162971982732415
1774657073934545200,1.496545166015625,0.0001527161948615685,0.0001527161948615685,0.0009162971982732415
1774657073951334400,1.51333447265625,-0.00045814859913662076,0.0007635809597559273,-0.000305432389723137
1774657073968123400,1.530123291015625,0.0013744457392022014,0.0007635809597559273,-0.0009162971982732415
1774657073984912400,1.546912353515625,0.0001527161948615685,-0.00045814859913662076,-0.000305432389723137
1774657074001701400,1.563701416015625,0.0001527161948615685,0.0007635809597559273,0.000305432389723137
1774657074018490600,1.58049072265625,0.0001527161948615685,-0.00045814859913662076,0.000305432389723137
1774657074035279600,1.597279541015625,-0.00045814859913662076,-0.00045814859913662076,-0.000305432389723137
1774657074052068600,1.614068603515625,0.0001527161948615685,-0.00045814859913662076,0.0009162971982732415
1774657074068857600,1.630857666015625,0.0001527161948615685,0.0001527161948615685,-0.0009162971982732415
1774657074085646800,1.647646728515625,0.0001527161948615685,0.0001527161948615685,0.0009162971982732415
1774657074102435800,1.664435791015625,-0.00045814859913662076,0.0007635809597559273,0.000305432389723137
1774657074119224800,1.681224853515625,-0.00045814859913662076,0.0001527161948615685,0.000305432389723137
1774657074136013800,1.698013916015625,0.0007635809597559273,-0.00045814859913662076,0.0009162971982732415
1774657074152803000,1.714802978515625,-0.00045814859913662076,0.0007635809597559273,0.000305432389723137
1774657074169592000,1.731592041015625,-0.00045814859913662076,-0.0010690133785828948,-0.0009162971982732415
1774657074186381000,1.748381103515625,0.0001527161948615685,0.0001527161948615685,-0.000305432389723137
1774657074203170300,1.76517041015625,0.0001527161948615685,0.0001527161948615685,0.0009162971982732415
1774657074219959300,1.781959228515625,0.0001527161948615685,-0.00045814859913662076,0.000305432389723137
1774657074236748300,1.798748291015625,0.0001527161948615685,0.0007635809597559273,-0.000305432389723137
1774657074253537300,1.815537353515625,0.0007635809597559273,-0.00045814859913662076,-0.0021380267571657896
1774657074270326500,1.832326416015625,0.0001527161948615685,0.0001527161948615685,-0.0009162971982732415
1774657074287115500,1.849115478515625,0.0001527161948615685,0.0007635809597559273,-0.000305432389723137
1774657074303904500,1.865904541015625,-0.0010690133785828948,0.0007635809597559273,0.0009162971982732415
1774657074320693500,1.882693603515625,0.0013744457392022014,-0.00045814859913662076,-0.0015271619195118546
1774657074337482800,1.899482666015625,-0.0010690133785828948,0.0001527161948615685,0.0009162971982732415
1774657074354271700,1.916271728515625,0.0013744457392022014,-0.001679878099821508,-0.0009162971982732415
1774657074371060700,1.933060791015625,-0.0010690133785828948,0.0013744457392022014,-0.0015271619195118546
1774657074387849700,1.949849609375,0.0007635809597559273,0.0007635809597559273,-0.0015271619195118546
1774657074404639000,1.966638916015625,-0.0010690133785828948,0.0007635809597559273,0.0009162971982732415
1774657074421428000,1.983427978515625,0.0019853105768561363,0.0001527161948615685,0.0009162971982732415
1774657074438217000,2.000217041015625,-0.0010690133785828948,0.0007635809597559273,0.000305432389723137
1774657074455006000,2.017005859375,0.0007635809597559273,0.0001527161948615685,-0.000305432389723137
1774657074471795200,2.033795166015625,-0.0010690133785828948,0.0007635809597559273,-0.0009162971982732415
1774657074488584200,2.050584228515625,0.0007635809597559273,-0.00045814859913662076,0.0009162971982732415
1774657074505373200,2.067373291015625,-0.0010690133785828948,-0.00045814859913662076,0.000305432389723137
1774657074522162400,2.084162353515625,0.0007635809597559273,-0.00045814859913662076,-0.000305432389723137
1774657074538951400,2.100951416015625,-0.00045814859913662076,0.0007635809597559273,-0.000305432389723137
1774657074555740400,2.117740478515625,0.0001527161948615685,-0.00045814859913662076,-0.0015271619195118546
1774657074572529400,2.134529296875,0.0007635809597559273,-0.00045814859913662076,0.0009162971982732415
1774657074589318400,2.151318359375,0.0001527161948615685,0.0007635809597559273,-0.0015271619195118546
1774657074606107600,2.168107666015625,-0.00045814859913662076,-0.00045814859913662076,-0.000305432389723137
1774657074622896600,2.184896728515625,0.0001527161948615685,0.0007635809597559273,0.000305432389723137
1774657074639685600,2.201685546875,0.0001527161948615685,-0.00045814859913662076,0.000305432389723137
1774657074656475000,2.218474853515625,0.0001527161948615685,-0.001679878099821508,-0.000305432389723137
1774657074673263900,2.235263916015625,-0.00045814859913662076,-0.001679878099821508,0.000305432389723137
1774657074690052900,2.252052978515625,0.0001527161948615685,-0.00045814859913662076,0.0009162971982732415
1774657074706841900,2.268841796875,0.0001527161948615685,-0.00045814859913662076,-0.000305432389723137
1774657074723630800,2.285630859375,0.0001527161948615685,0.0001527161948615685,-0.000305432389723137
1774657074740420000,2.302420166015625,-0.0010690133785828948,0.0001527161948615685,-0.000305432389723137
1774657074757209000,2.319208984375,-0.00045814859913662076,0.0001527161948615685,0.000305432389723137
1774657074773998000,2.335998046875,0.0013744457392022014,0.0001527161948615685,-0.0009162971982732415
1774657074790787300,2.352787353515625,0.0007635809597559273,0.0007635809597559273,-0.000305432389723137
1774657074807576300,2.369576416015625,-0.00045814859913662076,-0.0010690133785828948,-0.0009162971982732415
1774657074824365300,2.386365234375,-0.00045814859913662076,-0.00045814859913662076,-0.0009162971982732415
1774657074841154300,2.403154296875,0.0001527161948615685,0.0013744457392022014,-0.0009162971982732415
1774657074857943300,2.419943359375,0.0013744457392022014,-0.00045814859913662076,0.000305432389723137
1774657074874732500,2.436732666015625,0.0001527161948615685,0.0007635809597559273,0.0009162971982732415
1774657074891521500,2.453521484375,0.0001527161948615685,-0.00045814859913662076,0.0009162971982732415
1774657074908310500,2.470310546875,0.0001527161948615685,-0.00045814859913662076,0.0009162971982732415
1774657074925099800,2.487099853515625,0.0001527161948615685,-0.00045814859913662076,-0.000305432389723137
1774657074941888800,2.503888671875,0.0001527161948615685,-0.00045814859913662076,-0.000305432389723137
1774657074958677800,2.520677734375,0.0007635809597559273,0.0001527161948615685,-0.000305432389723137
1774657074975466800,2.537466796875,0.0007635809597559273,-0.00045814859913662076,-0.000305432389723137
1774657074992255700,2.554255859375,0.0001527161948615685,-0.0010690133785828948,0.000305432389723137
1774657075009045000,2.571044921875,0.0001527161948615685,0.0007635809597559273,-0.000305432389723137
1774657075025834000,2.587833984375,0.0001527161948615685,0.0001527161948615685,0.000305432389723137
1774657075042623000,2.604623046875,-0.00045814859913662076,0.0001527161948615685,0.000305432389723137
1774657075059412200,2.621412109375,0.0001527161948615685,-0.00045814859913662076,0.000305432389723137
1774657075076201200,2.638201171875,0.0001527161948615685,0.0001527161948615685,0.000305432389723137
1774657075092990200,2.654990234375,0.0001527161948615685,0.0001527161948615685,0.000305432389723137
1774657075109779200,2.671779296875,0.0001527161948615685,0.0001527161948615685,0.000305432389723137
1774657075126568200,2.688568115234375,0.0001527161948615685,0.0007635809597559273,0.0009162971982732415
1774657075143357400,2.705357421875,-0.00045814859913662076,-0.0010690133785828948,0.000305432389723137
1774657075160146400,2.722146484375,-0.00045814859913662076,0.0001527161948615685,-0.000305432389723137
1774657075176935400,2.738935302734375,-0.00045814859913662076,0.0001527161948615685,-0.0015271619195118546
1774657075193724700,2.755724609375,0.0001527161948615685,0.0001527161948615685,-0.000305432389723137
1774657075210513700,2.772513671875,0.0001527161948615685,0.0001527161948615685,-0.000305432389723137
1774657075227302700,2.789302734375,0.0001527161948615685,-0.00045814859913662076,-0.000305432389723137
1774657075244091600,2.806091552734375,0.0001527161948615685,0.0001527161948615685,0.000305432389723137
1774657075260880600,2.822880615234375,0.0001527161948615685,0.0001527161948615685,0.0009162971982732415
1774657075277670000,2.839669921875,0.0001527161948615685,0.0007635809597559273,0.000305432389723137
1774657075294459000,2.856458984375,0.0007635809597559273,0.0001527161948615685,-0.000305432389723137
1774657075311248000,2.873247802734375,-0.00045814859913662076,-0.0010690133785828948,-0.0009162971982732415
1774657075328036900,2.890036865234375,0.0001527161948615685,-0.0010690133785828948,0.000305432389723137
1774657075344826000,2.906826171875,-0.00045814859913662076,0.0001527161948615685,-0.000305432389723137
1774657075361615000,2.923614990234375,0.0001527161948615685,-0.00045814859913662076,-0.000305432389723137
1774657075378404000,2.940404052734375,0.0001527161948615685,0.0001527161948615685,-0.000305432389723137
1774657075395193000,2.957193115234375,0.0001527161948615685,0.0007635809597559273,0.000305432389723137
1774657075411982300,2.973982421875,0.0007635809597559273,0.0001527161948615685,-0.0015271619195118546
1774657075428771300,2.990771240234375,0.0013744457392022014,0.0013744457392022014,0.0009162971982732415
1774657075445560300,3.007560302734375,-0.00045814859913662076,0.0001527161948615685,0.0009162971982732415
1774657075462349300,3.024349365234375,0.0001527161948615685,0.0007635809597559273,-0.000305432389723137
1774657075479138300,3.04113818359375,0.0001527161948615685,-0.0010690133785828948,-0.000305432389723137
1774657075495927600,3.057927490234375,0.0001527161948615685,0.0007635809597559273,-0.0009162971982732415
1774657075512716500,3.074716552734375,-0.00045814859913662076,-0.00045814859913662076,-0.000305432389723137
1774657075529505500,3.091505615234375,0.0001527161948615685,-0.00045814859913662076,-0.0015271619195118546
1774657075546294500,3.10829443359375,0.0001527161948615685,0.0001527161948615685,-0.000305432389723137
1774657075563083800,3.125083740234375,0.0001527161948615685,0.0001527161948615685,0.000305432389723137
1774657075579872800,3.141872802734375,0.0001527161948615685,-0.00045814859913662076,0.0009162971982732415
1774657075596661800,3.158661865234375,-0.00045814859913662076,0.0007635809597559273,-0.000305432389723137
1774657075613450800,3.17545068359375,0.0001527161948615685,-0.0010690133785828948,-0.000305432389723137
1774657075630240000,3.192239990234375,-0.00045814859913662076,0.0001527161948615685,0.000305432389723137
1774657075647029000,3.209029052734375,0.0001527161948615685,-0.00045814859913662076,0.0015271619195118546
1774657075663818000,3.22581787109375,0.0001527161948615685,-0.0010690133785828948,0.000305432389723137
1774657075680607000,3.24260693359375,0.0001527161948615685,-0.00045814859913662076,-0.0009162971982732415
1774657075697396000,3.25939599609375,0.0007635809597559273,0.0001527161948615685,0.000305432389723137
1774657075714185200,3.276185302734375,0.0001527161948615685,-0.00045814859913662076,-0.000305432389723137
1774657075730974200,3.29297412109375,-0.00045814859913662076,-0.00045814859913662076,-0.000305432389723137
1774657075747763200,3.30976318359375,0.0001527161948615685,-0.00045814859913662076,-0.0009162971982732415
1774657075764552200,3.32655224609375,0.0007635809597559273,0.0001527161948615685,-0.000305432389723137
1774657075781341400,3.343341552734375,0.0007635809597559273,0.0007635809597559273,-0.0021380267571657896
1774657075798130400,3.36013037109375,-0.00045814859913662076,0.0007635809597559273,-0.003970621153712273
1774657075814919400,3.37691943359375,0.0007635809597559273,0.0007635809597559273,-0.0015271619195118546
1774657075831708400,3.39370849609375,-0.0010690133785828948,-0.0010690133785828948,-0.000305432389723137
1774657075848497400,3.410497314453125,0.0007635809597559273,0.0001527161948615685,-0.0021380267571657896
1774657075865286700,3.42728662109375,-0.0010690133785828948,0.0013744457392022014,0.000305432389723137
1774657075882075600,3.44407568359375,0.0001527161948615685,-0.00045814859913662076,0.0021380267571657896
1774657075898864600,3.46086474609375,0.0001527161948615685,-0.00045814859913662076,-0.000305432389723137
1774657075915653600,3.477653564453125,0.0001527161948615685,-0.00045814859913662076,-0.0015271619195118546
1774657075932442600,3.494442626953125,0.0001527161948615685,-0.0010690133785828948,-0.000305432389723137
1774657075949231900,3.51123193359375,0.0007635809597559273,0.0007635809597559273,-0.003970621153712273
1774657075966020900,3.528020751953125,-0.00045814859913662076,-0.00045814859913662076,-0.011911863461136818
1774657075982809900,3.544809814453125,0.0013744457392022014,-0.00045814859913662076,0.0009162971982732415
1774657075999598800,3.561598876953125,-0.0010690133785828948,0.0007635809597559273,0.0021380267571657896
1774657076016387800,3.578387939453125,0.0025961752980947495,-0.00045814859913662076,-0.005803215317428112
1774657076033177000,3.595177001953125,-0.0010690133785828948,0.0001527161948615685,0.005803215317428112
1774657076049966000,3.611966064453125,0.0019853105768561363,-0.0010690133785828948,-0.000305432389723137
1774657076066755000,3.628755126953125,-0.00045814859913662076,0.0013744457392022014,-0.003970621153712273
1774657076083544000,3.6455439453125,0.0007635809597559273,-0.0010690133785828948,0.0027488914784044027
1774657076100333300,3.662333251953125,0.0001527161948615685,-0.00045814859913662076,0.000305432389723137
1774657076117122300,3.679122314453125,0.0001527161948615685,0.0007635809597559273,-0.003359756199643016
1774657076133911300,3.695911376953125,0.0007635809597559273,-0.0010690133785828948,0.0021380267571657896
1774657076150700300,3.7127001953125,0.0001527161948615685,0.0001527161948615685,0.000305432389723137
1774657076167489300,3.7294892578125,0.0001527161948615685,0.0001527161948615685,-0.0021380267571657896
1774657076184278500,3.746278564453125,-0.00045814859913662076,-0.00045814859913662076,0.0015271619195118546
1774657076201067500,3.763067626953125,-0.00045814859913662076,-0.00045814859913662076,-0.000305432389723137
1774657076217856500,3.7798564453125,0.0001527161948615685,0.0007635809597559273,-0.0027488914784044027
1774657076234645500,3.7966455078125,-0.00045814859913662076,-0.00045814859913662076,-0.000305432389723137
1774657076251434500,3.8134345703125,0.0007635809597559273,-0.00045814859913662076,-0.0009162971982732415
1774657076268223700,3.8302236328125,-0.00045814859913662076,0.0001527161948615685,-0.0015271619195118546
1774657076285012700,3.8470126953125,0.0001527161948615685,0.0001527161948615685,-0.000305432389723137
1774657076301801700,3.8638017578125,0.0001527161948615685,0.0007635809597559273,0.0009162971982732415
1774657076318590700,3.8805908203125,0.0001527161948615685,0.0001527161948615685,0.0009162971982732415
1774657076335379700,3.897379638671875,0.0001527161948615685,0.0001527161948615685,-0.0015271619195118546
1774657076352169000,3.9141689453125,-0.0010690133785828948,0.0007635809597559273,0.0015271619195118546
1774657076368958000,3.9309580078125,0.0007635809597559273,-0.0010690133785828948,-0.0015271619195118546
1774657076385747000,3.947746826171875,-0.00045814859913662076,-0.00045814859913662076,-0.0015271619195118546
1774657076402536000,3.964535888671875,-0.00045814859913662076,-0.0010690133785828948,0.0021380267571657896
1774657076419325000,3.981324951171875,-0.0010690133785828948,0.0001527161948615685,-0.0009162971982732415
1774657076436114200,3.9981142578125,0.0001527161948615685,0.0001527161948615685,-0.0015271619195118546
1774657076452903200,4.014903076171875,0.0001527161948615685,0.0001527161948615685,0.000305432389723137
1774657076469692200,4.031692138671875,0.0001527161948615685,-0.00045814859913662076,0.0009162971982732415
1774657076486481200,4.048481201171875,0.0001527161948615685,-0.0010690133785828948,-0.000305432389723137
1774657076503270100,4.065270263671875,0.0001527161948615685,0.0001527161948615685,0.000305432389723137
1774657076520059400,4.082059326171875,-0.00045814859913662076,0.0007635809597559273,-0.000305432389723137
1774657076536848400,4.098848388671875,-0.00045814859913662076,-0.00045814859913662076,0.000305432389723137
1774657076553637400,4.115637451171875,0.0001527161948615685,-0.00045814859913662076,0.000305432389723137
1774657076570426400,4.13242626953125,-0.00045814859913662076,-0.00045814859913662076,-0.0009162971982732415
1774657076587215400,4.14921533203125,0.0007635809597559273,-0.00045814859913662076,-0.000305432389723137
1774657076604004400,4.16600439453125,-0.0010690133785828948,0.0001527161948615685,0.000305432389723137
1774657076620793600,4.182793701171875,0.0019853105768561363,-0.0010690133785828948,-0.0015271619195118546
1774657076637582600,4.19958251953125,-0.001679878099821508,0.0013744457392022014,0.000305432389723137
1774657076654371600,4.21637158203125,0.0019853105768561363,-0.00045814859913662076,-0.0015271619195118546
1774657076671160600,4.23316064453125,-0.002290742937475443,0.0007635809597559273,0.0009162971982732415
1774657076687949600,4.249949462890625,0.0019853105768561363,-0.001679878099821508,-0.000305432389723137
1774657076704738800,4.26673876953125,-0.0010690133785828948,0.0007635809597559273,-0.0009162971982732415
1774657076721527800,4.28352783203125,0.0007635809597559273,0.0001527161948615685,-0.0009162971982732415
1774657076738316800,4.30031689453125,-0.0010690133785828948,-0.0010690133785828948,-0.0015271619195118546
1774657076755105800,4.317105712890625,0.0007635809597559273,0.0001527161948615685,-0.0013744457392022014
1774657076771894800,4.333894775390625,-0.00045814859913662076,0.0001527161948615685,0.0010690133785828948
1774657076788684000,4.35068408203125,0.0007635809597559273,-0.0010690133785828948,-0.0001527161948615685
1774657076805473000,4.36747314453125,-0.00045814859913662076,0.0013744457392022014,0.00045814859913662076
1774657076822262000,4.384261962890625,0.0007635809597559273,-0.0010690133785828948,0.00045814859913662076
1774657076839051000,4.401051025390625,0.0001527161948615685,0.0001527161948615685,-0.0001527161948615685
1774657076855840000,4.417840087890625,0.0001527161948615685,0.0001527161948615685,-0.0013744457392022014
1774657076872629000,4.43462890625,0.0001527161948615685,0.0001527161948615685,-0.0019853105768561363
1774657076889418200,4.451418212890625,0.0001527161948615685,0.0007635809597559273,0.00045814859913662076
1774657076906207200,4.468207275390625,0.0001527161948615685,0.0001527161948615685,-0.0013744457392022014
1774657076922996200,4.484996337890625,-0.00045814859913662076,0.0001527161948615685,-0.0001527161948615685
1774657076939785200,4.50178515625,0.0001527161948615685,0.0007635809597559273,-0.0001527161948615685
1774657076956574200,4.51857421875,0.0001527161948615685,-0.00045814859913662076,0.002290742937475443
1774657076973363200,4.53536328125,0.0001527161948615685,-0.00045814859913662076,-0.0013744457392022014
1774657076990152400,4.55215234375,0.0001527161948615685,0.0007635809597559273,-0.0007635809597559273
1774657077006941400,4.56894140625,0.0001527161948615685,-0.0010690133785828948,0.00045814859913662076
1774657077023730400,4.58573046875,0.0001527161948615685,0.0001527161948615685,-0.0001527161948615685
1774657077040519400,4.60251953125,-0.00045814859913662076,0.0001527161948615685,-0.0019853105768561363
1774657077057308400,4.619308349609375,0.0001527161948615685,-0.00045814859913662076,0.001679878099821508
1774657077074097400,4.636097412109375,0.0007635809597559273,-0.0010690133785828948,0.00045814859913662076
1774657077090886700,4.65288671875,0.0001527161948615685,-0.0010690133785828948,-0.0007635809597559273
1774657077107675600,4.669675537109375,0.0001527161948615685,-0.00045814859913662076,0.001679878099821508
1774657077124464600,4.686464599609375,-0.00045814859913662076,0.0013744457392022014,-0.0001527161948615685
1774657077141253600,4.703253662109375,0.0001527161948615685,-0.0010690133785828948,-0.0013744457392022014
1774657077158042600,4.720042724609375,0.0001527161948615685,-0.0010690133785828948,-0.0007635809597559273
1774657077174831900,4.736831787109375,0.0001527161948615685,0.0013744457392022014,-0.0019853105768561363
1774657077191620900,4.753620849609375,0.0001527161948615685,-0.0010690133785828948,-0.0013744457392022014
1774657077208409900,4.770409912109375,0.0013744457392022014,0.0001527161948615685,0.001679878099821508
1774657077225198800,4.78719873046875,-0.00045814859913662076,0.0019853105768561363,0.0010690133785828948
1774657077241987800,4.80398779296875,-0.00045814859913662076,0.0001527161948615685,0.0010690133785828948
1774657077258777000,4.820777099609375,0.0013744457392022014,0.0007635809597559273,0.002901607658714056
1774657077275566000,4.837566162109375,-0.00045814859913662076,-0.0010690133785828948,-0.0001527161948615685
1774657077292355000,4.85435498046875,0.0007635809597559273,-0.0010690133785828948,0.002901607658714056
1774657077309144000,4.87114404296875,-0.0010690133785828948,0.0001527161948615685,-0.0019853105768561363
1774657077325933000,4.88793310546875,0.0025961752980947495,-0.00045814859913662076,-0.0013744457392022014
1774657077342722000,4.90472216796875,-0.00045814859913662076,-0.00045814859913662076,0.005345067009329796
1774657077359511300,4.92151123046875,0.0013744457392022014,-0.00045814859913662076,-0.0013744457392022014
1774657077376300300,4.93830029296875,-0.001679878099821508,0.0007635809597559273,-0.0007635809597559273
1774657077393089300,4.95508935546875,0.0019853105768561363,-0.002290742937475443,0.005955931730568409
1774657077409878300,4.971878173828125,-0.0010690133785828948,-0.0010690133785828948,-0.0032070400193333626
1774657077426667300,4.988667236328125,-0.00045814859913662076,-0.0010690133785828948,-0.0013744457392022014
1774657077443456300,5.005456298828125,0.0001527161948615685,-0.00045814859913662076,-0.0013744457392022014
1774657077460245500,5.02224560546875,0.0013744457392022014,-0.00045814859913662076,-0.0038179049734026194
1774657077477034500,5.039034423828125,-0.00045814859913662076,0.0007635809597559273,-0.005039634648710489
1774657077493823500,5.055823486328125,-0.00045814859913662076,0.0019853105768561363,-0.005650499369949102
1774657077510612500,5.072612548828125,0.0007635809597559273,-0.0010690133785828948,-0.0062613640911877155
1774657077527401500,5.0894013671875,0.0001527161948615685,0.0001527161948615685,-0.0032070400193333626
1774657077544190500,5.1061904296875,-0.00045814859913662076,-0.00045814859913662076,-0.0032070400193333626
1774657077560979700,5.122979736328125,-0.001679878099821508,-0.00045814859913662076,-0.0032070400193333626
1774657077577768700,5.139768798828125,0.0007635809597559273,-0.0010690133785828948,-0.0025961752980947495
1774657077594557700,5.1565576171875,0.0001527161948615685,-0.00045814859913662076,-0.0032070400193333626
1774657077611346700,5.1733466796875,0.0001527161948615685,0.0007635809597559273,-0.0025961752980947495
1774657077628135700,5.1901357421875,-0.00045814859913662076,0.0007635809597559273,-0.0007635809597559273
1774657077644924700,5.206924560546875,0.0013744457392022014,-0.00045814859913662076,-0.0019853105768561363
1774657077661713700,5.223713623046875,-0.00045814859913662076,0.0001527161948615685,0.005345067009329796
1774657077678503000,5.2405029296875,0.0001527161948615685,-0.001679878099821508,-0.0013744457392022014
1774657077695292000,5.2572919921875,-0.00045814859913662076,0.0007635809597559273,-0.0007635809597559273
1774657077712081000,5.274080810546875,0.0001527161948615685,-0.00045814859913662076,0.002290742937475443
1774657077728870000,5.290869873046875,0.0007635809597559273,0.0001527161948615685,0.0010690133785828948
1774657077745659000,5.307658935546875,-0.001679878099821508,0.0013744457392022014,0.00045814859913662076
1774657077762448100,5.3244482421875,0.0013744457392022014,-0.00045814859913662076,0.002901607658714056
1774657077779237000,5.341237060546875,0.0007635809597559273,-0.0010690133785828948,0.004123337101191282
1774657077796026000,5.358026123046875,0.0001527161948615685,-0.00045814859913662076,0.0010690133785828948
1774657077812815000,5.374815185546875,0.0001527161948615685,-0.0010690133785828948,-0.0001527161948615685
1774657077829604000,5.39160400390625,-0.0010690133785828948,0.0007635809597559273,-0.0007635809597559273
1774657077846393000,5.40839306640625,-0.00045814859913662076,0.0001527161948615685,-0.0001527161948615685
1774657077863182000,5.42518212890625,0.0001527161948615685,0.0001527161948615685,-0.0001527161948615685
1774657077879971000,5.44197119140625,0.0007635809597559273,-0.001679878099821508,0.0010690133785828948
1774657077896760300,5.45876025390625,-0.0010690133785828948,0.0007635809597559273,-0.0032070400193333626
1774657077913549300,5.47554931640625,0.0001527161948615685,0.0001527161948615685,0.001679878099821508
1774657077930338300,5.49233837890625,-0.00045814859913662076,-0.00045814859913662076,0.002901607658714056
1774657077947127300,5.509127197265625,0.0013744457392022014,0.0007635809597559273,0.0010690133785828948
1774657077963916300,5.525916259765625,-0.0010690133785828948,-0.00045814859913662076,-0.0007635809597559273
1774657077980705300,5.542705322265625,0.0013744457392022014,0.0001527161948615685,-0.0001527161948615685
1774657077997494500,5.55949462890625,-0.0010690133785828948,0.0001527161948615685,0.001679878099821508
1774657078014283500,5.576283447265625,0.0019853105768561363,0.0001527161948615685,-0.0013744457392022014
1774657078031072500,5.593072509765625,-0.0010690133785828948,0.0007635809597559273,0.0010690133785828948
1774657078047861500,5.609861572265625,0.0013744457392022014,-0.0010690133785828948,0.00045814859913662076
1774657078064650500,5.626650390625,0.0001527161948615685,0.0019853105768561363,-0.004428769461810589
1774657078081439500,5.643439453125,0.0007635809597559273,-0.002290742937475443,-0.007483093533664942
1774657078098228700,5.660228759765625,-0.00045814859913662076,0.0007635809597559273,-0.010537417605519295
1774657078115017700,5.677017822265625,-0.002290742937475443,0.0013744457392022014,-0.01359174121171236
1774657078131806700,5.693806640625,-0.00045814859913662076,0.0013744457392022014,-0.0001527161948615685
1774657078148595700,5.710595703125,0.0019853105768561363,0.0007635809597559273,0.004123337101191282
1774657078165384700,5.727384765625,-0.0010690133785828948,0.0001527161948615685,-0.0001527161948615685
1774657078182173700,5.744173583984375,0.0019853105768561363,0.0007635809597559273,-0.007483093533664942
1774657078198962700,5.760962646484375,-0.002290742937475443,-0.001679878099821508,0.008399390615522861
1774657078215752000,5.777751953125,0.0007635809597559273,0.0001527161948615685,0.016340631991624832
1774657078232541000,5.794541015625,-0.00045814859913662076,0.0019853105768561363,0.01695149764418602
1774657078249330000,5.811329833984375,-0.0010690133785828948,-0.0010690133785828948,0.02000582218170166
1774657078266119000,5.828118896484375,0.0013744457392022014,0.0013744457392022014,-0.0001527161948615685
1774657078282908000,5.844907958984375,-0.001679878099821508,-0.0010690133785828948,-0.007483093533664942
1774657078299697000,5.86169677734375,0.0007635809597559273,-0.00045814859913662076,-0.0013744457392022014
1774657078316486000,5.87848583984375,-0.0010690133785828948,0.0007635809597559273,-0.0025961752980947495
1774657078333275100,5.895275146484375,0.0007635809597559273,0.0013744457392022014,-0.005650499369949102
1774657078350064000,5.912064208984375,-0.0010690133785828948,0.0032070400193333626,0.005955931730568409
1774657078366853000,5.92885302734375,0.0032070400193333626,0.0001527161948615685,-0.010537417605519295
1774657078383642000,5.94564208984375,-0.002290742937475443,0.0032070400193333626,-0.02825249545276165
1774657078400431000,5.96243115234375,0.0038179049734026194,-0.0010690133785828948,-0.04535670951008797
1774657078417220000,5.97922021484375,-0.00045814859913662076,0.0001527161948615685,-0.04169152304530144
1774657078434009000,5.996009033203125,0.0019853105768561363,-0.0010690133785828948,-0.029474224895238876
1774657078450798300,6.01279833984375,-0.003512472379952669,0.0007635809597559273,-0.02214384824037552
1774657078467587300,6.02958740234375,0.006872228812426329,-0.002901607658714056,-0.02825249545276165
1774657078484376300,6.046376220703125,-0.004123337101191282,0.0032070400193333626,-0.02458730712532997
1774657078501165300,6.063165283203125,0.0013744457392022014,0.004428769461810589,-0.03558287397027016
1774657078517954300,6.079954345703125,-0.004123337101191282,0.005039634648710489,-0.02825249545276165
1774657078534743300,6.096743408203125,0.0007635809597559273,0.005039634648710489,-0.017867794260382652
1774657078551532300,6.1135322265625,0.0001527161948615685,0.0001527161948615685,0.001679878099821508
1774657078568321300,6.1303212890625,-0.002901607658714056,0.0001527161948615685,0.001679878099821508
1774657078585110500,6.147110595703125,0.0032070400193333626,0.0007635809597559273,-0.009926552884280682
1774657078601899500,6.1638994140625,-0.0010690133785828948,0.0007635809597559273,-0.01847865991294384
1774657078618688500,6.1806884765625,0.0019853105768561363,0.0019853105768561363,-0.02825249545276165
1774657078635477500,6.1974775390625,-0.010842849500477314,0.004428769461810589,-0.004428769461810589
1774657078652266500,6.2142666015625,0.006872228812426329,-0.0010690133785828948,0.015729768201708794
1774657078669055500,6.231055419921875,-0.004734201822429895,0.0038179049734026194,0.02611446939408779
1774657078685844500,6.247844482421875,0.0032070400193333626,0.0013744457392022014,0.0102319847792387
1774657078702633700,6.2646337890625,-0.005345067009329796,0.005650499369949102,0.008399390615522861
1774657078719422700,6.281422607421875,-0.00045814859913662076,0.0001527161948615685,0.005955931730568409
1774657078736211700,6.298211669921875,-0.003512472379952669,0.0032070400193333626,0.011453714221715927
1774657078753000700,6.315000732421875,0.0001527161948615685,0.0019853105768561363,0.012675444595515728
1774657078769789700,6.331789794921875,-0.00045814859913662076,0.0007635809597559273,-0.012980876490473747
1774657078786578700,6.34857861328125,-0.002901607658714056,0.006872228812426329,-0.02153298258781433
1774657078803367700,6.36536767578125,0.0007635809597559273,0.0001527161948615685,-0.02519817277789116
1774657078820157000,6.382156982421875,-0.004123337101191282,0.005650499369949102,-0.052687086164951324
1774657078836946000,6.39894580078125,0.005039634648710489,-0.001679878099821508,-0.03130681812763214
1774657078853735000,6.41573486328125,-0.008399390615522861,0.0038179049734026194,-0.03375028073787689
1774657078870524000,6.43252392578125,0.0038179049734026194,0.0001527161948615685,-0.036804601550102234
1774657078887313000,6.44931298828125,-0.009010255336761475,0.0013744457392022014,-0.03252854943275452
1774657078904102000,6.466101806640625,0.005650499369949102,-0.0010690133785828948,-0.026419902220368385
1774657078920891000,6.482890869140625,-0.005955931730568409,0.005039634648710489,-0.030085090547800064
1774657078937680000,6.499679931640625,0.0032070400193333626,0.0025961752980947495,-0.0795651376247406
1774657078954468900,6.51646875,-0.007177661173045635,0.006872228812426329,-0.1052214577794075
1774657078971258000,6.533258056640625,-0.007177661173045635,-0.0010690133785828948,-0.08628465235233307
1774657078988047000,6.550047119140625,-0.005955931730568409,0.0032070400193333626,-0.11438442766666412
1774657079004836000,6.566836181640625,-0.002901607658714056,0.005039634648710489,-0.14981459081172943
1774657079021625000,6.583625,-0.004734201822429895,0.005039634648710489,-0.1766926348209381
1774657079038414000,6.6004140625,-0.001679878099821508,0.012370011769235134,-0.31413722038269043
1774657079055203000,6.617203125,0.0062613640911877155,0.0013744457392022014,-0.3929387629032135
1774657079071992000,6.633991943359375,-0.004123337101191282,0.005039634648710489,-0.4277580678462982
1774657079088781000,6.650781005859375,0.009926552884280682,0.012370011769235134,-0.5071704983711243
1774657079105570300,6.6675703125,-0.005345067009329796,0.005650499369949102,-0.5450441241264343
1774657079122359300,6.684359375,0.0038179049734026194,0.0062613640911877155,-0.7026472091674805
1774657079139148300,6.701148193359375,-0.03894263133406639,0.04657844081521034,-1.504712700843811
1774657079155937300,6.717937255859375,-0.021838415414094925,0.039858926087617874,-2.243859052658081
1774657079172726300,6.734726318359375,-0.05543597787618637,0.05329795181751251,-2.5773911476135254
1774657079189515300,6.751515380859375,-0.054214250296354294,0.04841103404760361,-2.5437936782836914
1774657079206304300,6.76830419921875,-0.05177079141139984,0.0435241162776947,-2.078925609588623
1774657079223093200,6.78509326171875,-0.04260781779885292,0.023365577682852745,-1.2231040000915527
1774657079239882500,6.801882568359375,-0.01695149764418602,0.004428769461810589,-0.21639885008335114
1774657079256671500,6.81867138671875,-0.024892739951610565,0.0062613640911877155,0.5300779342651367
1774657079273460500,6.83546044921875,-0.007788525894284248,-0.002290742937475443,0.845894992351532
1774657079290249500,6.85224951171875,0.0038179049734026194,0.004428769461810589,0.9558506608009338
1774657079307038500,6.86903857421875,0.006872228812426329,-0.003512472379952669,0.9375247359275818
1774657079323827500,6.885827392578125,-0.012675444595515728,0.0038179049734026194,0.6375901103019714
1774657079340616400,6.902616455078125,-0.003512472379952669,0.006872228812426329,-0.012370011769235134
1774657079357405400,6.919405517578125,-0.014508038759231567,0.008093958720564842,-0.6299542784690857
1774657079374194400,6.9361943359375,-0.009621120058000088,0.008093958720564842,-1.1681262254714966
1774657079390983400,6.9529833984375,-0.019394956529140472,0.011759147047996521,-1.687361240386963
1774657079407772700,6.969772705078125,-0.024892739951610565,0.017867794260382652,-2.103360176086426
1774657079424561700,6.986561767578125,-0.03649916872382164,0.030695954337716103,-2.4662139415740967
1774657079441350700,7.0033505859375,-0.03222311660647392,0.042913250625133514,-2.6916229724884033
1774657079458139600,7.0201396484375,-0.030390523374080658,0.04474584385752678,-2.6115996837615967
1774657079474928600,7.0369287109375,-0.02306014485657215,0.04169152304530144,-2.329991102218628
1774657079491717600,7.053717529296875,-0.031612250953912735,0.04535670951008797,-2.0050108432769775
1774657079508506600,7.070506591796875,0.2854265570640564,0.2286161482334137,0.5294670462608337
1774657079525295600,7.087295654296875,-0.16539163887500763,-0.006566796451807022,0.3578140437602997
1774657079542084600,7.104084716796875,0.08567378669977188,-0.08842267841100693,-0.039858926087617874
1774657079558873900,7.120873779296875,-0.040775224566459656,0.05757400393486023,-0.6776017546653748
1774657079575662800,7.137662841796875,-0.03649916872382164,-0.022449281066656113,0.3174969553947449
1774657079592451800,7.154451904296875,0.022754713892936707,-0.017562363296747208,-0.052076224237680435
1774657079609240800,7.17124072265625,-0.03222311660647392,0.019700389355421066,-0.03802633285522461
1774657079626029800,7.18802978515625,-0.01206457894295454,0.023365577682852745,-0.1052214577794075
1774657079642818800,7.20481884765625,-0.0010690133785828948,0.009926552884280682,0.050549060106277466
1774657079659607800,7.22160791015625,-0.02000582218170166,0.02458730712532997,0.003512472379952669
1774657079676396800,7.238396728515625,-0.0010690133785828948,0.0154243353754282,0.005955931730568409
1774657079693185800,7.255185791015625,-0.015729768201708794,0.02519817277789116,-0.02519817277789116
1774657079709975000,7.27197509765625,0.0032070400193333626,0.009926552884280682,0.01511890348047018
1774657079726764000,7.288763916015625,-0.021838415414094925,0.016646064817905426,-0.03436114266514778
1774657079743553000,7.305552978515625,0.0038179049734026194,-0.004123337101191282,0.031001387163996696
1774657079760342000,7.322342041015625,-0.015729768201708794,0.0013744457392022014,0.0010690133785828948
1774657079777131000,7.339131103515625,0.0038179049734026194,-0.007788525894284248,0.019394956529140472
1774657079793920000,7.355919921875,-0.007788525894284248,0.0001527161948615685,-0.02214384824037552
1774657079810709000,7.372708984375,0.0025961752980947495,-0.004734201822429895,0.03405570983886719
1774657079827498000,7.389498046875,0.006872228812426329,-0.001679878099821508,0.021227551624178886
1774657079844287000,7.406286865234375,-0.003512472379952669,0.010537417605519295,-0.017867794260382652
1774657079861076000,7.423075927734375,0.009315688163042068,0.0032070400193333626,-0.009926552884280682
1774657079877865200,7.439865234375,-0.007788525894284248,0.0062613640911877155,0.009010255336761475
1774657079894654200,7.456654296875,-0.02000582218170166,0.009926552884280682,0.02367101050913334
1774657079911443200,7.473443115234375,-0.001679878099821508,0.0025961752980947495,0.016340631991624832
1774657079928232200,7.490232177734375,-0.021838415414094925,0.007483093533664942,0.003512472379952669
1774657079945021200,7.507021240234375,0.0032070400193333626,0.004428769461810589,0.009621120058000088
1774657079961810200,7.52381005859375,-0.001679878099821508,0.0032070400193333626,-0.0025961752980947495
1774657079978599200,7.54059912109375,0.0062613640911877155,0.0032070400193333626,0.003512472379952669
1774657079995388200,7.55738818359375,0.009315688163042068,0.0019853105768561363,-0.006872228812426329
1774657080012177200,7.57417724609375,0.0013744457392022014,-0.0010690133785828948,-0.0001527161948615685
1774657080028966400,7.59096630859375,0.006872228812426329,-0.003512472379952669,-0.0019853105768561363
1774657080045755400,7.60775537109375,-0.0102319847792387,-0.007177661173045635,-0.0007635809597559273
1774657080062544400,7.62454443359375,0.005650499369949102,-0.013897174037992954,0.012675444595515728
1774657080079333400,7.64133349609375,-0.012675444595515728,-0.005955931730568409,0.01511890348047018
1774657080096122400,7.658122314453125,0.0013744457392022014,-0.008399390615522861,0.021838415414094925
1774657080112911400,7.674911376953125,-0.002290742937475443,-0.00045814859913662076,-0.01847865991294384
1774657080129700400,7.691700439453125,-0.005955931730568409,0.007483093533664942,0.01511890348047018
1774657080146489300,7.7084892578125,0.011759147047996521,-0.003512472379952669,-0.0001527161948615685
1774657080163278300,7.7252783203125,-0.0010690133785828948,0.0032070400193333626,0.013897174037992954
1774657080180067300,7.7420673828125,0.016035201027989388,0.0019853105768561363,-0.0032070400193333626
1774657080196856300,7.758856201171875,-0.002901607658714056,0.005039634648710489,-0.005650499369949102
1774657080213645600,7.7756455078125,0.012370011769235134,-0.005345067009329796,-0.0038179049734026194
1774657080230434600,7.7924345703125,0.0032070400193333626,-0.010842849500477314,0.002901607658714056
1774657080247223600,7.8092236328125,-0.0010690133785828948,-0.011453714221715927,0.009621120058000088
1774657080264012500,7.826012451171875,0.0025961752980947495,-0.009621120058000088,0.006566796451807022
1774657080280801500,7.842801513671875,0.0038179049734026194,-0.0102319847792387,-0.0013744457392022014
1774657080297590500,7.859590576171875,0.012370011769235134,-0.009010255336761475,0.004734201822429895
1774657080314379500,7.876379638671875,0.010537417605519295,-0.005955931730568409,-0.005650499369949102
1774657080331168500,7.89316845703125,0.0019853105768561363,0.0001527161948615685,-0.008093958720564842
1774657080347957500,7.90995751953125,0.008093958720564842,-0.002290742937475443,-0.011759147047996521
1774657080364746500,7.92674658203125,-0.005345067009329796,-0.0010690133785828948,0.00045814859913662076
1774657080381535500,7.943535400390625,-0.007177661173045635,0.0025961752980947495,-0.016035201027989388
1774657080398324700,7.96032470703125,-0.006566796451807022,-0.002290742937475443,0.0102319847792387
1774657080415113700,7.97711376953125,-0.009010255336761475,0.0062613640911877155,-0.012370011769235134
1774657080431902700,7.99390283203125,-0.0010690133785828948,0.0013744457392022014,0.008399390615522861
1774657080448691700,8.010691650390624,0.0032070400193333626,0.0019853105768561363,-0.016646064817905426
1774657080465480700,8.027480712890625,0.005039634648710489,0.0038179049734026194,-0.014813470654189587
1774657080482269700,8.044269775390624,0.014202605932950974,-0.003512472379952669,0.007788525894284248
1774657080499058700,8.06105859375,0.006872228812426329,-0.0010690133785828948,-0.026419902220368385
1774657080515847700,8.07784765625,0.014202605932950974,-0.009010255336761475,0.002901607658714056
1774657080532636700,8.09463671875,0.005650499369949102,-0.008399390615522861,-0.007483093533664942
1774657080549425700,8.11142578125,0.0038179049734026194,-0.007177661173045635,-0.012370011769235134
1774657080566214700,8.128214599609375,-0.002901607658714056,-0.01695149764418602,0.0206166859716177
1774657080583004000,8.14500390625,0.0032070400193333626,-0.008399390615522861,0.011453714221715927
1774657080599793000,8.16179296875,-0.00045814859913662076,-0.0102319847792387,-0.05024362727999687
1774657080616582000,8.178581787109374,-0.002290742937475443,-0.008399390615522861,0.003512472379952669
1774657080633371000,8.195370849609375,0.007483093533664942,-0.002290742937475443,-0.007483093533664942
1774657080650159900,8.212159912109374,-0.007177661173045635,0.0062613640911877155,0.002290742937475443
1774657080666948900,8.228948974609375,0.009926552884280682,0.005650499369949102,0.002901607658714056
1774657080683737900,8.24573779296875,-0.001679878099821508,0.0025961752980947495,0.0102319847792387
1774657080700526800,8.26252685546875,0.0025961752980947495,0.004428769461810589,-0.0007635809597559273
1774657080717315800,8.27931591796875,-0.010842849500477314,0.009926552884280682,0.005345067009329796
1774657080734104800,8.296104736328125,-0.002901607658714056,0.0007635809597559273,0.022449281066656113
1774657080750893800,8.312893798828124,-0.010842849500477314,0.006872228812426329,-0.009315688163042068
1774657080767683000,8.32968310546875,-0.0010690133785828948,-0.003512472379952669,0.017562363296747208
1774657080784472000,8.34647216796875,-0.010842849500477314,0.005650499369949102,-0.005039634648710489
1774657080801261000,8.363260986328125,0.005650499369949102,0.0025961752980947495,-0.0013744457392022014
1774657080818050000,8.380050048828124,0.0013744457392022014,-0.00045814859913662076,0.007788525894284248
1774657080834839000,8.396839111328125,0.0038179049734026194,-0.0010690133785828948,0.021227551624178886
1774657080851628000,8.4136279296875,0.006872228812426329,0.0032070400193333626,-0.014813470654189587
1774657080868417000,8.4304169921875,0.0025961752980947495,-0.005955931730568409,0.003512472379952669
1774657080885206000,8.4472060546875,0.008704823441803455,-0.004734201822429895,0.0102319847792387
1774657080901995000,8.4639951171875,0.0013744457392022014,-0.005345067009329796,0.002290742937475443
1774657080918784000,8.480783935546874,-0.0010690133785828948,-0.005955931730568409,0.006566796451807022
1774657080935573000,8.497572998046875,0.0032070400193333626,-0.005345067009329796,0.004734201822429895
1774657080952362200,8.5143623046875,-0.003512472379952669,-0.001679878099821508,-0.005650499369949102
1774657080969151200,8.531151123046875,0.004428769461810589,-0.005955931730568409,-0.020922118797898293
1774657080985940200,8.547940185546874,0.0025961752980947495,-0.004734201822429895,0.009621120058000088
1774657081002729200,8.564729248046875,0.005650499369949102,0.0007635809597559273,-0.011148282326757908
1774657081019518200,8.581518310546874,0.008704823441803455,-0.001679878099821508,-0.009315688163042068
1774657081036307200,8.59830712890625,-0.00045814859913662076,0.0025961752980947495,-0.02153298258781433
1774657081053096200,8.61509619140625,0.0038179049734026194,-0.004123337101191282,0.006566796451807022
1774657081069885200,8.63188525390625,0.0025961752980947495,-0.002901607658714056,-0.0013744457392022014
1774657081086674400,8.64867431640625,-0.005345067009329796,-0.003512472379952669,-0.0062613640911877155
1774657081103463400,8.66546337890625,-0.002901607658714056,-0.002901607658714056,0.004734201822429895
1774657081120252400,8.68225244140625,-0.002290742937475443,-0.001679878099821508,-0.008093958720564842
1774657081137041400,8.69904150390625,-0.002290742937475443,0.0019853105768561363,-0.0038179049734026194
1774657081153830400,8.715830322265624,-0.001679878099821508,0.0025961752980947495,0.002901607658714056
1774657081170619400,8.732619384765625,-0.0010690133785828948,0.0032070400193333626,-0.0038179049734026194
1774657081187408400,8.749408447265624,0.005039634648710489,0.004428769461810589,0.003512472379952669
1774657081204197600,8.76619775390625,-0.001679878099821508,0.005650499369949102,0.004123337101191282
1774657081220986600,8.782986572265624,-0.002290742937475443,0.004428769461810589,0.010842849500477314
1774657081237775600,8.799775634765625,-0.001679878099821508,-0.00045814859913662076,0.014508038759231567
1774657081254564600,8.816564697265624,-0.009010255336761475,0.0025961752980947495,0.002901607658714056
1774657081271353600,8.833353515625,-0.003512472379952669,-0.00045814859913662076,0.0206166859716177
1774657081288142600,8.850142578125,-0.011453714221715927,0.0019853105768561363,0.009010255336761475
1774657081304931600,8.866931640625,-0.0010690133785828948,-0.001679878099821508,0.014508038759231567
1774657081321720800,8.883720947265624,0.0001527161948615685,0.0019853105768561363,-0.004428769461810589
1774657081338509800,8.900509765625,0.0013744457392022014,0.0019853105768561363,0.01511890348047018
1774657081355298800,8.917298828125,0.005039634648710489,0.0013744457392022014,0.0102319847792387
1774657081372087800,8.934087890625,0.005650499369949102,0.0007635809597559273,0.001679878099821508
1774657081388876800,8.950876708984374,0.008704823441803455,-0.004123337101191282,0.003512472379952669
1774657081405665800,8.967665771484375,0.0013744457392022014,-0.001679878099821508,0.002901607658714056
1774657081422454800,8.984454833984374,0.0019853105768561363,-0.005345067009329796,0.001679878099821508
1774657081439244000,9.001244140625,0.0038179049734026194,-0.0102319847792387,-0.005650499369949102
1774657081456033000,9.018032958984374,0.0013744457392022014,-0.007177661173045635,0.005955931730568409
1774657081472822000,9.034822021484375,-0.00045814859913662076,-0.004123337101191282,-0.012370011769235134
1774657081489611000,9.051611083984374,0.0019853105768561363,-0.005345067009329796,0.00045814859913662076
1774657081506400000,9.06839990234375,0.0032070400193333626,-0.009621120058000088,0.007177661173045635
1774657081523189000,9.08518896484375,0.0013744457392022014,0.0001527161948615685,-0.009926552884280682
1774657081539978000,9.10197802734375,0.0013744457392022014,0.0025961752980947495,-0.011759147047996521
1774657081556767200,9.118767333984374,0.0013744457392022014,-0.001679878099821508,-0.005039634648710489
1774657081573556200,9.13555615234375,0.0019853105768561363,-0.0010690133785828948,0.007177661173045635
1774657081590345200,9.15234521484375,-0.00045814859913662076,0.0001527161948615685,-0.008093958720564842
1774657081607134200,9.16913427734375,-0.003512472379952669,0.0032070400193333626,-0.0007635809597559273
1774657081623923200,9.185923095703124,-0.002290742937475443,0.0025961752980947495,-0.0038179049734026194
1774657081640712200,9.202712158203125,-0.005345067009329796,0.0013744457392022014,0.005345067009329796
1774657081657501400,9.21950146484375,-0.002290742937475443,0.0001527161948615685,0.00045814859913662076
1774657081674290400,9.23629052734375,-0.007788525894284248,0.007483093533664942,-0.004428769461810589
1774657081691079400,9.253079345703124,-0.0010690133785828948,0.004428769461810589,0.0010690133785828948
1774657081707868400,9.269868408203125,-0.002290742937475443,0.009926552884280682,0.005955931730568409
1774657081724657400,9.286657470703124,0.0007635809597559273,0.006872228812426329,0.043829549103975296
1774657081741446400,9.3034462890625,0.0038179049734026194,0.011148282326757908,-0.0013744457392022014
1774657081758235400,9.3202353515625,-0.001679878099821508,0.010537417605519295,-0.005039634648710489
1774657081775024600,9.337024658203125,-0.005955931730568409,0.012980876490473747,0.03283398225903511
1774657081791813600,9.353813720703124,-0.015729768201708794,0.009926552884280682,0.02611446939408779
1774657081808602600,9.3706025390625,0.005039634648710489,0.006872228812426329,-0.014202605932950974
1774657081825391600,9.3873916015625,-0.024892739951610565,0.007483093533664942,-0.0032070400193333626
1774657081842180600,9.4041806640625,0.0154243353754282,-0.006566796451807022,-0.022754713892936707
1774657081858969600,9.420969482421874,-0.031612250953912735,0.012980876490473747,-0.02519817277789116
1774657081875758600,9.437758544921875,0.016646064817905426,-0.008399390615522861,-0.016646064817905426
1774657081892547600,9.454547607421874,-0.021227551624178886,0.011148282326757908,0.005345067009329796
1774657081909336800,9.4713369140625,0.016035201027989388,-0.002290742937475443,-0.01847865991294384
1774657081926125800,9.488125732421874,-0.002290742937475443,0.011148282326757908,-0.03436114266514778
1774657081942914800,9.504914794921875,0.009315688163042068,0.0007635809597559273,0.0010690133785828948
1774657081959703800,9.521703857421874,0.011148282326757908,-0.001679878099821508,-0.033139415085315704
1774657081976492800,9.538492919921875,0.0032070400193333626,-0.005955931730568409,0.0010690133785828948
1774657081993281800,9.55528173828125,0.0062613640911877155,-0.01206457894295454,-0.014813470654189587
1774657082010071000,9.572071044921875,-0.003512472379952669,-0.009621120058000088,-0.009926552884280682
1774657082026860000,9.588860107421874,0.0038179049734026194,-0.01695149764418602,0.01695149764418602
1774657082043649000,9.60564892578125,-0.002901607658714056,-0.007177661173045635,-0.04718930274248123
1774657082060438000,9.62243798828125,0.008093958720564842,-0.006566796451807022,-0.05085449293255806
1774657082077227000,9.63922705078125,0.0032070400193333626,-0.005345067009329796,0.01511890348047018
1774657082094016000,9.65601611328125,0.0038179049734026194,-0.001679878099821508,-0.0154243353754282
1774657082110805000,9.672804931640625,0.0062613640911877155,-0.001679878099821508,0.015729768201708794
1774657082127594000,9.689593994140624,0.0032070400193333626,0.005039634648710489,-0.0038179049734026194
1774657082144383200,9.70638330078125,-0.00045814859913662076,0.0025961752980947495,0.01511890348047018
1774657082161172200,9.723172119140624,0.0019853105768561363,-0.0010690133785828948,0.034666575491428375
1774657082177961200,9.739961181640625,-0.002901607658714056,0.0038179049734026194,0.013897174037992954
1774657082194750200,9.756750244140624,-0.002290742937475443,-0.002290742937475443,0.021838415414094925
1774657082211539200,9.773539306640625,-0.007177661173045635,0.0038179049734026194,0.007788525894284248
1774657082228328200,9.790328125,-0.009010255336761475,0.0062613640911877155,-0.014202605932950974
1774657082245117200,9.8071171875,-0.008399390615522861,0.0062613640911877155,0.011453714221715927
1774657082261906200,9.82390625,-0.005345067009329796,0.0007635809597559273,0.0591011680662632
1774657082278695400,9.8406953125,-0.013286309316754341,0.010537417605519295,-0.005039634648710489
1774657082295484400,9.857484375,-0.003512472379952669,0.0007635809597559273,0.04505127668380737
1774657082312273400,9.8742734375,0.0062613640911877155,-0.002901607658714056,0.005955931730568409
1774657082329062400,9.8910625,-0.0010690133785828948,0.0001527161948615685,0.00045814859913662076
1774657082345851400,9.907851318359375,0.008704823441803455,-0.008399390615522861,0.03222311660647392
1774657082362640400,9.924640380859374,-0.00045814859913662076,-0.0010690133785828948,-0.026419902220368385
1774657082379429400,9.941429443359375,0.020311253145337105,-0.021838415414094925,0.02611446939408779
1774657082396218400,9.95821826171875,0.0154243353754282,-0.016340631991624832,0.0010690133785828948
1774657082413007400,9.97500732421875,0.0025961752980947495,-0.013286309316754341,0.02000582218170166
1774657082429796600,9.991796630859374,0.01908952370285988,-0.02000582218170166,0.016340631991624832
1774657082446585600,10.008585693359375,0.011759147047996521,-0.0102319847792387,-0.030695954337716103
1774657082463374600,10.02537451171875,0.0062613640911877155,-0.005955931730568409,-0.03375028073787689
1774657082480163600,10.04216357421875,0.020922118797898293,-0.013286309316754341,-0.03497200831770897
1774657082496952600,10.05895263671875,0.0007635809597559273,0.0025961752980947495,-0.04535670951008797
1774657082513741600,10.075741455078125,0.02153298258781433,-0.018784092739224434,0.002901607658714056
1774657082530530600,10.092530517578124,0.020311253145337105,-0.013897174037992954,0.01695149764418602
1774657082547319600,10.109319580078125,-0.006566796451807022,-0.0010690133785828948,-0.025809036567807198
1774657082564108800,10.12610888671875,0.011148282326757908,-0.009010255336761475,0.04627300798892975
1774657082580897800,10.142897705078125,-0.00045814859913662076,0.0025961752980947495,-0.0062613640911877155
1774657082597686800,10.159686767578124,0.010537417605519295,-0.0010690133785828948,0.0334448479115963
1774657082614475800,10.176475830078125,-0.002290742937475443,0.006872228812426329,0.016340631991624832
1774657082631264800,10.1932646484375,0.012980876490473747,0.0032070400193333626,-0.006872228812426329
1774657082648053800,10.2100537109375,-0.015729768201708794,0.01359174121171236,0.04932733252644539
1774657082664842800,10.2268427734375,0.012980876490473747,0.008704823441803455,0.027947064489126205
1774657082681631700,10.2436318359375,-0.02306014485657215,0.007483093533664942,0.08720094710588455
1774657082698421000,10.2604208984375,0.0032070400193333626,-0.025503603741526604,0.2741255760192871
1774657082715210000,10.2772099609375,-0.02672533318400383,0.008704823441803455,-0.12476912885904312
1774657082731999000,10.2939990234375,-0.02367101050913334,0.006872228812426329,0.008399390615522861
1774657082748788000,10.3107880859375,0.004428769461810589,-0.0010690133785828948,0.011453714221715927
1774657082765577000,10.327576904296874,-0.025503603741526604,0.0019853105768561363,-0.05635227635502815
1774657082782366000,10.344365966796875,0.012370011769235134,0.004428769461810589,0.007177661173045635
1774657082799155000,10.361155029296874,-0.0102319847792387,0.008704823441803455,-0.06795870512723923
1774657082815944000,10.37794384765625,0.0062613640911877155,0.014813470654189587,-0.13515383005142212
1774657082832733000,10.39473291015625,0.01359174121171236,0.0038179049734026194,0.007788525894284248
1774657082849522200,10.411522216796875,-0.005955931730568409,0.008093958720564842,0.003512472379952669
1774657082866311200,10.428311279296874,0.03741546720266342,-0.006566796451807022,-0.01908952370285988
1774657082883100200,10.44510009765625,-0.037720900028944016,0.02764163166284561,-0.0844520553946495
1774657082899889200,10.46188916015625,0.028863361105322838,-0.018173227086663246,0.009010255336761475
1774657082916678100,10.47867822265625,-0.041386090219020844,0.004428769461810589,0.009010255336761475
1774657082933467100,10.495467041015624,0.0019853105768561363,-0.009621120058000088,-0.06979130208492279
1774657082950256000,10.512256103515625,-0.051159925758838654,-0.002901607658714056,0.0902552679181099
1774657082967045000,10.529045166015624,-0.006566796451807022,-0.004123337101191282,-0.03130681812763214
1774657082983834000,10.545834228515625,-0.024892739951610565,0.008093958720564842,0.06520981341600418
1774657083000623000,10.562623046875,-0.013897174037992954,0.019700389355421066,-0.06979130208492279
1774657083017412000,10.579412109375,0.005650499369949102,0.0001527161948615685,0.03283398225903511
1774657083034201300,10.596201416015624,-0.005345067009329796,0.020922118797898293,0.03222311660647392
1774657083050990300,10.612990234375,0.028863361105322838,0.016646064817905426,0.0102319847792387
1774657083067779300,10.629779296875,-0.005345067009329796,0.03375028073787689,-0.1259908676147461
1774657083084568300,10.646568359375,0.030695954337716103,0.0013744457392022014,0.021838415414094925
1774657083101357300,10.663357421875,-0.00045814859913662076,-0.001679878099821508,0.004123337101191282
1774657083118146300,10.680146240234375,0.01908952370285988,-0.009010255336761475,-0.0019853105768561363
1774657083134935300,10.696935302734374,-0.005955931730568409,-0.006566796451807022,-0.009926552884280682
1774657083151724300,10.713724365234375,0.02153298258781433,-0.027336198836565018,0.002290742937475443
1774657083168513300,10.73051318359375,-0.02000582218170166,-0.01206457894295454,0.009621120058000088
1774657083185302300,10.74730224609375,0.014813470654189587,-0.0206166859716177,-0.016646064817905426
1774657083202091300,10.76409130859375,-0.005345067009329796,-0.004734201822429895,0.005345067009329796
1774657083218880500,10.780880615234375,0.005650499369949102,-0.009010255336761475,-0.011759147047996521
1774657083235669500,10.79766943359375,0.014202605932950974,-0.015729768201708794,-0.02519817277789116
1774657083252458500,10.81445849609375,-0.01511890348047018,0.0001527161948615685,-0.011148282326757908
1774657083269247500,10.83124755859375,0.005650499369949102,-0.006566796451807022,-0.007483093533664942
1774657083286036500,10.848036376953125,-0.01511890348047018,0.0038179049734026194,0.006566796451807022
1774657083302825500,10.864825439453124,0.0007635809597559273,0.005039634648710489,-0.005650499369949102
1774657083319614500,10.881614501953125,-0.010842849500477314,0.011759147047996521,-0.03252854943275452
1774657083336403500,10.898403564453124,0.017256930470466614,0.009315688163042068,-0.005650499369949102
1774657083353192400,10.9151923828125,0.005039634648710489,0.016035201027989388,-0.026419902220368385
1774657083369981400,10.9319814453125,0.006872228812426329,0.01359174121171236,0.03527744114398956
1774657083386770400,10.9487705078125,0.004428769461810589,0.014813470654189587,0.031612250953912735
1774657083403559700,10.9655595703125,-0.010842849500477314,0.017867794260382652,0.0102319847792387
1774657083420348700,10.9823486328125,-0.0102319847792387,0.007483093533664942,0.047494735568761826
1774657083437137700,10.9991376953125,-0.015729768201708794,-0.00045814859913662076,-0.0062613640911877155
1774657083453926700,11.0159267578125,-0.02306014485657215,-0.00045814859913662076,0.003512472379952669
1774657083470715600,11.032715576171874,-0.011453714221715927,-0.002901607658714056,0.005955931730568409
1774657083487504600,11.049504638671875,-0.02000582218170166,-0.0102319847792387,0.013286309316754341
1774657083504293600,11.066293701171874,0.005650499369949102,-0.006566796451807022,0.01511890348047018
1774657083521082600,11.08308251953125,-0.00045814859913662076,0.004428769461810589,-0.027030766010284424
1774657083537871600,11.09987158203125,0.017256930470466614,-0.001679878099821508,0.013286309316754341
1774657083554660600,11.11666064453125,0.02153298258781433,-0.003512472379952669,0.002290742937475443
1774657083571449600,11.13344970703125,0.023365577682852745,-0.0010690133785828948,-0.016035201027989388
1774657083588238600,11.150238525390625,0.014813470654189587,-0.003512472379952669,-0.0025961752980947495
1774657083605027600,11.167027587890624,0.02153298258781433,-0.01511890348047018,0.008399390615522861
1774657083621816600,11.183816650390625,-0.014508038759231567,-0.001679878099821508,-0.008093958720564842
1774657083638605800,11.200605712890624,0.011148282326757908,-0.021227551624178886,-0.011759147047996521
1774657083655394800,11.217394775390625,-0.021838415414094925,-0.006566796451807022,-0.016646064817905426
1774657083672183800,11.234183837890624,-0.002901607658714056,-0.011453714221715927,-0.0013744457392022014
1774657083688972800,11.250972900390625,-0.01206457894295454,-0.005345067009329796,0.006566796451807022
1774657083705761800,11.26776171875,-0.001679878099821508,0.0013744457392022014,-0.0038179049734026194
1774657083722550800,11.28455078125,0.0038179049734026194,0.004428769461810589,0.002290742937475443
1774657083739339800,11.30133984375,0.0019853105768561363,0.009926552884280682,0.018173227086663246
1774657083756128800,11.318128662109375,0.012980876490473747,0.0062613640911877155,0.021227551624178886
1774657083772917800,11.334917724609374,-0.004734201822429895,0.009315688163042068,0.01206457894295454
1774657083789706800,11.351706787109375,-0.003512472379952669,0.009926552884280682,0.005955931730568409
1774657083806495700,11.368495849609374,-0.007177661173045635,0.008093958720564842,-0.012370011769235134
1774657083823284700,11.38528466796875,-0.0102319847792387,-0.002901607658714056,0.022449281066656113
1774657083840073700,11.40207373046875,-0.010842849500477314,0.0013744457392022014,-0.0013744457392022014
1774657083856862700,11.41886279296875,-0.005345067009329796,0.0001527161948615685,0.006566796451807022
1774657083873652000,11.43565185546875,-0.004123337101191282,-0.002901607658714056,0.006566796451807022
1774657083890441000,11.45244091796875,0.004428769461810589,0.0001527161948615685,0.013286309316754341
1774657083907230000,11.46922998046875,0.004428769461810589,0.0001527161948615685,-0.0007635809597559273
1774657083924019000,11.48601904296875,0.009315688163042068,-0.007788525894284248,0.013286309316754341
1774657083940808000,11.502807861328124,0.007483093533664942,-0.003512472379952669,0.0102319847792387
1774657083957597000,11.519596923828125,0.007483093533664942,-0.004734201822429895,0.004123337101191282
1774657083974386000,11.536385986328124,0.0007635809597559273,-0.003512472379952669,0.010842849500477314
1774657083991175000,11.5531748046875,0.0038179049734026194,-0.0102319847792387,0.018173227086663246
1774657084007964000,11.5699638671875,0.0013744457392022014,-0.004123337101191282,0.017562363296747208
1774657084024753000,11.5867529296875,-0.003512472379952669,0.0062613640911877155,0.001679878099821508
1774657084041542000,11.6035419921875,-0.001679878099821508,0.005650499369949102,-0.0154243353754282
1774657084058331000,11.620330810546875,0.0013744457392022014,0.004428769461810589,0.018784092739224434
1774657084075119900,11.637119873046874,0.006872228812426329,0.010537417605519295,-0.017256930470466614
1774657084091908900,11.653908935546875,-0.00045814859913662076,0.0019853105768561363,-0.03252854943275452
1774657084108697900,11.67069775390625,0.007483093533664942,0.009926552884280682,0.005345067009329796
1774657084125486800,11.68748681640625,-0.027336198836565018,0.017867794260382652,-0.022754713892936707
1774657084142276000,11.704276123046874,0.02153298258781433,0.0007635809597559273,-0.04718930274248123
1774657084159065000,11.721065185546875,-0.031001387163996696,0.009315688163042068,0.03894263133406639
1774657084175854000,11.73785400390625,0.008704823441803455,0.0025961752980947495,-0.039248060435056686
1774657084192643000,11.75464306640625,-0.02367101050913334,0.009926552884280682,0.019394956529140472
1774657084209432000,11.77143212890625,0.0013744457392022014,0.0001527161948615685,-0.0025961752980947495
1774657084226221000,11.788220947265625,-0.005345067009329796,0.011148282326757908,-0.0001527161948615685
1774657084243010000,11.805010009765626,-0.002901607658714056,0.006872228812426329,-0.023976443335413933
1774657084259799000,11.821799072265625,0.005650499369949102,0.0038179049734026194,-0.007483093533664942
1774657084276588000,11.838588134765626,-0.011453714221715927,0.01359174121171236,-0.04474584385752678
1774657084293377000,11.855376953125,0.016035201027989388,-0.002290742937475443,-0.0386371985077858
1774657084310166000,11.872166015625,-0.021227551624178886,0.0062613640911877155,-0.0001527161948615685
1774657084326955000,11.888955078125,0.014813470654189587,-0.008399390615522861,-0.027030766010284424
1774657084343744000,11.905743896484376,-0.018173227086663246,0.005650499369949102,0.005955931730568409
1774657084360533000,11.922532958984375,0.007483093533664942,-0.005955931730568409,-0.014202605932950974
1774657084377322000,11.939322021484376,-0.007788525894284248,0.004428769461810589,-0.0032070400193333626
1774657084394111000,11.956111083984375,0.006872228812426329,-0.002901607658714056,0.005345067009329796
1774657084410900000,11.97289990234375,0.0032070400193333626,-0.0010690133785828948,0.001679878099821508
1774657084427689000,11.98968896484375,0.008093958720564842,0.0001527161948615685,0.004734201822429895
1774657084444478000,12.00647802734375,0.009315688163042068,-0.005345067009329796,-0.014813470654189587
1774657084461267000,12.023266845703125,0.005650499369949102,-0.005955931730568409,0.011453714221715927
1774657084478056000,12.040055908203126,0.006872228812426329,-0.008399390615522861,-0.012980876490473747
1774657084494845000,12.056844970703125,-0.002901607658714056,-0.005955931730568409,0.002290742937475443
1774657084511634200,12.07363427734375,-0.00045814859913662076,-0.005345067009329796,0.002290742937475443
1774657084528423200,12.090423095703125,-0.002290742937475443,-0.001679878099821508,-0.03130681812763214
1774657084545212200,12.107212158203126,0.0032070400193333626,-0.007177661173045635,0.015729768201708794
1774657084562001200,12.124001220703125,-0.003512472379952669,0.0025961752980947495,-0.005650499369949102
1774657084578790100,12.1407900390625,0.0001527161948615685,0.0013744457392022014,0.004123337101191282
1774657084595579100,12.1575791015625,-0.0010690133785828948,-0.004734201822429895,0.027947064489126205
1774657084612368100,12.1743681640625,0.009315688163042068,-0.002901607658714056,0.003512472379952669
1774657084629157000,12.1911572265625,-0.002290742937475443,0.0062613640911877155,-0.017256930470466614
1774657084645946000,12.207946044921876,0.0038179049734026194,-0.002290742937475443,0.009621120058000088
1774657084662735000,12.224735107421875,0.0019853105768561363,-0.01206457894295454,0.01206457894295454
1774657084679524000,12.241524169921876,0.016035201027989388,-0.016340631991624832,0.034666575491428375
1774657084696313000,12.25831298828125,-0.006566796451807022,-0.001679878099821508,-0.0032070400193333626
1774657084713102000,12.27510205078125,0.006872228812426329,-0.018784092739224434,0.04993819445371628
1774657084729891000,12.29189111328125,0.012370011769235134,-0.01206457894295454,-0.008704823441803455
1774657084746680000,12.30868017578125,0.008704823441803455,-0.013897174037992954,0.006566796451807022
1774657084763469000,12.325468994140625,0.014202605932950974,-0.018784092739224434,0.014508038759231567
1774657084780258000,12.342258056640626,0.012370011769235134,-0.007788525894284248,-0.02214384824037552
1774657084797047000,12.359047119140625,0.0013744457392022014,-0.00045814859913662076,-0.0746782198548317
1774657084813836000,12.3758359375,0.017256930470466614,-0.016340631991624832,0.056657709181308746
1774657084830625000,12.392625,0.011148282326757908,-0.006566796451807022,-0.029474224895238876
1774657084847414000,12.4094140625,0.0032070400193333626,0.0013744457392022014,-0.012370011769235134
1774657084864203000,12.426203125,0.011148282326757908,0.0001527161948615685,-0.011148282326757908
1774657084880992000,12.442991943359376,0.007483093533664942,-0.009010255336761475,0.002901607658714056
1774657084897781000,12.459781005859375,0.011148282326757908,-0.004734201822429895,0.031001387163996696
1774657084914570000,12.476570068359376,0.008093958720564842,-0.004123337101191282,0.07131846249103546
1774657084931359000,12.49335888671875,0.02214384824037552,0.009315688163042068,-0.03130681812763214
1774657084948148200,12.510148193359376,-0.007788525894284248,-0.003512472379952669,0.16966769099235535
1774657084964937200,12.526937255859375,0.0154243353754282,0.0019853105768561363,-0.07528908550739288
1774657084981726000,12.543725830078126,-0.009621120058000088,0.006872228812426329,0.012675444595515728
1774657084998515200,12.56051513671875,-0.015729768201708794,0.01359174121171236,-0.08078686892986298
1774657085015304200,12.57730419921875,0.0032070400193333626,-0.005955931730568409,-0.014813470654189587
1774657085032093200,12.59409326171875,-0.021227551624178886,0.0032070400193333626,0.0206166859716177
1774657085048882200,12.610882080078126,-0.004123337101191282,-0.007788525894284248,-0.0025961752980947495
1774657085065671200,12.627671142578125,-0.024892739951610565,0.009926552884280682,-0.042913250625133514
1774657085082460200,12.644460205078126,-0.004734201822429895,0.005039634648710489,-0.0001527161948615685
1774657085099249200,12.661249267578125,-0.019394956529140472,0.006872228812426329,-0.03191768378019333
1774657085116038100,12.6780380859375,-0.01511890348047018,0.0025961752980947495,0.05177079141139984
1774657085132827100,12.6948271484375,-0.0206166859716177,0.0032070400193333626,0.004123337101191282
1774657085149616000,12.7116162109375,-0.0206166859716177,0.017256930470466614,-0.055741410702466965
1774657085166405000,12.728405029296875,-0.004123337101191282,0.010537417605519295,0.0334448479115963
1774657085183194000,12.745194091796876,-0.014508038759231567,0.020922118797898293,-0.014202605932950974
1774657085199983000,12.761983154296875,0.0038179049734026194,0.014813470654189587,0.0383317656815052
1774657085216772000,12.778772216796876,-0.010842849500477314,0.03191768378019333,-0.07895427197217941
1774657085233561000,12.79556103515625,0.0019853105768561363,0.008093958720564842,0.053603384643793106
1774657085250350000,12.81235009765625,-0.003512472379952669,0.009315688163042068,-0.017256930470466614
1774657085267139000,12.82913916015625,-0.001679878099821508,0.0019853105768561363,0.017562363296747208
1774657085283928000,12.845927978515626,0.0001527161948615685,0.004428769461810589,-0.03497200831770897
1774657085300717000,12.862717041015625,-0.0010690133785828948,-0.008399390615522861,0.03283398225903511
1774657085317506000,12.879506103515626,0.0013744457392022014,-0.010842849500477314,-0.0001527161948615685
1774657085334295000,12.896294921875,0.005039634648710489,-0.01695149764418602,0.01511890348047018
1774657085351084000,12.913083984375,0.0001527161948615685,-0.012675444595515728,0.021227551624178886
1774657085367873000,12.929873046875,0.005039634648710489,-0.009010255336761475,-0.007483093533664942
1774657085384662000,12.946662109375,0.009926552884280682,-0.013286309316754341,-0.0062613640911877155
1774657085401451000,12.963450927734375,0.008704823441803455,-0.009010255336761475,-0.014813470654189587
1774657085418240000,12.980239990234375,0.009926552884280682,-0.006566796451807022,-0.02214384824037552
1774657085435029000,12.997029052734375,0.0001527161948615685,-0.002290742937475443,-0.009926552884280682
1774657085451818000,13.01381787109375,0.007483093533664942,-0.002290742937475443,-0.016646064817905426
1774657085468607000,13.03060693359375,-0.003512472379952669,-0.001679878099821508,-0.03191768378019333
1774657085485396000,13.04739599609375,0.0001527161948615685,-0.005955931730568409,0.007177661173045635
1774657085502185000,13.06418505859375,-0.007177661173045635,-0.002901607658714056,-0.0025961752980947495
1774657085518974000,13.080973876953125,-0.005345067009329796,-0.00045814859913662076,0.004123337101191282
1774657085535763000,13.097762939453125,-0.007788525894284248,0.005650499369949102,0.012675444595515728
1774657085552552000,13.114552001953125,0.009926552884280682,0.0007635809597559273,0.017562363296747208
1774657085569341000,13.1313408203125,-0.003512472379952669,0.011148282326757908,-0.004428769461810589
1774657085586130000,13.1481298828125,0.005039634648710489,0.011759147047996521,-0.011148282326757908
1774657085602919000,13.1649189453125,-0.002290742937475443,0.004428769461810589,0.051159925758838654
1774657085619708000,13.1817080078125,0.0001527161948615685,0.005039634648710489,0.013286309316754341
1774657085636497000,13.198496826171874,-0.007177661173045635,0.006872228812426329,-0.010537417605519295
1774657085653286000,13.215285888671875,-0.008399390615522861,0.004428769461810589,0.005955931730568409
1774657085670075000,13.232074951171874,-0.005345067009329796,0.0007635809597559273,-0.0019853105768561363
1774657085686864000,13.24886376953125,-0.008399390615522861,0.0032070400193333626,0.005345067009329796
1774657085703652900,13.26565283203125,-0.0010690133785828948,0.0032070400193333626,-0.014202605932950974
1774657085720441900,13.28244189453125,0.0001527161948615685,-0.0010690133785828948,-0.0013744457392022014
1774657085737230800,13.29923095703125,0.009315688163042068,-0.002901607658714056,0.001679878099821508
1774657085754020000,13.31602001953125,0.005039634648710489,0.0001527161948615685,-0.0025961752980947495
1774657085770808800,13.332808837890624,0.011148282326757908,-0.007177661173045635,0.007177661173045635
1774657085787597800,13.349597900390625,0.0062613640911877155,-0.003512472379952669,0.004123337101191282
1774657085804387000,13.366386962890624,0.0025961752980947495,-0.002901607658714056,-0.006872228812426329
1774657085821176000,13.383176025390625,0.0032070400193333626,-0.012675444595515728,0.0102319847792387
1774657085837965000,13.399965087890624,0.0038179049734026194,-0.009621120058000088,-0.016646064817905426
1774657085854754000,13.416754150390625,-0.002901607658714056,-0.001679878099821508,-0.02764163166284561
1774657085871543000,13.43354296875,0.0007635809597559273,-0.01206457894295454,0.018173227086663246
1774657085888332000,13.45033203125,0.0019853105768561363,-0.001679878099821508,-0.03741546720266342
1774657085905121000,13.46712109375,0.005650499369949102,-0.002901607658714056,0.00045814859913662076
1774657085921910000,13.483909912109375,0.008093958720564842,-0.002901607658714056,-0.0062613640911877155
1774657085938699000,13.500698974609374,0.005650499369949102,-0.001679878099821508,-0.008093958720564842
1774657085955488000,13.517488037109375,0.009315688163042068,0.0007635809597559273,-0.011759147047996521
1774657085972277000,13.534277099609374,0.0019853105768561363,0.004428769461810589,0.012675444595515728
1774657085989066000,13.55106591796875,0.0038179049734026194,-0.004123337101191282,0.012675444595515728
1774657086005855000,13.56785498046875,-0.009621120058000088,0.0025961752980947495,-0.006872228812426329
1774657086022644000,13.58464404296875,-0.00045814859913662076,-0.001679878099821508,-0.0062613640911877155
1774657086039433000,13.601432861328124,-0.005955931730568409,0.0001527161948615685,0.0010690133785828948
1774657086056222000,13.618221923828125,-0.004734201822429895,0.0013744457392022014,-0.004428769461810589
1774657086073011000,13.635010986328124,-0.004734201822429895,0.005650499369949102,0.003512472379952669
1774657086089800000,13.651800048828125,-0.004734201822429895,0.009315688163042068,0.01695149764418602
1774657086106589000,13.6685888671875,-0.004734201822429895,0.011759147047996521,0.021227551624178886
1774657086123378200,13.685378173828125,-0.001679878099821508,0.006872228812426329,0.028557928279042244
1774657086140167200,13.702167236328124,-0.007177661173045635,0.007483093533664942,0.03588830679655075
1774657086156956200,13.7189560546875,-0.005955931730568409,0.01359174121171236,-0.01359174121171236
1774657086173745200,13.7357451171875,-0.009621120058000088,0.0062613640911877155,0.007177661173045635
1774657086190534100,13.7525341796875,-0.007788525894284248,0.005039634648710489,0.024892739951610565
1774657086207323100,13.7693232421875,-0.005345067009329796,0.004428769461810589,-0.019700389355421066
1774657086224112000,13.786112060546875,-0.002290742937475443,0.0001527161948615685,0.014508038759231567
1774657086240901000,13.802901123046874,-0.00045814859913662076,0.0001527161948615685,0.006566796451807022
1774657086257690000,13.819690185546875,0.0001527161948615685,0.0025961752980947495,-0.016646064817905426
1774657086274479000,13.83647900390625,0.008093958720564842,-0.005955931730568409,0.016340631991624832
1774657086291268000,13.85326806640625,0.007483093533664942,-0.008399390615522861,0.002901607658714056
1774657086308057000,13.87005712890625,0.009926552884280682,-0.006566796451807022,-0.0001527161948615685
1774657086324846000,13.88684619140625,0.0007635809597559273,-0.004734201822429895,0.01206457894295454
1774657086341635000,13.903635009765624,0.007483093533664942,-0.006566796451807022,-0.008704823441803455
1774657086358424300,13.92042431640625,-0.002901607658714056,-0.005345067009329796,0.005345067009329796
1774657086375213300,13.93721337890625,0.0032070400193333626,-0.004123337101191282,-0.0001527161948615685
1774657086392002300,13.954002197265625,-0.0010690133785828948,-0.00045814859913662076,-0.02519817277789116
1774657086408791300,13.970791259765624,0.0019853105768561363,-0.00045814859913662076,0.0010690133785828948
1774657086425580300,13.987580322265625,-0.001679878099821508,0.005650499369949102,-0.0062613640911877155
1774657086442369300,14.004369384765624,-0.007177661173045635,0.011148282326757908,-0.019700389355421066
1774657086459158300,14.021158203125,-0.002290742937475443,0.0032070400193333626,0.005955931730568409
1774657086475947300,14.037947265625,-0.004734201822429895,0.0038179049734026194,0.016340631991624832
1774657086492736300,14.054736328125,-0.009010255336761475,0.011148282326757908,0.018173227086663246
1774657086509525200,14.071525146484374,-0.012675444595515728,0.016035201027989388,-0.017867794260382652
1774657086526314200,14.088314208984375,0.0013744457392022014,0.016035201027989388,-0.05696314200758934
1774657086543103500,14.105103515625,-0.013286309316754341,0.014202605932950974,0.022449281066656113
1774657086559892200,14.121892333984375,0.0019853105768561363,0.008704823441803455,0.04016435891389847
1774657086576681200,14.13868115234375,-0.007788525894284248,0.01847865991294384,-0.04230238497257233
1774657086593470500,14.155470458984375,0.005650499369949102,0.0032070400193333626,0.046883873641490936
1774657086610259500,14.172259521484374,-0.004123337101191282,0.0007635809597559273,0.005955931730568409
1774657086627048400,14.18904833984375,0.009315688163042068,-0.002290742937475443,0.0010690133785828948
1774657086643837400,14.20583740234375,-0.00045814859913662076,-0.005955931730568409,-0.008093958720564842
1774657086660626400,14.22262646484375,0.009926552884280682,-0.018173227086663246,-0.0032070400193333626
1774657086677415400,14.23941552734375,-0.00045814859913662076,-0.010842849500477314,-0.007483093533664942
1774657086694204400,14.256204345703125,0.011148282326757908,-0.018173227086663246,-0.022754713892936707
1774657086710993400,14.272993408203124,0.010537417605519295,-0.018784092739224434,0.009621120058000088
1774657086727782400,14.289782470703125,0.010537417605519295,-0.008399390615522861,-0.05635227635502815
1774657086744571400,14.3065712890625,0.007483093533664942,-0.004123337101191282,-0.07834340631961823
1774657086761360400,14.3233603515625,0.017256930470466614,-0.0102319847792387,0.03711003437638283
1774657086778149400,14.3401494140625,0.0019853105768561363,0.0019853105768561363,-0.0025961752980947495
1774657086794938400,14.3569384765625,0.005039634648710489,-0.002901607658714056,0.02611446939408779
1774657086811727400,14.373727294921874,-0.00045814859913662076,-0.002290742937475443,-0.007483093533664942
1774657086828516600,14.3905166015625,0.005039634648710489,-0.004123337101191282,-0.01359174121171236
1774657086845305600,14.4073056640625,-0.009010255336761475,-0.0010690133785828948,0.018784092739224434
1774657086862094600,14.424094482421875,0.008093958720564842,-0.002901607658714056,-0.0007635809597559273
1774657086878883600,14.440883544921874,-0.004734201822429895,0.007483093533664942,-0.0001527161948615685
1774657086895672600,14.457672607421875,0.0019853105768561363,0.0013744457392022014,-0.023365577682852745
1774657086912461600,14.474461669921874,-0.005345067009329796,-0.002290742937475443,0.011453714221715927
1774657086929250600,14.49125048828125,-0.005345067009329796,0.0007635809597559273,0.017562363296747208
1774657086946039600,14.50803955078125,-0.009621120058000088,0.0001527161948615685,0.02611446939408779
1774657086962828500,14.52482861328125,-0.002901607658714056,0.0013744457392022014,-0.012370011769235134
1774657086979617500,14.541617431640624,-0.018784092739224434,0.016646064817905426,-0.022754713892936707
1774657086996406500,14.558406494140625,-0.006566796451807022,0.0062613640911877155,0.010842849500477314
1774657087013195500,14.575195556640624,-0.013897174037992954,0.006872228812426329,0.051159925758838654
1774657087029984500,14.591984619140625,0.0019853105768561363,0.007483093533664942,-0.027030766010284424
1774657087046773500,14.6087734375,-0.009621120058000088,0.007483093533664942,0.03283398225903511
1774657087063562800,14.625562744140625,0.005650499369949102,-0.00045814859913662076,0.009621120058000088
1774657087080351500,14.6423515625,-0.0010690133785828948,0.011148282326757908,-0.016646064817905426
1774657087097140700,14.659140625,0.008093958720564842,-0.008399390615522861,0.015729768201708794
1774657087113929700,14.6759296875,0.011148282326757908,-0.014508038759231567,-0.014813470654189587
1774657087130718700,14.69271875,0.0038179049734026194,-0.011453714221715927,0.018784092739224434
1774657087147507700,14.7095078125,0.020311253145337105,-0.0206166859716177,0.006566796451807022
1774657087164296700,14.726296630859375,0.009315688163042068,-0.015729768201708794,0.004734201822429895
1774657087181085700,14.743085693359374,0.019700389355421066,-0.02611446939408779,0.005955931730568409
1774657087197874700,14.759874755859375,0.023976443335413933,-0.031612250953912735,0.06826414167881012
1774657087214663700,14.77666357421875,0.014813470654189587,-0.013286309316754341,0.09880737960338593
1774657087231452700,14.79345263671875,0.023365577682852745,0.0007635809597559273,-0.027030766010284424
1774657087248241700,14.81024169921875,0.02519817277789116,-0.01206457894295454,-0.10644318908452988
1774657087265030700,14.82703076171875,0.04169152304530144,-0.016340631991624832,-0.1107192412018776
1774657087281819600,14.843819580078126,0.007483093533664942,-0.02916879393160343,0.14217877388000488
1774657087298608600,14.860608642578125,0.023365577682852745,0.0013744457392022014,-0.030695954337716103
1774657087315397600,14.877397705078126,0.009315688163042068,-0.046883873641490936,0.4127918779850006
1774657087332186600,14.8941865234375,0.019700389355421066,-0.021227551624178886,-0.13209950923919678
1774657087348975600,14.9109755859375,-0.004123337101191282,-0.01511890348047018,0.03894263133406639
1774657087365764600,14.9277646484375,-0.007177661173045635,0.005039634648710489,-0.12904518842697144
1774657087382553900,14.944553955078124,0.017256930470466614,-0.003512472379952669,-0.19685117900371552
1774657087399342800,14.9613427734375,-0.014508038759231567,0.0007635809597559273,-0.008093958720564842
1774657087416131800,14.9781318359375,0.008704823441803455,-0.002901607658714056,0.051159925758838654
1774657087432920800,14.9949208984375,-0.007177661173045635,0.01847865991294384,-0.07712167501449585
1774657087449709800,15.011709716796876,0.023365577682852745,-0.004734201822429895,0.0743727833032608
1774657087466498800,15.028498779296875,-0.022449281066656113,0.02825249545276165,-0.039858926087617874
1774657087483287800,15.045287841796876,-0.009010255336761475,-0.002901607658714056,0.10858121514320374
1774657087500076800,15.062076904296875,-0.024281874299049377,0.01847865991294384,-0.10827577859163284
1774657087516865800,15.07886572265625,-0.027336198836565018,0.010537417605519295,-0.0899498388171196
1774657087533654800,15.09565478515625,-0.018784092739224434,0.011759147047996521,-0.019700389355421066
1774657087550443800,15.11244384765625,-0.04016435891389847,0.019700389355421066,-0.028863361105322838
1774657087567232800,15.129232666015625,-0.016340631991624832,0.010537417605519295,0.003512472379952669
1774657087584021800,15.146021728515626,-0.02611446939408779,0.03558287397027016,0.014508038759231567
1774657087600810800,15.162810791015625,-0.008399390615522861,0.023365577682852745,0.001679878099821508
1774657087617599700,15.179599853515626,-0.022449281066656113,0.036193739622831345,0.0010690133785828948
1774657087634388700,15.196388671875,0.008704823441803455,0.0154243353754282,0.05849030241370201
1774657087651177700,15.213177734375,-0.02916879393160343,0.023365577682852745,0.0847574844956398
1774657087667966700,15.229966796875,-0.012675444595515728,0.025809036567807198,-0.07895427197217941
1774657087684755700,15.246755615234376,-0.021838415414094925,-0.001679878099821508,0.07559451460838318
1774657087701544700,15.263544677734375,-0.005955931730568409,0.0013744457392022014,-0.027030766010284424
1774657087718334000,15.280333984375,-0.01206457894295454,-0.013897174037992954,0.03283398225903511
1774657087735123000,15.297123046875,-0.0010690133785828948,-0.015729768201708794,0.017562363296747208
1774657087751911700,15.31391162109375,0.012980876490473747,-0.02306014485657215,0.031612250953912735
1774657087768701000,15.330700927734375,0.006872228812426329,-0.013897174037992954,-0.0013744457392022014
1774657087785490000,15.347489990234376,0.01847865991294384,-0.018173227086663246,0.024281874299049377
1774657087802279000,15.36427880859375,0.023365577682852745,-0.01511890348047018,-0.017256930470466614
1774657087819068000,15.38106787109375,0.0386371985077858,-0.0102319847792387,-0.008704823441803455
1774657087835857000,15.39785693359375,0.012370011769235134,0.004428769461810589,-0.10399972647428513
1774657087852646000,15.41464599609375,0.02825249545276165,-0.009010255336761475,-0.05635227635502815
1774657087869435000,15.431434814453125,0.02153298258781433,-0.013286309316754341,0.05787943676114082
1774657087886224000,15.448223876953126,0.014202605932950974,-0.005955931730568409,-0.03802633285522461
1774657087903012900,15.465012939453125,0.0154243353754282,-0.003512472379952669,-0.01359174121171236
1774657087919801900,15.4818017578125,-0.002290742937475443,-0.003512472379952669,0.007177661173045635
1774657087936590800,15.4985908203125,0.012370011769235134,-0.009010255336761475,-0.030085090547800064
1774657087953379800,15.5153798828125,-0.003512472379952669,-0.0102319847792387,0.03711003437638283
1774657087970168800,15.5321689453125,0.009315688163042068,-0.0102319847792387,-0.008704823441803455
1774657087986957800,15.548957763671876,-0.0206166859716177,0.009926552884280682,-0.0062613640911877155
1774657088003746800,15.565746826171875,-0.007788525894284248,-0.004734201822429895,0.005345067009329796
1774657088020535800,15.582535888671876,-0.018784092739224434,0.0007635809597559273,0.002290742937475443
1774657088037324800,15.59932470703125,-0.022449281066656113,0.008093958720564842,0.0102319847792387
1774657088054113800,15.61611376953125,-0.022449281066656113,0.0062613640911877155,0.0010690133785828948
1774657088070902800,15.63290283203125,-0.015729768201708794,0.010537417605519295,0.007788525894284248
1774657088087691800,15.64969189453125,-0.016340631991624832,0.019700389355421066,0.03405570983886719
1774657088104480800,15.666480712890625,-0.019394956529140472,0.025809036567807198,0.006566796451807022
1774657088121269800,15.683269775390626,-0.007177661173045635,0.009926552884280682,0.11957678198814392
1774657088138058800,15.700058837890625,-0.021227551624178886,0.03252854943275452,-0.0850629210472107
1774657088154847700,15.71684765625,-0.004734201822429895,0.010537417605519295,0.057268574833869934
1774657088171636700,15.73363671875,-0.02000582218170166,0.026419902220368385,-0.04169152304530144
1774657088188425700,15.75042578125,-0.004123337101191282,0.008704823441803455,0.02367101050913334
1774657088205214700,15.767214599609375,0.0038179049734026194,0.0038179049734026194,-0.02519817277789116
1774657088222003700,15.784003662109376,0.006872228812426329,-0.004123337101191282,0.028557928279042244
1774657088238793000,15.80079296875,0.008704823441803455,-0.003512472379952669,-0.025809036567807198
1774657088255582000,15.81758203125,0.009926552884280682,-0.006566796451807022,0.0102319847792387
1774657088272370700,15.83437060546875,0.014813470654189587,-0.011453714221715927,-0.0038179049734026194
1774657088289160000,15.851159912109376,0.012370011769235134,-0.01206457894295454,-0.004428769461810589
1774657088305949000,15.867948974609375,0.011759147047996521,-0.014508038759231567,0.009010255336761475
1774657088322738000,15.884738037109376,0.016035201027989388,-0.012675444595515728,-0.02458730712532997
1774657088339527000,15.90152685546875,0.004428769461810589,-0.01206457894295454,0.0102319847792387
1774657088356316000,15.91831591796875,-0.002290742937475443,-0.012675444595515728,-0.014202605932950974
1774657088373105000,15.93510498046875,-0.006566796451807022,-0.017562363296747208,-0.0007635809597559273
1774657088389894000,15.951893798828126,-0.009621120058000088,-0.012675444595515728,-0.042913250625133514
1774657088406683000,15.968682861328125,-0.011453714221715927,-0.006566796451807022,-0.008093958720564842
1774657088423471900,15.985471923828126,0.0032070400193333626,-0.002290742937475443,-0.0013744457392022014
1774657088440260900,16.0022607421875,0.005039634648710489,0.006872228812426329,-0.012980876490473747
1774657088457049900,16.0190498046875,0.02153298258781433,0.0062613640911877155,-0.011759147047996521
1774657088473838800,16.0358388671875,0.008093958720564842,0.017867794260382652,-0.0062613640911877155
1774657088490627800,16.0526279296875,0.017867794260382652,0.010537417605519295,0.009621120058000088
1774657088507416800,16.069416748046876,0.0038179049734026194,0.009926552884280682,0.034666575491428375
1774657088524205800,16.086205810546875,-0.005345067009329796,0.011148282326757908,0.02306014485657215
1774657088540994800,16.102994873046875,-0.011453714221715927,0.0019853105768561363,0.02367101050913334
1774657088557784000,16.1197841796875,-0.01695149764418602,-0.002290742937475443,0.02000582218170166
1774657088574573000,16.136572998046876,-0.021227551624178886,0.0019853105768561363,-0.008093958720564842
1774657088591362000,16.153362060546876,-0.028557928279042244,0.007483093533664942,-0.007483093533664942
1774657088608151000,16.170151123046875,-0.009621120058000088,-0.0010690133785828948,0.002901607658714056
1774657088624940000,16.18693994140625,-0.01206457894295454,0.007483093533664942,0.002290742937475443
1774657088641729000,16.20372900390625,0.012370011769235134,0.0013744457392022014,-0.005650499369949102
1774657088658518000,16.22051806640625,-0.001679878099821508,0.01359174121171236,0.0010690133785828948
1774657088675307000,16.23730712890625,0.0154243353754282,0.0038179049734026194,0.002901607658714056
1774657088692096000,16.254095947265625,0.010537417605519295,0.007483093533664942,-0.016646064817905426
1774657088708885000,16.270885009765625,0.011148282326757908,-0.002901607658714056,-0.0007635809597559273
1774657088725674000,16.287674072265624,0.0025961752980947495,-0.005955931730568409,0.002290742937475443
1774657088742463000,16.304462890625,-0.00045814859913662076,-0.01206457894295454,-0.009926552884280682
1774657088759252000,16.321251953125,0.0007635809597559273,-0.015729768201708794,0.01206457894295454
1774657088776041000,16.338041015625,-0.009010255336761475,-0.004123337101191282,0.00045814859913662076
1774657088792830000,16.354829833984375,0.0007635809597559273,-0.001679878099821508,-0.03802633285522461
1774657088809619200,16.371619140625,0.005650499369949102,-0.007788525894284248,0.010842849500477314
1774657088826408200,16.388408203125,0.012980876490473747,-0.002901607658714056,-0.0001527161948615685
1774657088843197200,16.405197265625,0.0001527161948615685,0.0038179049734026194,0.012675444595515728
1774657088859986200,16.421986083984375,0.005039634648710489,0.0007635809597559273,0.012675444595515728
1774657088876775200,16.438775146484375,-0.00045814859913662076,0.0001527161948615685,0.013897174037992954
1774657088893564200,16.455564208984374,-0.004123337101191282,0.0001527161948615685,0.010842849500477314
1774657088910353200,16.472353271484376,-0.006566796451807022,0.0019853105768561363,-0.017867794260382652
1774657088927142100,16.48914208984375,-0.011453714221715927,0.0025961752980947495,0.009621120058000088
1774657088943931100,16.50593115234375,-0.004123337101191282,0.0007635809597559273,0.001679878099821508
1774657088960720100,16.52272021484375,-0.004123337101191282,0.0038179049734026194,0.004123337101191282
1774657088977509000,16.539509033203124,0.004428769461810589,0.004428769461810589,0.005955931730568409
1774657088994298000,16.556298095703124,0.0007635809597559273,0.005039634648710489,0.002901607658714056
1774657089011087000,16.573087158203126,0.006872228812426329,0.005039634648710489,-0.0019853105768561363
1774657089027876400,16.58987646484375,-0.00045814859913662076,0.0019853105768561363,0.005955931730568409
1774657089044665000,16.6066650390625,-0.0010690133785828948,0.0025961752980947495,-0.0025961752980947495
1774657089061454000,16.6234541015625,-0.007788525894284248,-0.00045814859913662076,-0.0019853105768561363
1774657089078243300,16.640243408203126,-0.002290742937475443,-0.005955931730568409,0.0010690133785828948
1774657089095032300,16.6570322265625,-0.010842849500477314,0.0001527161948615685,-0.007483093533664942
1774657089111821300,16.6738212890625,0.0013744457392022014,-0.004123337101191282,-0.0001527161948615685
1774657089128610300,16.6906103515625,-0.002901607658714056,0.0062613640911877155,-0.0038179049734026194
1774657089145399300,16.7073994140625,0.007483093533664942,0.004428769461810589,-0.0013744457392022014
1774657089162188300,16.724188232421874,0.0025961752980947495,0.0062613640911877155,-0.007483093533664942
1774657089178977300,16.740977294921876,0.005039634648710489,0.005650499369949102,-0.0013744457392022014
1774657089195766300,16.757766357421875,0.0007635809597559273,0.008704823441803455,-0.0001527161948615685
1774657089212555300,16.77455517578125,0.0001527161948615685,0.0007635809597559273,-0.020922118797898293
1774657089229344300,16.79134423828125,-0.005345067009329796,0.0001527161948615685,0.011453714221715927
1774657089246133200,16.80813330078125,-0.006566796451807022,0.0007635809597559273,-0.029474224895238876
1774657089262922200,16.824922119140624,-0.008399390615522861,-0.0010690133785828948,0.002290742937475443
1774657089279711200,16.841711181640626,-0.005345067009329796,0.0032070400193333626,-0.01908952370285988
1774657089296500200,16.858500244140625,-0.0010690133785828948,0.010537417605519295,-0.10399972647428513
1774657089313289200,16.875289306640624,-0.008399390615522861,0.0062613640911877155,0.0102319847792387
1774657089330078500,16.892078369140624,0.016035201027989388,0.0019853105768561363,0.057268574833869934
1774657089346867500,16.908867431640626,-0.019394956529140472,0.020311253145337105,-0.03741546720266342
1774657089363656400,16.925656494140625,0.02458730712532997,0.0019853105768561363,0.027336198836565018
1774657089380445400,16.942445556640624,-0.02306014485657215,0.006872228812426329,-0.0013744457392022014
1774657089397234400,16.959234375,0.01908952370285988,-0.005955931730568409,-0.004428769461810589
1774657089414023400,16.9760234375,-0.018784092739224434,0.0019853105768561363,0.004734201822429895
1774657089430812400,16.9928125,0.010537417605519295,-0.011453714221715927,-0.0013744457392022014
1774657089447601400,17.009601318359376,-0.009010255336761475,-0.0010690133785828948,-0.009315688163042068
1774657089464390400,17.026390380859375,0.005650499369949102,-0.005955931730568409,-0.012370011769235134
1774657089481179400,17.043179443359374,0.0007635809597559273,-0.0010690133785828948,-0.04657844081521034
1774657089497968400,17.059968505859374,0.005650499369949102,-0.002290742937475443,-0.014202605932950974
1774657089514757400,17.07675732421875,0.011148282326757908,-0.002901607658714056,-0.0032070400193333626
1774657089531546400,17.09354638671875,0.0025961752980947495,-0.002290742937475443,0.011453714221715927
1774657089548335400,17.11033544921875,0.012370011769235134,-0.009621120058000088,-0.02519817277789116
1774657089565124400,17.127124267578125,-0.002290742937475443,-0.00045814859913662076,-0.03252854943275452
1774657089581913300,17.143913330078124,0.0062613640911877155,-0.01206457894295454,-0.02153298258781433
1774657089598702300,17.160702392578123,-0.0010690133785828948,-0.011453714221715927,0.0010690133785828948
1774657089615491300,17.1774912109375,-0.002901607658714056,-0.005955931730568409,0.003512472379952669
1774657089632280600,17.194280517578125,0.0007635809597559273,-0.004734201822429895,-0.026419902220368385
1774657089649069600,17.211069580078124,0.006872228812426329,-0.009010255336761475,0.00045814859913662076
1774657089665858600,17.227858642578123,0.0038179049734026194,-0.002901607658714056,0.0010690133785828948
1774657089682647600,17.2446474609375,0.0038179049734026194,-0.005955931730568409,0.013897174037992954
1774657089699436500,17.2614365234375,0.011148282326757908,-0.004123337101191282,0.001679878099821508
1774657089716225500,17.2782255859375,-0.005345067009329796,0.0062613640911877155,0.001679878099821508
1774657089733014500,17.2950146484375,0.007483093533664942,-0.002901607658714056,0.0206166859716177
1774657089749803500,17.311803466796874,-0.004123337101191282,-0.002290742937475443,0.02000582218170166
1774657089766592500,17.328592529296873,-0.0010690133785828948,0.0025961752980947495,0.024281874299049377
1774657089783381500,17.345381591796876,-0.005345067009329796,0.0013744457392022014,-0.025809036567807198
1774657089800170500,17.36217041015625,0.0001527161948615685,-0.0010690133785828948,0.008399390615522861
1774657089816959500,17.37895947265625,-0.008399390615522861,0.004428769461810589,0.007177661173045635
1774657089833748500,17.39574853515625,-0.003512472379952669,0.0019853105768561363,0.007177661173045635
1774657089850537500,17.412537353515624,-0.00045814859913662076,-0.002290742937475443,0.02306014485657215
1774657089867326500,17.429326416015623,-0.003512472379952669,0.005039634648710489,0.013286309316754341
1774657089884115500,17.446115478515626,0.0007635809597559273,0.0007635809597559273,0.016340631991624832
1774657089900904400,17.462904541015625,-0.006566796451807022,0.005650499369949102,0.041386090219020844
1774657089917693400,17.479693359375,-0.002290742937475443,-0.001679878099821508,0.0334448479115963
1774657089934482400,17.496482421875,0.0001527161948615685,0.0001527161948615685,0.002901607658714056
1774657089951271400,17.513271484375,-0.002901607658714056,-0.00045814859913662076,0.010842849500477314
1774657089968060400,17.530060302734373,-0.001679878099821508,-0.001679878099821508,0.009621120058000088
1774657089984849400,17.546849365234376,0.0038179049734026194,-0.005345067009329796,0.02367101050913334
1774657090001638400,17.563638427734375,0.0013744457392022014,-0.007177661173045635,0.007177661173045635
1774657090018427400,17.580427490234374,0.0062613640911877155,-0.0102319847792387,0.025503603741526604
1774657090035216400,17.59721630859375,0.009926552884280682,-0.012675444595515728,0.017562363296747208
1774657090052005400,17.61400537109375,0.007483093533664942,-0.01206457894295454,0.013286309316754341
1774657090068794600,17.630794677734375,0.008704823441803455,-0.011453714221715927,0.03588830679655075
1774657090085583600,17.64758349609375,0.008093958720564842,-0.011453714221715927,0.019394956529140472
1774657090102372600,17.66437255859375,0.0154243353754282,-0.013897174037992954,0.022449281066656113
1774657090119161600,17.68116162109375,0.011148282326757908,-0.007177661173045635,0.008399390615522861
1774657090135950600,17.69795068359375,0.008093958720564842,-0.004123337101191282,0.007177661173045635
1774657090152739600,17.714739501953126,0.014813470654189587,-0.002901607658714056,-0.0007635809597559273
1774657090169528600,17.731528564453125,0.010537417605519295,0.0038179049734026194,-0.04108065739274025
1774657090186317600,17.748317626953124,0.012370011769235134,0.004428769461810589,-0.011148282326757908
1774657090203106600,17.7651064453125,0.011148282326757908,0.008093958720564842,0.003512472379952669
1774657090219895600,17.7818955078125,0.0013744457392022014,0.009315688163042068,-0.012980876490473747
1774657090236684500,17.7986845703125,0.0001527161948615685,0.005039634648710489,-0.026419902220368385
1774657090253473500,17.8154736328125,-0.016340631991624832,0.0007635809597559273,0.010842849500477314
1774657090270262500,17.832262451171875,-0.002290742937475443,-0.004123337101191282,0.005345067009329796
1774657090287051500,17.849051513671874,-0.031001387163996696,0.0062613640911877155,-0.017867794260382652
1774657090303840500,17.865840576171873,-0.014508038759231567,0.010537417605519295,-0.03497200831770897
1774657090320629500,17.88262939453125,-0.03283398225903511,0.0062613640911877155,0.013897174037992954
1774657090337418500,17.89941845703125,-0.02916879393160343,0.0032070400193333626,0.018784092739224434
1774657090354207500,17.91620751953125,-0.03588830679655075,0.0019853105768561363,0.09392046183347702
1774657090370996500,17.93299658203125,-0.012675444595515728,0.02519817277789116,0.007177661173045635
1774657090387785500,17.949785400390624,-0.007177661173045635,0.03191768378019333,-0.04046979174017906
1774657090404574500,17.966574462890627,0.014202605932950974,0.023976443335413933,-0.03741546720266342
1774657090421363500,17.983363525390626,-0.012675444595515728,0.03252854943275452,-0.004428769461810589
1774657090438152400,18.00015234375,0.01908952370285988,0.008704823441803455,-0.036804601550102234
1774657090454941400,18.01694140625,-0.012675444595515728,0.0019853105768561363,0.024281874299049377
1774657090471730400,18.03373046875,0.017867794260382652,-0.01695149764418602,0.02611446939408779
1774657090488519400,18.05051953125,-0.001679878099821508,-0.014508038759231567,-0.005650499369949102
1774657090505308400,18.067308349609377,0.0154243353754282,-0.03283398225903511,0.04993819445371628
1774657090522097400,18.084097412109376,-0.002290742937475443,-0.02367101050913334,0.004734201822429895
1774657090538886400,18.100886474609375,0.01359174121171236,-0.025503603741526604,0.003512472379952669
1774657090555675400,18.11767529296875,0.014813470654189587,-0.02000582218170166,0.006566796451807022
1774657090572464400,18.13446435546875,0.014813470654189587,-0.01695149764418602,0.01511890348047018
1774657090589253400,18.15125341796875,0.01359174121171236,-0.007788525894284248,-0.01908952370285988
1774657090606042400,18.16804248046875,0.01847865991294384,-0.010842849500477314,-0.004428769461810589
1774657090622831400,18.184831298828126,0.0154243353754282,-0.010842849500477314,0.013897174037992954
1774657090639620400,18.201620361328125,0.01359174121171236,0.0013744457392022014,-0.04169152304530144
1774657090656409300,18.218409423828124,0.0154243353754282,0.0062613640911877155,-0.06246092543005943
1774657090673198300,18.2351982421875,0.0032070400193333626,0.004428769461810589,0.01206457894295454
1774657090689987300,18.2519873046875,0.004428769461810589,0.008093958720564842,-0.09056070446968079
1774657090706776300,18.2687763671875,0.0025961752980947495,0.0019853105768561363,0.024281874299049377
1774657090723565300,18.2855654296875,-0.008399390615522861,0.012370011769235134,-0.0539088174700737
1774657090740354300,18.302354248046875,-0.009621120058000088,0.0032070400193333626,0.02000582218170166
1774657090757143300,18.319143310546874,-0.030390523374080658,-0.002290742937475443,0.028557928279042244
1774657090773932300,18.335932373046877,-0.006566796451807022,-0.007177661173045635,0.0206166859716177
1774657090790721300,18.35272119140625,-0.021838415414094925,0.01359174121171236,-0.01847865991294384
1774657090807510300,18.36951025390625,-0.016340631991624832,0.007483093533664942,0.009010255336761475
1774657090824299300,18.38629931640625,-0.015729768201708794,0.009926552884280682,0.03711003437638283
1774657090841088300,18.403088134765625,-0.024281874299049377,0.019700389355421066,-0.04841103404760361
1774657090857877200,18.419877197265624,-0.014508038759231567,0.0038179049734026194,0.0487164668738842
1774657090874666200,18.436666259765627,0.011148282326757908,0.008704823441803455,-0.042913250625133514
1774657090891455200,18.453455322265626,-0.010842849500477314,0.01359174121171236,0.02672533318400383
1774657090908244200,18.470244140625,0.017867794260382652,-0.0010690133785828948,-0.0013744457392022014
1774657090925033200,18.487033203125,-0.009621120058000088,0.0032070400193333626,0.0102319847792387
1774657090941822200,18.503822265625,0.014813470654189587,-0.007788525894284248,0.007177661173045635
1774657090958611200,18.520611083984374,-0.001679878099821508,0.0007635809597559273,-0.03252854943275452
1774657090975400200,18.537400146484377,0.01359174121171236,-0.009621120058000088,0.007177661173045635
1774657090992189200,18.554189208984376,-0.004734201822429895,-0.002901607658714056,0.013286309316754341
1774657091008978200,18.570978271484375,0.017867794260382652,-0.015729768201708794,-0.0019853105768561363
1774657091025767200,18.58776708984375,-0.008399390615522861,0.0013744457392022014,0.005345067009329796
1774657091042556200,18.60455615234375,0.0019853105768561363,-0.004123337101191282,-0.005039634648710489
1774657091059345200,18.62134521484375,-0.005345067009329796,-0.005345067009329796,-0.007483093533664942
1774657091076134100,18.638134033203126,-0.002290742937475443,-0.0010690133785828948,0.009621120058000088
1774657091092923100,18.654923095703126,-0.005345067009329796,-0.00045814859913662076,0.001679878099821508
1774657091109712100,18.671712158203125,-0.008399390615522861,0.005650499369949102,-0.0038179049734026194
1774657091126501000,18.688501220703124,0.0038179049734026194,0.0013744457392022014,-0.0013744457392022014
1774657091143290000,18.7052900390625,-0.009010255336761475,0.008093958720564842,-0.011148282326757908
1774657091160079000,18.7220791015625,0.008704823441803455,0.0013744457392022014,0.008399390615522861
1774657091176868000,18.7388681640625,-0.005345067009329796,0.009315688163042068,-0.012370011769235134
1774657091193657000,18.755656982421876,0.0019853105768561363,-0.002901607658714056,0.02306014485657215
1774657091210446000,18.772446044921875,-0.0010690133785828948,0.0025961752980947495,0.008399390615522861
1774657091227235000,18.789235107421874,-0.00045814859913662076,0.0013744457392022014,-0.007483093533664942
1774657091244024000,18.806024169921876,0.0038179049734026194,-0.007177661173045635,0.013286309316754341
1774657091260813000,18.82281298828125,0.0007635809597559273,0.0001527161948615685,-0.012980876490473747
1774657091277602000,18.83960205078125,-0.001679878099821508,-0.002290742937475443,0.0010690133785828948
1774657091294391000,18.85639111328125,0.0025961752980947495,-0.003512472379952669,0.0102319847792387
1774657091311180000,18.873179931640625,-0.002901607658714056,-0.002290742937475443,-0.004428769461810589
1774657091327969000,18.889968994140624,0.005650499369949102,-0.004123337101191282,0.003512472379952669
1774657091344758000,18.906758056640626,0.0019853105768561363,-0.002901607658714056,0.004734201822429895
1774657091361547000,18.923547119140625,0.009315688163042068,-0.006566796451807022,-0.0001527161948615685
1774657091378336000,18.9403359375,-0.002290742937475443,-0.0010690133785828948,0.002290742937475443
1774657091395125000,18.957125,0.008093958720564842,-0.002901607658714056,0.002901607658714056
1774657091411914000,18.9739140625,-0.003512472379952669,0.0007635809597559273,-0.0001527161948615685
1774657091428703000,18.990702880859374,-0.0010690133785828948,-0.00045814859913662076,0.006566796451807022
1774657091445492000,19.007491943359376,-0.004123337101191282,0.0013744457392022014,-0.0025961752980947495
1774657091462281000,19.024281005859375,-0.004123337101191282,0.0032070400193333626,0.0010690133785828948
1774657091479070000,19.041070068359375,0.0013744457392022014,-0.00045814859913662076,0.003512472379952669
1774657091495859000,19.05785888671875,-0.003512472379952669,0.0062613640911877155,-0.0032070400193333626
1774657091512648000,19.07464794921875,0.0007635809597559273,0.0013744457392022014,0.005955931730568409
1774657091529437000,19.09143701171875,-0.002290742937475443,0.0019853105768561363,0.002901607658714056
1774657091546226000,19.108225830078126,0.0013744457392022014,0.0013744457392022014,0.00045814859913662076
1774657091563015000,19.125014892578125,-0.007788525894284248,0.0019853105768561363,0.002901607658714056
1774657091579804000,19.141803955078124,0.0001527161948615685,-0.002901607658714056,0.0010690133785828948
1774657091596593000,19.158593017578124,-0.004123337101191282,0.0019853105768561363,-0.0013744457392022014
1774657091613382000,19.1753818359375,0.0038179049734026194,-0.00045814859913662076,0.002901607658714056
1774657091630171000,19.1921708984375,0.0038179049734026194,-0.001679878099821508,-0.0019853105768561363
1774657091646959900,19.2089599609375,0.007483093533664942,0.0032070400193333626,-0.0001527161948615685
1774657091663748900,19.225748779296875,0.005039634648710489,-0.003512472379952669,0.00045814859913662076
1774657091680537900,19.242537841796874,0.0019853105768561363,0.0007635809597559273,-0.0013744457392022014
1774657091697326800,19.259326904296874,0.004428769461810589,-0.004123337101191282,0.003512472379952669
1774657091714115800,19.27611572265625,-0.002901607658714056,-0.001679878099821508,0.0010690133785828948
1774657091730904800,19.29290478515625,-0.002901607658714056,0.0007635809597559273,-0.0062613640911877155
1774657091747693800,19.30969384765625,-0.007177661173045635,-0.0010690133785828948,0.00045814859913662076
1774657091764482800,19.32648291015625,-0.002901607658714056,0.0013744457392022014,-0.0001527161948615685
1774657091781271800,19.343271728515624,-0.006566796451807022,0.005039634648710489,-0.008704823441803455
1774657091798060800,19.360060791015623,0.0007635809597559273,0.005650499369949102,0.00045814859913662076
1774657091814849800,19.376849853515626,-0.002290742937475443,0.008093958720564842,0.002290742937475443
1774657091831638500,19.393638427734373,0.004428769461810589,0.007483093533664942,-0.0013744457392022014
1774657091848427500,19.410427490234376,0.0025961752980947495,0.011759147047996521,-0.005039634648710489
1774657091865216800,19.427216796875,-0.0010690133785828948,0.005650499369949102,-0.005650499369949102
1774657091882005500,19.444005615234374,0.007483093533664942,0.005650499369949102,-0.025809036567807198
1774657091898794500,19.46079443359375,-0.013897174037992954,0.005039634648710489,0.0102319847792387
1774657091915583500,19.47758349609375,0.005039634648710489,-0.002290742937475443,-0.0154243353754282
1774657091932372500,19.49437255859375,-0.008399390615522861,0.0032070400193333626,-0.0062613640911877155
1774657091949161500,19.511161376953126,0.004428769461810589,-0.001679878099821508,-0.0001527161948615685
1774657091965950500,19.527950439453125,-0.002901607658714056,0.005650499369949102,-0.014202605932950974
1774657091982739500,19.544739501953124,0.007483093533664942,-0.001679878099821508,-0.01847865991294384
1774657091999528400,19.561528564453123,0.0019853105768561363,0.007483093533664942,-0.036804601550102234
1774657092016317400,19.5783173828125,0.005039634648710489,-0.001679878099821508,0.016340631991624832
1774657092033106400,19.5951064453125,0.0025961752980947495,-0.003512472379952669,-0.023976443335413933
1774657092049895400,19.6118955078125,0.0007635809597559273,0.0007635809597559273,-0.02519817277789116
