time,seconds_elapsed,z,y,x
1775722035435292200,0.063292236328125,-0.013380290576815605,-0.14257313613309525,0.1843674467595294
1775722035445305000,0.07330517578125,0.10781973872780799,-0.08586419236888178,0.0685363606095314
1775722035455318300,0.083318359375,0.100825934317708,0.007506539705209434,0.08244896796476095
1775722035465331200,0.093331298828125,0.044292730712890624,-0.12208432872532866,0.058630358547158534
1775722035475344100,0.10334423828125,0.10552607483267784,-0.2565402276426554,0.008542897015623748
1775722035485357000,0.113357177734375,0.08055588422715663,-0.2545544971855357,-0.04852620356418192
1775722035495370200,0.123370361328125,0.049045478197932244,-0.13930870924335903,-0.07038158661741763
1775722035505383200,0.133383056640625,-0.07147709023654461,-0.08831419760319403,-0.05896145366504788
1775722035515397000,0.143397216796875,-0.24352584776878355,-0.1302302897120826,-0.05518412708342075
1775722035525410000,0.15341015625,-0.27666064012944697,-0.1252417424434796,-0.032328480946458876
1775722035535423000,0.163423095703125,-0.6429927833557129,-0.12301995647447184,-0.051139966259151695
1775722035545436200,0.173436279296875,-0.6645505351692438,-0.15052726434217764,-0.1972097214695066
1775722035555449300,0.183449462890625,-0.6591904694408178,-0.04135497849425301,-0.21807974674720315
1775722035565462000,0.1934619140625,-0.8679927943527698,0.10483190028974786,-0.16988657452967018
1775722035575475200,0.20347509765625,-0.8316250114202499,0.14523063750509171,-0.10729092908073216
1775722035585488100,0.213488037109375,-0.6539870555788279,0.14761713078282773,0.00036433980036526916
1775722035595502000,0.223502197265625,-0.516198295044899,0.11969290354414842,0.12945526848528532
1775722035605515300,0.233515380859375,-0.36265199340879917,0.04273172847386449,0.22021621078662573
1775722035615528200,0.243528076171875,-0.2785550755739212,0.004467710865428671,0.2571696115873754
1775722035625541000,0.253541015625,-0.035035073024034497,0.000009288418153300881,0.20492201287988573
1775722035635554000,0.263553955078125,0.16438742912411689,0.04519139201908838,0.1557428618323058
1775722035645567200,0.273567138671875,0.23727789328992366,0.032324339060881176,0.11386628888305277
1775722035655580200,0.283580078125,0.27677169928848744,-0.04883508685026317,0.014743687884509563
1775722035665593000,0.293593017578125,0.34667817920744415,-0.10805739254173823,-0.11981657558958977
1775722035675607300,0.303607177734375,0.3615729660004377,-0.0646379192657303,-0.24306491572614758
1775722035685620000,0.313619873046875,0.2453665071994066,-0.002089867826673435,-0.3644777475312352
1775722035695633200,0.323633056640625,0.22245850982069967,0.04448899307050742,-0.42079588361326603
1775722035705646000,0.33364599609375,0.1839326720714569,0.06471266956895123,-0.3849496768694371
1775722035715659300,0.3436591796875,0.0825660550057888,0.004515366524102864,-0.34991624781321734
1775722035725672200,0.353672119140625,-0.00870586902499199,-0.1021962362902239,-0.27997429472208024
1775722035735685000,0.36368505859375,-0.08995441169142722,-0.135740404036222,-0.1813699089113623
1775722035745698300,0.3736982421875,-0.08524316526055335,-0.08484506018790416,-0.10890000824518502
1775722035755712000,0.3837119140625,-0.03568330779969692,0.010187850069411798,-0.09313874081596732
1775722035765725200,0.39372509765625,-0.03473521329462528,0.07432001747831236,-0.04567465005796403
1775722035775738000,0.403738037109375,-0.00014554595053195953,0.0633523455677554,0.09844046395327895
1775722035785751000,0.4137509765625,0.11699205622076987,0.07756667581591754,0.21636833971943706
1775722035795764200,0.42376416015625,0.10586159039735793,0.07689474963741376,0.28996804813314225
1775722035805777200,0.433777099609375,0.0721960521608591,0.09717477313270792,0.3619219621011987
1775722035815790000,0.4437900390625,0.03279927679598331,0.09412197056650183,0.3419086632506922
1775722035825803000,0.453802978515625,0.01707914509475231,0.080556706211064,0.24212712341938167
1775722035835817200,0.463817138671875,-0.1403933900743723,0.08690417554164305,0.204153074334003
1775722035845830400,0.473830322265625,-0.17134207056760786,0.1036389824444428,0.19558960945438592
1775722035855843600,0.483843505859375,-0.061136898007988924,0.13984483454721047,0.15646423490941525
1775722035865856500,0.4938564453125,-0.11698504195809363,0.16593544401740654,0.07700210073571652
1775722035875869400,0.503869384765625,-0.07276186935007571,0.12771880921465345,0.02094031403493136
1775722035885882600,0.513882568359375,0.008991700229048728,0.06908316257102415,-0.028110717120952904
1775722035895895600,0.5238955078125,0.017557868522405623,0.025577572780987247,0.015122567666880785
1775722035905908500,0.533908447265625,0.07303308750689029,-0.013245482932718005,0.09125259827580302
1775722035915922400,0.54392236328125,-0.010148469048738479,-0.055627760931383816,0.10686565287336706
1775722035925935600,0.553935546875,-0.011041033974289894,-0.04362621592844371,0.10359280521515757
1775722035935948500,0.563948486328125,-0.041533202871680254,-0.03347767838104628,0.0682332129444927
1775722035945961500,0.57396142578125,-0.16990180863142013,-0.020679190297157035,0.0670208049474284
1775722035955974700,0.583974609375,-0.09038461980223655,-0.028045004074135793,0.06752466281633823
1775722035965987300,0.5939873046875,-0.0022626842349767686,-0.08857437377618625,0.06289225377533585
1775722035976000500,0.60400048828125,0.08919161062538623,-0.12830427181925624,0.07831658086776733
1775722035986013400,0.614013427734375,0.1301665950924158,-0.15663462304025888,0.10280399292502551
1775722035996027400,0.62402734375,0.14691431627571583,-0.1759090314232744,0.12645743837617338
1775722036006040600,0.63404052734375,0.13691197769939897,-0.13615270203100516,0.14023651901222764
1775722036016053500,0.644053466796875,-0.0015729484051465988,-0.07022309898692183,0.10206504765860736
1775722036026066400,0.65406640625,-0.15606266837120056,-0.030114339427789672,0.047841911094449456
1775722036036079400,0.664079345703125,-0.20757482894361018,-0.01847353804562008,-0.02042063754238188
1775722036046092500,0.674092529296875,-0.2904670471638441,0.033089140287763434,-0.01966689656563103
1775722036056105700,0.684105712890625,-0.2940817305296659,0.09520873375674709,0.10236045040860771
1775722036066118400,0.694118408203125,-0.2333195110529661,0.07141312618881929,0.18262659444157034
1775722036076132600,0.704132568359375,-0.19089140516817568,0.01875543057678733,0.20697565747406332
1775722036086145300,0.714145263671875,-0.12803776637017728,0.008327469874877714,0.18541260843090712
1775722036096158500,0.724158447265625,-0.019107436051964757,0.035258780511002986,0.09402604504451155
1775722036106171600,0.734171630859375,-0.02124678616821766,0.07736005646106786,0.010518033013492823
1775722036116184600,0.7441845703125,-0.025254852765798568,0.09885182123314588,-0.007288184246793389
1775722036126197500,0.754197509765625,0.1191694002598524,0.10023420636910013,-0.0016813041504472493
1775722036136210400,0.76421044921875,0.20494448044002056,0.07757495045391842,0.011885595039650797
1775722036146223600,0.7742236328125,0.2083493204474449,0.07778696750309318,0.03769775289464742
1775722036156237600,0.784237548828125,0.17348083616197107,0.016193395785766188,0.012343787135928869
1775722036166250500,0.79425048828125,0.1216220541089773,0.010295053895597811,-0.046348859525099394
1775722036176263700,0.804263671875,0.06471241840720177,0.008714349158969707,-0.16392759306002408
1775722036186276400,0.8142763671875,-0.05630056389272212,-0.011506528027611785,-0.35212610588241366
1775722036196289500,0.82428955078125,-0.18282383404672145,-0.0047537886646576225,-0.42142588861249386
1775722036206302500,0.834302490234375,-0.07423194190263747,0.058662109958869404,-0.3239590554643422
1775722036216315400,0.8443154296875,-0.019959668967127798,0.12260911065125837,-0.17254505314920096
1775722036226328600,0.85432861328125,-0.03058861500918865,0.13222278783670627,-0.05166369787231087
1775722036236342500,0.864342529296875,-0.1171218200802803,0.1071987207526341,-0.0011781404012814163
1775722036246355500,0.87435546875,0.005485737934708595,0.1024217886744067,0.00874956203624606
1775722036256368600,0.88436865234375,0.20481822371184824,0.18911489701494574,0.010064334429241716
1775722036266381600,0.894381591796875,0.260854583710432,0.23227025772836057,0.04631093866750598
1775722036276394500,0.90439453125,0.1560603302836418,0.0884026978705544,0.1182060716530308
1775722036286407400,0.914407470703125,-0.14395780455768106,-0.10065428581153973,0.11132036725990474
1775722036296420600,0.924420654296875,-0.20734920349419117,-0.23360676702912894,0.0410123208027333
1775722036306433500,0.93443359375,-0.4014169006109237,-0.1658700323646888,0.03874254923984408
1775722036316447500,0.944447509765625,-0.5647042595386504,-0.08697796229706145,0.034098047902248796
1775722036326460700,0.954460693359375,-0.4207078765362501,-0.07260001158555969,-0.025434483649022874
1775722036336473300,0.964473388671875,-0.368780705422163,-0.10425771713098511,-0.055679655515402555
1775722036346486500,0.974486572265625,-0.27948914155364035,-0.15574527298510074,-0.13014580803271383
1775722036356499500,0.98449951171875,0.01176701016128063,-0.12047664693351834,-0.16370934719946234
1775722036366512600,0.9945126953125,0.19486732306182383,-0.04027534829769283,-0.15248601546082644
1775722036376525300,1.004525390625,0.2698679112493992,0.023605569455120712,-0.09030969140250235
1775722036386538500,1.01453857421875,0.38116029452383515,0.012715817052405327,0.011431275400891899
1775722036396552400,1.024552490234375,0.43373219328224655,0.0003247749749571085,0.16723090892173348
1775722036406565400,1.0345654296875,0.5674047506690025,-0.0047458793528378,0.27169066969715056
1775722036416578600,1.04457861328125,0.5952320842713117,-0.009742810857295989,0.27569800564236935
1775722036426591700,1.054591796875,0.5979121171355247,0.01245923020914197,0.22568233070541172
1775722036436604400,1.0646044921875,0.5730997474402189,0.023687968775257466,0.18906970616634933
1775722036446617600,1.07461767578125,0.26580256150662895,0.042278376949485386,0.1437252013782039
1775722036456630500,1.084630615234375,0.04217734599411487,0.03029562341198325,0.0770459033448249
1775722036466644500,1.09464453125,-0.16210428662300108,0.048200423942226914,0.13247337419744581
1775722036476657700,1.10465771484375,-0.48212183791995045,0.07099219279643147,0.16612225356008856
1775722036486670600,1.114670654296875,-0.537712792238593,0.08233774440893903,0.20489790135193614
1775722036496683500,1.12468359375,-0.5150596464037895,0.058166814422328024,0.15034940529093146
1775722036506696400,1.134696533203125,-0.5573562348634005,0.057070689748693254,0.035802404134720564
1775722036516709600,1.144709716796875,-0.5280974071532487,0.07258523414153606,0.005863046814501285
1775722036526722300,1.154722412109375,-0.36828912251293655,0.043282001034077255,0.008775865521281958
1775722036536735500,1.164735595703125,-0.14676643223762512,0.023387999447993933,0.01956771050747484
1775722036546749700,1.174749755859375,-0.03434825980365276,-0.021411420411709695,0.030274397960864004
1775722036556762400,1.184762451171875,-0.0299590849339962,-0.10971879554847255,0.0347751799788326
1775722036566775600,1.194775634765625,-0.07437982594072819,-0.17891933742146937,0.008103373087197541
1775722036576788500,1.20478857421875,0.07984802821874618,-0.1626956401122734,0.006434124700725078
1775722036586801400,1.214801513671875,0.19473697468042372,-0.05526570441965013,0.02754639776907861
1775722036596814600,1.224814697265625,0.14798574489951133,-0.02843023139890283,0.04491586757991463
1775722036606827500,1.23482763671875,0.12097849550843238,-0.09081786012034862,0.055853989169001576
1775722036616840700,1.2448408203125,0.18856793065667152,-0.1363579240132123,0.009913929640501737
1775722036626854400,1.2548544921875,0.22614450485706328,-0.02395578939858824,-0.010797617139853536
1775722036636867600,1.26486767578125,0.14316519287526608,0.03534611173458397,-0.022905805421620604
1775722036646880500,1.274880615234375,-0.019547581034898755,-0.05579732707832008,0.03903389686923474
1775722036656893400,1.2848935546875,-0.14267945518493652,-0.15149711402133106,0.04265508304107934
1775722036666906600,1.29490673828125,-0.08594634509384631,-0.13183284780420362,-0.0057231268871575595
1775722036676919600,1.30491943359375,-0.16158640022873877,-0.08456201459597795,-0.08127415203172714
1775722036686932500,1.314932373046875,-0.2822287956506014,-0.07580960301551967,-0.1667678945198655
1775722036696945400,1.3249453125,-0.18139818515777587,-0.06671407708581537,-0.25036398669313636
1775722036706959400,1.33495947265625,0.3364350176125765,0.11319335805755108,-0.1669360906936228
1775722036716972500,1.34497265625,0.20046002850234507,0.16317187932189553,-0.0327425051074475
1775722036726985500,1.3549853515625,0.23325755173265933,-0.011193886448442936,0.1432599219540134
1775722036736998700,1.36499853515625,0.34190088180303574,-0.10853311116155236,0.23372093146070835
1775722036747011300,1.37501123046875,0.25864450644552706,-0.08123097047712653,0.19101810028776525
1775722036757024500,1.3850244140625,0.1713490848302841,-0.010316555624641477,0.13631152758821843
1775722036767037700,1.39503759765625,0.09305939196944236,0.024881599006615577,0.12336590210162103
1775722036777050400,1.40505029296875,0.024493805265426636,0.022631920383684334,0.05636705325767397
1775722036787064600,1.415064697265625,-0.028632220244407654,0.020838643758744,-0.09403601844925433
1775722036797077500,1.425077392578125,-0.16649170792698859,0.03774250535182655,-0.2465230202907696
1775722036807090400,1.43509033203125,-0.2962918077945709,0.06872229336937889,-0.30553554655592885
1775722036817103600,1.445103515625,-0.32092648283541203,0.05817123486911878,-0.3292443389235064
1775722036827116500,1.455116455078125,-0.2536895143866539,0.04565106825297698,-0.2729396468449384
1775722036837129500,1.46512939453125,-0.15170564220547675,0.07324134169640019,-0.1803667962834239
1775722036847142100,1.47514208984375,-0.07685235353410244,0.06705176634127273,-0.045965267034992575
1775722036857155300,1.4851552734375,0.009516016364097594,0.03278965045111254,0.09597590047065169
1775722036867169300,1.495169189453125,0.1395697987318039,0.03391806995915249,0.1751105927882716
1775722036877182200,1.50518212890625,0.27298049031198024,0.11717972427997737,0.16995788620021193
1775722036887195400,1.5151953125,0.29796295587718485,0.19902486286638305,0.1473800340913236
1775722036897208300,1.525208251953125,0.18987492160201072,0.1582741886745207,0.21122951552625743
1775722036907221200,1.53522119140625,0.06671615944504737,0.05663242619559169,0.2888926739865914
1775722036917234400,1.545234375,-0.15508651681542396,0.0019514263287186621,0.28021617718655617
1775722036927247400,1.555247314453125,-0.18916472750604152,0.01452432777909562,0.21062884621936825
1775722036937260300,1.56526025390625,-0.21349778925180435,0.04908023898405954,0.1179535581966862
1775722036947274200,1.575274169921875,-0.20503449681103228,0.09435160547075792,0.09756784583721309
1775722036957287400,1.585287353515625,-0.15510814412534235,0.06580675298254937,0.06386018549203873
1775722036967300400,1.59530029296875,-0.14802081621289254,0.04150352011946961,0.03722008891291916
1775722036977313300,1.605313232421875,-0.0012029460489749908,0.06379829923696816,0.08228625168371945
1775722036987326500,1.615326416015625,0.05427227293550968,0.10702077036984264,0.10152224601879715
1775722036997339100,1.625339111328125,0.12167115394771098,0.12221790111027657,0.10925105017255991
1775722037007352300,1.635352294921875,0.20652970380485056,0.15141975620249284,0.06404993591047824
1775722037017366500,1.645366455078125,0.0930664062321186,0.11451516297953203,0.09407868854720144
1775722037027379200,1.655379150390625,0.12484978398382662,0.0146649600924924,0.184347901808843
1775722037037392400,1.665392333984375,0.06059095456302166,0.03515773128932342,0.16786573622655124
1775722037047405300,1.6754052734375,-0.014818798947334288,0.054811183851491654,0.11916560086756944
1775722037057418200,1.685418212890625,-0.00782441001534462,0.04585411654440686,0.0800723019612953
1775722037067431200,1.69543115234375,-0.0454570983171463,0.02536896239845082,0.03822678173743188
1775722037077444400,1.7054443359375,-0.07041618300676346,0.02627789393691346,0.022293701405264436
1775722037087457500,1.71545751953125,-0.027503508475422857,-0.004404993493296205,0.01615764633566141
1775722037097470200,1.72547021484375,0.09515548746585846,-0.005437679275590926,-0.06140519355535507
1775722037107484400,1.735484375,0.21818039411008358,0.014309972642362117,-0.12209511498082429
1775722037117497000,1.7454970703125,0.24804829362928865,0.022665311196632683,-0.14252452035155147
1775722037127510300,1.75551025390625,0.20955402006208895,0.009303250396251678,-0.11679624138772488
1775722037137523500,1.7655234375,0.06960252853631974,0.0015906667249277232,-0.07433043384104966
1775722037147536400,1.775536376953125,-0.05533084207773208,0.037347770413197576,-0.019410108792968093
1775722037157549300,1.78554931640625,-0.08865969570577144,0.13436174522731453,-0.0008610372761264442
1775722037167562200,1.795562255859375,-0.175689159861207,0.16851755119878797,0.06795370188336819
1775722037177576200,1.805576171875,-0.19379121826291082,0.14383834289647637,0.15866136136120185
1775722037187589400,1.81558935546875,-0.24796412247717378,0.08935914921201765,0.19826270112115887
1775722037197602300,1.825602294921875,-0.23413141195774076,0.04647999335778877,0.1957480879517272
1775722037207615500,1.835615478515625,-0.1590448990523815,0.007277023531962186,0.18415895510800182
1775722037217628200,1.845628173828125,-0.18224866450726984,0.030821035525575278,0.11453048841282724
1775722037227641300,1.855641357421875,-0.2528741063505411,0.03620775179890916,0.023395123308524488
1775722037237654300,1.865654296875,-0.13920038089752196,-0.0030898192415013907,-0.02135501404935494
1775722037247667200,1.875667236328125,-0.07971125009655952,0.008983425591047853,-0.10557913846047595
1775722037257681400,1.885681396484375,-0.042380759611725806,0.03146072166860103,-0.19480799409002064
1775722037267694300,1.8956943359375,-0.05817746368050575,-0.00918817264921963,-0.20575258195251225
1775722037277707300,1.905707275390625,-0.13172726853787897,-0.11195903048962354,-0.17598428861657156
1775722037287720200,1.91572021484375,-0.06051029054224491,-0.14496809584507717,-0.15591186172366142
1775722037297733400,1.9257333984375,0.0076291797041893004,-0.042494120325706895,-0.15472071571033447
1775722037307746300,1.935746337890625,0.05572948600649833,0.02847936777025461,-0.1527730339749716
1775722037317759200,1.94575927734375,0.12250935833752155,0.03997585389446467,-0.09764955103760585
1775722037327772400,1.9557724609375,0.18566110329926014,0.017553210613597183,-0.0518717876650393
1775722037337786000,1.9657861328125,0.22289456315040587,-0.001433065010420978,-0.008537106595654041
1775722037347799300,1.97579931640625,0.12317220616042614,0.005198427159618586,0.04061599669521674
1775722037357812500,1.9858125,-0.061014148411154746,-0.03801312985359691,0.033735498200170695
1775722037367825200,1.9958251953125,-0.02027414174377918,-0.1406771663186606,0.01661549137206748
1775722037377838300,2.00583837890625,-0.025130934125185012,-0.1003521336603444,0.020329598258063197
1775722037387851300,2.015851318359375,-0.03210603383481502,-0.08875790451639332,0.03724113170094788
1775722037397864400,2.025864501953125,0.03269289381206036,-0.17314208746058865,0.09093008832316846
1775722037407877000,2.035877197265625,-0.014222002097964285,-0.20443711543977258,0.10227238853266463
1775722037417891300,2.045891357421875,0.019453473010659215,-0.1883503789158538,0.09106124042216687
1775722037427904300,2.055904296875,-0.040564650100469585,-0.1288188063458074,0.06955269804522395
1775722037437917200,2.065917236328125,-0.12004267596304416,-0.10887240785220638,0.021958660764619706
1775722037447930400,2.075930419921875,-0.09921265390217304,-0.13154065992459654,-0.07557873513540253
1775722037457943300,2.085943359375,-0.07649930231273173,-0.09388938565333373,-0.19409741640156133
1775722037467956200,2.095956298828125,-0.04038753996789455,-0.09520168296145275,-0.2313506769317202
1775722037477969400,2.105969482421875,0.043807577544450756,-0.16305448175361378,-0.17244922809191046
1775722037487982300,2.115982421875,0.14969547142684458,-0.20299188506752253,-0.11794994146749377
1775722037497996300,2.125996337890625,0.22949147719740867,-0.1787052014804445,-0.11189904393069446
1775722037508009200,2.13600927734375,0.16988544201850891,-0.13799361718995495,-0.1383290779557079
1775722037518022400,2.1460224609375,0.10872457861304283,-0.18619497271394356,-0.14088499124990775
1775722037528035300,2.156035400390625,0.18063363052606582,-0.1520526107459329,-0.178164719661884
1775722037538048300,2.16604833984375,0.12207915022671222,0.0011249123767018317,-0.21539620675165205
1775722037548061400,2.1760615234375,0.14878244823515413,0.06202767283525318,-0.14290108031267298
1775722037558074000,2.18607421875,0.22737550795674322,0.036173447670508174,-0.04676257315883413
1775722037568087300,2.19608740234375,0.22214520608782767,0.058831269680429246,-0.017310999355558306
1775722037578101500,2.2061015625,0.19162907179296015,0.007802892303280532,0.046328474324196574
1775722037588114200,2.2161142578125,0.16249357820153235,-0.05415231808396056,0.11052554535409435
1775722037598127400,2.22612744140625,-0.008668459624052048,-0.049688799336459484,0.11228811631351708
1775722037608140300,2.236140380859375,0.0021627309918403623,-0.06690254886262119,0.10632358188591896
1775722037618153200,2.2461533203125,0.028351065215468405,-0.03883441050807014,0.10774059081068262
1775722037628166100,2.256166259765625,-0.06513853486478328,-0.040322475375048815,0.10245865008607506
1775722037638179300,2.266179443359375,-0.09911036257147789,-0.12301920755580067,0.18248419029619545
1775722037648192500,2.276192626953125,-0.16410218244194982,-0.1704494508431293,0.24333918435657395
1775722037658206200,2.286206298828125,-0.19068916059434413,-0.1729590042449534,0.2801140319863334
1775722037668219400,2.296219482421875,-0.17960954817533492,-0.1310502825917676,0.3071844462741166
1775722037678232300,2.306232421875,-0.19851357060968874,-0.10507334436280652,0.26225360032077877
1775722037688245200,2.316245361328125,-0.2233423069179058,-0.0765483290862292,0.22417492181714624
1775722037698258400,2.326258544921875,-0.09239362153708934,-0.09331944941142574,0.21319995708269998
1775722037708271400,2.336271240234375,-0.0043014965862035745,-0.0482661643885076,0.11039344340702519
1775722037718284300,2.3462841796875,0.021809096226096152,-0.00891772167738527,0.07010534522561356
1775722037728298500,2.356298583984375,0.10742986262738705,-0.0006626834261231124,0.12777761759664863
1775722037738311200,2.366311279296875,0.17321780131161213,0.08385600348478182,0.16408959695501252
1775722037748324400,2.376324462890625,0.08784954836666584,0.15311477835103868,0.21690659304829313
1775722037758337300,2.386337158203125,0.04209434388577938,0.11817940284181386,0.22447195026865227
1775722037768350500,2.3963505859375,0.09661796123385429,0.14765057639470322,0.2101831665447913
1775722037778363100,2.406363037109375,0.06948094798326492,0.29835025642802937,0.24803994592605158
1775722037788376300,2.416376220703125,-0.003251110750436783,0.26142065662797537,0.3120128162786364
1775722037798389200,2.42638916015625,-0.0009592004209756851,0.14719589142976328,0.363653863927722
1775722037808403200,2.4364033203125,0.03323182299435139,0.21068130705896765,0.3212864752542227
1775722037818416400,2.44641650390625,0.039994741258025164,0.3067340721581131,0.25521940910136326
1775722037828429300,2.45642919921875,0.11015548819899558,0.30364138510609046,0.248249076898396
1775722037838442200,2.466442138671875,0.14630875159800052,0.3118442547786981,0.22032069407440721
1775722037848455400,2.476455322265625,0.09341419675648212,0.3453794446337968,0.20684004839565603
1775722037858468400,2.48646826171875,0.055504445078969,0.3471231830285862,0.18884031785726546
1775722037868481300,2.496481201171875,-0.09523790505230426,0.3352183352991938,0.20861149678127838
1775722037878494500,2.506494384765625,-0.24839199250042437,0.25942115337383,0.2270114969499409
1775722037888508400,2.51650830078125,-0.460969744297862,0.16594576448202134,0.16164284312371163
1775722037898521300,2.526521240234375,-0.5744897404938936,0.09094464657148346,0.13632115393308922
1775722037908534300,2.5365341796875,-0.4318909493297338,-0.0014002313198987393,0.16564283601269125
1775722037918547500,2.54654736328125,-0.34954584359824653,-0.07219294688832015,0.1736933646677993
1775722037928560400,2.556560302734375,-0.16743103460371495,-0.1351798932097852,0.18044039124259725
1775722037938573300,2.5665732421875,0.13280571142435074,-0.15737957792235538,0.15470486055407673
1775722037948586500,2.57658642578125,0.32847090686559677,-0.12270493570854886,0.07240611471496522
1775722037958599400,2.586599365234375,0.3980453783512115,-0.08421097266860306,-0.056111799854971466
1775722037968613400,2.59661328125,0.4563672189384699,-0.09427901515858247,-0.18121259945780038
1775722037978626600,2.60662646484375,0.3604091829180717,-0.02480478917704895,-0.24535912761054932
1775722037988639200,2.61663916015625,0.22722294774353502,0.03053819999620318,-0.30450605737771835
1775722037998652400,2.62665234375,0.11444587886929511,0.0405083716022782,-0.3715186790186912
1775722038008665300,2.636665283203125,0.025395722541213035,0.08171077161701396,-0.34985702843926847
1775722038018678500,2.646678466796875,0.013064648756384849,0.0996748645864427,-0.33397834517545993
1775722038028691200,2.656691162109375,-0.05127542920708656,0.07644567242935299,-0.3262237489933148
1775722038038704400,2.666704345703125,-0.11456336776912211,0.02016288165533915,-0.17583474234435706
1775722038048718300,2.67671826171875,-0.06788754131197929,0.0005753156699240207,-0.04718947506770491
1775722038058731300,2.686731201171875,-0.0038736265629529952,0.031382267871219664,0.04276431556921452
1775722038068744400,2.696744384765625,0.017611644536256788,0.057029334824997925,0.057469205813296134
1775722038078757400,2.70675732421875,0.027099603849649427,0.030398133938387036,0.11237429675962775
1775722038088770300,2.716770263671875,-0.06638415101170539,-0.0007938355251215398,0.1960548706122674
1775722038098783500,2.726783447265625,-0.1497036547333002,-0.031130256738374006,0.22143912191139534
1775722038108796400,2.73679638671875,-0.22776655310094354,-0.028865133951138704,0.20238540707435457
1775722038118810400,2.746810302734375,-0.5015688811898231,-0.0026801881278399374,0.16121922915047035
1775722038128823300,2.7568232421875,-0.5200462026447057,-0.03761888810531236,0.15952037107702344
1775722038138836500,2.76683642578125,-0.4601777171373367,0.004965522586042061,0.10258527214042842
1775722038148849400,2.776849365234375,-0.5035504103958607,0.06339408408394083,0.03230151987429708
1775722038158862300,2.7868623046875,-0.41498482271432874,-0.01981815987089649,0.04040633599990979
1775722038168875500,2.79687548828125,-0.1848959641456604,-0.06845580618660897,0.02899148201085627
1775722038178888400,2.806888427734375,0.022716274198889733,0.0033400859418325126,-0.11395447862315922
1775722038188901400,2.8169013671875,0.11790215680301189,0.019872063748911022,-0.20347393296342342
1775722038198915600,2.82691552734375,0.1938929250717163,-0.023489870653580873,-0.22651463507739825
1775722038208928300,2.83692822265625,0.23620763370990752,-0.061746700469404454,-0.2767652512813918
1775722038218941400,2.84694140625,0.29532383954524993,-0.0176701149915345,-0.33663127083703875
1775722038228954400,2.856954345703125,0.32471126207113266,0.039406419976055616,-0.3085586572367698
1775722038238967300,2.86696728515625,0.12992051137685776,0.04965844986396841,-0.22382687556445596
1775722038248980200,2.876980224609375,0.08907938242256641,-0.0306046436953824,-0.0995840992967598
1775722038258993400,2.886993408203125,0.09492109418809414,-0.04381596178030595,0.0003019420886412263
1775722038269006600,2.897006591796875,-0.04263853376507759,-0.01947895451178774,0.02513241369621828
1775722038279020300,2.907020263671875,-0.05453998396098613,-0.05293381827282719,0.12211884291628375
1775722038289033500,2.917033447265625,0.027110125243663786,-0.09290074907531962,0.1658317279146053
1775722038299046400,2.92704638671875,0.03636719841063022,-0.06699132312461734,0.16089007026134058
1775722038309059300,2.937059326171875,0.07854571344852447,-0.08076707929242402,0.1783138092763722
1775722038319072500,2.947072509765625,0.09630699558854103,-0.16690503796823322,0.1926939610781148
1775722038329085400,2.95708544921875,0.06268588101565838,-0.1915933611587621,0.1594909623194486
1775722038339098400,2.967098388671875,-0.13006781089305877,-0.17849194232225418,0.09068455259688198
1775722038349111300,2.977111328125,-0.050554713717103,-0.19132155848005786,0.029764000753313303
1775722038359125200,2.987125244140625,-0.0193844994276762,-0.12069527638657018,-0.014967322306241839
1775722038369138400,2.997138427734375,-0.036628479695320126,-0.07999628671617247,0.03882527735354378
1775722038379151400,3.0071513671875,0.041871056523919106,-0.11617382603990845,0.17247147645633668
1775722038389164500,3.01716455078125,0.06296703604459762,-0.14941094626388512,0.2156130461064167
1775722038399177200,3.02717724609375,0.07110416527092456,-0.14069197116214782,0.21052421680111436
1775722038409190400,3.0371904296875,0.06712590928971766,-0.1101694619254209,0.1283806067247875
1775722038419203300,3.047203369140625,-0.04589548973441124,-0.06207090918878093,0.08405209231246262
1775722038429216500,3.057216552734375,-0.06996727019548415,-0.07303434788221493,0.1367189758779481
1775722038439230500,3.06723046875,-0.05565057555139064,-0.08475197507697158,0.16510938672311604
1775722038449243400,3.077243408203125,-0.025866262662410735,-0.0865121166172903,0.12915714405523612
1775722038459256300,3.08725634765625,0.00975450129508972,-0.08287413457427173,0.13636057262802495
1775722038469269200,3.097269287109375,-0.048231823727488514,-0.08808485495988279,0.10179313538204877
1775722038479282400,3.107282470703125,-0.01352992818057537,-0.09480758734364061,0.06198164173644036
1775722038489295400,3.11729541015625,0.026376550272107124,-0.013380244911042973,-0.003051076400000602
1775722038499308300,3.127308349609375,-0.03246083862185478,0.07335136880897916,-0.014170326709654181
1775722038509321500,3.137321533203125,-0.04665186105966568,0.04947243490573019,0.01220425080107525
1775722038519335400,3.14733544921875,-0.024729952108860014,0.07567297102380544,0.04366325543662533
1775722038529348400,3.157348388671875,0.01965337949693203,0.11209574467972852,0.03651645242189988
1775722038539361500,3.167361572265625,0.017324644288420676,0.10277368911830707,0.009161193310748786
1775722038549374500,3.17737451171875,0.03440846555829048,0.07916002768827601,-0.029579383167717604
1775722038559387400,3.187387451171875,-0.0034662148058414457,0.07993413559962063,-0.06228241478130221
1775722038569400300,3.197400390625,-0.015158406165242194,0.07358348793126643,-0.1037531103434041
1775722038579413500,3.20741357421875,-0.010521978536248207,0.10586819366808049,-0.1140798220358789
1775722038589426200,3.21742626953125,0.038272739771008486,0.13536088493303394,-0.06987122594248503
1775722038599440400,3.2274404296875,0.0236065010368824,0.14041053300541825,-0.03723545087883249
1775722038609453300,3.237453369140625,0.04752864389419555,0.09379126817425712,0.054495505498442794
1775722038619466200,3.24746630859375,-0.03481061661839485,0.09444805158255622,0.1086193829392083
1775722038629479400,3.2574794921875,-0.10819091012775897,0.06923087307917886,0.10503595322817563
1775722038639492600,3.26749267578125,-0.11229366927146911,0.0008183945776429027,0.12655207612337543
1775722038649505300,3.27750537109375,-0.11985270634889603,0.048890972622809926,0.10311369819501415
1775722038659518500,3.2875185546875,-0.10288520493507385,0.081953558263788,0.0353557198131457
1775722038669531400,3.297531494140625,-0.04444353736042976,0.03347392465453595,-0.016581296841520814
1775722038679545300,3.30754541015625,0.027218261793255805,-0.00719675223683007,-0.01937801488796249
1775722038689558500,3.31755859375,0.036949966734647746,-0.017563722874457014,-0.027332243561744688
1775722038699571500,3.327571533203125,0.05821078142821789,-0.03973789868643507,-0.03983783366326243
1775722038709584400,3.33758447265625,0.13171557810008525,-0.06935576896732673,-0.06559882758660242
1775722038719597300,3.347597412109375,0.08086743439435959,-0.05711964345695451,-0.09886961261816322
1775722038729610500,3.357610595703125,0.04437164116799831,-0.06291041961968875,-0.059185727407597005
1775722038739623400,3.36762353515625,0.08046528333425522,-0.08190191027494147,-0.012800353530701249
1775722038749636400,3.37763623046875,0.01227554420530796,-0.04479177540936507,0.002254446129593998
1775722038759650600,3.387650634765625,0.025065467673540114,-0.0008399944880977272,0.07354876367775723
1775722038769663200,3.397663330078125,-0.015869769304990768,0.013005986504862085,0.13644567536190153
1775722038779676400,3.407676513671875,-0.07106383326053618,0.017514586503105237,0.18145464631905778
1775722038789689300,3.417689453125,-0.1016109472155571,-0.002003037784947082,0.13108973781932146
1775722038799702500,3.42770263671875,-0.10642799210846424,0.0020120613416191187,0.0842210739375092
1775722038809715500,3.437715576171875,-0.12471534394919871,0.03227538078604266,0.07339890687828883
1775722038819728400,3.447728271484375,-0.18342998324632642,0.0322738007503096,0.04489259630218148
1775722038829741600,3.457741455078125,-0.14115560661852358,0.013324404804268851,0.026993330463580784
1775722038839755300,3.46775537109375,-0.12149696642458438,0.06051100292829796,-0.035049905266985294
1775722038849768400,3.4777685546875,-0.19811200407147406,0.05144511408503167,-0.06155821042628958
1775722038859781400,3.487781494140625,-0.2210276002347469,-0.009864893733849748,-0.0302713109546341
1775722038869794300,3.497794189453125,-0.32233284250199795,-0.00288813179009594,-0.041823673718236386
1775722038879807500,3.507807373046875,-0.37941374311745163,-0.03071317297061905,-0.034889161747321484
1775722038889820400,3.5178203125,-0.35886195347607136,-0.006384221144393086,0.004779471095185727
1775722038899833300,3.527833251953125,-0.48704877292811866,0.013969707837328314,0.05737100613582879
1775722038909847600,3.53784765625,-0.46836277715861796,-0.01741498945299536,0.10865038086567073
1775722038919860500,3.547860595703125,-0.4647375723987818,-0.0010963073367252945,0.0477622151880525
1775722038929873400,3.557873291015625,-0.5074649534910917,0.0370721866085194,0.01989202882470563
1775722038939886300,3.56788623046875,-0.5459434449672699,0.06260907118609174,0.006323723128810525
1775722038949899500,3.5778994140625,-0.6625958939701319,0.10389122190615162,-0.05447002399731427
1775722038959912200,3.587912109375,-0.7429127087444066,0.13279966527605427,-0.072949464344047
1775722038969925400,3.59792529296875,-0.9029998103260993,0.17892273495495317,-0.057435504473093896
1775722038979938600,3.6079384765625,-1.2949860347688198,0.18589423620169981,-0.08263833479071035
1775722038989952300,3.6179521484375,-1.4019775059789419,0.1095105596252717,-0.06732039068220183
1775722038999965400,3.62796533203125,-1.6005980440944432,0.1842867279398255,-0.1850728550825268
1775722039009978400,3.637978271484375,-1.8222417304009197,0.22331446906290947,-0.30044728350620714
1775722039019991300,3.6479912109375,-1.8494623302817343,0.05053655700590461,-0.283338035534136
1775722039030004500,3.65800439453125,-1.911505821740627,-0.1204993336893618,-0.308433971411176
1775722039040017400,3.668017333984375,-1.8895435807794332,-0.22510325217582283,-0.3479022776423022
1775722039050030600,3.678030517578125,-1.925361328613758,-0.322797975795716,-0.3817492368603125
1775722039060043300,3.688043212890625,-2.0069570772826673,-0.41200054620653387,-0.38276042319685216
1775722039070056400,3.698056396484375,-2.0223855325609446,-0.4888128965238109,-0.41728290705624965
1775722039080070400,3.7080703125,-2.0759002651274203,-0.4769247807335108,-0.566010337168537
1775722039090083300,3.718083251953125,-2.0473522160351276,-0.43679618396274744,-0.6334609849005938
1775722039100096500,3.728096435546875,-2.058546979266405,-0.39372714982591567,-0.6768647308845073
1775722039110109400,3.738109375,-2.0998545566886664,-0.3579072100345045,-0.6705638041093945
1775722039120122400,3.748122314453125,-2.0293203002601863,-0.3048363853106275,-0.6623336628373712
1775722039130135300,3.75813525390625,-1.9878771137595175,-0.2565091383846477,-0.7035135952919721
1775722039140148500,3.7681484375,-1.7931255260318517,-0.22998620191179214,-0.5756967416634783
1775722039150162400,3.778162353515625,-1.6457763254702091,-0.12663378132376818,-0.43611766364667565
1775722039160175400,3.78817529296875,-1.4934791471123694,-0.09269614814762026,-0.3478443734426051
1775722039170188500,3.7981884765625,-1.395699740883708,-0.1518827888706699,-0.26826504263002426
1775722039180201200,3.808201171875,-1.3921844262391327,-0.10213036797977984,-0.2400420607736334
1775722039190214400,3.81821435546875,-1.217615794840455,-0.13057459137141703,-0.2413091946326196
1775722039200227600,3.8282275390625,-1.0717436810940504,-0.008192512675374746,-0.27120226512569934
1775722039210240300,3.838240234375,-1.0604273373097182,0.13284078273773192,-0.19274028443787244
1775722039220253400,3.84825341796875,-0.9614607671231031,0.19937559426650403,-0.01504442439675331
1775722039230267400,3.858267333984375,-0.8937018206268549,0.23751550143808126,0.16246533848773687
1775722039240280300,3.8682802734375,-0.8186024482399225,0.3030358752273023,0.28105259147807954
1775722039250293500,3.87829345703125,-0.642017216321826,0.35372539430521427,0.3758111155156046
1775722039260306400,3.888306396484375,-0.6102466980516911,0.41965098789446054,0.36967042080350215
1775722039270319400,3.8983193359375,-0.5060130011171102,0.4676359241887927,0.29557452637068926
1775722039280332300,3.908332275390625,-0.341713834798336,0.5187565281603485,0.2007620071236044
1775722039290345500,3.918345458984375,-0.26393969024419783,0.5747233300540596,0.0726665557494387
1775722039300358400,3.9283583984375,-0.024060674545168876,0.5504503279324621,-0.002291216209717095
1775722039310372400,3.938372314453125,0.2859434322595596,0.5984266425289213,-0.024096695706620812
1775722039320385500,3.948385498046875,0.4999971018284559,0.7024171052921563,0.02355667054578662
1775722039330398200,3.958398193359375,0.5998579905062914,0.7902423229351639,0.05331679884158075
1775722039340411400,3.968411376953125,0.7493301745712757,0.8324535711988806,0.10321268332377076
1775722039350424300,3.97842431640625,0.8375701835602521,0.9248013077676296,0.13749456336032598
1775722039360437500,3.9884375,0.8981500322073698,0.9921342839367687,0.21742336519770322
1775722039370450400,3.998450439453125,0.9181634771883487,0.9819558581411838,0.27712442171629514
1775722039380463400,4.00846337890625,0.8084387816220522,0.8854251367993652,0.15635496584866196
1775722039390477300,4.018477294921875,0.6773001266270876,0.7797561463646591,-0.02489445848818868
1775722039400490200,4.028490234375,0.6980266883134841,0.7581991252034902,-0.12443141244128346
1775722039410503400,4.03850341796875,0.7490864289432764,0.8221000810973346,-0.12409469130020588
1775722039420516600,4.0485166015625,0.7404027717500925,0.894040843322873,-0.05537431589327752
1775722039430529300,4.058529296875,0.7668336825579405,0.9695894207820296,0.10884966629743575
1775722039440542500,4.06854248046875,0.9166530726253986,1.124304181675613,0.323830058789812
1775722039450555400,4.078555419921875,0.86584759901762,1.2535093843899667,0.4254509794101119
1775722039460568300,4.088568359375,0.6496832209050655,1.1971068214274942,0.41741194026339795
1775722039470582500,4.09858251953125,0.6472831740260124,1.0867848906204103,0.3534671817604452
1775722039480595500,4.108595458984375,0.6097235509604215,1.094398288233578,0.23823603426497428
1775722039490608400,4.1186083984375,0.616183102363348,1.032024103515595,0.2435295375632122
1775722039500621300,4.128621337890625,0.6567191108912229,0.8479873865477741,0.29406989396139976
1775722039510634500,4.138634521484375,0.6867664586305617,0.6987250458411872,0.23180738945696502
1775722039520647200,4.148647216796875,0.8449462652862072,0.6775532246053219,0.04599069373719394
1775722039530660400,4.158660400390625,0.8920499617666006,0.7466555485345423,-0.10117164248283952
1775722039540673500,4.168673583984375,0.9385843339264393,0.7267014325253665,-0.13154774725250898
1775722039550687200,4.178687255859375,0.928071707740426,0.6462855412907899,-0.0987999449154362
1775722039560700400,4.188700439453125,0.8749883523285389,0.6217268540956079,-0.08559059045873582
1775722039570713300,4.19871337890625,0.7937041538268327,0.655276364737004,-0.03552417171522975
1775722039580726300,4.208726318359375,0.7523866395324468,0.6811557791419327,0.07647625023070723
1775722039590739500,4.218739501953125,0.6171358730435371,0.6240586580440401,0.24393570721130817
1775722039600752400,4.22875244140625,0.47179275160729883,0.46036622544676065,0.3051108183378354
1775722039610765600,4.238765625,0.3112006231129169,0.3643346857987344,0.2119435820797458
1775722039620778200,4.2487783203125,0.22378069833517072,0.312172098493576,0.10391600928753614
1775722039630792400,4.25879248046875,0.34412674115896225,0.24062165075987577,-0.07497443083301186
1775722039640805400,4.268805419921875,0.570298134022951,0.2106858005709946,-0.19603190986178815
1775722039650818300,4.278818359375,0.653600686609745,0.22104045971632003,-0.27549389790501444
1775722039660831500,4.28883154296875,0.6906599589377641,0.22815292207002638,-0.26678013783451165
1775722039670844400,4.298844482421875,0.6366992361694574,0.3001642653137445,-0.2293871400400996
1775722039680857300,4.308857421875,0.48510757573246954,0.37931788152754303,-0.23370653760917484
1775722039690870300,4.318870361328125,0.32252456568181515,0.3842180746592581,-0.3537802662976086
1775722039700883500,4.328883544921875,0.046702129942178726,0.424504200079292,-0.5528535896819085
1775722039710897400,4.3388974609375,-0.13709610209465026,0.38829526097029443,-0.6751132110420615
1775722039720910300,4.348910400390625,-0.33593934305012224,0.2879889666125178,-0.7650078553702682
1775722039730923500,4.358923583984375,-0.31449791109263897,0.19773250323459504,-0.8101620252180844
1775722039740936200,4.368936279296875,-0.15456044711470604,0.23573548615351317,-0.7231680707674473
1775722039750949400,4.378949462890625,0.2589081258177757,0.420688441183418,-0.5118826968681067
1775722039760962600,4.388962646484375,0.6323702670544386,0.5869684060558676,0.00724916741065681
1775722039770975200,4.398975341796875,0.9727706811666488,0.5562373138360679,0.628716859113425
1775722039780988400,4.408988525390625,1.2647487174153327,0.3754160517834127,1.0347142924476413
1775722039791002600,4.419002685546875,1.2039163553118706,0.2854633936576545,1.3330178053908048
1775722039801015300,4.429015380859375,1.1405208647221325,0.15233707197681068,1.454629045844823
1775722039811028500,4.439028564453125,1.1335644697129725,0.01299991295710206,1.4359458265542984
1775722039821041400,4.44904150390625,0.9477379467189312,-0.04307794809564948,1.3551336294785141
1775722039831054300,4.459054443359375,1.0383879394590854,-0.1998417504735291,1.2633904346741736
1775722039841067300,4.4690673828125,1.113867251074314,-0.31365795313715933,1.0998372644171117
1775722039851080200,4.479080078125,1.267739715924859,-0.4425263251125812,0.8966592091277241
1775722039861093400,4.48909326171875,1.6160896277368069,-0.5678612622648477,0.8029493173602968
1775722039871107000,4.499107177734375,1.806075608497858,-0.6209094002328813,0.7570888989392668
1775722039881120300,4.509120361328125,2.1054753191798925,-0.7657740905024111,0.6020358460020273
1775722039891133200,4.51913330078125,2.1501906592190263,-0.9555436520338058,0.5372114185877144
1775722039901146000,4.52914599609375,2.0664596520870924,-1.1355987520195543,0.36239202729836106
1775722039911159300,4.5391591796875,2.120712051278353,-1.2680765466637909,0.1723737517029047
1775722039921172200,4.549172119140625,2.0210002156823874,-1.2669795452073216,0.05341404867097735
1775722039931185200,4.55918505859375,1.8236580269396303,-1.3295092127479613,0.08957746813781559
1775722039941198000,4.569197998046875,1.3841297145992517,-1.2722763364411889,0.22130868219844996
1775722039951212300,4.57921240234375,0.8475783673554659,-1.2352439521200955,0.32398769703693686
1775722039961225200,4.58922509765625,0.5944423951983452,-1.2243993175007402,0.3606033172506839
1775722039971238100,4.599238037109375,0.3217991740167141,-1.083604945410043,0.37019429854713376
1775722039981251300,4.609251220703125,-0.013625205248594284,-0.9386983156949281,0.43493090154752134
1775722039991264000,4.619263916015625,-0.2823532988131046,-0.9795144563384354,0.5868512824822217
1775722040001277200,4.629277099609375,-0.48581835435032844,-1.0638210714012384,0.6441331855624913
1775722040011290000,4.6392900390625,-0.8916998331546783,-1.0032400537103414,0.50409014329575
1775722040021303300,4.64930322265625,-0.9804472071439028,-1.0343763657301663,0.3608070961944759
1775722040031317200,4.659317138671875,-0.7075275071084499,-1.0183208645947277,0.2917518262773752
1775722040041330200,4.669330078125,-0.6952659914284944,-0.9034168666943907,0.27272571183331307
1775722040051343000,4.679343017578125,-0.5834481229752302,-0.90254183742553,0.38658911463953555
1775722040061356000,4.68935595703125,-0.413701212644577,-0.9032954322718083,0.5462926237311214
1775722040071369200,4.699369140625,-0.433626979342103,-0.7508560689643025,0.5204509109880775
1775722040081382400,4.70938232421875,-0.5865379056841135,-0.5858481698542833,0.30602818891108036
1775722040091395000,4.71939501953125,-0.5245031820535659,-0.5630277046285569,0.19826061876192688
1775722040101408300,4.729408203125,-0.5041834476023912,-0.4762902091570198,0.04404233614839613
1775722040111422200,4.739422119140625,-0.5099006562054157,-0.3552418632827699,-0.046001945783570405
1775722040121435100,4.74943505859375,-0.31196751583218574,-0.3318316154703498,0.012387114821001887
1775722040131448300,4.7594482421875,-0.11987667174637318,-0.33816038010045885,0.08370112345032393
1775722040141461200,4.769461181640625,0.14635025265216828,-0.3066429598085582,0.1067632884774357
1775722040151474200,4.77947412109375,0.3369949895828962,-0.22629370406940577,0.08150120225325226
1775722040161487000,4.789487060546875,0.2693283975452185,-0.12848945566043257,0.03106441582739353
1775722040171500300,4.799500244140625,0.20568097802102564,-0.11705825332477689,-0.03390884547308087
1775722040181513000,4.809512939453125,0.20441431908607482,-0.10732610999196768,-0.10949680509455502
1775722040191527200,4.819527099609375,0.02140226899087429,0.028242051883041856,-0.21299429670907555
1775722040201540400,4.829540283203125,-0.12400339628756045,-0.005842296287417411,-0.33122407803125675
1775722040211553000,4.839552978515625,-0.07367606158554553,-0.08861790239065885,-0.5083025733590125
1775722040221566200,4.849566162109375,0.0917465558052063,-0.05988032207563519,-0.667718278485164
1775722040231579400,4.859579345703125,0.29635961233377456,0.0050900166153907776,-0.7308730191215872
1775722040241592000,4.869592041015625,0.4416080412238836,0.03476663134619593,-0.6662680066116153
1775722040251605200,4.879605224609375,0.49461833139955996,-0.04198006985634565,-0.6063918492544442
1775722040261618200,4.8896181640625,0.6081231300264597,-0.14194704925715923,-0.6139117233652621
1775722040271632100,4.899632080078125,0.46779462188184256,-0.0994885482341051,-0.7069998299725353
1775722040281645300,4.909645263671875,0.36337329342067237,-0.11473390203043818,-0.7347229725480079
1775722040291658200,4.919658203125,0.28327508983314037,-0.1490023745961487,-0.6789849379088729
1775722040301671200,4.929671142578125,0.06999766533374786,-0.09505056578665971,-0.6306579832438379
1775722040311684000,4.93968408203125,0.06971651030480862,-0.04455781138986349,-0.5045777076169848
1775722040321697300,4.949697265625,0.11147884575724601,0.055066930444538593,-0.3395878556203097
1775722040331710200,4.959710205078125,0.012929624199867248,0.13063465099558233,-0.18351291228942573
1775722040341723100,4.96972314453125,0.021916648253798483,0.0596096884407103,-0.03785780229456723
1775722040351737300,4.9797373046875,0.204654557582736,0.04250000207722187,0.03207264302186668
1775722040361750000,4.98975,0.29265140546560287,0.11590849876776337,-0.020184636829420923
1775722040371763200,4.99976318359375,0.5175847809672355,0.08030687790215014,-0.10730236379019915
1775722040381776100,5.009776123046875,0.8158867595404387,0.027465660683065652,-0.14159326738342642
1775722040391789300,5.019789306640625,1.0079068764775991,0.03188976073563099,-0.09774199682772158
1775722040401802200,5.02980224609375,1.131885138323903,-0.02177504782602191,-0.07388561268299818
1775722040411815200,5.039815185546875,1.214924656060338,-0.10009031351953744,-0.024632336953282354
1775722040421828400,5.049828369140625,1.2815186504304408,-0.09946443670615553,0.03358560486808419
1775722040431842000,5.059842041015625,1.1545277627646922,-0.1357056706495583,0.03508607255890965
1775722040441855200,5.069855224609375,1.174254207497835,-0.3034679830342531,0.09614237961135805
1775722040451868400,5.079868408203125,1.1053501826196908,-0.36302711033150553,0.11885215100422501
1775722040461881000,5.089881103515625,1.0196586890697479,-0.35545346020683644,0.11685089418441057
1775722040471894300,5.099894287109375,1.0624515366137026,-0.3894223653040826,0.1603470676921308
1775722040481907200,5.1099072265625,1.0678490117430686,-0.36279827001169324,0.2101410261698067
1775722040491920100,5.119920166015625,1.1848381453543901,-0.2701820917651057,0.2172477163698524
1775722040501933000,5.12993310546875,1.2500877393782137,-0.18945479649379848,0.21018026220165192
1775722040511947300,5.139947265625,1.1908774255186318,-0.23516996122524142,0.3057624506469816
1775722040521960200,5.149960205078125,1.1973317162245511,-0.3407479123756289,0.43225232998803254
1775722040531973000,5.15997314453125,1.066813238954544,-0.4116021945387125,0.44104266242608425
1775722040541986300,5.169986328125,1.1064116743713617,-0.41784108892828226,0.4253124477222562
1775722040551999000,5.1799990234375,1.0206266573190688,-0.4439128110349178,0.37469475177153944
1775722040562012200,5.19001220703125,0.9268290142029524,-0.5667775586813688,0.3275923704653978
1775722040572025300,5.200025390625,1.0158715717464686,-0.6457410591505468,0.23456731915697454
1775722040582038300,5.210038330078125,1.1053718099296093,-0.5229502535231411,0.10084858454093336
1775722040592052200,5.22005224609375,1.1206605644762515,-0.3646425827041268,0.07614128265529871
1775722040602065200,5.230065185546875,1.1685311536759138,-0.3423375196546316,0.11410320291146635
1775722040612078000,5.240078125,1.1099977161645889,-0.3173945093169808,0.21045885994732377
1775722040622091300,5.25009130859375,0.9366606723874806,-0.2495291798368096,0.2935589487645775
1775722040632104200,5.260104248046875,0.8363327507197856,-0.1782199935130775,0.3150301182731986
1775722040642117400,5.270117431640625,0.6300298414081335,-0.06574672989100218,0.3180108145844191
1775722040652130000,5.280130126953125,0.5733797334253787,0.03987155326977372,0.3504649312045425
1775722040662143200,5.290143310546875,0.3523416117966175,0.20164061658903956,0.3374207407142967
1775722040672157200,5.3001572265625,0.17143384050428867,0.23048311858326195,0.4273091744974255
1775722040682170000,5.310170166015625,0.15137480281591414,0.2089426101654768,0.4361641696695238
1775722040692183300,5.320183349609375,0.24787761323750018,0.29143545380458236,0.16021240846179424
1775722040702196200,5.3301962890625,0.35254385637044905,0.3983640889115631,-0.05819901792518794
1775722040712209200,5.340209228515625,0.42311786028742787,0.37052813361138104,-0.1970463476013392
1775722040722222000,5.35022216796875,0.583081043228507,0.3159837657362222,-0.28117884820625183
1775722040732235300,5.3602353515625,0.4274608579277992,0.30974925526082514,-0.31561113303154703
1775722040742248200,5.370248291015625,0.23068623993992804,0.2658431857779622,-0.33770518367886543
1775722040752262100,5.38026220703125,0.2740548415452242,0.21505539395734666,-0.3953663684003055
1775722040762275300,5.390275390625,0.22999708863198756,0.3750036715902388,-0.4516378523290157
1775722040772288000,5.4002880859375,-0.05720189664661884,0.4544919265858829,-0.2803841906972229
1775722040782301200,5.41030126953125,-0.3412754433810711,0.3878308583289385,-0.03729088912680745
1775722040792314400,5.420314453125,-0.4222942689448595,0.3594941138997674,0.111786596532166
1775722040802327000,5.4303271484375,-0.4093617221355438,0.4138097875855863,0.20201792546883224
1775722040812340200,5.44034033203125,-0.4950865334331989,0.4730675938487053,0.19976298614889382
1775722040822353200,5.450353271484375,-0.4471913943141699,0.4527859994508326,0.1943202105730772
1775722040832366300,5.460366455078125,-0.16617197445333004,0.42183483473956584,0.2991035042144358
1775722040842380800,5.470380859375,-0.03622925124466419,0.5049221371404826,0.34741438452750445
1775722040852393700,5.480393798828125,0.044324879416823386,0.583624794716388,0.43379722134247417
1775722040862406700,5.49040673828125,0.08642331495583057,0.49118426529765125,0.528293660377711
1775722040872419600,5.500419677734375,0.07883446726202964,0.3827965174235403,0.6142445355162024
1775722040882432800,5.510432861328125,0.13816928428411482,0.3273486248373985,0.7062412666901946
1775722040892445400,5.520445556640625,0.15912147141993044,0.2833864412531257,0.7326186937451362
1775722040902458600,5.530458740234375,0.06905190891623497,0.24579817661494016,0.7474138195559382
1775722040912471600,5.540471435546875,-0.016061492484807968,0.1811107465185225,0.676111209103465
1775722040922485500,5.550485595703125,0.0447381363928318,0.12139599026814102,0.6338441389992833
1775722040932498700,5.560498779296875,0.05659867005646228,0.12268486103489994,0.5536499276913702
1775722040942511600,5.57051171875,0.1889741733700037,0.09441153723075986,0.5139972778692842
1775722040952524500,5.580524658203125,0.4317033178031444,0.02250847666710615,0.5798945221468806
1775722040962537500,5.590537353515625,0.5611415986210108,-0.016577259987220167,0.6944486836962401
1775722040972550700,5.600550537109375,0.6556506048768759,-0.0654390521813184,0.7925378865264355
1775722040982563800,5.610563720703125,0.651164983895421,-0.05534304397217929,0.7792864830262959
1775722040992576500,5.620576416015625,0.6371919881224631,-0.016801058805733918,0.735862205711007
1775722041002590700,5.6305908203125,0.7099041731119156,0.01106295354515314,0.7008965446613729
1775722041012603600,5.640603759765625,0.8361012800514698,0.16096936430893838,0.6023448388859629
1775722041022616600,5.650616455078125,0.9737930099517107,0.33008309130258856,0.5121081031218171
1775722041032629800,5.660629638671875,1.0634569142639636,0.32836759262159465,0.5780278514921665
1775722041042642700,5.670642578125,1.0622153897702693,0.25708828997947275,0.7066304121382534
1775722041052655600,5.680655517578125,1.1088666663080453,0.24471929533705114,0.7286268476299941
1775722041062668500,5.69066845703125,1.2145961547583342,0.2755448609072715,0.7331694594956935
1775722041072681700,5.700681640625,1.2925959247618912,0.35981399350389837,0.7050824520438909
1775722041082695700,5.71069580078125,1.3189648762494326,0.46180743723101914,0.5139849298443645
1775722041092708600,5.72070849609375,1.2358581384956835,0.5424758419219404,0.37166385964304205
1775722041102721800,5.7307216796875,1.319018067741394,0.5964084345743059,0.28933665489442645
1775722041112734500,5.740734375,1.3299135557651518,0.6670392832450568,0.10597330714352428
1775722041122747600,5.75074755859375,1.1006477040171623,0.7324583155516534,-0.04518894890025258
1775722041132760600,5.760760498046875,0.6667687957406043,0.6595465894021093,-0.1443427122220397
1775722041142773500,5.7707734375,0.4778256020307541,0.6034657326746732,-0.35556839182339606
1775722041152786700,5.78078662109375,0.21328268519639967,0.7995208042163401,-0.7681566747900098
1775722041162800600,5.790800537109375,-0.33965748679041863,0.9773000682245939,-1.0684835102543233
1775722041172813600,5.8008134765625,-0.8766378731012344,0.9370748792115599,-1.0117821104757487
1775722041182826800,5.81082666015625,-1.3419143746823072,0.8864521417595446,-0.889498669848591
1775722041192839700,5.820839599609375,-1.8584750732988118,0.9311267844621092,-0.9755098238069564
1775722041202852600,5.8308525390625,-2.280738362583518,1.0604934613484889,-1.1445564038485287
1775722041212865500,5.840865478515625,-2.5359832897186276,1.2503753241479396,-1.262025429931283
1775722041222878700,5.850878662109375,-2.8296628691881893,1.3222187634788454,-1.2975196448996662
1775722041232891600,5.8608916015625,-2.801815077319741,1.1211064816128462,-1.1182861634951085
1775722041242905600,5.870905517578125,-2.856840798971057,1.0092601177174598,-0.9019447483152151
1775722041252918800,5.880918701171875,-3.176234080889821,0.9456392208740114,-0.8032288649540394
1775722041262931700,5.890931640625,-3.1997114025890827,0.6585280600093305,-0.7290298024076968
1775722041272944600,5.900944580078125,-3.1880525289773938,0.38133506656885147,-0.7104730590410531
1775722041282957600,5.91095751953125,-3.0552403878122565,0.18574037908054888,-0.7404387929115444
1775722041292970800,5.920970703125,-2.959405101388693,-0.006482786148041486,-0.7134614272020757
1775722041302983700,5.930983642578125,-2.7544810792148113,-0.36537126230485734,-0.534305979469791
1775722041312996600,5.94099658203125,-2.443825815024972,-0.729827674787119,-0.3245050719745457
1775722041323009800,5.951009765625,-2.262039507332444,-0.9784837981164455,-0.14169658162742851
1775722041333023500,5.9610234375,-2.007736829483509,-1.0554846202105284,0.002278904717415571
1775722041343036700,5.97103662109375,-1.907324736663699,-1.084274222973734,0.13071326918974518
1775722041353049900,5.9810498046875,-1.877783000358939,-1.1951331102017313,0.3011152824282646
1775722041363062500,5.9910625,-1.767896976751089,-1.2784700765147805,0.41213549769781527
1775722041373075700,6.00107568359375,-1.6661510049790142,-1.2136397308163345,0.3882624546792358
1775722041383088600,6.011088623046875,-1.515964535164833,-1.0802788697272538,0.35828751458898184
1775722041393101600,6.0211015625,-1.3692337587624788,-0.9218148393027484,0.3066368953939527
1775722041403114500,6.031114501953125,-1.0615303301155568,-0.7590380602456629,0.23271109683103858
1775722041413128700,6.041128662109375,-0.7988222274929284,-0.637650764740631,0.18455942566767333
1775722041423141600,6.0511416015625,-0.696810882782936,-0.4774734275922179,0.20928674742802977
1775722041433154600,6.061154541015625,-0.6766583215922117,-0.40832109050881116,0.3025216420948505
1775722041443167700,6.071167724609375,-0.5927279924958944,-0.39121662830971177,0.29373971215896305
1775722041453180700,6.0811806640625,-0.3863309751600027,-0.28858506934214384,0.1538621626522392
1775722041463193600,6.091193603515625,-0.16780454409122467,-0.16050328116714954,0.12023900225274264
1775722041473206800,6.101206787109375,-0.026256138762831685,-0.07045180230941624,0.19046916116811333
1775722041483219700,6.1112197265625,-0.0052712184011936185,-0.051561443074233826,0.2647354437317699
1775722041493233700,6.121233642578125,0.03038987756669521,-0.004373611974343657,0.2811174003425985
1775722041503246600,6.13124658203125,0.18719956491291523,0.10763868307247758,0.19819559070169926
1775722041513259800,6.141259765625,0.3208616009056568,0.2232398694567382,0.112837055433169
1775722041523272700,6.151272705078125,0.3845692261844873,0.26246344367917623,0.00883124897032976
1775722041533285600,6.16128564453125,0.5190110143780708,0.17699790437221527,-0.042547786741703744
1775722041543298800,6.171298828125,0.5186866047292947,0.1583710183788091,-0.11250606991313397
1775722041553311500,6.1813115234375,0.4756728079110384,0.10394125332664697,-0.18779497352279723
1775722041563324700,6.19132470703125,0.48604281075596806,0.03753368490673602,-0.28870880531966686
1775722041573338600,6.201338623046875,0.3824620247721672,0.07440360867511481,-0.3652398910101503
1775722041583351600,6.2113515625,0.3112362789481878,0.07964888891745359,-0.3544197332449257
1775722041593364700,6.22136474609375,0.30920214277207847,0.10726740207467228,-0.3838404004532844
1775722041603377700,6.231377685546875,0.37045126898288727,0.17560104318633674,-0.34822950030267236
1775722041613390600,6.241390625,0.2768897727102041,0.1820296514617279,-0.24394973573666065
1775722041623403500,6.251403564453125,0.17257891888618468,0.05144669412076473,-0.07119936927370726
1775722041633416700,6.261416748046875,0.09641513213813305,0.023145313265919683,-0.029478352212347087
1775722041643429600,6.2714296875,-0.02967325372993946,0.10151826396342366,-0.09880312325321138
1775722041653442600,6.281442626953125,-0.14964344897866247,0.11299476674553006,-0.1385614254068583
1775722041663456800,6.291456787109375,-0.19339958859682083,0.15479958963282406,-0.21350326914452014
1775722041673469400,6.301469482421875,-0.37214988959431644,0.20944708908889442,-0.19625936194211244
1775722041683482600,6.311482666015625,-0.490834136685729,0.0737224214779213,-0.10228709291145205
1775722041693495800,6.321495849609375,-0.46044659720659253,-0.02499083153475076,-0.09201981978863477
1775722041703508700,6.3315087890625,-0.4670996253550052,0.01666431721616536,-0.10989829856753348
1775722041713521700,6.341521728515625,-0.43064533318281173,0.059043104066513474,-0.10598992948476224
1775722041723534600,6.35153466796875,-0.3320692236185074,0.05067764597702771,-0.13417363877668975
1775722041733547800,6.3615478515625,-0.2168587901175022,0.0763511625463143,-0.15422653898522257
1775722041743561700,6.371561767578125,-0.2792781291514635,0.10946801739148795,-0.15444186223633585
1775722041753574700,6.38157470703125,-0.30766192759275435,0.05135328021626919,-0.052789085173048075
1775722041763587800,6.391587890625,-0.2674053205281496,0.08862243243530392,0.05881046435441822
1775722041773600500,6.4016005859375,-0.2306786411553621,0.1911311687408015,0.0664382192865014
1775722041783613700,6.41161376953125,-0.1528834538131952,0.2306394051235169,0.11443247139845043
1775722041793626600,6.421626708984375,-0.09416589190661907,0.2210599681343883,0.15053926530722528
1775722041803639600,6.4316396484375,-0.12422376103997229,0.16086637885849922,0.1964164156673476
1775722041813652700,6.44165283203125,-0.054529462566971776,0.07833722179699688,0.18373974331524223
1775722041823665700,6.451665771484375,0.01148293252289295,0.018871471871621907,0.13822477733101696
1775722041833679600,6.4616796875,0.037919104027748105,0.027571714873425662,0.16610727518666535
1775722041843692000,6.471692138671875,-0.03278115661740303,0.004452632027305663,0.17044260097723454
1775722041853705000,6.481705078125,0.023920389291644095,-0.08567026809882372,0.1383737573476508
1775722041863718100,6.49171826171875,0.16947744573950765,-0.0483107341825962,0.029602270852960643
1775722041873731000,6.50173095703125,0.11773381449878215,0.07557864380385726,-0.07798417057562619
1775722041883744000,6.511743896484375,0.19440029007196424,0.03925948578603566,-0.006319010421074927
1775722041893757200,6.521757080078125,0.23282909718751907,0.002982778670452535,0.04593045144993812
1775722041903769900,6.531769775390625,0.2886024223357439,0.04433434136491268,0.08401760552097111
1775722041913784000,6.5417841796875,0.33589258129894733,0.06919237683285027,0.0988580317782238
1775722041923797200,6.55179736328125,0.2685784559607506,0.009314831236191094,0.15066490098088978
1775722041933810000,6.561809814453125,0.171091895198822,-0.03196388541776687,0.21387122567407785
1775722041943823000,6.571822998046875,0.01225333237349987,-0.03169599172919989,0.21554493103995917
1775722041953836000,6.5818359375,0.04018237278461456,-0.045481757834367455,0.17704704074356703
1775722041963849000,6.591848876953125,0.020119827964901922,0.03168620098754763,0.0684446272054687
1775722041973862000,6.60186181640625,-0.06970306630134582,0.07625566628258675,0.028930289875529706
1775722041983875000,6.611875,-0.06703647744059563,0.04793656710796058,0.07411525672040879
1775722041993888000,6.621887939453125,-0.13611118271052836,0.09794321848824619,0.05549640790298581
1775722042003902000,6.63190185546875,-0.18635317721664904,0.11233659509774296,0.045745486804470416
1775722042013915100,6.6419150390625,-0.22602292430400847,0.053641573816537856,0.010779643091745674
1775722042023927800,6.651927734375,-0.23750118065178394,0.07970989838968962,-0.03311049816962331
1775722042033941000,6.66194091796875,-0.20429507662057875,0.13223222238533197,-0.1203251096336171
1775722042043954200,6.6719541015625,-0.2384866845577955,0.1358480382623151,-0.1034627490947023
1775722042053967000,6.681967041015625,-0.26692425901293754,0.10609682392533867,-0.02539334792103618
1775722042063980000,6.69197998046875,-0.4544301133960485,0.12343363357558845,0.0007331365801393986
1775722042073993000,6.701992919921875,-0.6445891126364469,0.1193037672292441,0.0560336931174621
1775722042084007000,6.7120068359375,-0.7610200278431176,0.145410597181879,0.0017209785737097262
1775722042094020000,6.72202001953125,-0.851701584765315,0.16588647204283624,-0.13077563036885112
1775722042104033000,6.732032958984375,-0.8744242887049913,0.2166555226303637,-0.12355280297584831
1775722042114046200,6.742046142578125,-0.9693687637686729,0.1571034095957875,-0.09229655437078327
1775722042124059000,6.752058837890625,-0.8905576773822307,0.05799458139427006,-0.06363638667352498
1775722042134072000,6.762072021484375,-0.6920125425904989,0.06176935069262981,-0.017272767970710992
1775722042144085000,6.7720849609375,-0.4887573304116726,0.1072385047737509,-0.02029438081420958
1775722042154098000,6.782097900390625,-0.4559130454301834,0.10469532309696078,0.014792458929680287
1775722042164112100,6.792112060546875,-0.38098259986937044,0.0538734098110348,0.12979900388903914
1775722042174125000,6.802125,-0.6137801328748465,0.06627312838528304,0.2035932484941557
1775722042184138000,6.812137939453125,-0.8063648979574441,0.0070780120948329564,0.2604552821945399
1775722042194151000,6.82215087890625,-0.9202589881628751,-0.037050139173492785,0.26972061173319817
1775722042204164000,6.8321640625,-1.0457324570029973,-0.0001834668081253767,0.30481859392561017
1775722042214177000,6.842177001953125,-1.0719430030584334,-0.024214476867392656,0.42657410168852655
1775722042224190000,6.85218994140625,-1.089047867116332,-0.12024638184159993,0.5237726027566939
1775722042234203100,6.862203125,-1.0739864915847777,-0.17869820548407733,0.5752860419707373
1775722042244216000,6.872216064453125,-0.9930231956005096,-0.20895875758267937,0.5463965955622494
1775722042254230000,6.88222998046875,-0.9589835633546113,-0.19310345519445835,0.48363045238461344
1775722042264243200,6.8922431640625,-0.7891016284674406,-0.17963475568182766,0.4561778703788295
1775722042274256000,6.902255859375,-0.7094079140275716,-0.1538298312852159,0.3966402607936412
1775722042284269000,6.91226904296875,-0.6600286738306284,-0.15077921154294163,0.3310298706334084
1775722042294282000,6.922281982421875,-0.5680114843904972,-0.13682408022023737,0.27055487060025335
1775722042304295200,6.932295166015625,-0.5164893869459629,-0.0673711527550593,0.2521424310751259
1775722042314307800,6.942307861328125,-0.6314841318696737,-0.02073521991688758,0.19422588335312901
1775722042324321000,6.952321044921875,-0.7301192781448363,-0.06445658048260956,0.16155436112266033
1775722042334335000,6.9623349609375,-0.8090940306603908,-0.029357027387619018,0.1323559218302369
1775722042344348000,6.972347900390625,-0.9347866952091455,0.06808098152484744,0.017856814936362205
1775722042354361000,6.982361083984375,-0.8734323550581932,0.10981339676305651,-0.07510613092128186
1775722042364374000,6.9923740234375,-0.8246709544986486,0.1459770354256034,-0.08524933927301317
1775722042374387000,7.002386962890625,-0.9618389527857303,0.21570421325489877,-0.04352777422238141
1775722042384400100,7.012400146484375,-1.3585697414070368,0.32939518210366364,-0.08096870281174778
1775722042394413000,7.0224130859375,-1.400515032210946,0.28842341250702735,-0.18358261652477084
1775722042404426000,7.032426025390625,-1.2272171514004468,0.3359581938810646,-0.480689649692364
1775722042414439000,7.04243896484375,-1.0761989069372415,0.608359934457019,-0.7651863537423312
1775722042424453000,7.052453125,-0.7926198657214641,0.6947519774917513,-0.7517735491354018
1775722042434466000,7.062466064453125,-0.5769365491241216,0.5352283550117165,-0.5572959560435266
1775722042444479000,7.07247900390625,-0.3152192111045122,0.4717082151290029,-0.34323907160423694
1775722042454492200,7.0824921875,-0.05317278726100921,0.506643334909901,-0.217924428321328
1775722042464504800,7.0925048828125,0.20701894862651823,0.47178193795233964,-0.1371348997350782
1775722042474518000,7.10251806640625,0.21000644000470636,0.4163151945352554,-0.12102450834093614
1775722042484531000,7.112531005859375,0.15415946509838102,0.29222499674707647,-0.10231664779949932
1775722042494544100,7.122544189453125,0.19672785623669622,0.20576405319459734,-0.13187581016309557
1775722042504557000,7.13255712890625,0.1108124908030033,0.19047033021189272,-0.15192162304371595
1775722042514571000,7.142571044921875,0.1475029298186302,0.16532902082316575,-0.07945402393247931
1775722042524584000,7.152583984375,0.18415888204276562,0.16409202637411652,-0.0427449350153096
1775722042534596900,7.162596923828125,0.22621873913705348,0.1892963910616934,-0.050773197039682416
1775722042544610000,7.172610107421875,0.3014864538282156,0.2150056365314871,-0.08588811210058629
1775722042554623200,7.182623291015625,0.3831809866964817,0.20434556469880044,-0.22422849690159782
1775722042564636000,7.192635986328125,0.5186579631567001,0.23807488888651132,-0.297043210683763
1775722042574649000,7.202649169921875,0.5825549735277891,0.2464168930351734,-0.3287356222163886
1775722042584662000,7.212662109375,0.40550738479495047,0.20146913247965276,-0.3333365401405841
1775722042594676000,7.222676025390625,0.32035423590540885,0.13603607164770365,-0.22147943565547465
1775722042604689200,7.232689208984375,0.32949089756309985,0.14879918017424643,-0.22533490550722926
1775722042614702000,7.2427021484375,0.3032289135813713,0.14683350612446666,-0.25434421543572094
1775722042624715000,7.252715087890625,0.2597545135140419,-0.009875716521963477,-0.33911077616047114
1775722042634728000,7.26272802734375,0.27696166890263557,-0.1746826131671667,-0.45412386045847086
1775722042644741000,7.2727412109375,0.21500001050829887,-0.17969320787079632,-0.5083961333939805
1775722042654754000,7.282754150390625,0.32783962322473525,-0.1735888996463269,-0.5704120427262037
1775722042664767000,7.29276708984375,0.41866497253179547,-0.14504267718493938,-0.5874692317174747
1775722042674780200,7.3027802734375,0.4660077384650707,-0.07815313393436372,-0.5543226027885452
1775722042684793900,7.3127939453125,0.42502340164780616,-0.021208353853970765,-0.44904315966069697
1775722042694807000,7.32280712890625,0.4809691607534885,-0.0019109481878578662,-0.3123617027815431
1775722042704820000,7.332820068359375,0.2550882752686739,0.08785152112804352,-0.1870651614109054
1775722042714833000,7.3428330078125,0.07319149293899535,0.06574943330474198,0.03349156990908086
1775722042724846000,7.35284619140625,-0.049475686308741565,-0.0038194121576845645,0.055757579589821395
1775722042734859000,7.36285888671875,-0.20273674126267432,-0.05991086334437132,-0.05928553452026099
1775722042744872200,7.3728720703125,-0.1181628535658121,-0.07201989187635481,-0.08776471962742508
1775722042754884900,7.382884765625,0.024096330380439755,0.019233838910609483,-0.06110573568474501
1775722042764898000,7.39289794921875,0.09317571182548999,0.05583170427195727,0.048596821114979684
1775722042774912000,7.402912109375,0.134554600918293,-0.010490049028024077,0.2493778982652351
1775722042784925000,7.412925048828125,0.1982721630692482,-0.03437514781057834,0.3448905286056921
1775722042794938000,7.422938232421875,0.23175649951994418,0.009243629163503646,0.2819428183160722
1775722042804951000,7.432950927734375,0.05179740725457668,-0.018896569780260324,0.19073935641162096
1775722042814964000,7.4429638671875,0.04312251788973808,-0.190279118488729,0.03857778713218868
1775722042824977000,7.452976806640625,0.138584879347682,-0.15757774910926817,-0.18820494256317613
1775722042834990000,7.462989990234375,0.13665128093659876,-0.0616315496571362,-0.261513412945345
1775722042845003800,7.473003662109375,0.168059395635128,-0.10065203905552625,-0.1029861810915172
1775722042855018000,7.48301806640625,0.12210486918985843,-0.16173413813635706,0.02813128498494625
1775722042865030700,7.49303076171875,-0.0060702598243951795,-0.09388882853090763,0.15660349724963307
1775722042875043800,7.5030439453125,0.007160977670550346,-0.013567922103404998,0.2392663636934012
1775722042885056800,7.513056884765625,0.03882394391298294,0.10482362565174698,0.21443938095085321
1775722042895070000,7.523070068359375,0.054769116541743275,0.2716989260688424,0.24535730097964403
1775722042905082600,7.53308251953125,0.19770926848948,0.3648877896368503,0.2902002129212022
1775722042915095800,7.543095703125,0.2306616900205612,0.4441637170560658,0.3046843000214547
1775722042925109000,7.55310888671875,0.2722223654210567,0.4813363866306841,0.392920436552912
1775722042935121700,7.56312158203125,0.3246867121517658,0.5281634581267833,0.46209582571834323
1775722042945135900,7.573135986328125,0.38024025706946846,0.5453092387169599,0.4708879847873002
1775722042955148800,7.583148681640625,0.2772679583728313,0.6473661761343479,0.5227146181363612
1775722042965161700,7.59316162109375,0.23613456847369668,0.7604638552650809,0.5645298528198153
1775722042975175000,7.6031748046875,0.21875790173709392,0.8540292970605194,0.5600890938933938
1775722042985187800,7.613187744140625,0.13419044378101824,0.9535857959643006,0.5552499102339148
1775722042995200800,7.62320068359375,-0.013285598030686378,1.050745462859422,0.5524132985685021
1775722043005213700,7.633213623046875,-0.140649410662055,1.0585882853142916,0.518814249696955
1775722043015227000,7.643226806640625,-0.17782149571478365,1.047391768517345,0.46801301387287675
1775722043025239800,7.65323974609375,-0.25372517022192476,1.1320599103689193,0.448365625725314
1775722043035253800,7.663253662109375,-0.3992360494405031,1.1472235772311687,0.4737392094999551
1775722043045267000,7.673266845703125,-0.34326866302490233,0.9950893343500793,0.4724493158198893
1775722043055279600,7.683279541015625,-0.2455886255174875,0.9325108592316508,0.3195680539637804
1775722043065292800,7.693292724609375,-0.213586052057147,0.8064742035508156,0.23833653549738226
1775722043075305700,7.7033056640625,0.034842180800437925,0.5900032437071204,0.23948789748959243
1775722043085319000,7.71331884765625,0.1735848810583353,0.5225879960820079,0.21452640164718031
1775722043095331800,7.723331787109375,0.31201895375847816,0.5361170474797486,0.2132660263225436
1775722043105344800,7.7333447265625,0.45980245408415793,0.5086765212379396,0.3140182378169149
1775722043115358000,7.74335791015625,0.33248072702884673,0.3662174308054149,0.3904405293706804
1775722043125371600,7.75337158203125,0.16078209810853003,0.1455970961973071,0.3318019509844482
1775722043135384800,7.763384765625,0.17226561515331268,-0.03711260995045304,0.20648783742450177
1775722043145398000,7.77339794921875,0.07050210772454739,-0.03761310681849718,0.015197057675197719
1775722043155410700,7.78341064453125,0.16314590463042258,-0.03884586348384619,-0.05529167911112308
1775722043165423900,7.793423828125,0.26430618546903134,-0.13209960898160933,0.03222111158184707
1775722043175436800,7.803436767578125,0.3494289392203092,-0.2849881773613393,0.2374097760412842
1775722043185449700,7.81344970703125,0.34422669440209863,-0.40551469131857154,0.45864919239580626
1775722043195462700,7.823462646484375,0.10640987192988395,-0.5076999312907458,0.5668193519964814
1775722043205475800,7.833475830078125,0.09397533777058124,-0.7526122649818658,0.5356438770100475
1775722043215489800,7.84348974609375,0.09771277073323727,-0.8449959496468306,0.38966801062822337
1775722043225502700,7.853502685546875,-0.028962475112080572,-0.8752348744355142,0.33393910914361474
1775722043235516000,7.863515869140625,-0.13444237271547316,-0.976004256260395,0.32905835136473177
1775722043245528600,7.873528564453125,-0.1502308934777975,-1.0600916756145655,0.33405937452241774
1775722043255541800,7.883541748046875,-0.10619769048392771,-1.0317162066102028,0.31604799007885154
1775722043265555000,7.893554931640625,-0.16577157695889472,-1.0122959052167833,0.2791963691521436
1775722043275567900,7.90356787109375,-0.039764439633488656,-1.1712122094534336,0.2158960094999522
1775722043285580800,7.913580810546875,0.19179390696585177,-1.2412654043667017,0.07104753971286118
1775722043295594800,7.9235947265625,0.5020061035633087,-1.1501944097355008,-0.029646073462069034
1775722043305607700,7.933607666015625,0.7887047381043434,-0.9766035373277961,-0.08441365563385188
1775722043315620900,7.943620849609375,1.041128178077936,-0.7741277850888669,-0.06829926391802728
1775722043325633800,7.9536337890625,1.241810324898362,-0.607569441666454,-0.07551189871057867
1775722043335647000,7.96364697265625,1.3224322600990532,-0.5104474764332175,-0.0334385245475918
1775722043345659600,7.97365966796875,1.2945979122340678,-0.44611295142769813,0.05775755776800215
1775722043355672800,7.9836728515625,1.1343950753182173,-0.41216581977084277,0.07016491165943443
1775722043365685800,7.993685791015625,1.0381102915614844,-0.4017075541205704,-0.02138634076938033
1775722043375698700,8.00369873046875,1.0724123741358518,-0.26157880633175373,-0.1068199871007353
1775722043385713000,8.013712890625,1.0593336968541145,-0.10993424666374921,-0.07906447662562131
1775722043395725800,8.023725830078124,1.1588725139707325,-0.1477216871358454,-0.0012667320001870392
1775722043405738800,8.03373876953125,1.1089333018034695,-0.08160992332473396,-0.10884009475149213
1775722043415751700,8.043751708984376,1.1683248174488543,-0.01885360742136836,-0.15804010592401027
1775722043425764900,8.053764892578124,1.2093787123709916,-0.016639000111818313,-0.13679514638669787
1775722043435777800,8.06377783203125,1.2105506787598133,0.07664353308901191,-0.1582436656720936
1775722043445790700,8.073790771484376,0.927142902457714,0.21711948688030241,-0.19025785650499163
1775722043455804000,8.083803955078125,0.8274854273974895,0.18087635324075818,-0.07233728726245463
1775722043465816800,8.09381689453125,0.7649544446825981,0.1712633062429726,-0.05766527637466788
1775722043475830800,8.103830810546874,0.4966501294881105,0.20517653563022611,-0.06748714381754398
1775722043485844000,8.113843994140625,0.5647755712091922,0.053487990690022705,0.03828961784057319
1775722043495856600,8.123856689453126,0.49676001960337157,-0.013693448179215192,0.07290599052850157
1775722043505869800,8.133869873046875,0.36462650835216043,-0.0871728181488812,0.09926263052374124
1775722043515882800,8.1438828125,0.2637754395931959,-0.18324191332831977,0.1039407418699935
1775722043525896000,8.15389599609375,0.04616261623799801,-0.2716420813150704,-0.061057110770046705
1775722043535908600,8.16390869140625,0.0836596954613924,-0.3572273380115628,-0.27798290170915424
1775722043545921800,8.173921875,0.06125438690781593,-0.3234903419740498,-0.40705191082321107
1775722043555935000,8.18393505859375,0.09614391398131847,-0.28996596577391026,-0.4039461998928338
1775722043565948700,8.19394873046875,0.13636837234199045,-0.29011414207294584,-0.3450481668528169
1775722043575961900,8.2039619140625,0.27171207781136036,-0.2981679769299924,-0.2331102522164583
1775722043585974800,8.213974853515625,0.329964360293746,-0.2448649874180555,-0.09323072994835674
1775722043595987700,8.22398779296875,0.22955285199582576,-0.17843436691612005,0.01324504682458937
1775722043606001000,8.2340009765625,0.04870177932679653,-0.22492782254368066,0.05180580975674092
1775722043616013800,8.244013916015625,0.0901736074000597,-0.3351927624665201,0.01780336771607399
1775722043626026800,8.25402685546875,-0.00405249026119709,-0.2706149302244186,-0.1248698038585484
1775722043636039700,8.264039794921874,-0.020684476110339165,-0.2768070628628135,-0.19522278543598948
1775722043646054000,8.274053955078125,0.07912205203175544,-0.3569830078616738,-0.16597513670697808
1775722043656066800,8.28406689453125,0.17823066103756427,-0.3311095848061144,-0.08095167861171067
1775722043666079700,8.294079833984375,0.18372867393195627,-0.26850948237776756,0.040765214173868296
1775722043676093000,8.304093017578126,-0.003300210589170456,-0.26349676878228784,0.10330160371623932
1775722043686105900,8.31410595703125,-0.3658352996200323,-0.29523221573904157,0.13541187533475457
1775722043696118800,8.324118896484375,-0.4823907179892063,-0.2948632362961769,0.17891309034377337
1775722043706131700,8.334131591796876,-0.630094138815999,-0.21063436264470217,0.09163820005990564
1775722043716145000,8.344144775390625,-0.6285585998117923,-0.19793708589598535,0.05659983910024166
1775722043726157800,8.35415771484375,-0.5460621029108762,-0.19656448236852883,0.07505794439800083
1775722043736171800,8.364171875,-0.38315585225522514,-0.14788871426582337,0.0927956995319575
1775722043746184700,8.374184814453125,-0.21458324640095233,-0.046951574658602474,0.07059029746465384
1775722043756198000,8.384197998046876,-0.03613046704530716,0.030399083786457774,0.03463127799611539
1775722043766210800,8.3942109375,0.16829320439100265,0.09599369185566901,0.01566997241657227
1775722043776224000,8.40422412109375,0.1656891593724489,0.21164427033960817,-0.07492701149471104
1775722043786236700,8.414236572265626,0.1566746627897024,0.16776318916752933,-0.10379610923491418
1775722043796249900,8.424249755859375,0.24154841021597384,0.16944968094974755,-0.18290756680741904
1775722043806262800,8.4342626953125,0.2249146708011627,0.2875410767145455,-0.30955165032949294
1775722043816275700,8.444275634765624,0.2058399679750204,0.26477424137219785,-0.2879631380515173
1775722043826290000,8.4542900390625,0.24698095665872097,0.21764409527629613,-0.24475246695429084
1775722043836302800,8.464302734375,0.2646066297203302,0.28190263243615626,-0.18942272085510192
1775722043846315300,8.474315185546875,0.27275311129689217,0.3031197541184723,-0.136848557074368
1775722043856328400,8.484328369140625,0.2747860784292221,0.2590077867999673,-0.14635562294702975
1775722043866341400,8.49434130859375,0.26360709728896614,0.22071502715423702,-0.14185319696124643
1775722043876354600,8.5043544921875,0.32279344575107094,0.22818843177482484,-0.1577277155065909
1775722043886367200,8.5143671875,0.45081192289888855,0.26771204838976265,-0.16076017853766678
1775722043896380400,8.52438037109375,0.49676235769093036,0.3129487819544971,-0.0827213551653549
1775722043906393600,8.5343935546875,0.5524012428045273,0.31130276831313963,0.04609729591682553
1775722043916407300,8.5444072265625,0.5347609566956758,0.29723902551680803,0.19630619675852357
1775722043926420500,8.55442041015625,0.34234044226408,0.2602387898996472,0.30567115563433617
1775722043936433700,8.56443359375,0.1524181743890047,0.16939269006550312,0.3115287956213578
1775722043946446300,8.5744462890625,-0.040707273441553116,0.09420958491787314,0.2630294435314834
1775722043956459500,8.58445947265625,-0.17658055574297904,0.04795519874319434,0.12549272152986377
1775722043966472400,8.594472412109376,-0.24116554837822912,-0.005416618221253156,-0.04366864399779588
1775722043976485400,8.6044853515625,-0.09283493556380272,-0.0668675506144762,-0.13437595641575753
1775722043986498300,8.614498291015625,0.05614215846061706,-0.09279548033624888,-0.1560185735011473
1775722043996512500,8.624512451171874,0.13370412156879902,-0.11028671336323022,-0.11579042534604668
1775722044006525400,8.634525390625,0.2746913858830929,-0.1930443454183638,-0.1214362857459113
1775722044016538400,8.644538330078126,0.41091128966510293,-0.2404052315302193,-0.18108882694765924
1775722044026551600,8.654551513671874,0.4286544516265392,-0.16358619574382902,-0.2827627563968301
1775722044036564200,8.664564208984375,0.5077186359912157,-0.18097367613539098,-0.3277468669073656
1775722044046577400,8.674577392578126,0.598713496646285,-0.21315511329397557,-0.32815511891469357
1775722044056590300,8.68459033203125,0.6896686098128557,-0.230063431866467,-0.2721389979865402
1775722044066603500,8.694603515625,0.6535942568689584,-0.27516850187554953,-0.21379976787306368
1775722044076616400,8.704616455078124,0.6221826350390911,-0.38644261884093284,-0.16687621373254805
1775722044086630400,8.71463037109375,0.7477028656303882,-0.46623161034882066,-0.12598609453737736
1775722044096643300,8.724643310546876,0.818894124662876,-0.43206572137475013,-0.1303070995416492
1775722044106656500,8.734656494140625,0.8524731536597013,-0.42094665372818707,-0.040686376783996815
1775722044116669400,8.74466943359375,0.8763941274732351,-0.4997473648510873,0.1179042026296258
1775722044126682600,8.7546826171875,0.8390928630828857,-0.5100535086795688,0.15665548316519706
1775722044136695300,8.7646953125,0.6111603057652711,-0.5500814215548336,0.1405893145052716
1775722044146708500,8.77470849609375,0.5820575453996658,-0.6227040285646915,0.18806809137575328
1775722044156721400,8.784721435546874,0.6871078194141388,-0.6611833968237042,0.19091339780427513
1775722044166735400,8.7947353515625,0.8002987297862768,-0.6669175565615296,0.2200498777763918
1775722044176748500,8.80474853515625,0.8665735752046108,-0.7317382576487959,0.34603272091075776
1775722044186761500,8.814761474609375,0.9052876290023326,-0.7740120497547089,0.43141478318534787
1775722044196774400,8.8247744140625,0.8731389250695705,-0.706243166386336,0.2434444530956447
1775722044206787300,8.834787353515624,0.9353934289306401,-0.5774203871183097,-0.00002224836442619562
1775722044216800500,8.844800537109375,0.8420990591615438,-0.39292613564133644,-0.2254309862928465
1775722044226813400,8.8548134765625,0.7151052488863467,-0.3278618350565433,-0.34199762017577884
1775722044236826400,8.864826416015624,0.6885194397777319,-0.3260483558937907,-0.4262495824418962
1775722044246839600,8.874839599609375,0.60351592849195,-0.21484306638091802,-0.49086511634588237
1775722044256853200,8.884853271484374,0.610039777302742,-0.16594547222107647,-0.38836752248890694
1775722044266866400,8.894866455078125,0.7354623927384615,-0.2806000254049897,-0.1874167147949338
1775722044276879600,8.904879638671876,0.872313580161333,-0.3368260627567768,0.016215258274413644
1775722044286892300,8.914892333984374,0.9707990888327359,-0.294918035223335,0.20948964958898722
1775722044296905500,8.924905517578125,0.8444161039322614,-0.33035715900361534,0.34423487770855427
1775722044306918400,8.93491845703125,0.768766696447134,-0.44045682536214587,0.44783769286107267
1775722044316931600,8.944931640625,0.8163818495810031,-0.42958033429980275,0.46911633547227827
1775722044326944300,8.9549443359375,0.706141605708003,-0.3006779139243066,0.4305090299846604
1775722044336957400,8.96495751953125,0.5995896949589252,-0.2956191692300141,0.42008422821257263
1775722044346971400,8.974971435546875,0.5247147789776325,-0.33895430695712564,0.4273750062752515
1775722044356984300,8.984984375,0.4470546161919832,-0.22477321650385856,0.4233800914201885
1775722044366997500,8.99499755859375,0.27879706763625145,-0.15593348903357981,0.42152335763759907
1775722044377010400,9.005010498046875,0.3153285166978836,-0.22451412717625496,0.488336401585862
1775722044387023400,9.0150234375,0.3396984033226967,-0.14162380865216254,0.5094035203382372
1775722044397036500,9.02503662109375,0.4357651604145765,-0.06597557021081447,0.5862976671874522
1775722044407049500,9.035049560546875,0.6365940222293138,-0.11601678144782782,0.704416389350593
1775722044417062400,9.0450625,0.6888046864598989,-0.07194046996459365,0.7058157347545028
1775722044427075300,9.055075439453125,0.7391232533335685,-0.020083441477268933,0.6170869193352758
1775722044437089500,9.065089599609376,0.9515981292784214,0.01791004296094179,0.5794185021329671
1775722044447102500,9.0751025390625,0.9684300216138362,0.1346647102292627,0.542392182226479
1775722044457115400,9.085115478515625,0.9163760092496871,0.21821254281401634,0.5352496169954538
1775722044467128600,9.095128662109374,0.94568861297369,0.2428565702050924,0.5486620562762021
1775722044477141500,9.1051416015625,0.986394132849574,0.2874392237752676,0.5138244785856455
1775722044487154400,9.115154541015626,1.1443979984164236,0.3090134152669459,0.5388802285827696
1775722044497167400,9.12516748046875,1.1751882734775543,0.3424192796539515,0.5511630793116986
1775722044507180500,9.1351806640625,1.2307482481360434,0.317409122364223,0.6567734714269637
1775722044517194500,9.145194580078124,1.317229430758953,0.347589594963938,0.7071639344930648
1775722044527207400,9.15520751953125,1.2830185335993767,0.41729573000520465,0.6509044332630932
1775722044537220400,9.165220458984376,1.4052309548169373,0.4019249962635338,0.5649870950680226
1775722044547233300,9.1752333984375,1.5500105971515177,0.3608168869361281,0.4961173377856612
1775722044557246500,9.18524658203125,1.603918128427863,0.3122367612276226,0.5398043576903641
1775722044567259600,9.195259765625,1.5915373702824114,0.2619443517085165,0.5734245954804122
1775722044577272300,9.205272216796875,1.4674679230213163,0.17856603047177194,0.6437234357178211
1775722044587285500,9.215285400390625,1.2088555652797222,0.13171031740307806,0.6451720270909369
1775722044597298400,9.22529833984375,0.9505816457122563,0.10233626581542193,0.6229577110648155
1775722044607312400,9.2353125,1.030482865422964,0.1261146893531084,0.49054848814476276
1775722044617325600,9.24532568359375,0.9367407518863677,0.3860118262082338,0.2722815482623875
1775722044627338500,9.25533837890625,0.8574749074697494,0.469441658436507,0.2905375916494056
1775722044637351400,9.265351318359375,0.6925315980285406,0.38991277916952966,0.3594349675910547
1775722044647364400,9.2753642578125,0.5560492439180612,0.34125483898445963,0.34168541242145
1775722044657377500,9.28537744140625,0.5000187291383743,0.27013883714526893,0.259424258646369
1775722044667390500,9.295390380859375,0.4241963031738996,0.2878860176946968,0.0010620397409424186
1775722044677403400,9.3054033203125,0.13537643869519234,0.4001864820331335,-0.2476286069124937
1775722044687416600,9.31541650390625,-0.31206337742209433,0.4403611099027097,-0.40652017856668676
1775722044697430300,9.32543017578125,-0.6071037238508462,0.5821358713328838,-0.5823138947809114
1775722044707443500,9.335443359375,-0.9737053316682577,0.7852717679809779,-0.6732292969916015
1775722044717456400,9.345456298828125,-1.3609762180268763,0.8889498768594115,-0.6221825619738549
1775722044727469600,9.355469482421874,-1.853459875485301,0.9564177314545959,-0.6264223184354603
1775722044737482500,9.365482421875,-2.4523452215671537,1.0216419718414544,-0.6714904174350201
1775722044747495400,9.375495361328126,-2.5718220803409815,0.9711158266317099,-0.7994558492213487
1775722044757508600,9.385508544921874,-2.5071166761964556,1.0272191143866627,-0.9801067962083965
1775722044767521300,9.395521240234375,-2.5529367626070973,1.1659212634384633,-1.1450325699929147
1775722044777535500,9.405535400390624,-2.2411954567462207,1.1391571020882576,-1.133484536344558
1775722044787548400,9.41554833984375,-1.9474211847305296,1.0082431226946413,-1.0199087183080613
1775722044797561300,9.425561279296875,-1.6546546284526586,0.8179666345544159,-0.9196948514740914
1775722044807574500,9.435574462890624,-1.383798875209689,0.6529855503860861,-0.775490159483254
1775722044817587500,9.44558740234375,-1.3730360736548899,0.6459018026702106,-0.6508533606629818
1775722044827600400,9.455600341796876,-1.3273106797903775,0.5083023906959221,-0.5773836353044957
1775722044837613300,9.46561328125,-1.2179267604857682,0.4212573636451736,-0.5253663016889244
1775722044847626000,9.4756259765625,-1.351067987474799,0.4131692977249622,-0.517519095319882
1775722044857639200,9.48563916015625,-1.43256729003191,0.2533250649884343,-0.36078930480945853
1775722044867653000,9.495653076171875,-1.44153794747293,0.11130520622339099,-0.2703479498513043
1775722044877666000,9.505666015625,-1.5099223323911428,0.057013461402431125,-0.2695757964350283
1775722044887679000,9.515678955078124,-1.481266146749258,0.016218034753389655,-0.1706053355245851
1775722044897692000,9.52569189453125,-1.6617670908063649,-0.01621639078557491,-0.14688770226342604
1775722044907705000,9.535705078125,-1.7415473144859075,-0.12166207559211178,-0.1335673982455395
1775722044917718000,9.545718017578125,-1.6997539993733166,-0.16279232368608937,-0.06975888814181089
1775722044927731000,9.55573095703125,-1.7409931877344846,-0.010442173031996935,-0.04131740469653159
1775722044937744000,9.565743896484374,-1.658342961576581,0.020898538986127823,0.08094055442949756
1775722044947757000,9.575757080078125,-1.7020552620530127,-0.008504364236677065,0.22059037786126134
1775722044957771000,9.58577099609375,-1.5603408525079487,0.019752035832125692,0.3052368924029171
1775722044967784000,9.595783935546875,-1.4996253947824238,0.10273953112037852,0.284555192771554
1775722044977797000,9.605797119140625,-1.365105865177512,0.05306714406260289,0.24024244218394158
1775722044987810000,9.61581005859375,-1.1441168433874844,-0.029032161081116645,0.2846627447992563
1775722044997823000,9.625822998046875,-0.9300082287609577,-0.012221695126220584,0.3108883422933519
1775722045007836200,9.635836181640625,-0.8156628876566886,-0.040919801947381346,0.3956059127772227
1775722045017849000,9.64584912109375,-0.5856593692839145,-0.08495248435144312,0.451606068951264
1775722045027862000,9.655862060546875,-0.5428220980763435,-0.03178492125482298,0.46129784374106675
1775722045037875000,9.665875,-0.5971586684197187,-0.0705622267142171,0.46450003731586037
1775722045047889000,9.675888916015625,-0.703148269110918,-0.1987163631727919,0.36692419083528216
1775722045057902000,9.685902099609375,-0.7243097150832414,-0.2921037815202027,0.19104517095778137
1775722045067915000,9.6959150390625,-0.6697954500854015,-0.2903466173882596,0.0468373188954778
1775722045077928200,9.70592822265625,-0.7404524561107159,-0.33485428775977344,-0.07252084540212526
1775722045087940900,9.71594091796875,-0.44334524028003214,-0.4239586219605058,-0.16666618771106004
1775722045097954000,9.7259541015625,-0.22800269994437694,-0.3239647545527667,-0.24948903048951176
1775722045107967000,9.735967041015625,-0.022770050212740898,-0.16289916332773863,-0.1736622023445554
1775722045117980000,9.74597998046875,0.1338525901287794,-0.0705726430769544,-0.014850892852339892
1775722045127994000,9.755994140625,0.26140871046185493,-0.053570458508818405,0.14850953131159766
1775722045138007000,9.766007080078126,0.3228729407280683,0.004045229403348639,0.30234964652881025
1775722045148020000,9.77602001953125,0.1474509073704481,0.035518098167469724,0.3551125012820586
1775722045158033200,9.786033203125,-0.10472878697514533,-0.059047506246995174,0.39416923103760926
1775722045168046000,9.796046142578126,-0.07530980026721953,-0.20439623544011265,0.3203398055212572
1775722045178059000,9.80605908203125,-0.1478922213971615,-0.1114534373213537,0.1537901203293353
1775722045188072000,9.816072021484375,-0.28777123220860956,-0.11061390862413681,0.1749482966323383
1775722045198085000,9.826085205078124,-0.31659049945771695,-0.2053997499268502,0.2465944780917838
1775722045208098000,9.83609814453125,-0.30318332087397576,-0.12850077163889073,0.18726139636905864
1775722045218112000,9.846112060546876,-0.2427577860057354,-0.06521572828684002,0.14464622521325946
1775722045228125200,9.856125244140625,-0.2541454414606094,-0.033939131013490255,0.19330840318202971
1775722045238137900,9.866137939453125,-0.32482115218639374,0.00707344551756978,0.2536866648424417
1775722045248151000,9.876151123046874,-0.3786310683071613,-0.03844660763372667,0.29718417179072276
1775722045258164000,9.8861640625,-0.3654156129032373,-0.08145147222685627,0.28704087210744617
1775722045268177200,9.89617724609375,-0.4035217639356851,-0.04931225764164701,0.22647313402323052
1775722045278190000,9.906190185546874,-0.4621212524205446,-0.06785087169655599,0.20231334648514165
1775722045288203000,9.916203125,-0.5024690448999405,-0.06505122190751135,0.1816539682834409
1775722045298216200,9.92621630859375,-0.4403191704571247,-0.0802683907889761,0.1385009821902029
1775722045308230000,9.93622998046875,-0.45688452081084246,-0.11795244395183399,0.11146685392535291
1775722045318243000,9.9462431640625,-0.5256745639204978,-0.13569418114116413,0.07191176445991732
1775722045328256300,9.95625634765625,-0.5362520720362663,-0.15835932794101534,0.041672771172574716
1775722045338269000,9.96626904296875,-0.4479208776324987,-0.12028148968759923,0.0026771958780882413
1775722045348282000,9.9762822265625,-0.3600578852623701,-0.04231666769983712,-0.03360830989023671
1775722045358295000,9.986294921875,-0.21297873381376264,0.03387565558953211,-0.0072643421469023445
1775722045368308000,9.996307861328125,-0.15378069491386412,0.1225045908308588,0.02227655390764121
1775722045378321000,10.00632080078125,-0.10462532660067081,0.1866792490995489,0.0682052106927149
1775722045388335000,10.016335205078125,-0.13625263700783252,0.25793496993668374,0.0980408153775148
1775722045398348000,10.02634814453125,-0.22050620670914647,0.2703159290115349,0.09342110142130404
1775722045408361000,10.03636083984375,-0.07147182953953743,0.2085882803024724,0.08190229386743157
1775722045418374100,10.0463740234375,0.001810264292359352,0.3211228456577286,0.025356175982113927
1775722045428386800,10.05638671875,0.1287584818601608,0.3699068964404985,0.032469469452882184
1775722045438400000,10.06639990234375,0.2817003878623247,0.32877416412848975,0.043379944983217865
1775722045448413200,10.0764130859375,0.29383623133599757,0.34888354376461356,0.00002024820358492434
1775722045458426000,10.086426025390624,0.2531862410396337,0.31587011276129634,-0.05776877328176051
1775722045468439000,10.09643896484375,0.30246377442777156,0.2532575527101755,-0.11786676582922227
1775722045478453000,10.106452880859376,0.2849585128754377,0.3073977602312341,-0.17022665667161344
1775722045488466000,10.1164658203125,0.20787176606357097,0.32985549309179185,-0.12600821503764018
1775722045498479000,10.12647900390625,0.16147008037269114,0.26812329607177526,-0.015899579921364784
1775722045508492000,10.136491943359376,0.10014847344756125,0.2620909571049735,0.01672337219333276
1775722045518505200,10.146505126953125,0.1458516554802656,0.29008820391409096,0.022857600632030517
1775722045528518000,10.156517822265625,0.1803384469717741,0.3135837188571691,0.017425547379627822
1775722045538531000,10.166531005859374,0.1582604706764221,0.30380919768735765,0.06886248729135841
1775722045548544000,10.1765439453125,0.15218962633013725,0.30902200043220074,0.12011289165504276
1775722045558557000,10.186556884765626,0.16153379325866699,0.3321686288723722,0.14423748001558706
1775722045568571100,10.196571044921875,0.2241255662500858,0.3488738260881975,0.15884139410322531
1775722045578584000,10.206583984375,0.11269289772212504,0.332639205526188,0.16670392590556293
1775722045588597000,10.216596923828124,0.0021615619480609893,0.23954722646139562,0.23498673187913371
1775722045598610000,10.22660986328125,-0.032408231651782984,0.2305254598876461,0.2018751925298944
1775722045608623000,10.236623046875,0.05962298631370067,0.29633445962620897,0.12101725661624223
1775722045618636000,10.246635986328124,0.056200026127696034,0.28833107631476596,0.1340797316818498
1775722045628649000,10.25664892578125,-0.01697276211082935,0.2162256067804992,0.2143822987350635
1775722045638662100,10.266662109375,-0.027967618855834004,0.14168665388845839,0.2692421805664897
1775722045648675000,10.276675048828125,-0.11223404803872108,0.13737101004589347,0.21629942093538118
1775722045658689000,10.28668896484375,-0.1476169115871191,0.02867376239777077,0.15012728697285055
1775722045668702200,10.2967021484375,-0.2590752990782261,-0.05039664621171541,0.1168970348810777
1775722045678715000,10.30671484375,-0.2598398537099361,-0.05063228159849532,-0.01671783750168979
1775722045688728000,10.31672802734375,-0.36249475702047346,-0.02647581396207679,-0.11266274004587903
1775722045698741000,10.326740966796875,-0.49434360611140726,0.022167636473337186,-0.08524338445626199
1775722045708754200,10.336754150390625,-0.5698533128648996,0.13344961708476766,-0.1352962313321419
1775722045718766800,10.346766845703126,-0.6329255628496409,0.14893245116509496,-0.23449160530595106
1775722045728780000,10.356780029296875,-0.8065876007974148,0.2524223074624315,-0.2731087746004574
1775722045738794000,10.3667939453125,-0.8979764292061329,0.22845201461445538,-0.21068187331454827
1775722045748807000,10.376806884765625,-1.007006128245592,0.14395114648803137,-0.20007793384958059
1775722045758820000,10.386820068359375,-1.0409639274269342,0.09410960427527315,-0.13039961839700118
1775722045768833000,10.3968330078125,-1.0054419476687908,0.10750221547754481,-0.11888159629441797
1775722045778846000,10.406845947265625,-0.9084569066882133,0.0427493371957913,-0.19080462193386627
1775722045788859100,10.416859130859375,-0.8134475496947765,0.01994194151419215,-0.2314998396114446
1775722045798872000,10.4268720703125,-0.7475181567132473,0.0676363156304229,-0.30250938540147615
1775722045808885000,10.436885009765625,-0.7135691253602504,0.068723891671421,-0.33338352108746766
1775722045818898000,10.44689794921875,-0.7791279314637184,0.08443856174624524,-0.31750951399877664
1775722045828912000,10.456912109375,-0.8347066108226776,0.1360554978673812,-0.2433907318807207
1775722045838925000,10.466925048828125,-0.8753981021732091,0.18984145772382616,-0.17982551074726505
1775722045848938800,10.476938720703124,-0.9128694624334573,0.18528854365982114,-0.12506012053256854
1775722045858951700,10.48695166015625,-0.9831243173986672,0.17129792089862747,-0.06808985895104706
1775722045868964600,10.496964599609376,-1.0171130962401629,0.1243077677953057,0.00022652049856260417
1775722045878977800,10.506977783203125,-1.103663836967945,0.10608767250450328,0.043298057119734584
1775722045888990700,10.51699072265625,-1.0358604668080806,0.07483331446242518,0.0873571982724592
1775722045899003600,10.527003662109376,-1.0184469751924277,0.050909308441588655,0.059559419558197255
1775722045909016600,10.5370166015625,-0.9257692760169506,-0.021764864358725024,0.059602820308506485
1775722045919030800,10.54703076171875,-0.8776946886777878,-0.12158918388583696,0.0010008750050794332
1775722045929043700,10.557043701171875,-0.8522054426342248,-0.14193174209017306,-0.08896864292393437
1775722045939056600,10.567056640625,-0.79723408151865,-0.15445800965353845,-0.13499379605315626
1775722045949069800,10.57706982421875,-0.7699503532737493,-0.18166379555771126,-0.16804865504540503
1775722045959082500,10.58708251953125,-0.836636117580533,-0.19071835015621036,-0.18129750126227737
1775722045969095700,10.597095703125,-0.9907096579611301,-0.19696367428656666,-0.26071554056592283
1775722045979108600,10.607108642578124,-1.0002817884266375,-0.22000304295998066,-0.40145255644619465
1775722045989121800,10.617121826171875,-0.8842652992397546,-0.1632773672566749,-0.5305013995550573
1775722045999134700,10.627134765625,-0.8657762873470782,-0.07880570695842616,-0.5521321070069447
1775722046009148700,10.637148681640625,-0.8370400222063064,-0.14440788641273974,-0.4113208203140646
1775722046019161600,10.64716162109375,-0.6841571529150009,-0.214286126617901,-0.32352336746081706
1775722046029174500,10.657174560546874,-0.5594546684473752,-0.10389975227247923,-0.3193508310165256
1775722046039187700,10.667187744140625,-0.5175415263473987,0.03752988551445305,-0.26192029497949404
1775722046049201000,10.677200927734376,-0.5392559300273656,0.056103114225016903,-0.15843175385640934
1775722046059213600,10.687213623046874,-0.5372229628950357,0.0526624905181583,-0.07903232792168856
1775722046069226800,10.697226806640625,-0.5020411748766899,0.20841363612161948,-0.06256326841614208
1775722046079239700,10.70723974609375,-0.43433074369728564,0.4172168926153332,-0.037879557468648996
1775722046089252600,10.717252685546875,-0.37807343442440033,0.44667281380016355,0.040218722739629446
1775722046099266800,10.727266845703125,-0.3666056994706392,0.4598213779803365,0.09394700672524049
1775722046109279700,10.73727978515625,-0.3010141601413488,0.520508267198503,0.07639933080328629
1775722046119292700,10.747292724609375,-0.2410235095590353,0.5953747806776315,0.04857698390334844
1775722046129305600,10.7573056640625,-0.26053134310543535,0.5867287520810961,0.09043381097251549
1775722046139318800,10.76731884765625,-0.34783494802713394,0.5436321358175948,0.13313121705166994
1775722046149331500,10.77733154296875,-0.3175578831851482,0.4990632185118273,0.1667893391666934
1775722046159344600,10.7873447265625,-0.32219664890170097,0.5529877739882096,0.12552304360289127
1775722046169357800,10.79735791015625,-0.30475042406022546,0.5582124498339369,0.12750532172759993
1775722046179370800,10.807370849609375,-0.4392378049612045,0.5043205179855227,0.09151407135673797
1775722046189384700,10.817384765625,-0.4986877727955579,0.3988875282637775,0.06031511503001675
1775722046199398000,10.82739794921875,-0.4526747941613197,0.39539234309177845,0.018457274180697276
1775722046209410600,10.83741064453125,-0.35307460224628445,0.44562385273650285,-0.05548651669663377
1775722046219423700,10.847423828125,-0.19489888724386692,0.47552616598196323,-0.10852072660401463
1775722046229436700,10.857436767578125,-0.04769347906708717,0.47237405862659215,-0.0745924320783699
1775722046239449900,10.867449951171874,0.020371172377467155,0.43012854276709256,0.04229783970178105
1775722046249462500,10.877462646484375,0.06711071172058582,0.34040092556886375,0.1185313580846414
1775722046259475700,10.887475830078126,0.035066637206077576,0.27603534783795475,0.07763900126661173
1775722046269488600,10.897488525390624,0.03941723363101482,0.26644261297583577,0.013576452469732611
1775722046279502600,10.907502685546875,0.07102993099093437,0.2863307510767132,-0.1028687287243083
1775722046289515800,10.917515869140624,0.18330197295248507,0.22785839610286054,-0.17390472412984817
1775722046299528700,10.92752880859375,0.29313948124349115,0.18712416158914566,-0.18176077139247207
1775722046309541600,10.937541748046876,0.3574421498060226,0.19430501300394534,-0.16502662207679822
1775722046319554600,10.947554443359374,0.4922989485412836,0.19219386606886982,-0.07474593757307156
1775722046329567700,10.957567626953125,0.5513099404364824,0.21816892286799847,0.036792554533097425
1775722046339580700,10.96758056640625,0.5165460855692625,0.2540392046071589,0.16308315985882654
1775722046349593600,10.977593505859375,0.48763212577402587,0.2665258342798799,0.22814539635069667
1775722046359606800,10.987606689453125,0.3514116374701261,0.23771489646770058,0.2033577957704663
1775722046369620700,10.997620849609374,0.28213468762636185,0.1731413020092994,0.09005959823210723
1775722046379633700,11.007633544921875,0.21830431275069712,0.17504406689070165,0.015550410290667786
1775722046389646800,11.017646728515626,0.123735685262084,0.1724819613177329,-0.08421900984458625
1775722046399659500,11.027659423828124,0.12738894707262516,0.17765519923716783,-0.15159997160760685
1775722046409672700,11.037672607421875,0.2139735900700092,0.25030169857926665,-0.13835411193226463
1775722046419685600,11.047685546875,0.23275194029808044,0.31238406074382363,-0.07361004714462906
1775722046429698800,11.05769873046875,0.17228315081000328,0.3293246741507202,0.10066707222787663
1775722046439711500,11.06771142578125,-0.0690109923839569,0.4238233051430434,0.2973802423520945
1775722046449724700,11.077724609375,-0.37965164352655406,0.47672794298715887,0.4357640644360333
1775722046459737900,11.08773779296875,-0.5882762737840413,0.42832331997603174,0.43687114889509976
1775722046469751600,11.09775146484375,-0.7487035671055317,0.37066001636274154,0.2668337859841995
1775722046479764700,11.1077646484375,-0.7293786889106035,0.308606222705543,0.14633012317959218
1775722046489778000,11.11777783203125,-0.6265624575585127,0.27289551544226703,0.11236370230037718
1775722046499790600,11.12779052734375,-0.3704226274102926,0.2509866121035069,0.09004208997488021
1775722046509803800,11.1378037109375,-0.059387423992156976,0.24538521189987658,0.18710063458308576
1775722046519816700,11.147816650390626,0.3076110741883516,0.23477745477631687,0.3679004885215312
1775722046529829600,11.15782958984375,0.46741409813165663,0.20802900245189665,0.4043959894869476
1775722046539842600,11.167842529296875,0.47264556904435157,0.07348872231990099,0.33686566411480307
1775722046549855700,11.177855712890626,0.5680903948456049,0.006665303108096122,0.2409854608372785
1775722046559869700,11.18786962890625,0.49296238088607786,0.060292702268809076,0.11496855103652924
1775722046569882600,11.197882568359375,0.5113303967475891,0.03557034894451499,0.08306317260665819
1775722046579895800,11.207895751953124,0.5709001915693283,0.045845074721425766,0.07670574813764541
1775722046589908500,11.217908447265625,0.6556687250554561,0.09284019626080989,0.12657269878629596
1775722046599921700,11.227921630859376,0.8141887234508991,0.041198417959362264,0.1551452064664103
1775722046609934600,11.2379345703125,1.044175875210762,-0.11366364245042204,0.04747125115115195
1775722046619947800,11.24794775390625,1.239098727852106,-0.27262159387171264,-0.1396252552460879
1775722046629960700,11.257960693359376,1.4074913009643555,-0.36633038966059683,-0.16202172290608285
1775722046639973600,11.2679736328125,1.4276076217979192,-0.36880949312523004,-0.09553515269951894
1775722046649987600,11.277987548828126,1.463061797016859,-0.415723804513365,0.08976882599145174
1775722046660000800,11.288000732421875,1.429889010733366,-0.4303963268578052,0.4150675325617194
1775722046670013700,11.298013671875,1.3426573020040988,-0.4303022188335657,0.7130700167316943
1775722046680027000,11.30802685546875,1.2542226472258566,-0.4554739233605563,0.9039795420784502
1775722046690039600,11.31803955078125,1.0600164184212684,-0.5564269911892712,1.0426320798348634
1775722046700052700,11.328052734375,0.8276917636245489,-0.6485686837919056,1.0788044132605195
1775722046710065700,11.338065673828124,0.6429559584766626,-0.611012275596708,1.0735593522138893
1775722046720078600,11.34807861328125,0.46174365127980704,-0.5991181319244205,1.091801695869118
1775722046730091500,11.358091552734376,0.37772564390003677,-0.6223372410789132,1.0273622491844
1775722046740105700,11.368105712890625,0.3696393680781126,-0.5760739409454166,0.8544957455284893
1775722046750118700,11.37811865234375,0.37041912027895446,-0.5533998984530568,0.6205084912817925
1775722046760131600,11.388131591796874,0.48425651186108587,-0.5702595555782318,0.393121110224165
1775722046770144800,11.398144775390625,0.7788760025292635,-0.5244146269872785,0.17438045188281684
1775722046780157700,11.40815771484375,1.0029524689406155,-0.4486648278675973,0.023871325985528526
1775722046790170600,11.418170654296874,1.1089239494532346,-0.37892230633869767,-0.06670775694288313
1775722046800183800,11.428183837890625,1.1382552578777074,-0.3574351355433464,-0.15736217012982814
1775722046810196700,11.43819677734375,1.0916489895254373,-0.352125192566961,-0.28961455852035434
1775722046820209700,11.448209716796875,0.987988708564639,-0.34396351342126724,-0.35580187178570777
1775722046830222600,11.45822265625,0.8490928635716438,-0.34397695742473006,-0.3352219154957682
1775722046840236500,11.468236572265624,0.6940566156387329,-0.33421178860515355,-0.30241577056758107
1775722046850249500,11.47824951171875,0.6189309397667646,-0.3247714678257704,-0.2932243099827319
1775722046860262700,11.4882626953125,0.553263412591815,-0.3216083276197314,-0.26233707735314965
1775722046870275600,11.498275634765625,0.4525970527499914,-0.30465368568748236,-0.2586014710213989
1775722046880288500,11.50828857421875,0.4076835597902536,-0.3602712357521057,-0.1860424307670444
1775722046890301400,11.518301513671876,0.5073638312041759,-0.32821620145216585,-0.09978870022445917
1775722046900314600,11.528314697265625,0.565523759227991,-0.21824761412739752,0.004300765933841467
1775722046910327600,11.53832763671875,0.5306219571948051,-0.2131215032853186,0.17445764530487357
1775722046920340500,11.548340576171874,0.44308395899534225,-0.23954086978584527,0.36116811152659356
1775722046930354700,11.558354736328125,0.4550421078145504,-0.18623598057776689,0.4973651458896696
1775722046940367400,11.568367431640626,0.37091421031951904,-0.06129179630875587,0.5904292140342294
1775722046950380500,11.578380615234375,0.18280688291192054,-0.0723445207208395,0.6950438000451773
1775722046960393500,11.5883935546875,0.027858313262462613,-0.15591478433310985,0.768312376808375
1775722046970406700,11.59840673828125,-0.01293430037498474,-0.11751301135495304,0.7557160031508654
1775722046980419600,11.608419677734375,-0.058811085408926,-0.04196136515587568,0.7612750985827297
1775722046990432500,11.6184326171875,-0.03612286826074123,-0.09939283277466893,0.8742689520128071
1775722047000445700,11.62844580078125,-0.07522679815888404,-0.18640198479443787,0.9235793647572398
1775722047010458400,11.638458251953125,-0.11326865178346633,-0.2564180625677109,0.8108584099844097
1775722047020472600,11.64847265625,-0.17107611310780046,-0.2677139480859041,0.5892267063766717
1775722047030485500,11.658485595703125,-0.10564239468872547,-0.22813524028286336,0.3729838562004268
1775722047040498400,11.66849853515625,-0.0384206238090992,-0.15063713619112967,0.11860782085433602
1775722047050511600,11.67851171875,-0.03020166151821613,-0.13202829731106758,-0.07086473049186169
1775722047060524500,11.688524658203125,0.01084814175069332,-0.2064731513120234,-0.12531097175478934
1775722047070537500,11.698537353515626,0.09155600166916847,-0.23395035630241034,-0.20766696420647202
1775722047080550400,11.70855029296875,0.14447569095194338,-0.15452537580132483,-0.3254210908409208
1775722047090563600,11.7185634765625,0.15152619398534298,-0.0998361926279962,-0.33337745667286217
1775722047100576500,11.728576416015626,0.1715063212186098,-0.16702946806550026,-0.36257092752922326
1775722047110589400,11.73858935546875,0.1100719015687704,-0.15387845619991422,-0.4382199331555515
1775722047120603600,11.748603759765626,0.08230068206787108,-0.09962138083353637,-0.48398916616179044
1775722047130616300,11.7586162109375,-0.008398995032906531,-0.07716010430902243,-0.5772199326427653
1775722047140629500,11.76862939453125,0.10644903489649295,-0.1183195054322481,-0.6070976959688589
1775722047150642700,11.778642578125,0.09731178871691226,-0.11434826371371745,-0.5861510617909953
1775722047160655600,11.788655517578125,0.1250602118641138,-0.087590020647645,-0.5138000017315149
1775722047170668500,11.79866845703125,0.14022504777014255,-0.038152182131260634,-0.43920653304010626
1775722047180681500,11.808681396484374,0.07138298221230506,0.034144553925096986,-0.36491873276438563
1775722047190694700,11.818694580078125,0.12175883223116397,0.11967720365151763,-0.332719613818638
1775722047200707300,11.828707275390625,0.10964286250174045,0.17108473480567335,-0.33010716629792003
1775722047210720500,11.838720458984374,0.10777414602041244,0.17799217610657214,-0.2392892331123352
1775722047220734700,11.848734619140625,0.09683306528925895,0.20056363500729202,-0.1593094317400828
1775722047230747400,11.858747314453124,0.11038462077975272,0.1946855367541313,-0.09156743637863546
1775722047240760600,11.868760498046875,0.16870120067000388,0.19679726821109653,-0.05820778575353324
1775722047250773500,11.8787734375,0.1834229689836502,0.22770824704244733,-0.07590688937753438
1775722047260786400,11.888786376953124,0.14817805260121822,0.17153481666073203,-0.02607044346500188
1775722047270799600,11.898799560546875,0.1264583882242441,0.15025880439803002,-0.01525375629849732
1775722047280812500,11.9088125,0.17062720029652118,0.12410086531266569,-0.08297891012299806
1775722047290825700,11.91882568359375,0.20553718563616274,0.04786532850265503,-0.17206428389493375
1775722047300838400,11.92883837890625,0.20418635554909706,-0.01685702677667141,-0.24612090576328335
1775722047310852600,11.9388525390625,0.17341186257898805,-0.06525660828649997,-0.3128210639216006
1775722047320865500,11.948865478515625,0.19877134476304054,-0.050249447160214185,-0.332053149266541
1775722047330878500,11.95887841796875,0.22097323969900606,-0.016522826386243104,-0.31692674567475915
1775722047340891600,11.9688916015625,0.23031565306186674,0.06454539127722382,-0.2567459428152069
1775722047350904600,11.978904541015625,0.2818430112034082,0.12450316250324249,-0.1858844637263566
1775722047360917500,11.98891748046875,0.27016543289124967,0.1907793230958283,-0.0813178450429812
1775722047370930400,11.998930419921875,0.32423663029670713,0.25529212727770206,0.03154197021126747
1775722047380943600,12.008943603515625,0.29141806427836414,0.3045077013455331,0.10649159539658576
1775722047390956300,12.018956298828124,0.25720015285611153,0.20955255875736473,0.2007113363822922
1775722047400969500,12.028969482421875,0.25455694487094876,0.17061799407675862,0.1859512453522533
1775722047410983700,12.038983642578126,0.23130115696787834,0.19358269007876514,0.0968522814463824
1775722047420996400,12.048996337890625,0.2891711621344089,0.16025705132111906,0.04517875629980117
1775722047431009500,12.059009521484375,0.28886078101098533,0.09087444914579391,0.04034074168410152
1775722047441022700,12.069022705078124,0.38744215127229686,0.09803060451075434,0.06220346779357642
1775722047451035400,12.079035400390625,0.44332653557956214,0.16475085560902952,0.04938234546948224
1775722047461048600,12.089048583984376,0.4590186102300882,0.15139979112669824,0.11659947670660913
1775722047471061500,12.0990615234375,0.4239741848558187,0.05812354153618216,0.2510560971431434
1775722047481074700,12.10907470703125,0.4704343227356672,0.019947540137916803,0.3393880587318912
1775722047491087400,12.11908740234375,0.4176373830497265,-0.002710574132949114,0.3472689847074449
1775722047501100500,12.1291005859375,0.43001755667328834,-0.10262275460660457,0.38184634055923666
1775722047511114500,12.139114501953125,0.459218516716361,-0.10954875447750091,0.3972106810927391
1775722047521127400,12.14912744140625,0.45060266406238075,-0.06703720809295773,0.37256789581067856
1775722047531140600,12.159140625,0.4464174873322248,-0.13193725802674888,0.3104510833872482
1775722047541153500,12.169153564453126,0.4898287590354681,-0.19982363029494882,0.24396244908776132
1775722047551166500,12.17916650390625,0.4493552943497896,-0.19812647098824382,0.1418198061482981
1775722047561179600,12.1891796875,0.47592298327982424,-0.25134718904420733,0.08178878702297807
1775722047571192600,12.199192626953124,0.46813715170919895,-0.3020690760217607,0.008794972080551086
1775722047581205500,12.20920556640625,0.44998248633742327,-0.3091827074192464,-0.011638305747695267
1775722047591218400,12.219218505859375,0.4815542671650648,-0.32585356397405263,-0.022678937863186
1775722047601232600,12.229232666015625,0.5155068056493998,-0.33358795761838556,-0.04730159367267042
1775722047611245600,12.23924560546875,0.4583119232654571,-0.33860081734433767,-0.0298348740324378
1775722047621258500,12.249258544921876,0.4748521391779184,-0.3346133551433682,0.008230068206787108
1775722047631271700,12.259271728515625,0.4615612804502249,-0.3101112204410136,0.04869301149845123
1775722047641284400,12.269284423828125,0.3473603162527084,-0.3216685333743691,0.08198325014915317
1775722047651297500,12.279297607421874,0.31918694569170475,-0.3739018478281796,0.051837373938784
1775722047661310500,12.289310546875,0.20583295371234417,-0.32174627478569745,-0.06722388977147638
1775722047671323600,12.29932373046875,0.0443675495147705,-0.2268501689083874,-0.13247936554681508
1775722047681336300,12.30933642578125,-0.11440379329323767,-0.17363924159407615,-0.15895791488867253
1775722047691349500,12.319349609375,-0.09291150793135165,-0.09791004687100649,-0.16836203184351323
1775722047701363500,12.329363525390624,-0.030043256086111067,0.04917524205744266,-0.1432152790946886
1775722047711376400,12.33937646484375,0.03012976532578468,0.1247097909912467,-0.09501016071103513
1775722047721389600,12.3493896484375,0.02483867318034172,0.10489274536520242,0.03356379489507526
1775722047731402800,12.35940283203125,0.09819558581411839,0.057733080913871526,0.13218385319896042
1775722047741415400,12.36941552734375,0.11130874988734721,0.04975216516256332,0.14295735881086438
1775722047751428600,12.3794287109375,0.11013269184529781,0.1011952060215175,0.12384868064988404
