time,seconds_elapsed,z,y,x
1775722035435292200,0.063292236328125,-9.792970434215665,0.09543729094876907,-0.508931409314461
1775722035445305000,0.07330517578125,-9.793412917286156,0.08945549485911615,-0.5014379482865333
1775722035455318300,0.083318359375,-9.793900993064046,0.08841116430480032,-0.4920070529226213
1775722035465331200,0.093331298828125,-9.794230078887939,0.09170789516209624,-0.484798254054971
1775722035475344100,0.10334423828125,-9.794410696151852,0.09867253740979358,-0.47975171125512567
1775722035485357000,0.113357177734375,-9.794430569896102,0.10880746199036948,-0.4771506619112566
1775722035495370200,0.123370361328125,-9.794343476134538,0.12180110047031194,-0.47579559404049065
1775722035505383200,0.133383056640625,-9.794129541122913,0.13724568489948286,-0.47599290671087796
1775722035515397000,0.143397216796875,-9.793715699625015,0.1541723063136451,-0.4793214300790801
1775722035525410000,0.15341015625,-9.793201904883981,0.17147976200524717,-0.4839212885573506
1775722035535423000,0.163423095703125,-9.792584065246581,0.18721450675372034,-0.49054815935119983
1775722035545436200,0.173436279296875,-9.792125215563177,0.19871057275282217,-0.4951634711269289
1775722035555449300,0.183449462890625,-9.792098327556252,0.20386141617735848,-0.4935966967342421
1775722035565462000,0.1934619140625,-9.792488788178563,0.20087768765883518,-0.4870224694430828
1775722035575475200,0.20347509765625,-9.793243405938147,0.18876049408670514,-0.47659500078987327
1775722035585488100,0.213488037109375,-9.794308989343046,0.16826783248772845,-0.46214598500300197
1775722035595502000,0.223502197265625,-9.79547803312242,0.14187361869476733,-0.4459387639045715
1775722035605515300,0.233515380859375,-9.796544201049208,0.11319065464381128,-0.4304570806017145
1775722035615528200,0.243528076171875,-9.797442611193656,0.0851652046535164,-0.41623438438400623
1775722035625541000,0.253541015625,-9.798249835923313,0.05969611091541591,-0.401396186616458
1775722035635554000,0.263553955078125,-9.798954184800387,0.03740856525630224,-0.3866336844336241
1775722035645567200,0.273567138671875,-9.799420048746466,0.01885172028331435,-0.376031334137544
1775722035655580200,0.283580078125,-9.79955916495621,0.004691992028665845,-0.3728264371490106
1775722035665593000,0.293593017578125,-9.799435246315598,-0.004320451021367626,-0.37608244327027346
1775722035675607300,0.303607177734375,-9.799216635128856,-0.007936316845289547,-0.3816720799708739
1775722035685620000,0.313619873046875,-9.798978734719753,-0.006888387257268186,-0.38775045003648845
1775722035695633200,0.323633056640625,-9.79881623763442,-0.0030393765436412647,-0.39188594240602104
1775722035705646000,0.33364599609375,-9.798747264051437,0.0015767898955637064,-0.3936147754926234
1775722035715659300,0.3436591796875,-9.79868530473113,0.005211077720281901,-0.3951293813066557
1775722035725672200,0.353672119140625,-9.798542096868157,0.006877085549363982,-0.39863223832845684
1775722035735685000,0.36368505859375,-9.798248082357645,0.006154235184509889,-0.405808048241958
1775722035745698300,0.3736982421875,-9.797871650260687,0.0032925655680097403,-0.4148316049139946
1775722035755712000,0.3837119140625,-9.797602185669541,-0.0007606821741908788,-0.4211657033063471
1775722035765725200,0.39372509765625,-9.797502816948294,-0.004738532300843507,-0.4234392011962831
1775722035775738000,0.403738037109375,-9.797526197823881,-0.007687159823233378,-0.42285478890445083
1775722035785751000,0.4137509765625,-9.797647193855047,-0.008434102308083674,-0.42002508190385995
1775722035795764200,0.42376416015625,-9.797739548313617,-0.006116165913155418,-0.41790823588035997
1775722035805777200,0.433777099609375,-9.797742470923065,-0.0008081578811797954,-0.41788642590735103
1775722035815790000,0.4437900390625,-9.797700385347008,0.006434498589238501,-0.4188223915832117
1775722035825803000,0.453802978515625,-9.797692202040553,0.013415705525135853,-0.41884913345966485
1775722035835817200,0.463817138671875,-9.797638426026701,0.018141421156068097,-0.41993049895558504
1775722035845830400,0.473830322265625,-9.797515091907977,0.019363130129373164,-0.4227395284943282
1775722035855843600,0.483843505859375,-9.797437350496649,0.017573924608062952,-0.4246148208469152
1775722035865856500,0.4938564453125,-9.797404032748936,0.014078586455725598,-0.4255080798922106
1775722035875869400,0.503869384765625,-9.797484112247824,0.010396701338898856,-0.4237647798888385
1775722035885882600,0.513882568359375,-9.797685187777876,0.0075312871290429025,-0.41915611704960465
1775722035895895600,0.5238955078125,-9.797871650260687,0.005846323437741375,-0.41480460730921476
1775722035905908500,0.533908447265625,-9.797980955854058,0.005165052329690661,-0.4122252583405003
1775722035915922400,0.54392236328125,-9.79799732246697,0.005050249718938721,-0.4118270528031513
1775722035925935600,0.553935546875,-9.798003167685867,0.004720439521726802,-0.41169663135651496
1775722035935948500,0.563948486328125,-9.798037069955468,0.0032508841340400975,-0.41090332555435594
1775722035945961500,0.57396142578125,-9.798056943699716,0.00047811532367322796,-0.4104390690434724
1775722035955974700,0.583974609375,-9.798117149454354,-0.003079615510017902,-0.40899767459612335
1775722035965987300,0.5939873046875,-9.798251589488983,-0.006744777535495814,-0.40571196745634075
1775722035976000500,0.60400048828125,-9.798427530577777,-0.009511964097598684,-0.4013841673851013
1775722035986013400,0.614013427734375,-9.798550864696502,-0.010510584925976582,-0.3983382238179445
1775722035996027400,0.62402734375,-9.798539758780597,-0.009342318606382467,-0.39864823961518703
1775722036006040600,0.63404052734375,-9.798413502052426,-0.005703751470652059,-0.4018030503842979
1775722036016053500,0.644053466796875,-9.798193137300014,0.0001927023717144948,-0.40717612172476947
1775722036026066400,0.65406640625,-9.797980371332168,0.007070149590430082,-0.41220947624947873
1775722036036079400,0.664079345703125,-9.797942961931229,0.013535494838259183,-0.41292978988066315
1775722036046092500,0.674092529296875,-9.798099613797664,0.01748837206632597,-0.40904476514086124
1775722036056105700,0.684105712890625,-9.798376092651486,0.017318741987308022,-0.40238384594693777
1775722036066118400,0.694118408203125,-9.79868472020924,0.01298248347333283,-0.39496239070929584
1775722036076132600,0.704132568359375,-9.798915021833777,0.005485862944761174,-0.3893838964572176
1775722036086145300,0.714145263671875,-9.799070504656434,-0.0033894312340940814,-0.38547808465771377
1775722036096158500,0.724158447265625,-9.799214297041296,-0.011915314324479549,-0.38162951947078105
1775722036106171600,0.734171630859375,-9.79931892645955,-0.019300666202278806,-0.37862650172989815
1775722036116184600,0.7441845703125,-9.799351075163482,-0.02537974637065781,-0.3774300584869459
1775722036126197500,0.754197509765625,-9.79937562508285,-0.03005417248905869,-0.37645292055048046
1775722036136210400,0.76421044921875,-9.799407773786783,-0.03313257757069077,-0.3753553345721215
1775722036146223600,0.7742236328125,-9.799371533429621,-0.03454170001652092,-0.3761780125992372
1775722036156237600,0.784237548828125,-9.799218973216414,-0.0342995435574092,-0.38015305371005087
1775722036166250500,0.79425048828125,-9.79898516446054,-0.03289032978003379,-0.386253452944383
1775722036176263700,0.804263671875,-9.798788180583715,-0.031010352119174783,-0.39137755449246614
1775722036186276400,0.8142763671875,-9.798682382121681,-0.029643815289612394,-0.39411658753491935
1775722036196289500,0.82428955078125,-9.798602887144684,-0.030261412898416162,-0.3960443407271057
1775722036206302500,0.834302490234375,-9.798557878959178,-0.03412154522555647,-0.39684531837906684
1775722036216315400,0.8443154296875,-9.798511701729893,-0.04150553398004267,-0.3972749419679865
1775722036226328600,0.85432861328125,-9.798356803429126,-0.0512688396360958,-0.3999425537420436
1775722036236342500,0.864342529296875,-9.79801544264555,-0.06200816441718489,-0.40673396744783963
1775722036246355500,0.87435546875,-9.79762030584812,-0.0726439100927906,-0.4144170692963525
1775722036256368600,0.88436865234375,-9.797336812731624,-0.08287220747866668,-0.4191735431084409
1775722036266381600,0.894381591796875,-9.797109433716535,-0.09235908907982521,-0.42249987451955673
1775722036276394500,0.90439453125,-9.796762227714062,-0.10022406856757587,-0.42870409945454446
1775722036286407400,0.914407470703125,-9.79616835347414,-0.10554632303626275,-0.4408223342062905
1775722036296420600,0.924420654296875,-9.795475695034861,-0.10936262078825383,-0.45505953387338666
1775722036306433500,0.93443359375,-9.794739781975746,-0.11455084621426649,-0.46939957286044953
1775722036316447500,0.944447509765625,-9.793958860731124,-0.1243103342117276,-0.4830108957141638
1775722036326460700,0.954460693359375,-9.79325568089783,-0.1409328672459349,-0.4926109005672857
1775722036336473300,0.964473388671875,-9.792660053092241,-0.1641921440140344,-0.4972313269095495
1775722036346486500,0.974486572265625,-9.792169054704903,-0.1918628805488348,-0.4969853893244639
1775722036356499500,0.98449951171875,-9.791781516692042,-0.2214452776575461,-0.49230190768335014
1775722036366512600,0.9945126953125,-9.791426127383112,-0.2501712588663213,-0.48556872697081416
1775722036376525300,1.004525390625,-9.791009363275766,-0.27544565658280623,-0.48025849173348395
1775722036386538500,1.01453857421875,-9.790522456541657,-0.29568050749581304,-0.47815099806021893
1775722036396552400,1.024552490234375,-9.78997300596535,-0.31007461475767195,-0.48027277598716317
1775722036406565400,1.0345654296875,-9.789570270383358,-0.3175735191456973,-0.4835775166209787
1775722036416578600,1.04457861328125,-9.78941537208259,-0.31736499096155163,-0.48683662801478056
1775722036426591700,1.054591796875,-9.789550981160998,-0.3087416491208598,-0.4896430272050202
1775722036436604400,1.0646044921875,-9.789878313419223,-0.29288599967276674,-0.4928340417986735
1775722036446617600,1.07461767578125,-9.790086403211951,-0.27227137392824513,-0.5004612122088671
1775722036456630500,1.084630615234375,-9.790019767716526,-0.24996362573131917,-0.5132395183045417
1775722036466644500,1.09464453125,-9.789693604502082,-0.22896261275140567,-0.5290130241608246
1775722036476657700,1.10465771484375,-9.789152921754122,-0.21180117793437092,-0.5459024919023737
1775722036486670600,1.114670654296875,-9.788628605619072,-0.20055145137915387,-0.5593893846588209
1775722036496683500,1.12468359375,-9.788387198078631,-0.1965815979001112,-0.564995205309242
1775722036506696400,1.134696533203125,-9.788437466961145,-0.19982492720289155,-0.5629756456477567
1775722036516709600,1.144709716796875,-9.788666599541902,-0.2093539674453437,-0.5554819288915023
1775722036526722300,1.154722412109375,-9.788961783096193,-0.22359531356459483,-0.5446280880523845
1775722036536735500,1.164735595703125,-9.789319510492682,-0.24036250663334502,-0.5308793660219758
1775722036546749700,1.174749755859375,-9.78965911771059,-0.2573634171264246,-0.5164469360437244
1775722036556762400,1.184762451171875,-9.789858439674973,-0.2727549013951793,-0.5046372192518785
1775722036566775600,1.194775634765625,-9.78988006698489,-0.28600467919381334,-0.49681978696659207
1775722036576788500,1.20478857421875,-9.789832136189936,-0.298038560130354,-0.4906614104673266
1775722036586801400,1.214801513671875,-9.789798818442225,-0.30940109941028054,-0.48424029137864705
1775722036596814600,1.224814697265625,-9.789735105556248,-0.3191778856024146,-0.47916419369075447
1775722036606827500,1.23482763671875,-9.789662624841927,-0.32622214155811813,-0.47588674292266364
1775722036616840700,1.2448408203125,-9.789765500694513,-0.3300624869059771,-0.47109702442809936
1775722036626854400,1.2548544921875,-9.790082311558724,-0.33113420779071745,-0.4637032243823632
1775722036636867600,1.26486767578125,-9.790451144871115,-0.32998255353756245,-0.4566827146284282
1775722036646880500,1.274880615234375,-9.790693721455336,-0.32712530094292014,-0.4535300592837855
1775722036656893400,1.2848935546875,-9.790713010677695,-0.3242007917983457,-0.455205920074135
1775722036666906600,1.29490673828125,-9.790584415861964,-0.323514343904145,-0.45845271997563536
1775722036676919600,1.30491943359375,-9.790361128500104,-0.32619317119196056,-0.4613117626685649
1775722036686932500,1.314932373046875,-9.790027366501093,-0.3324017435085028,-0.46395453226231037
1775722036696945400,1.3249453125,-9.789703541374205,-0.3419462187821045,-0.4638562960522249
1775722036706959400,1.33495947265625,-9.78979063513577,-0.3532120744882151,-0.45346141449436544
1775722036716972500,1.34497265625,-9.790135503050685,-0.3626388051336631,-0.4383166349956765
1775722036726985500,1.3549853515625,-9.79061130386889,-0.36664102651234715,-0.4241297042110935
1775722036736998700,1.36499853515625,-9.791216284024715,-0.3638728039080277,-0.4123882303498685
1775722036747011300,1.37501123046875,-9.791906604376434,-0.3548130068788305,-0.40380277283415195
1775722036757024500,1.3850244140625,-9.792598093771934,-0.34133181321080774,-0.39862624697908755
1775722036767037700,1.39503759765625,-9.793167418092489,-0.32595245777126397,-0.39750199218951165
1775722036777050400,1.40505029296875,-9.793584766721725,-0.3108339452249929,-0.3993364410750568
1775722036787064600,1.415064697265625,-9.793879365754126,-0.29721931616934016,-0.402461550825648
1775722036797077500,1.425077392578125,-9.79398574873805,-0.2865898586706258,-0.4075429457431659
1775722036807090400,1.43509033203125,-9.793921451330185,-0.28001058987816796,-0.4136227771135047
1775722036817103600,1.445103515625,-9.793827343305944,-0.27783921892214564,-0.41729766623396425
1775722036827116500,1.455116455078125,-9.793877027666568,-0.27938500532573085,-0.41509409177508205
1775722036837129500,1.46512939453125,-9.794107329291105,-0.28303326216759156,-0.407110472610034
1775722036847142100,1.47514208984375,-9.794441091290116,-0.28671976866060866,-0.3963634896788746
1775722036857155300,1.4851552734375,-9.79476783902645,-0.28911886569159106,-0.38642252590097487
1775722036867169300,1.495169189453125,-9.79508581893444,-0.2896487347845919,-0.377869545882754
1775722036877182200,1.50518212890625,-9.795468680772185,-0.2877665925661102,-0.3692752109408378
1775722036887195400,1.5151953125,-9.795910579320788,-0.2831211961793713,-0.361062568792887
1775722036897208300,1.525208251953125,-9.796309807771443,-0.2758893452296965,-0.355779440758191
1775722036907221200,1.53522119140625,-9.796602068716288,-0.2667236036079936,-0.3547332196408883
1775722036917234400,1.545234375,-9.796711374309659,-0.25753245355039833,-0.35847660742029547
1775722036927247400,1.555247314453125,-9.796750537276267,-0.25050281064193697,-0.3623613398991525
1775722036937260300,1.56526025390625,-9.796808989465235,-0.24720042636198922,-0.3630599896878004
1775722036947274200,1.575274169921875,-9.79689257609546,-0.2478798051945865,-0.3603314780393615
1775722036957287400,1.585287353515625,-9.796989606729149,-0.25120776230720804,-0.35535423761606216
1775722036967300400,1.59530029296875,-9.79704396726489,-0.25578455043714493,-0.35056123118586835
1775722036977313300,1.605313232421875,-9.797066763618588,-0.26072136751851066,-0.346246984715946
1775722036987326500,1.615326416015625,-9.79702701613009,-0.2656366303551942,-0.3436358523694798
1775722036997339100,1.625339111328125,-9.796939337846636,-0.27005983535861594,-0.3426857120377943
1775722037007352300,1.635352294921875,-9.796952781850099,-0.2727758345853537,-0.3401312783146277
1775722037017366500,1.645366455078125,-9.79706442553103,-0.2732806423023343,-0.33649157010540365
1775722037027379200,1.655379150390625,-9.797274268889426,-0.2717423450854607,-0.3315912308432162
1775722037037392400,1.665392333984375,-9.79750983121097,-0.2688916683620773,-0.32693050902318205
1775722037047405300,1.6754052734375,-9.797667067599296,-0.26594984275652095,-0.3246180308297276
1775722037057418200,1.685418212890625,-9.797777542236446,-0.26372644935231654,-0.32308373393453654
1775722037067431200,1.69543115234375,-9.797854114603997,-0.26284383956519886,-0.3214907656546682
1775722037077444400,1.7054443359375,-9.79788392522037,-0.2634534593635239,-0.3200724963545799
1775722037087457500,1.71545751953125,-9.797851191994548,-0.2653916060855612,-0.3194730691567063
1775722037097470200,1.72547021484375,-9.797807352852821,-0.26795022279350084,-0.3186743199944496
1775722037107484400,1.735484375,-9.797830149206519,-0.2698909815977327,-0.31634306403528895
1775722037117497000,1.7454970703125,-9.797919581055641,-0.2698666143414564,-0.31357085937559603
1775722037127510300,1.75551025390625,-9.79803239378035,-0.2669792040705681,-0.3125140437990427
1775722037137523500,1.7655234375,-9.798141699373721,-0.26136154685188084,-0.31382951031178236
1775722037147536400,1.775536376953125,-9.798305365502834,-0.2531251950347796,-0.31547884842138735
1775722037157549300,1.78554931640625,-9.798644972720743,-0.242549714479316,-0.3132282930156216
1775722037167562200,1.795562255859375,-9.79915350676477,-0.23031788155157118,-0.3064760422764346
1775722037177576200,1.805576171875,-9.799756148833035,-0.21760968155004082,-0.2963279568201862
1775722037187589400,1.81558935546875,-9.800350607594847,-0.2057772049371153,-0.28490289196437224
1775722037197602300,1.825602294921875,-9.800864986857771,-0.1958183036437258,-0.2740085364517756
1775722037207615500,1.835615478515625,-9.801282920008898,-0.18863779928879812,-0.2639157979119569
1775722037217628200,1.845628173828125,-9.801572258344292,-0.1843492169830948,-0.25608766156956553
1775722037227641300,1.855641357421875,-9.801724818557501,-0.18240365413958207,-0.251592450775858
1775722037237654300,1.865654296875,-9.801824187278747,-0.18201189660932868,-0.24799267271822317
1775722037247667200,1.875667236328125,-9.801907189387082,-0.182563064218685,-0.244273560863547
1775722037257681400,1.885681396484375,-9.801977916535735,-0.1831932336146943,-0.24093668979210778
1775722037267694300,1.8956943359375,-9.80204279846549,-0.18309614818207917,-0.2383718260064721
1775722037277707300,1.905707275390625,-9.802114694657922,-0.18177958569079636,-0.23641694734534247
1775722037287720200,1.91572021484375,-9.802253810867667,-0.17944622910609467,-0.23239772003293035
1775722037297733400,1.9257333984375,-9.802457809007167,-0.17687458851980045,-0.22565807304698973
1775722037307746300,1.935746337890625,-9.802674082106352,-0.17482494424730538,-0.21772967293420806
1775722037317759200,1.94575927734375,-9.802865220764279,-0.1730036836368963,-0.2104542568374425
1775722037327772400,1.9557724609375,-9.803019534543155,-0.17018356644855812,-0.20550489080175757
1775722037337786000,1.9657861328125,-9.80314286866188,-0.16541288144802674,-0.20349937793193384
1775722037347799300,1.97579931640625,-9.803228793379663,-0.15842733340961856,-0.20491806735713033
1775722037357812500,1.9858125,-9.803246329036355,-0.15067989762062206,-0.20985895782541483
1775722037367825200,1.9958251953125,-9.803284322959184,-0.14393354689925908,-0.2127903899011202
1775722037377838300,2.00583837890625,-9.80336615602374,-0.13966657363716511,-0.2118657310705632
1775722037387851300,2.015851318359375,-9.80342402369082,-0.13854161559469066,-0.2099229264397174
1775722037397864400,2.025864501953125,-9.803429868909715,-0.13975014200108124,-0.20884450181955472
1775722037407877000,2.035877197265625,-9.803351542976499,-0.14167465292341075,-0.21120856406977398
1775722037417891300,2.045891357421875,-9.803208919635415,-0.1433961886195466,-0.21660717171030117
1775722037427904300,2.055904296875,-9.803045253506303,-0.14486835266449488,-0.22293122363267465
1775722037437917200,2.065917236328125,-9.802875742158292,-0.14655897263255901,-0.22920676023820413
1775722037447930400,2.075930419921875,-9.802756499692798,-0.14902984712496398,-0.23267472860971464
1775722037457943300,2.085943359375,-9.802724935510755,-0.15271338534276,-0.23162156629497185
1775722037467956200,2.095956298828125,-9.802774035349488,-0.15753622978879137,-0.22624111536564304
1775722037477969400,2.105969482421875,-9.802872235026955,-0.16300583857260645,-0.21795528011731802
1775722037487982300,2.115982421875,-9.802966343051194,-0.16840861093159765,-0.20945709902625528
1775722037497996300,2.125996337890625,-9.803006090539693,-0.17294314908869562,-0.20383630000241099
1775722037508009200,2.13600927734375,-9.80295523713529,-0.17624533243924378,-0.20344319076528772
1775722037518022400,2.1460224609375,-9.802847100585698,-0.178621505252365,-0.20657352468026802
1775722037528035300,2.156035400390625,-9.802780465090274,-0.18089107588585465,-0.20775064216824246
1775722037538048300,2.16604833984375,-9.80273428786099,-0.18383242656737564,-0.20733002386968583
1775722037548061400,2.1760615234375,-9.802652454796434,-0.18757362238969652,-0.2078494629002176
1775722037558074000,2.18607421875,-9.802536134940386,-0.19104836756186558,-0.21016519249668345
1775722037568087300,2.19608740234375,-9.802393511599302,-0.1929065443828702,-0.2150761992833577
1775722037578101500,2.2061015625,-9.802253810867667,-0.19215642013531178,-0.22200302113816142
1775722037588114200,2.2161142578125,-9.802148012405633,-0.18870951281813902,-0.229487440343108
1775722037598127400,2.22612744140625,-9.802021755677462,-0.18374586252877487,-0.23873189149051904
1775722037608140300,2.236140380859375,-9.80192940121889,-0.17850312130339444,-0.24638437900505958
1775722037618153200,2.2461533203125,-9.80193115478456,-0.17365098683079705,-0.24974665851239114
1775722037628166100,2.256166259765625,-9.801964472532271,-0.16961908269990233,-0.251198409956973
1775722037638179300,2.266179443359375,-9.801960965400934,-0.1665295557193458,-0.2534123962120153
1775722037648192500,2.276192626953125,-9.8019118655622,-0.16443950637122615,-0.25665691282488406
1775722037658206200,2.286206298828125,-9.801810158753394,-0.1641744987594895,-0.26066112523125484
1775722037668219400,2.296219482421875,-9.80166753541231,-0.16672856715647502,-0.26438805506620555
1775722037678232300,2.306232421875,-9.801468213447928,-0.17220511713773012,-0.26823912273747846
1775722037688245200,2.316245361328125,-9.801179459634422,-0.1796312302841805,-0.27385458799907936
1775722037698258400,2.326258544921875,-9.800895966517924,-0.18784957152055576,-0.2784419340556487
1775722037708271400,2.336271240234375,-9.800702489772439,-0.19579276734367013,-0.27978321086307983
1775722037718284300,2.3462841796875,-9.800626501926779,-0.2025201941688545,-0.27765268337409943
1775722037728298500,2.356298583984375,-9.800654558977484,-0.20733356753364204,-0.2730757491136901
1775722037738311200,2.366311279296875,-9.800751589611172,-0.21000050345426424,-0.26748918115301057
1775722037748324400,2.376324462890625,-9.800826408413052,-0.21087489340230822,-0.2640424382326193
1775722037758337300,2.386337158203125,-9.800860310682653,-0.21050580436158925,-0.2630784520386718
1775722037768350500,2.3963505859375,-9.800915840262174,-0.20930126914372665,-0.2619577774456702
1775722037778363100,2.406363037109375,-9.801012870895862,-0.20737059334209187,-0.2598613348893821
1775722037788376300,2.416376220703125,-9.801154325193167,-0.20485764240678397,-0.2564972652837634
1775722037798389200,2.42638916015625,-9.801351309069991,-0.20226251134704798,-0.2509767665629275
1775722037808403200,2.4364033203125,-9.801574011909961,-0.20080520694451406,-0.24332524716276674
1775722037818416400,2.44641650390625,-9.801753460130096,-0.20123959804009645,-0.23561688300883396
1775722037828429300,2.45642919921875,-9.801883808511494,-0.20293527777576817,-0.2286465508058667
1775722037838442200,2.466442138671875,-9.801974409404396,-0.20365628552669657,-0.22406163416840136
1775722037848455400,2.476455322265625,-9.802050981771945,-0.20127839568052439,-0.2228512537316419
1775722037858468400,2.48646826171875,-9.802149765971302,-0.19509137760866432,-0.22400515474081037
1775722037868481300,2.496481201171875,-9.802241535907983,-0.185730369143188,-0.2279147293999791
1775722037878494500,2.506494384765625,-9.802316354709863,-0.17457661377573386,-0.23344587737899272
1775722037888508400,2.51650830078125,-9.802373637855052,-0.16370118215931578,-0.2388558466637507
1775722037898521300,2.526521240234375,-9.802428582912682,-0.15588734833691267,-0.24181564631741492
1775722037908534300,2.5365341796875,-9.802572959819436,-0.1530257848933339,-0.23776814275858923
1775722037918547500,2.54654736328125,-9.802767021086812,-0.15585476124156267,-0.2277125396250747
1775722037928560400,2.556560302734375,-9.802921919387579,-0.16334710802463814,-0.21545557225607334
1775722037938573300,2.5665732421875,-9.802985632273554,-0.17361876506162807,-0.20423488913225007
1775722037948586500,2.57658642578125,-9.802925426518916,-0.18494997762152923,-0.19705423864684998
1775722037958599400,2.586599365234375,-9.802768774652481,-0.19516243355087934,-0.19498009925391524
1775722037968613400,2.59661328125,-9.80258231216967,-0.20275162830455226,-0.1966223500356078
1775722037978626600,2.60662646484375,-9.802392342555523,-0.20713349665058775,-0.2014587572161108
1775722037988639200,2.61663916015625,-9.802233937123416,-0.20830765499649567,-0.2078530978957191
1775722037998652400,2.62665234375,-9.802133983880282,-0.20645649243816733,-0.21431253970079123
1775722038008665300,2.636665283203125,-9.80211820178926,-0.20216904264362529,-0.21906517758797853
1775722038018678500,2.646678466796875,-9.802207049116491,-0.19664003182277082,-0.2201297015469521
1775722038028691200,2.656691162109375,-9.80236077837348,-0.1909184393055737,-0.2183074910884723
1775722038038704400,2.666704345703125,-9.802518599283694,-0.1859613283548504,-0.21546757322112098
1775722038048718300,2.67671826171875,-9.80265771549344,-0.18208574729682878,-0.2124317857217975
1775722038058731300,2.686731201171875,-9.802776373437046,-0.1787753075745888,-0.209759899631422
1775722038068744400,2.696744384765625,-9.802863467198609,-0.17479414725024253,-0.2090520984219387
1775722038078757400,2.70675732421875,-9.802924257475137,-0.16896255501993,-0.2109854776373133
1775722038088770300,2.716770263671875,-9.802963420441746,-0.16096441413918508,-0.2153581032309681
1775722038098783500,2.726783447265625,-9.80299264653623,-0.1512779913779348,-0.22099020910011602
1775722038108796400,2.73679638671875,-9.803040577331185,-0.140823899579281,-0.22572889152718706
1775722038118810400,2.746810302734375,-9.803074479600786,-0.131095820500236,-0.23005250861365348
1775722038128823300,2.7568232421875,-9.803152221012114,-0.12413935242583975,-0.23059823286291212
1775722038138836500,2.76683642578125,-9.803315887141228,-0.12123394070737994,-0.22513846961967646
1775722038148849400,2.776849365234375,-9.803487736576795,-0.12250093756904824,-0.2168046853100881
1775722038158862300,2.7868623046875,-9.803617500436305,-0.1272756046249531,-0.2080004522108473
1775722038168875500,2.79687548828125,-9.803713362026214,-0.13460242211539297,-0.19868054294073953
1775722038178888400,2.806888427734375,-9.80377824395597,-0.1426526950421743,-0.1896602194054052
1775722038188901400,2.8169013671875,-9.80379461056888,-0.14960785707547328,-0.1833392727555707
1775722038198915600,2.82691552734375,-9.803769476127624,-0.15427958434671163,-0.18079892235668374
1775722038208928300,2.83692822265625,-9.803736742901801,-0.15597603126736356,-0.18112581622349097
1775722038218941400,2.84694140625,-9.803745510730147,-0.15471238627340644,-0.18171335205417125
1775722038228954400,2.856954345703125,-9.803803962919115,-0.15103607238084077,-0.18165413268022237
1775722038238967300,2.86696728515625,-9.803841956841945,-0.14572578234458342,-0.1839356129472144
1775722038248980200,2.876980224609375,-9.80385189371407,-0.1401318713276647,-0.18772009992199018
1775722038258993400,2.886993408203125,-9.803857154411077,-0.13530024078697897,-0.19094023101227356
1775722038269006600,2.897006591796875,-9.80381448431313,-0.13195430049309506,-0.1954199885085225
1775722038279020300,2.907020263671875,-9.803734989336132,-0.13022260872912592,-0.20052894728640094
1775722038289033500,2.917033447265625,-9.80368296688795,-0.1294607301116921,-0.20354040406206622
1775722038299046400,2.92704638671875,-9.80366250862181,-0.12888430019691585,-0.20488352576671168
1775722038309059300,2.937059326171875,-9.803643219399452,-0.12782774034868924,-0.20644567878320813
1775722038319072500,2.947072509765625,-9.803597626692056,-0.12593577085593716,-0.20975264790672807
1775722038329085400,2.95708544921875,-9.803495335361362,-0.12324415715178474,-0.21605397654063999
1775722038339098400,2.967098388671875,-9.803325239491462,-0.12033435238599777,-0.2252087766432203
1775722038349111300,2.977111328125,-9.803230546945333,-0.11782972175446338,-0.2305776467326097
1775722038359125200,2.987125244140625,-9.803276724174617,-0.11662996317641809,-0.22924124702969564
1775722038369138400,2.997138427734375,-9.803390705943107,-0.11707643743543884,-0.22407661254182457
1775722038379151400,3.0071513671875,-9.80348013779223,-0.11830829905164428,-0.21945768403690308
1775722038389164500,3.01716455078125,-9.803477215182781,-0.1190389148811344,-0.21920433033034203
1775722038399177200,3.02717724609375,-9.80338369168043,-0.11892927136104553,-0.22339303245814515
1775722038409190400,3.0371904296875,-9.803296597918868,-0.1178782462044619,-0.22773997562127188
1775722038419203300,3.047203369140625,-9.803251589733362,-0.11644675209661945,-0.23039768705582245
1775722038429216500,3.057216552734375,-9.80327146347761,-0.11506012004381046,-0.23024245996149256
1775722038439230500,3.06723046875,-9.803372585764526,-0.11366748750847763,-0.2266104418683797
1775722038449243400,3.077243408203125,-9.803528068587184,-0.11235624051312915,-0.2204360640823841
1775722038459256300,3.08725634765625,-9.80368530497551,-0.11135547510590403,-0.21387285137558354
1775722038469269200,3.097269287109375,-9.80375778568983,-0.11123242411497049,-0.21057965504908932
1775722038479282400,3.107282470703125,-9.803744341686368,-0.11244049386363476,-0.21057178226988763
1775722038489295400,3.11729541015625,-9.803697579935193,-0.1147095439073164,-0.2115292473915033
1775722038499308300,3.127308349609375,-9.80366776931882,-0.11704554910683072,-0.21163281736383213
1775722038509321500,3.137321533203125,-9.803692319238186,-0.11890428305026143,-0.20942661255644632
1775722038519335400,3.14733544921875,-9.803767138040065,-0.12026497694421559,-0.20512222989341242
1775722038529348400,3.157348388671875,-9.803857738932967,-0.12137327611283398,-0.2000703533313237
1775722038539361500,3.167361572265625,-9.803923205384612,-0.12237621521083637,-0.1962081980104558
1775722038549374500,3.17737451171875,-9.803947755303978,-0.12300383645673282,-0.19457772899810225
1775722038559387400,3.187387451171875,-9.803931388691067,-0.1234786691605579,-0.19509422715287655
1775722038569400300,3.197400390625,-9.803911514946817,-0.1241609980020672,-0.1956717347798869
1775722038579413500,3.20741357421875,-9.80390859233737,-0.1253210730236955,-0.19507144906548782
1775722038589426200,3.21742626953125,-9.803921451818942,-0.12698116085617803,-0.19334130080463363
1775722038599440400,3.2274404296875,-9.803920282775163,-0.128439524704637,-0.19245827089240775
1775722038609453300,3.237453369140625,-9.803900409030915,-0.1288064765871968,-0.19320956418374552
1775722038619466200,3.24746630859375,-9.803861830586195,-0.12796688395789824,-0.1957084683273919
1775722038629479400,3.2574794921875,-9.803803962919115,-0.1268413505266886,-0.19930764359682798
1775722038639492600,3.26749267578125,-9.80374141907692,-0.12651398173584602,-0.20256797883333638
1775722038649505300,3.27750537109375,-9.80366426218748,-0.12804926501172595,-0.20531618156293405
1775722038659518500,3.2875185546875,-9.80357307677269,-0.13133396750451065,-0.20758862000694497
1775722038669531400,3.297531494140625,-9.803506441277264,-0.13552676128554156,-0.20802476466819642
1775722038679545300,3.30754541015625,-9.803491828230023,-0.13944810858089476,-0.2061258539780043
1775722038689558500,3.31755859375,-9.80349708892703,-0.14194996273345314,-0.20415712945461273
1775722038699571500,3.327571533203125,-9.803509363886713,-0.14252070269295944,-0.20317363484259693
1775722038709584400,3.33758447265625,-9.803542097112535,-0.14133396799326872,-0.20240212074713781
1775722038719597300,3.347597412109375,-9.80357073868513,-0.13920489267585798,-0.20250052135400473
1775722038729610500,3.357610595703125,-9.803586520776152,-0.13670614379583856,-0.2034282489244826
1775722038739623400,3.36762353515625,-9.803617500436305,-0.13402514281724578,-0.2037252591096796
1775722038749636400,3.37763623046875,-9.80366250862181,-0.13103240900835952,-0.20351702318647874
1775722038759650600,3.387650634765625,-9.803732651248573,-0.1276986980083864,-0.20223706637853756
1775722038769663200,3.397663330078125,-9.803798117700218,-0.12493490498401223,-0.20078982671229167
1775722038779676400,3.407676513671875,-9.803820329532027,-0.12345800083186477,-0.20060822306768966
1775722038789689300,3.417689453125,-9.803799871265888,-0.12354291176949626,-0.20156904919017105
1775722038799702500,3.42770263671875,-9.803770645171403,-0.1251638001027517,-0.20198584983013568
1775722038809715500,3.437715576171875,-9.80373966551125,-0.1278938095885329,-0.20178795263785868
1775722038819728400,3.447728271484375,-9.80368296688795,-0.13088498162799514,-0.20261063066497445
1775722038829741600,3.457741455078125,-9.80360990165174,-0.13393231343463993,-0.20416423504883421
1775722038839755300,3.46775537109375,-9.80351637814939,-0.13697581844953818,-0.20661482480503618
1775722038849768400,3.4777685546875,-9.80336615602374,-0.1397313094364479,-0.2118296916428022
1775722038859781400,3.487781494140625,-9.803194891110062,-0.14156835213787852,-0.2184263682277873
1775722038869794300,3.497794189453125,-9.803044668984413,-0.14240997232748195,-0.22453124270783736
1775722038879807500,3.507807373046875,-9.80297627992332,-0.14301608499446883,-0.22712628243602812
1775722038889820400,3.5178203125,-9.803027133327722,-0.14445047431229613,-0.22399856060324236
1775722038899833300,3.527833251953125,-9.803080324819684,-0.147596087994799,-0.21957816861141471
1775722038909847600,3.53784765625,-9.803061620119214,-0.15302223209622315,-0.21668873078022152
1775722038919860500,3.547860595703125,-9.802945300263167,-0.16066194232758133,-0.2164037763589993
1775722038929873400,3.557873291015625,-9.802715583160518,-0.1698007411434315,-0.2198078674477525
1775722038939886300,3.56788623046875,-9.802394680643081,-0.1791767462486401,-0.22659025759687645
1775722038949899500,3.5778994140625,-9.802010649761558,-0.1870897295965813,-0.2365750970491208
1775722038959912200,3.587912109375,-9.801600315394998,-0.19250506917620078,-0.2489210396095179
1775722038969925400,3.59792529296875,-9.801175952503085,-0.1952332154984586,-0.263088224514015
1775722038979938600,3.6079384765625,-9.800642284017801,-0.19666814367240293,-0.2812803175530396
1775722038989952300,3.6179521484375,-9.800043149080873,-0.19854493386233224,-0.30018956415178255
1775722038999965400,3.62796533203125,-9.799393160739541,-0.20239287799475714,-0.31830808049794285
1775722039009978400,3.637978271484375,-9.798614577582478,-0.2089492408356629,-0.3374578213216737
1775722039019991300,3.6479912109375,-9.797730195963382,-0.21783139800932258,-0.35696127095390107
1775722039030004500,3.65800439453125,-9.796738262316584,-0.22905409042714162,-0.3766069055357948
1775722039040017400,3.668017333984375,-9.795656896820663,-0.24281353478096424,-0.3956469754399731
1775722039050030600,3.678030517578125,-9.794404850932954,-0.25929228456346315,-0.4156694805102423
1775722039060043300,3.688043212890625,-9.79286580479741,-0.27797842646343635,-0.43919893425554035
1775722039070056400,3.698056396484375,-9.791053786939383,-0.2981312433824874,-0.4655788820611313
1775722039080070400,3.7080703125,-9.789014974588156,-0.31884799606092273,-0.4938728102618828
1775722039090083300,3.718083251953125,-9.786887314909697,-0.339822943017818,-0.5212923667808994
1775722039100096500,3.728096435546875,-9.784820445507764,-0.36134419874586166,-0.5450759414177387
1775722039110109400,3.738109375,-9.78286755787432,-0.38429530461393296,-0.5640960645124315
1775722039120122400,3.748122314453125,-9.781126851686835,-0.4089349846234545,-0.5768153338972479
1775722039130135300,3.75813525390625,-9.77962404590845,-0.4355647790042683,-0.5827712466269731
1775722039140148500,3.7681484375,-9.778350372710824,-0.46418264192976055,-0.5820493986258283
1775722039150162400,3.778162353515625,-9.777108848217129,-0.4949607881616801,-0.5775274276893586
1775722039160175400,3.78817529296875,-9.77572879203558,-0.5271028431579471,-0.5724268896799535
1775722039170188500,3.7981884765625,-9.774148244845867,-0.5594943428706377,-0.5686580386657267
1775722039180201200,3.808201171875,-9.77212755267322,-0.5930859025554731,-0.5693477379629388
1775722039190214400,3.81821435546875,-9.769674898824094,-0.6292852335859089,-0.5725697322167456
1775722039200227600,3.8282275390625,-9.767106509640813,-0.6674212682999671,-0.573202732890658
1775722039210240300,3.838240234375,-9.764506556275487,-0.7067009931564331,-0.5704114947369322
1775722039220253400,3.84825341796875,-9.76186919350922,-0.7467499488197267,-0.5645020149648189
1775722039230267400,3.858267333984375,-9.759148828634618,-0.7871343469824641,-0.5566107502583414
1775722039240280300,3.8682802734375,-9.756286424940823,-0.8275156033400446,-0.5481556776566431
1775722039250293500,3.87829345703125,-9.753307116869092,-0.8677305632200092,-0.5389161036137491
1775722039260306400,3.888306396484375,-9.75006243585944,-0.9086667500466108,-0.5300819320339709
1775722039270319400,3.8983193359375,-9.746406835961341,-0.9515638616826385,-0.5219761843265965
1775722039280332300,3.908332275390625,-9.74221464496851,-0.997896135399118,-0.5136542365852743
1775722039290345500,3.918345458984375,-9.737388832247257,-1.0478774331424385,-0.5055681799590588
1775722039300358400,3.9283583984375,-9.73201181538403,-1.1011167097683996,-0.49585236670654265
1775722039310372400,3.938372314453125,-9.726280578255652,-1.1562757024105637,-0.48257623062394556
1775722039320385500,3.948385498046875,-9.720366970297693,-1.2111849580753593,-0.46678321634959424
1775722039330398200,3.958398193359375,-9.714434073117374,-1.2633962798930705,-0.45165206351745874
1775722039340411400,3.968411376953125,-9.708732062083483,-1.3111441194958984,-0.4379520029343664
1775722039350424300,3.97842431640625,-9.703448568722605,-1.353513042539358,-0.4259958634091541
1775722039360437500,3.9884375,-9.698636784526705,-1.390918497956544,-0.4149450021605938
1775722039370450400,3.998450439453125,-9.694109662491083,-1.4251824404776094,-0.4043163849120959
1775722039380463400,4.00846337890625,-9.689580202367901,-1.4580882463879883,-0.3954758566567674
1775722039390477300,4.018477294921875,-9.68473568494618,-1.4914325898461043,-0.38975134153012186
1775722039400490200,4.028490234375,-9.679425303578377,-1.5264385829061269,-0.3861320915870368
1775722039410503400,4.03850341796875,-9.673622754779457,-1.5635544077269732,-0.38302714784163977
1775722039420516600,4.0485166015625,-9.6674823523283,-1.6016769253723322,-0.3805199873263016
1775722039430529300,4.058529296875,-9.661292850038409,-1.639068060003221,-0.3784966282725334
1775722039440542500,4.06854248046875,-9.655488547673821,-1.6737731704205274,-0.3747068075355142
1775722039450555400,4.078555419921875,-9.650322543212772,-1.7042177007839083,-0.3705339422976598
1775722039460568300,4.088568359375,-9.645746321338414,-1.7301159660197793,-0.36967758119665084
1775722039470582500,4.09858251953125,-9.641550623214243,-1.7534204153701662,-0.3693288042915985
1775722039480595500,4.108595458984375,-9.63721054818332,-1.7774939493969082,-0.3675229239134118
1775722039490608400,4.1186083984375,-9.632148004096745,-1.8052017482727765,-0.36518490941990167
1775722039500621300,4.128621337890625,-9.626146133333444,-1.8369421636655925,-0.3651477192146703
1775722039510634500,4.138634521484375,-9.61953285267353,-1.870387483280152,-0.36962362251970915
1775722039520647200,4.148647216796875,-9.612961657589674,-1.9024866489827632,-0.37668979804627595
1775722039530660400,4.158660400390625,-9.60694400473535,-1.9310371822930872,-0.38485129452887923
1775722039540673500,4.168673583984375,-9.60200304120183,-1.9538795670896767,-0.39278241632170974
1775722039550687200,4.178687255859375,-9.598373744788764,-1.9701294217534362,-0.40024146362338214
1775722039560700400,4.188700439453125,-9.59601753705144,-1.98028665863052,-0.4065674517745152
1775722039570713300,4.19871337890625,-9.594639818957447,-1.98585393736884,-0.41189226352646946
1775722039580726300,4.208726318359375,-9.593873510760067,-1.9885393770605324,-0.41675216118041425
1775722039590739500,4.218739501953125,-9.593296587654947,-1.9898009214289485,-0.4239497080016881
1775722039600752400,4.22875244140625,-9.592503975972532,-1.991009274305403,-0.4360437216276303
1775722039610765600,4.238765625,-9.590976620274782,-1.9943371035538613,-0.45405722496304657
1775722039620778200,4.2487783203125,-9.588251579225062,-2.0023288329601288,-0.47591509223431344
1775722039630792400,4.25879248046875,-9.584398410928248,-2.015772544161975,-0.49634194032177326
1775722039640805400,4.268805419921875,-9.579977671876549,-2.032972393026948,-0.5113050065780058
1775722039650818300,4.278818359375,-9.57559317318201,-2.0505098032832145,-0.5232716309646144
1775722039660831500,4.28883154296875,-9.571951017287374,-2.064056682598591,-0.5364744826152921
1775722039670844400,4.298844482421875,-9.569614683294295,-2.0697784212462604,-0.5557613303547725
1775722039680857300,4.308857421875,-9.568858311969041,-2.0657336759001015,-0.5831651413153857
1775722039690870300,4.318870361328125,-9.569679565224051,-2.052976631788164,-0.6139261172167957
1775722039700883500,4.328883544921875,-9.571584522062539,-2.035053729345649,-0.6431997771698981
1775722039710897400,4.3388974609375,-9.573935469102858,-2.016352243746072,-0.6666871818717569
1775722039720910300,4.348910400390625,-9.576205167600511,-2.0002920664355157,-0.6822869751289486
1775722039730923500,4.358923583984375,-9.578492986276745,-1.9876975194089113,-0.6869622003983706
1775722039740936200,4.368936279296875,-9.581161328703164,-1.977517193917185,-0.6790859140653163
1775722039750949400,4.378949462890625,-9.584922142541409,-1.9665945256255566,-0.6573855389107018
1775722039760962600,4.388962646484375,-9.590126140925287,-1.9512144395336508,-0.6265992093723267
1775722039770975200,4.398975341796875,-9.596685061049461,-1.9287135616511106,-0.5950483617348596
1775722039780988400,4.408988525390625,-9.604351650154591,-1.8984275828503072,-0.5681442439246922
1775722039791002600,4.419002685546875,-9.612053310573101,-1.863391925304383,-0.5537052015425638
1775722039801015300,4.429015380859375,-9.618687634021043,-1.8285773631632327,-0.5545587861645966
1775722039811028500,4.439028564453125,-9.623552609708904,-1.7989245676994323,-0.5670001519234851
1775722039821041400,4.44904150390625,-9.62597019224465,-1.7790591528870163,-0.5882409102097154
1775722039831054300,4.459054443359375,-9.625939797106385,-1.7711847662501037,-0.6120179820405319
1775722039841067300,4.4690673828125,-9.623906829974056,-1.7743850235961376,-0.6343146060552448
1775722039851080200,4.479080078125,-9.620361120191216,-1.786774695700407,-0.6530492632720619
1775722039861093400,4.48909326171875,-9.616015199941396,-1.805391133365035,-0.6657316347125918
1775722039871107000,4.499107177734375,-9.611173020607232,-1.8270121596731244,-0.6765838681165128
1775722039881120300,4.509120361328125,-9.606209845241903,-1.8486941223882138,-0.6880774681638926
1775722039891133200,4.51913330078125,-9.601245500832796,-1.868417206120491,-0.7039077091760932
1775722039901146000,4.52914599609375,-9.596223873278499,-1.8849859174750745,-0.7278070556797087
1775722039911159300,4.5391591796875,-9.59151905658841,-1.8978062360815702,-0.7559604063659906
1775722039921172200,4.549172119140625,-9.587724925002455,-1.9054874382339417,-0.7842441054336726
1775722039931185200,4.55918505859375,-9.585360533958672,-1.9062543309532105,-0.8108307182598858
1775722039941198000,4.569197998046875,-9.584569675841927,-1.8985446333587168,-0.8378156096886843
1775722039951212300,4.57921240234375,-9.58536696369946,-1.8821562470071016,-0.8652268367707728
1775722039961225200,4.58922509765625,-9.588111293971538,-1.8585842327617108,-0.8855320312399416
1775722039971238100,4.599238037109375,-9.592745968034864,-1.8304377502076328,-0.8939258386410772
1775722039981251300,4.609251220703125,-9.59834627225995,-1.8011662091463803,-0.8932708818636834
1775722039991264000,4.619263916015625,-9.60375426878333,-1.7739672365754842,-0.8895681548882275
1775722040001277200,4.629277099609375,-9.60813526034653,-1.7513110220007597,-0.8871445810031146
1775722040011290000,4.6392900390625,-9.610615386724472,-1.7357266455084084,-0.8909033490147441
1775722040021303300,4.64930322265625,-9.611201077657938,-1.7294298834517596,-0.8968089928619563
1775722040031317200,4.659317138671875,-9.610883097749948,-1.732317567717284,-0.8946417318254709
1775722040041330200,4.669330078125,-9.610126141902803,-1.7415774173632264,-0.8847435112107545
1775722040051343000,4.679343017578125,-9.609266894724964,-1.7529270788952707,-0.8715645884249359
1775722040061356000,4.68935595703125,-9.608725627455115,-1.7621990573704243,-0.858735940381512
1775722040071369200,4.699369140625,-9.608702246579528,-1.766796614293754,-0.8495040016558021
1775722040081382400,4.70938232421875,-9.609020226487516,-1.7675022783450782,-0.844424287238717
1775722040091395000,4.71939501953125,-9.60970353257656,-1.7674283363260328,-0.8367642740048468
1775722040101408300,4.729408203125,-9.610569794017076,-1.7699197147503494,-0.8214096146151423
1775722040111422200,4.739422119140625,-9.611137949293852,-1.776944206559658,-0.7993008778553455
1775722040121435100,4.74943505859375,-9.61109995537102,-1.788682575148344,-0.7731446192704141
1775722040131448300,4.7594482421875,-9.610307928210496,-1.8039017715901136,-0.7471941854558884
1775722040141461200,4.769461181640625,-9.608983401608466,-1.8201563024289904,-0.7244673167977481
1775722040151474200,4.77947412109375,-9.607492870789766,-1.8346648663833736,-0.7074352257151156
1775722040161487000,4.789487060546875,-9.606116321739554,-1.845230537930876,-0.6985977661997079
1775722040171500300,4.799500244140625,-9.605017420586943,-1.8520229745499788,-0.6957241104595363
1775722040181513000,4.809512939453125,-9.604349312067031,-1.856667439354956,-0.6925607510577887
1775722040191527200,4.819527099609375,-9.603745500954986,-1.8616018270172177,-0.6876744403209537
1775722040201540400,4.829540283203125,-9.602740123304724,-1.8688176036149262,-0.682121774629876
1775722040211553000,4.839552978515625,-9.6011432095021,-1.8795654998615383,-0.6750315971732139
1775722040221566200,4.849566162109375,-9.598971710681914,-1.8940875078193842,-0.6652534227415919
1775722040231579400,4.859579345703125,-9.596336686003207,-1.9113233047805724,-0.6538733660712838
1775722040241592000,4.869592041015625,-9.59344330264926,-1.928729636003077,-0.6451558796737342
1775722040251605200,4.879605224609375,-9.590639351144432,-1.9434116568282245,-0.6427828669320792
1775722040261618200,4.8896181640625,-9.588324644461274,-1.953877229002118,-0.645587987480685
1775722040271632100,4.899632080078125,-9.58641091979444,-1.9605723427265882,-0.6536549010150134
1775722040281645300,4.909645263671875,-9.584790625116229,-1.964780023549497,-0.6646878978133202
1775722040291658200,4.919658203125,-9.583551438710092,-1.9670229801706969,-0.675833926532045
1775722040301671200,4.929671142578125,-9.582759411549567,-1.96725488923043,-0.6863025674458593
1775722040311684000,4.93968408203125,-9.582627309602499,-1.9658231028616426,-0.6922237741883843
1775722040321697300,4.949697265625,-9.58308966641724,-1.9636944202698765,-0.6918640740305185
1775722040331710200,4.959710205078125,-9.583601123070716,-1.9621989210151134,-0.6890239552337676
1775722040341723100,4.96972314453125,-9.58375952850282,-1.9624013117194175,-0.6862385622989385
1775722040351737300,4.9797373046875,-9.583490648433566,-1.9648942975789307,-0.6828465817730873
1775722040361750000,4.98975,-9.582602175161242,-1.9702176845587789,-0.6799697111625224
1775722040371763200,4.99976318359375,-9.5812840783,-1.977861331179738,-0.6763497670996934
1775722040381776100,5.009776123046875,-9.579861936542391,-1.9863715315021573,-0.6715374714471399
1775722040391789300,5.019789306640625,-9.578550269421935,-1.9936385998956858,-0.6687018096297979
1775722040401802200,5.02980224609375,-9.577431494525074,-1.9981829653270542,-0.6711600164368748
1775722040411815200,5.039815185546875,-9.57667336963415,-1.9990258458919823,-0.6794125156711787
1775722040421828400,5.049828369140625,-9.576529577249287,-1.9957612911380826,-0.6909435981847345
1775722040431842000,5.059842041015625,-9.57687970586121,-1.9891480104781687,-0.7050135515261441
1775722040441855200,5.069855224609375,-9.577602174916862,-1.981049167435616,-0.717886550167948
1775722040451868400,5.079868408203125,-9.578279635787009,-1.9735639262467621,-0.7293735012788325
1775722040461881000,5.089881103515625,-9.578331073713303,-1.9684185261823235,-0.7424857155039906
1775722040471894300,5.099894287109375,-9.577728431645035,-1.9657238802708685,-0.7572514690898359
1775722040481907200,5.1099072265625,-9.576841127416492,-1.9637671932451426,-0.7733768936563282
1775722040491920100,5.119920166015625,-9.576364742076397,-1.9598669709362089,-0.7890129272706806
1775722040501933000,5.12993310546875,-9.576821253672241,-1.951859167177975,-0.8031939397711306
1775722040511947300,5.139947265625,-9.578214753857255,-1.9396628256887196,-0.8160266064025461
1775722040521960200,5.149960205078125,-9.580179916450382,-1.925064683754742,-0.8274451684523373
1775722040531973000,5.15997314453125,-9.581791443300247,-1.911371966227889,-0.8404253537956625
1775722040541986300,5.169986328125,-9.582484101739524,-1.9012424941405652,-0.8553709209278225
1775722040551999000,5.1799990234375,-9.5819925188303,-1.8952222109377383,-0.8740353624526411
1775722040562012200,5.19001220703125,-9.580670914837718,-1.8914689958840607,-0.8963648292910307
1775722040572025300,5.200025390625,-9.579631634917854,-1.887025022087246,-0.9166155901592224
1775722040582038300,5.210038330078125,-9.579648586052656,-1.8805289380662142,-0.9296912717662751
1775722040592052200,5.22005224609375,-9.58087140584588,-1.8715417678818105,-0.9352108389053493
1775722040602065200,5.230065185546875,-9.583102525898815,-1.8595798196703195,-0.9362121979676187
1775722040612078000,5.240078125,-9.585770283803344,-1.8447190812774001,-0.9382960915695875
1775722040622091300,5.25009130859375,-9.58810837136209,-1.828188948367536,-0.9467270891759544
1775722040632104200,5.260104248046875,-9.589534020251035,-1.8125586869068442,-0.9622127545341849
1775722040642117400,5.270117431640625,-9.58958078200221,-1.8003836804665625,-0.9843469910614192
1775722040652130000,5.280130126953125,-9.588297171932458,-1.7928760813154279,-1.010217053116113
1775722040662143200,5.290143310546875,-9.585580314189196,-1.7900437804989515,-1.0405678407814354
1775722040672157200,5.3001572265625,-9.58124491533339,-1.7919515138164162,-1.0765867372110485
1775722040682170000,5.310170166015625,-9.575550503084063,-1.798842003982514,-1.1150699779275803
1775722040692183300,5.320183349609375,-9.569402501848339,-1.809209668739885,-1.1505140701439232
1775722040702196200,5.3301962890625,-9.56393488409221,-1.8188737152725456,-1.1803512822639197
1775722040712209200,5.340209228515625,-9.559989945858716,-1.8232099909111856,-1.2053572748351842
1775722040722222000,5.35022216796875,-9.558344516739249,-1.8190934955030678,-1.2244747208245097
1775722040732235300,5.3602353515625,-9.558497076952456,-1.805975509124249,-1.2425652349188923
1775722040742248200,5.370248291015625,-9.559542786613106,-1.7858618186391888,-1.2634170304201542
1775722040752262100,5.38026220703125,-9.561462356498836,-1.7612607536070048,-1.2832682705767453
1775722040762275300,5.390275390625,-9.564240589040518,-1.7340122428059577,-1.299570878341049
1775722040772288000,5.4002880859375,-9.567039864370226,-1.705761569225043,-1.3162490414194763
1775722040782301200,5.41030126953125,-9.569073416024446,-1.6774077275305985,-1.337729051821679
1775722040792314400,5.420314453125,-9.570654547736048,-1.6492206207051872,-1.361260587926209
1775722040802327000,5.4303271484375,-9.57266296494901,-1.6215347414001822,-1.3802644174732268
1775722040812340200,5.44034033203125,-9.575374561995268,-1.594302158820629,-1.3931228761330245
1775722040822353200,5.450353271484375,-9.578976970401406,-1.5668379594422877,-1.3995014712542295
1775722040832366300,5.460366455078125,-9.583764789199828,-1.5388794006757438,-1.3977426448881625
1775722040842380800,5.470380859375,-9.58935924820602,-1.5097386463873088,-1.3911366707518695
1775722040852393700,5.480393798828125,-9.595094576987623,-1.4781583899922668,-1.3854923812545834
1775722040862406700,5.49040673828125,-9.60038216200173,-1.4437772508323192,-1.385118579506129
1775722040872419600,5.500419677734375,-9.60491396021247,-1.4075146818399429,-1.3910133366331456
1775722040882432800,5.510432861328125,-9.60888286384344,-1.3706221443809568,-1.4004101105317472
1775722040892445400,5.520445556640625,-9.612477088943123,-1.3339922033809124,-1.4110755891919136
1775722040902458600,5.530458740234375,-9.615631753581761,-1.2977505310460924,-1.4233268757387996
1775722040912471600,5.540471435546875,-9.618355041065811,-1.2616437371373175,-1.4373175532989204
1775722040922485500,5.550485595703125,-9.621095864206552,-1.22646969403401,-1.4493690794900058
1775722040932498700,5.560498779296875,-9.624127194726466,-1.1940900308895857,-1.456263807439804
1775722040942511600,5.57051171875,-9.62766530572474,-1.1659664177544415,-1.4556667183294891
1775722040952524500,5.580524658203125,-9.632021747368574,-1.1411992023751139,-1.4464458855196833
1775722040962537500,5.590537353515625,-9.636811904254555,-1.1179750517193228,-1.432610983043164
1775722040972550700,5.600550537109375,-9.64153834825456,-1.095599115390703,-1.4180229241117834
1775722040982563800,5.610563720703125,-9.645582070687412,-1.074570502017811,-1.4065674641177057
1775722040992576500,5.620576416015625,-9.648817399346829,-1.0553523721329867,-1.3989064279705286
1775722041002590700,5.6305908203125,-9.65179846098423,-1.0387740892324595,-1.3907258979938923
1775722041012603600,5.640603759765625,-9.654992873111366,-1.0252761636253447,-1.3785147973269223
1775722041022616600,5.650616455078125,-9.658759532168506,-1.0139269404847173,-1.3604038249664008
1775722041032629800,5.660629638671875,-9.663279055419563,-1.0029338373053818,-1.3362414436124264
1775722041042642700,5.670642578125,-9.668322310283779,-0.9916591407056897,-1.3078741579145192
1775722041052655600,5.680655517578125,-9.67367419270575,-0.9809362327698617,-1.2760012021832168
1775722041062668500,5.69066845703125,-9.679146486636995,-0.9719582688052206,-1.2408899951830505
1775722041072681700,5.700681640625,-9.684571434295178,-0.9652476652506738,-1.2032260349601507
1775722041082695700,5.71069580078125,-9.689542208445072,-0.9605495705623179,-1.1664048091717063
1775722041092708600,5.72070849609375,-9.693674778205155,-0.9575705547515302,-1.1340674507990478
1775722041102721800,5.7307216796875,-9.697227502250671,-0.9564364361550658,-1.10426304497011
1775722041112734500,5.740734375,-9.700341834878921,-0.9574858721427619,-1.0756249795068056
1775722041122747600,5.75074755859375,-9.702564771625399,-0.9612541386350989,-1.0519538888011126
1775722041132760600,5.760760498046875,-9.70323404918909,-0.9682488928932697,-1.0392907335177064
1775722041142773500,5.7707734375,-9.702983289298414,-0.9780085818201303,-1.0324700206521897
1775722041152786700,5.78078662109375,-9.702700965225697,-0.9886627353686839,-1.0249507310632615
1775722041162800600,5.790800537109375,-9.702522101527451,-0.9978004199396818,-1.017764034429565
1775722041172813600,5.8008134765625,-9.702590490588545,-1.0029152787353843,-1.012066407309845
1775722041182826800,5.81082666015625,-9.703136434033512,-1.0015235321160405,-1.0082054210327565
1775722041192839700,5.820839599609375,-9.704171622300148,-0.9927774041458963,-1.006889004671946
1775722041202852600,5.8308525390625,-9.705832248988747,-0.9774446643270551,-1.005885599783063
1775722041212865500,5.840865478515625,-9.708263275527953,-0.9569359831750393,-1.0021410794924943
1775722041222878700,5.850878662109375,-9.711464117395877,-0.9319637467429042,-0.9946291694924235
1775722041232891600,5.8608916015625,-9.715520114788413,-0.9030844929348677,-0.9815782570004462
1775722041242905600,5.870905517578125,-9.719900521829723,-0.8702467838246375,-0.9677771106630563
1775722041252918800,5.880918701171875,-9.723425188824534,-0.8341591330077499,-0.9641408730525522
1775722041262931700,5.890931640625,-9.725835172575712,-0.7961945824030786,-0.971900839529559
1775722041272944600,5.900944580078125,-9.727468326735496,-0.7584218280434608,-0.9856691795758903
1775722041282957600,5.91095751953125,-9.72904828940332,-0.7224904637668281,-0.9970034243430942
1775722041292970800,5.920970703125,-9.73106021374762,-0.6891823606658727,-1.0009365260083227
1775722041302983700,5.930983642578125,-9.733674780160188,-0.6571024841856211,-0.9970852574076503
1775722041312996600,5.94099658203125,-9.736824768623709,-0.6249911165885627,-0.9869188873760402
1775722041323009800,5.951009765625,-9.740093415030836,-0.591813252271153,-0.9750488552317023
1775722041333023500,5.9610234375,-9.743153971645235,-0.5573094365796074,-0.9647478990349918
1775722041343036700,5.97103662109375,-9.745703071606158,-0.5226840403350069,-0.9583587825197726
1775722041353049900,5.9810498046875,-9.747562435737251,-0.49008558334074914,-0.9566776244997978
1775722041363062500,5.9910625,-9.748811559015511,-0.4621145304188132,-0.9578638386096805
1775722041373075700,6.00107568359375,-9.749551563727856,-0.4409032174227759,-0.9603269407875835
1775722041383088600,6.011088623046875,-9.7499513767004,-0.42672143773734567,-0.9626737961746752
1775722041393101600,6.0211015625,-9.750336576625704,-0.41789066369105127,-0.9626481502767652
1775722041403114500,6.031114501953125,-9.751282333043218,-0.41157687743436544,-0.9557599251329898
1775722041413128700,6.041128662109375,-9.753023039230703,-0.4060715214837342,-0.9402293246544897
1775722041423141600,6.0511416015625,-9.755226102232932,-0.4013481827562675,-0.9191675396643578
1775722041433154600,6.061154541015625,-9.757571788576245,-0.39807595615256575,-0.8953858281910418
1775722041443167700,6.071167724609375,-9.7599490391016,-0.3970742317641154,-0.869545138361305
1775722041453180700,6.0811806640625,-9.762390002512932,-0.39855077059008176,-0.8409979660518467
1775722041463193600,6.091193603515625,-9.764839733752607,-0.40228367350809274,-0.8102179931890219
1775722041473206800,6.101206787109375,-9.767075529980659,-0.40704171822275964,-0.7803405221238732
1775722041483219700,6.1112197265625,-9.768757783979177,-0.4123151285810396,-0.7561452614136039
1775722041493233700,6.121233642578125,-9.76985259347856,-0.41820301757585254,-0.7385595550362021
1775722041503246600,6.13124658203125,-9.770739897707104,-0.4251696417180821,-0.7226753918796778
1775722041513259800,6.141259765625,-9.771673379164934,-0.43363034034296866,-0.704803488972038
1775722041523272700,6.151272705078125,-9.772533210864662,-0.4436745818322524,-0.6863903187945485
1775722041533285600,6.16128564453125,-9.773198396775125,-0.45457562281396235,-0.6695774964857846
1775722041543298800,6.171298828125,-9.77347253754139,-0.46527774369008834,-0.658127589449659
1775722041553311500,6.1813115234375,-9.773255679920315,-0.4750425106508657,-0.6543654604371637
1775722041563324700,6.19132470703125,-9.772851775294543,-0.48315443237069994,-0.6544570111781358
1775722041573338600,6.201338623046875,-9.772670573508739,-0.48889977108966554,-0.6528944380365311
1775722041583351600,6.2113515625,-9.772971602281928,-0.49234940008688716,-0.6457580102853476
1775722041593364700,6.22136474609375,-9.773780580577254,-0.4940806077936664,-0.6320492914717644
1775722041603377700,6.231377685546875,-9.774874805554747,-0.4943291026620194,-0.6146884068261832
1775722041613390600,6.241390625,-9.775735221776365,-0.49372474356070156,-0.6013530879022553
1775722041623403500,6.251403564453125,-9.776021052980422,-0.4928776252120733,-0.5973814443249255
1775722041633416700,6.261416748046875,-9.775723531338572,-0.49225920105278487,-0.6027405602052808
1775722041643429600,6.2714296875,-9.775031457421184,-0.49237168498393147,-0.6137711458507925
1775722041653442600,6.281442626953125,-9.774322432368994,-0.4932238813664764,-0.6242910785604268
1775722041663456800,6.291456787109375,-9.773961197841167,-0.49387839975245296,-0.6294053528342396
1775722041673469400,6.301469482421875,-9.77387819573283,-0.4937585362324491,-0.6307876740381121
1775722041683482600,6.311482666015625,-9.774006206026673,-0.4925580744015053,-0.6297400646813214
1775722041693495800,6.321495849609375,-9.774466224753857,-0.4903610392812639,-0.6242953894093632
1775722041703508700,6.3315087890625,-9.775145439189671,-0.4878731314556673,-0.6155448044598102
1775722041713521700,6.341521728515625,-9.775836344063281,-0.485809549989365,-0.6061354268079623
1775722041723534600,6.35153466796875,-9.776399823164938,-0.4841777840690687,-0.598302431627363
1775722041733547800,6.3615478515625,-9.776838214582204,-0.4823179815465584,-0.5926147413797677
1775722041743561700,6.371561767578125,-9.777117031523584,-0.4796714490931481,-0.5901548540722579
1775722041753574700,6.38157470703125,-9.777314015400409,-0.4763241114266216,-0.5896051477676257
1775722041763587800,6.391587890625,-9.777617382261157,-0.472891798890382,-0.5873304808339104
1775722041773600500,6.4016005859375,-9.778131761524081,-0.46945711173396554,-0.5814908148949965
1775722041783613700,6.41161376953125,-9.778863582929969,-0.4660193558376282,-0.5718746260920539
1775722041793626600,6.421626708984375,-9.779671392181514,-0.4622757853951305,-0.5609952124202624
1775722041803639600,6.4316396484375,-9.780288647297024,-0.45864513727519657,-0.5531524264980108
1775722041813652700,6.44165283203125,-9.780701319751143,-0.45572325847912576,-0.5482569460740313
1775722041823665700,6.451665771484375,-9.781022806790471,-0.45386798600126055,-0.5440419587275013
1775722041833679600,6.4616796875,-9.781271813115477,-0.4534402986411005,-0.5399019728459418
1775722041843692000,6.471692138671875,-9.781350723570585,-0.4544129065329209,-0.5376532440710813
1775722041853705000,6.481705078125,-9.78133961765468,-0.4564667703228071,-0.536110544673726
1775722041863718100,6.49171826171875,-9.781448923248051,-0.4586614308228716,-0.5322349818820133
1775722041873731000,6.50173095703125,-9.781628955990076,-0.45999761133007705,-0.527748812911287
1775722041883744000,6.511743896484375,-9.781980838167668,-0.46004042755849656,-0.5211535062994808
1775722041893757200,6.521757080078125,-9.782551331532002,-0.45862928211893883,-0.5116026743503287
1775722041903769900,6.531769775390625,-9.783258018496632,-0.45583775170426816,-0.5004590567843988
1775722041913784000,6.5417841796875,-9.784010882690549,-0.45181572964657096,-0.4892625399874523
1775722041923797200,6.55179736328125,-9.784632229459286,-0.44730409744102506,-0.4809150559460744
1775722041933810000,6.561809814453125,-9.785008661556244,-0.44298583238311107,-0.4772334082912653
1775722041943823000,6.571822998046875,-9.785084649401902,-0.4398120977178216,-0.4786077653843909
1775722041953836000,6.5818359375,-9.785032042431832,-0.4387455279322341,-0.4806617022395134
1775722041963849000,6.591848876953125,-9.785020936515927,-0.439448707765527,-0.48024731275234367
1775722041973862000,6.60186181640625,-9.785130242109298,-0.4407728690413758,-0.4767956013958901
1775722041983875000,6.611875,-9.785402629309893,-0.44148346499614416,-0.47050526908002793
1775722041993888000,6.621887939453125,-9.785759772184491,-0.440912606305629,-0.46355818988848474
1775722042003902000,6.63190185546875,-9.78609528774917,-0.43974367212411014,-0.4575481723513454
1775722042013915100,6.6419150390625,-9.786378780865668,-0.4389584034979343,-0.4522105741830542
1775722042023927800,6.651927734375,-9.786572257611155,-0.4392890236917883,-0.44767512271050364
1775722042033941000,6.66194091796875,-9.786707866689563,-0.44048564959783104,-0.44350934480056164
1775722042043954200,6.6719541015625,-9.786783854535221,-0.44155766274351627,-0.44076921577956524
1775722042053967000,6.681967041015625,-9.786777424794435,-0.4414346939509734,-0.44102706299815325
1775722042063980000,6.69197998046875,-9.786617850318551,-0.4393186151124537,-0.44665319578424095
1775722042073993000,6.701992919921875,-9.786348970249295,-0.43503914769496765,-0.4566135583823546
1775722042084007000,6.7120068359375,-9.786186473163962,-0.4289738563066348,-0.4657471878327429
1775722042094020000,6.72202001953125,-9.786334941723942,-0.42251496249083426,-0.46852297268901016
1775722042104033000,6.732032958984375,-9.78680606636703,-0.4174692234085873,-0.4631762413661927
1775722042114046200,6.742046142578125,-9.787330382502079,-0.415377913685143,-0.45388069935236125
1775722042124059000,6.752058837890625,-9.787730779996513,-0.41652624347005035,-0.44408392981812356
1775722042134072000,6.762072021484375,-9.788006674328447,-0.4200017740935087,-0.4346327953837812
1775722042144085000,6.7720849609375,-9.78820307368338,-0.42417091300431636,-0.42607451813593505
1775722042154098000,6.782097900390625,-9.788277307963371,-0.4270147215954959,-0.42150746594872324
1775722042164112100,6.792112060546875,-9.788238729518651,-0.42736883226279165,-0.4220412074992433
1775722042174125000,6.802125,-9.78797861727774,-0.4257026526162401,-0.42969566777516155
1775722042184138000,6.812137939453125,-9.787527950900792,-0.4242676513770595,-0.44121747100371866
1775722042194151000,6.82215087890625,-9.787059748867154,-0.4251804188404232,-0.4506324746787548
1775722042204164000,6.8321640625,-9.786683316770196,-0.42927645598240194,-0.4549051104966551
1775722042214177000,6.842177001953125,-9.78650971376896,-0.4360707922976464,-0.45216213193144644
1775722042224190000,6.85218994140625,-9.786463536539673,-0.44433629714399575,-0.4450632231790572
1775722042234203100,6.862203125,-9.786410929569602,-0.45367027147207406,-0.43672158435657615
1775722042244216000,6.872216064453125,-9.786271228837967,-0.46456009694002565,-0.4283325261957943
1775722042254230000,6.88222998046875,-9.785894212219118,-0.4777218859279528,-0.42242867244686927
1775722042264243200,6.8922431640625,-9.785338916423916,-0.4929862732183188,-0.41772096967995165
1775722042274256000,6.902255859375,-9.784677237644791,-0.5093640285780653,-0.4135493100184947
1775722042284269000,6.91226904296875,-9.783927880582214,-0.5257323585223406,-0.4107867134373635
1775722042294282000,6.922281982421875,-9.78316975569129,-0.5405853520002216,-0.40956820449307557
1775722042304295200,6.932295166015625,-9.782468329423665,-0.553026352432929,-0.40971079130154103
1775722042314307800,6.942307861328125,-9.781796713772415,-0.5631507099537179,-0.411948596823588
1775722042324321000,6.952321044921875,-9.7811741979599,-0.5719521483076736,-0.414591549080424
1775722042334335000,6.9623349609375,-9.780608965292572,-0.5810147218158468,-0.41532059400733556
1775722042344348000,6.972347900390625,-9.780013337486983,-0.591812558151409,-0.41409715315960344
1775722042354361000,6.982361083984375,-9.77941829420328,-0.6049641910715028,-0.40912111831270154
1775722042364374000,6.9923740234375,-9.778799285522103,-0.6198793265327811,-0.40152178575750436
1775722042374387000,7.002386962890625,-9.777951144260168,-0.6355872563395649,-0.39760388166140764
1775722042384400100,7.012400146484375,-9.776562904772161,-0.6527620438285172,-0.4038571333698928
1775722042394413000,7.0224130859375,-9.77472049177587,-0.6734409669809043,-0.4143692480992526
1775722042404426000,7.032426025390625,-9.772792738583684,-0.6991286582060158,-0.41728557393737137
1775722042414439000,7.04243896484375,-9.770881352004409,-0.7304642191249877,-0.40827169840913263
1775722042424453000,7.052453125,-9.768951845246553,-0.7667276649001985,-0.3874174917550757
1775722042434466000,7.062466064453125,-9.766911863851547,-0.8053241567328572,-0.3595335691273212
1775722042444479000,7.07247900390625,-9.76481869096458,-0.8422109220381826,-0.3307286957297474
1775722042454492200,7.0824921875,-9.762904381775856,-0.8734051017250866,-0.3053582902928814
1775722042464504800,7.0925048828125,-9.761379948687553,-0.8972017185065895,-0.28439423005618153
1775722042474518000,7.10251806640625,-9.760177587160468,-0.9146084150552749,-0.2698288944132626
1775722042484531000,7.112531005859375,-9.759097390708327,-0.9283344503298401,-0.2619012614854611
1775722042494544100,7.122544189453125,-9.75797160154879,-0.9412328026086092,-0.257780473494716
1775722042504557000,7.13255712890625,-9.756602066761255,-0.9555674713008105,-0.25688829216165465
1775722042514571000,7.142571044921875,-9.754985279214381,-0.9717259944193064,-0.2576794973382726
1775722042524584000,7.152583984375,-9.753184367272258,-0.9891938465707003,-0.2593733869756572
1775722042534596900,7.162596923828125,-9.751250184339284,-1.007215460147336,-0.26271754630440847
1775722042544610000,7.172610107421875,-9.749305480012296,-1.0246946374103427,-0.2672566327724606
1775722042554623200,7.182623291015625,-9.747502229982613,-1.0403709299698471,-0.2724187282433733
1775722042564636000,7.192635986328125,-9.745911161398887,-1.0537494669809937,-0.2778644812275655
1775722042574649000,7.202649169921875,-9.74456559200883,-1.0643358890555799,-0.28462889732858165
1775722042584662000,7.212662109375,-9.743342187693715,-1.072060638088733,-0.29723630383675914
1775722042594676000,7.222676025390625,-9.742136319035291,-1.0778551497116684,-0.3152706490308046
1775722042604689200,7.232689208984375,-9.740947401511669,-1.082986667381227,-0.33386078321039675
1775722042614702000,7.2427021484375,-9.73982511948347,-1.0882036713771521,-0.3492938781311735
1775722042624715000,7.252715087890625,-9.738847798883913,-1.0932526983950286,-0.3605946590201929
1775722042634728000,7.26272802734375,-9.737948804217577,-1.098434119620919,-0.3690325978239998
1775722042644741000,7.2727412109375,-9.736889066031575,-1.105095184945315,-0.3770095680525526
1775722042654754000,7.282754150390625,-9.735555771601199,-1.1140427537716924,-0.3850240572798997
1775722042664767000,7.29276708984375,-9.734054134866595,-1.1240337672363967,-0.393854100673832
1775722042674780200,7.3027802734375,-9.732615041974187,-1.1327142826244234,-0.4044055245002731
1775722042684793900,7.3127939453125,-9.731434892278909,-1.1380341624729335,-0.4176578413158655
1775722042694807000,7.32280712890625,-9.73066799955964,-1.1393750556878746,-0.43163646311201154
1775722042704820000,7.332820068359375,-9.730140760815143,-1.137559165372327,-0.4479967924129218
1775722042714833000,7.3428330078125,-9.72960533876419,-1.1343116348184645,-0.4674406208124012
1775722042724846000,7.35284619140625,-9.728892806580662,-1.1319300003789365,-0.48761170404050497
1775722042734859000,7.36285888671875,-9.72781319465041,-1.1328504762247205,-0.5066438828991726
1775722042744872200,7.3728720703125,-9.726345460185408,-1.1391467998899518,-0.5205121396560222
1775722042754884900,7.382884765625,-9.724503047189115,-1.1509429630804806,-0.5289152994073927
1775722042764898000,7.39289794921875,-9.722205291640758,-1.1662922887079417,-0.5374628360655158
1775722042774912000,7.402912109375,-9.71944167214632,-1.1828698409561067,-0.5510473074449226
1775722042784925000,7.412925048828125,-9.716420863020419,-1.1984890695661305,-0.5702447598678991
1775722042794938000,7.422938232421875,-9.713393624153733,-1.2121803257882595,-0.5924408461175859
1775722042804951000,7.432950927734375,-9.710455232614278,-1.2241429315868764,-0.6155604404203593
1775722042814964000,7.4429638671875,-9.70776643192172,-1.2353183325305581,-0.6353325509261339
1775722042824977000,7.452976806640625,-9.705514853602647,-1.2464717408381403,-0.6478202765773982
1775722042834990000,7.462989990234375,-9.703581839713454,-1.2580224779002367,-0.6544183596681803
1775722042845003800,7.473003662109375,-9.701769821855425,-1.2698786276496945,-0.658369873772934
1775722042855018000,7.48301806640625,-9.699808750915526,-1.2816700415998696,-0.6643903761714697
1775722042865030700,7.49303076171875,-9.697329793581366,-1.294299221548438,-0.6759956198997795
1775722042875043800,7.5030439453125,-9.694400169870256,-1.308629944717884,-0.6902741014253347
1775722042885056800,7.513056884765625,-9.691347212040423,-1.3243700962938367,-0.7030062302917242
1775722042895070000,7.523070068359375,-9.688438046595454,-1.340709967328608,-0.7120770601715892
1775722042905082600,7.53308251953125,-9.685930447688698,-1.3566856812261043,-0.7159191956177353
1775722042915095800,7.543095703125,-9.683718032336234,-1.3714679475553333,-0.7176840863984078
1775722042925109000,7.55310888671875,-9.68158452743888,-1.3849978757359087,-0.7204771511830389
1775722042935121700,7.56312158203125,-9.679430564275384,-1.3977075735747813,-0.7248593117900193
1775722042945135900,7.573135986328125,-9.677224578663706,-1.410064804714173,-0.7303595897067338
1775722042955148800,7.583148681640625,-9.674808165171742,-1.4218902670644222,-0.7393897953152656
1775722042965161700,7.59316162109375,-9.672132223960757,-1.4326361174844204,-0.7535221463683992
1775722042975175000,7.6031748046875,-9.66942004239261,-1.441656167025119,-0.7709284775909035
1775722042985187800,7.613187744140625,-9.666853991296886,-1.4485868430711328,-0.7898816729292273
1775722042995200800,7.62320068359375,-9.664077512320876,-1.4547669930107892,-0.8121841786954551
1775722043005213700,7.633213623046875,-9.660912910810111,-1.4609638018243014,-0.8382905337240546
1775722043015227000,7.643226806640625,-9.65740928660333,-1.4671251009330153,-0.8673958513729274
1775722043025239800,7.65323974609375,-9.653630937108398,-1.4726349503956735,-0.8995229279957712
1775722043035253800,7.663253662109375,-9.649527008920908,-1.477473622598499,-0.9349222312223165
1775722043045267000,7.673266845703125,-9.645490300750732,-1.4817106756463645,-0.9692461603023111
1775722043055279600,7.683279541015625,-9.642015318116545,-1.4857210803315042,-0.9972767613917589
1775722043065292800,7.693292724609375,-9.63915232990086,-1.4901684151291847,-1.0180980886895208
1775722043075305700,7.7033056640625,-9.637087214064598,-1.4950114712461828,-1.0304723440289496
1775722043085319000,7.71331884765625,-9.635619479599594,-1.499272635821998,-1.0379821351371705
1775722043095331800,7.723331787109375,-9.634441667991876,-1.501579013068229,-1.04555037843436
1775722043105344800,7.7333447265625,-9.633485390180349,-1.5007738341651855,-1.0554725644465535
1775722043115358000,7.74335791015625,-9.63230816309452,-1.4965798896066844,-1.0720398144964127
1775722043125371600,7.75337158203125,-9.630747489649057,-1.4902404574520884,-1.0946544549517332
1775722043135384800,7.763384765625,-9.62921253516674,-1.4841032698713241,-1.1162844682838766
1775722043145398000,7.77339794921875,-9.627855859860777,-1.4800116166435182,-1.1332892329681663
1775722043155410700,7.78341064453125,-9.62697556989491,-1.478030233567953,-1.1433053808741271
1775722043165423900,7.793423828125,-9.626831777510047,-1.4762053562283515,-1.1468716219883412
1775722043175436800,7.803436767578125,-9.627409285137057,-1.4720565659858285,-1.1473560445044189
1775722043185449700,7.81344970703125,-9.628342182072997,-1.4643568052634597,-1.1493763713508844
1775722043195462700,7.823462646484375,-9.628898062390089,-1.4541986916035412,-1.157588611640036
1775722043205475800,7.833475830078125,-9.629182140028476,-1.4440674659505486,-1.1678626798298208
1775722043215489800,7.84348974609375,-9.629477908104658,-1.436678086351603,-1.174517169282958
1775722043225502700,7.853502685546875,-9.629546297165751,-1.4338229891814291,-1.1774462815374136
1775722043235516000,7.863515869140625,-9.629111997401713,-1.4357051496662199,-1.178700665512681
1775722043245528600,7.873528564453125,-9.628137599411605,-1.4422978259295225,-1.1786139370772988
1775722043255541800,7.883541748046875,-9.626830608466268,-1.4534652627624571,-1.1755663860749452
1775722043265555000,7.893554931640625,-9.62516647464633,-1.46914447793141,-1.1696896760612725
1775722043275567900,7.90356787109375,-9.623532735964655,-1.4891947477914391,-1.1577150144986808
1775722043285580800,7.913580810546875,-9.62240460871756,-1.513113968039304,-1.1358687280673534
1775722043295594800,7.9235947265625,-9.621969139909744,-1.539990576788038,-1.1029608763303607
1775722043305607700,7.933607666015625,-9.621962125647068,-1.5682831898145377,-1.0624089395809917
1775722043315620900,7.943620849609375,-9.622096565681696,-1.5950843952395022,-1.020463867972791
1775722043325633800,7.9536337890625,-9.622413376545905,-1.6175415801107882,-0.9813783505141734
1775722043335647000,7.96364697265625,-9.622979778257012,-1.6347572110667823,-0.946687780078873
1775722043345659600,7.97365966796875,-9.623726212710142,-1.6479158217169343,-0.9157795777264982
1775722043355672800,7.9836728515625,-9.6245334374398,-1.6589682538680732,-0.8868869529802351
1775722043365685800,7.993685791015625,-9.625213820919393,-1.6709228955559432,-0.8565374804891646
1775722043375698700,8.00369873046875,-9.625697220522165,-1.685505547659844,-0.8218309087671339
1775722043385713000,8.013712890625,-9.625787236893176,-1.7026260476782917,-0.7846437722757458
1775722043395725800,8.023725830078124,-9.62551777230203,-1.7209525624856352,-0.7470709244024009
1775722043405738800,8.03373876953125,-9.624809331771731,-1.7387315264128147,-0.7143163635309785
1775722043415751700,8.043751708984376,-9.62389689310193,-1.7542023595280944,-0.6883102540064603
1775722043425764900,8.053764892578124,-9.623201896575093,-1.7658441358745096,-0.6679558866333216
1775722043435777800,8.06377783203125,-9.623027124530076,-1.7727857717059552,-0.6518943210832774
1775722043445790700,8.073790771484376,-9.623182607352733,-1.7755951300382613,-0.6418768580030649
1775722043455804000,8.083803955078125,-9.623632689207792,-1.7754146589048205,-0.6355982161249965
1775722043465816800,8.09381689453125,-9.624548050487041,-1.7726850878104567,-0.6293209624864161
1775722043475830800,8.103830810546874,-9.625741059663891,-1.768141306900978,-0.6238385855525732
1775722043485844000,8.113843994140625,-9.627277767711877,-1.7624990632303057,-0.6160404059570282
1775722043495856600,8.123856689453126,-9.628993339458107,-1.7563697666950522,-0.6066633231395855
1775722043505869800,8.133869873046875,-9.630486208364367,-1.7503769560210405,-0.6002493644440546
1775722043515882800,8.1438828125,-9.631388710162042,-1.745287670058012,-0.6005879487486556
1775722043525896000,8.15389599609375,-9.631348962673544,-1.7424799191609024,-0.6093193540737033
1775722043535908600,8.16390869140625,-9.63053881533444,-1.7430860683605074,-0.6202916336607187
1775722043545921800,8.173921875,-9.629382046514749,-1.746446630834788,-0.6287395093366503
1775722043555935000,8.18393505859375,-9.628508186289668,-1.750193123886734,-0.6316956557285041
1775722043565948700,8.19394873046875,-9.628480129238962,-1.7513916860215364,-0.6287933584157377
1775722043575961900,8.2039619140625,-9.629598904135822,-1.7482758920885622,-0.620273002025485
1775722043585974800,8.213974853515625,-9.631737085208297,-1.7402274640589952,-0.6096170949112624
1775722043595987700,8.22398779296875,-9.634276248297095,-1.7283976177945732,-0.6031164808455854
1775722043606001000,8.2340009765625,-9.636431965026258,-1.7157224067471921,-0.6048663932528346
1775722043616013800,8.244013916015625,-9.637950552895665,-1.7052654562711715,-0.6102186410009861
1775722043626026800,8.25402685546875,-9.6385946960181,-1.699214485669136,-0.6168837979786098
1775722043636039700,8.264039794921874,-9.63842284658253,-1.6979603939548134,-0.6229956319224089
1775722043646054000,8.274053955078125,-9.637972180205583,-1.699336796874553,-0.6262063375972211
1775722043656066800,8.28406689453125,-9.637871057918668,-1.6996221896871924,-0.6269838247757404
1775722043666079700,8.294079833984375,-9.638580667492747,-1.695184645631164,-0.6280928089309483
1775722043676093000,8.304093017578126,-9.640094579187036,-1.6849344697736202,-0.6324200975455343
1775722043686105900,8.31410595703125,-9.641927639833092,-1.6713051728717983,-0.6405884256277233
1775722043696118800,8.324118896484375,-9.643885203641652,-1.6576083636917174,-0.6466802396968007
1775722043706131700,8.334131591796876,-9.645669748970866,-1.6472661256365477,-0.6464943617358804
1775722043716145000,8.344144775390625,-9.647055065849424,-1.6423058728806674,-0.6383907694529741
1775722043726157800,8.35415771484375,-9.647850015619397,-1.6430802182540296,-0.6242279501963407
1775722043736171800,8.364171875,-9.647950553384423,-1.6485108650006353,-0.6081476434132084
1775722043746184700,8.374184814453125,-9.647432666990161,-1.656672544146329,-0.594022635416314
1775722043756198000,8.384197998046876,-9.646469959437846,-1.665938092880696,-0.5836516461906954
1775722043766210800,8.3942109375,-9.645441200911998,-1.674670265390724,-0.5756138856856152
1775722043776224000,8.40422412109375,-9.644483169534801,-1.6818337272793054,-0.5707592487286776
1775722043786236700,8.414236572265626,-9.643698741158843,-1.687333055347949,-0.5677774564389139
1775722043796249900,8.424249755859375,-9.643279054442047,-1.6914137487903236,-0.562736612727493
1775722043806262800,8.4342626953125,-9.64325508904457,-1.694284189660102,-0.5544558372467756
1775722043816275700,8.444275634765624,-9.643633274707197,-1.6956090085230766,-0.5437227001778782
1775722043826290000,8.4542900390625,-9.64437211037576,-1.695165794800222,-0.5318666965588927
1775722043836302800,8.464302734375,-9.645238371816276,-1.693733423909545,-0.5206077089849859
1775722043846315300,8.474315185546875,-9.64605261080861,-1.691906354612857,-0.5113815424129367
1775722043856328400,8.484328369140625,-9.646738839507103,-1.689992191554606,-0.5047175910117104
1775722043866341400,8.49434130859375,-9.647231591460109,-1.6885102824337779,-0.5002417607719079
1775722043876354600,8.5043544921875,-9.647610361644626,-1.6874544897705315,-0.4964878881311044
1775722043886367200,8.5143671875,-9.648137600389122,-1.6856779816173015,-0.49225832426995036
1775722043896380400,8.52438037109375,-9.649046531927585,-1.681534159810841,-0.48859497945681213
1775722043906393600,8.5343935546875,-9.650517189002036,-1.673603512942046,-0.48678007552195335
1775722043916407300,8.5444072265625,-9.652629066589475,-1.6610361461833119,-0.48794988648630677
1775722043926420500,8.55442041015625,-9.655186349856853,-1.6442369870737195,-0.4942145363716408
1775722043936433700,8.56443359375,-9.657847678020596,-1.6252169370442628,-0.5050101807501167
1775722043946446300,8.5744462890625,-9.660148940700292,-1.6074946717403829,-0.5175630075268447
1775722043956459500,8.58445947265625,-9.661792616254091,-1.5940109207890927,-0.5284667519222944
1775722043966472400,8.594472412109376,-9.662599256461858,-1.5864280644446611,-0.5364763457788154
1775722043976485400,8.6044853515625,-9.662639003950357,-1.585281232497096,-0.5391428981069475
1775722043986498300,8.614498291015625,-9.66212813181877,-1.588981548319757,-0.5374020823216066
1775722043996512500,8.624512451171874,-9.661429628160596,-1.5937861721225082,-0.5357317014239729
1775722044006525400,8.634525390625,-9.66100877240002,-1.5964716118142008,-0.5353231206230818
1775722044016538400,8.644538330078126,-9.661208094364405,-1.595797658075392,-0.533729969680123
1775722044026551600,8.654551513671874,-9.662042791622877,-1.5919621715657413,-0.5300686706935986
1775722044036564200,8.664564208984375,-9.663445059636235,-1.5856477277219294,-0.5233918232781812
1775722044046577400,8.674577392578126,-9.665255908450483,-1.5777077285028993,-0.5138556774415075
1775722044056590300,8.68459033203125,-9.667176062858104,-1.569328607214242,-0.5032830646965653
1775722044066603500,8.694603515625,-9.668810970583557,-1.5614834466718137,-0.4962306984996423
1775722044076616400,8.704616455078124,-9.66987070876956,-1.5554045651495456,-0.49467166902199383
1775722044086630400,8.71463037109375,-9.670443540221452,-1.551780967824906,-0.4948603234618902
1775722044096643300,8.724643310546876,-9.670705990549921,-1.5501834695003927,-0.49472909829765555
1775722044106656500,8.734656494140625,-9.670916418430208,-1.5487331245616078,-0.49516588227972386
1775722044116669400,8.74466943359375,-9.67134428845346,-1.5452001281298695,-0.4978341151082888
1775722044126682600,8.7546826171875,-9.67220061302185,-1.537886590246111,-0.5038147238878533
1775722044136695300,8.7646953125,-9.673363227060436,-1.5271876477077602,-0.5139351358858868
1775722044146708500,8.77470849609375,-9.674636900258063,-1.516066095843166,-0.522807410986349
1775722044156721400,8.784721435546874,-9.675838092741369,-1.5079633072778582,-0.5240066672408953
1775722044166735400,8.7947353515625,-9.676801384815573,-1.5043240739926695,-0.5166316084282473
1775722044176748500,8.80474853515625,-9.67723568457961,-1.504895005748421,-0.5067435073487461
1775722044186761500,8.814761474609375,-9.676894323796033,-1.508410320392996,-0.502791883646138
1775722044196774400,8.8247744140625,-9.675720603841542,-1.513630685389787,-0.5096497501842677
1775722044206787300,8.834787353515624,-9.674079850897192,-1.5191520791597664,-0.5241582410734147
1775722044216800500,8.844800537109375,-9.672363110107183,-1.5236321471832692,-0.5425091596696525
1775722044226813400,8.8548134765625,-9.671065471512078,-1.5256991627156733,-0.5595689059441908
1775722044236826400,8.864826416015624,-9.670666243061422,-1.52496880261451,-0.5683915697492659
1775722044246839600,8.874839599609375,-9.671255441126227,-1.5215516876474022,-0.5675216550469399
1775722044256853200,8.884853271484374,-9.672691611409187,-1.5156819188311694,-0.5586888717066496
1775722044266866400,8.894866455078125,-9.67481225682497,-1.5075690472632646,-0.543712617175281
1775722044276879600,8.904879638671876,-9.67743909819722,-1.4966834961116313,-0.5267787623027339
1775722044286892300,8.914892333984374,-9.680306178066134,-1.4827766974426806,-0.5132540217539295
1775722044296905500,8.924905517578125,-9.682910807606577,-1.4666408245474098,-0.5104822554856538
1775722044306918400,8.93491845703125,-9.684773678869009,-1.4500646605387328,-0.522357219533436
1775722044316931600,8.944931640625,-9.68585153723359,-1.43445544186607,-0.5449825640458613
1775722044326944300,8.9549443359375,-9.686192898017168,-1.4201543831825256,-0.575507794962637
1775722044336957400,8.96495751953125,-9.686033323541283,-1.4062091521993278,-0.6113210858175531
1775722044346971400,8.974971435546875,-9.685828156358003,-1.391006176239997,-0.6482401094246655
1775722044356984300,8.984984375,-9.685978963005542,-1.373505736993253,-0.6824027104631066
1775722044366997500,8.99499755859375,-9.686513216012715,-1.3542092081099748,-0.7127181345541029
1775722044377010400,9.005010498046875,-9.687730190587043,-1.333961515981704,-0.7340413469593972
1775722044387023400,9.0150234375,-9.689654436647892,-1.3140509468533097,-0.744484195844829
1775722044397036500,9.02503662109375,-9.692048053786158,-1.295427348795533,-0.7459609903991222
1775722044407049500,9.035049560546875,-9.694607090619206,-1.278456047989428,-0.7419755009595305
1775722044417062400,9.0450625,-9.69683879519403,-1.262527680364996,-0.7400827460154891
1775722044427075300,9.055075439453125,-9.698374918720125,-1.2471971325032412,-0.7459248231071979
1775722044437089500,9.065089599609376,-9.69941244507432,-1.2320697059981525,-0.7574872506070882
1775722044447102500,9.0751025390625,-9.700233113807439,-1.2165445854123682,-0.7719362663939595
1775722044457115400,9.085115478515625,-9.701150813174246,-1.1999848610818384,-0.7861918785005807
1775722044467128600,9.095128662109374,-9.702480600473285,-1.182730286354944,-0.7958633046220988
1775722044477141500,9.1051416015625,-9.70428092789352,-1.1661113061178474,-0.7984352009367197
1775722044487154400,9.115154541015626,-9.706661101028322,-1.150126239870116,-0.7926655314940959
1775722044497167400,9.12516748046875,-9.709618781790137,-1.1328050296477974,-0.7813056408289819
1775722044507180500,9.1351806640625,-9.713105454862117,-1.1128826970163732,-0.766457834982872
1775722044517194500,9.145194580078124,-9.716986680209637,-1.0911388480462134,-0.7483142755270004
1775722044527207400,9.15520751953125,-9.7209333720088,-1.0688178567752242,-0.7290152624256908
1775722044537220400,9.165220458984376,-9.724932086256146,-1.0467134308643637,-0.7074420938473195
1775722044547233300,9.1752333984375,-9.729052381056547,-1.0252078476294875,-0.6818175309862942
1775722044557246500,9.18524658203125,-9.73313059028089,-1.0049092290315778,-0.6532296613402664
1775722044567259600,9.195259765625,-9.736910108819604,-0.9860406432367861,-0.6250494957122952
1775722044577272300,9.205272216796875,-9.740033209276199,-0.9689518535308539,-0.6027227688202634
1775722044587285500,9.215285400390625,-9.742239194887876,-0.9539689500629901,-0.5908535403935239
1775722044597298400,9.22529833984375,-9.743736155447364,-0.9407557596813887,-0.5873439248373732
1775722044607312400,9.2353125,-9.745376908391714,-0.9280225348364561,-0.5803310504006222
1775722044617325600,9.24532568359375,-9.747701551946998,-0.9145317696224897,-0.5624287888873368
1775722044627338500,9.25533837890625,-9.750736974120139,-0.8997994068495929,-0.5328008721364662
1775722044637351400,9.265351318359375,-9.753986331304906,-0.884465059595555,-0.49784978760145604
1775722044647364400,9.2753642578125,-9.75696622389853,-0.8700740576062351,-0.46364005948565895
1775722044657377500,9.28537744140625,-9.759444012188911,-0.8579153447136283,-0.43315351661145685
1775722044667390500,9.295390380859375,-9.761283502575754,-0.8488773211248218,-0.4088245099863037
1775722044677403400,9.3054033203125,-9.762311676579714,-0.8434130643695592,-0.39536417644321914
1775722044687416600,9.31541650390625,-9.762437933307886,-0.841090612771362,-0.39718339122701435
1775722044697430300,9.32543017578125,-9.762034028682113,-0.8396621874034405,-0.4099330557500943
1775722044707443500,9.335443359375,-9.761595637264847,-0.8365973930053412,-0.4263078154351562
1775722044717456400,9.345456298828125,-9.761586869436503,-0.8296933857705444,-0.43979551190920174
1775722044727469600,9.355469482421874,-9.762158531844616,-0.8178532373078167,-0.44917274085711684
1775722044737482500,9.365482421875,-9.763170339235662,-0.8018242588531226,-0.4560289268948137
1775722044747495400,9.375495361328126,-9.764750301903486,-0.7833205608479679,-0.4543576326817274
1775722044757508600,9.385508544921874,-9.767057409802078,-0.7631087437506765,-0.43890663677807895
1775722044767521300,9.395521240234375,-9.769868960091472,-0.7411000332992523,-0.4132933990286663
1775722044777535500,9.405535400390624,-9.773058111521602,-0.716730073609203,-0.3795013118030503
1775722044787548400,9.41554833984375,-9.776385794639587,-0.6895150266863406,-0.34239202632084487
1775722044797561300,9.425561279296875,-9.779603587642312,-0.6592010639000684,-0.3085306001860648
1775722044807574500,9.435574462890624,-9.7826080301553,-0.6254522312942892,-0.28244775389721616
1775722044817587500,9.44558740234375,-9.785290401107073,-0.5887402745665982,-0.26807118229204785
1775722044827600400,9.455600341796876,-9.787620889881252,-0.5509491077674552,-0.26328040435155853
1775722044837613300,9.46561328125,-9.78971406276822,-0.5135837286323308,-0.2609792695360258
1775722044847626000,9.4756259765625,-9.791545954370498,-0.4775133942764252,-0.2607460453020409
1775722044857639200,9.48563916015625,-9.793095521900057,-0.4430655465558171,-0.26334914047252383
1775722044867653000,9.495653076171875,-9.79445044364035,-0.4096825881203636,-0.2670007035163231
1775722044877666000,9.505666015625,-9.795647544470429,-0.37708829584456977,-0.27106486594900486
1775722044887679000,9.515678955078124,-9.796770411020518,-0.34452293740231543,-0.2738183476419188
1775722044897692000,9.52569189453125,-9.797779880324006,-0.3107417368968948,-0.27808309241430834
1775722044907705000,9.535705078125,-9.798654325070977,-0.27517686784509565,-0.28466972252931444
1775722044917718000,9.545718017578125,-9.799446936753391,-0.2386853672013618,-0.2902691865041852
1775722044927731000,9.55573095703125,-9.800105692923069,-0.20309066926687955,-0.29506791028911245
1775722044937744000,9.565743896484374,-9.80060487461686,-0.16993759233085437,-0.2994114376524463
1775722044947757000,9.575757080078125,-9.80088661416769,-0.1400857762967702,-0.30558453679680825
1775722044957771000,9.58577099609375,-9.801043850556015,-0.11432300140829756,-0.31122239655330775
1775722044967784000,9.595783935546875,-9.801156078758835,-0.09346199968727305,-0.31463235112726684
1775722044977797000,9.605797119140625,-9.801301040187477,-0.07745806434229016,-0.3144626936487853
1775722044987810000,9.61581005859375,-9.801574011909961,-0.06479061647625639,-0.3087543624719605
1775722044997823000,9.625822998046875,-9.802000712889432,-0.05287066250927746,-0.2972713203512132
1775722045007836200,9.635836181640625,-9.80247183753252,-0.03928595366785303,-0.2835273658274673
1775722045017849000,9.64584912109375,-9.802931271737814,-0.02323550545015605,-0.26904815583173186
1775722045027862000,9.655862060546875,-9.80327146347761,-0.005474842081358656,-0.2573417898165062
1775722045037875000,9.665875,-9.80340298090279,0.012951746983418706,-0.2520146399769932
1775722045047889000,9.675888916015625,-9.803356803673505,0.030374063509632832,-0.2523018046216108
1775722045057902000,9.685902099609375,-9.80329425983131,0.04415427209027111,-0.2526958637068048
1775722045067915000,9.6959150390625,-9.803340437060594,0.05242282284365501,-0.2492969967824407
1775722045077928200,9.70592822265625,-9.803462017613649,0.05473269352149218,-0.243962686549779
1775722045087940900,9.71594091796875,-9.803688227584958,0.05225879595493897,-0.23526041598767042
1775722045097954000,9.7259541015625,-9.80400094679594,0.04818262799063232,-0.22276722870999946
1775722045107967000,9.735967041015625,-9.804380301502347,0.04573291045068763,-0.20596839839396996
1775722045117980000,9.74597998046875,-9.804781283518672,0.04782772730547003,-0.18536423924453554
1775722045127994000,9.755994140625,-9.805145440655947,0.055515747357695364,-0.16257546606501563
1775722045138007000,9.766007080078126,-9.805407890984416,0.06778082040133886,-0.14059138773134908
1775722045148020000,9.77602001953125,-9.805510766837001,0.08179778318018652,-0.12511951343645342
1775722045158033200,9.786033203125,-9.805470434826612,0.09361379271550103,-0.11988351247911341
1775722045168046000,9.796046142578126,-9.805410813593864,0.10009881648640148,-0.11952614127565174
1775722045178059000,9.80605908203125,-9.805402630287409,0.10052988311373628,-0.11982238427586853
1775722045188072000,9.816072021484375,-9.80543477899134,0.09654797387071884,-0.12048020886378362
1775722045198085000,9.826085205078124,-9.805495569267869,0.09137588672875427,-0.11955216163289732
1775722045208098000,9.83609814453125,-9.80558500111699,0.08794898101999424,-0.1146871585455723
1775722045218112000,9.846112060546876,-9.805705997148156,0.08706280930261127,-0.10454333827248774
1775722045228125200,9.856125244140625,-9.805840437182784,0.08810793444137088,-0.09005845658779144
1775722045238137900,9.866137939453125,-9.805943313035367,0.0903406253968831,-0.07546826963140629
1775722045248151000,9.876151123046874,-9.806003518790005,0.09261542932791635,-0.06404878056643065
1775722045258164000,9.8861640625,-9.80605028054118,0.09357210899824275,-0.05480331107228994
1775722045268177200,9.89617724609375,-9.806102302989363,0.09225824992069974,-0.04720727558587678
1775722045278190000,9.906190185546874,-9.806160755178333,0.08850086101540364,-0.04205147742500994
1775722045288203000,9.916203125,-9.806215115714073,0.083157371962443,-0.040246428163885135
1775722045298216200,9.92621630859375,-9.806264800074697,0.07757490478814578,-0.03914160416056402
1775722045308230000,9.93622998046875,-9.806309808260202,0.07276189218296203,-0.0370969648567494
1775722045318243000,9.9462431640625,-9.806353062880039,0.06880616769397165,-0.033005987482378256
1775722045328256300,9.95625634765625,-9.806399240109323,0.06528473383586388,-0.025511907683231402
1775722045338269000,9.96626904296875,-9.80644483281672,0.062072466391627674,-0.013002190537512068
1775722045348282000,9.9762822265625,-9.806470551779865,0.05922571692469064,0.003830425885810109
1775722045358295000,9.986294921875,-9.806455354210733,0.05695436532606836,0.023874113880947696
1775722045368308000,9.996307861328125,-9.806397486543656,0.055414515472925266,0.04341435870947316
1775722045378321000,10.00632080078125,-9.806322083219886,0.053489104934874916,0.05973493595530744
1775722045388335000,10.016335205078125,-9.806268307206034,0.04957030122305732,0.07090003926726057
1775722045398348000,10.02634814453125,-9.806260708421469,0.04242666284637525,0.0764175834126072
1775722045408361000,10.03636083984375,-9.80625603224635,0.03187934208960505,0.08195088224951178
1775722045418374100,10.0463740234375,-9.806215700235962,0.01915306757526705,0.09031370085733942
1775722045428386800,10.05638671875,-9.806121592211722,0.006132384683127747,0.10160583264902233
1775722045438400000,10.06639990234375,-9.805983645045757,-0.004958398154689348,0.11418843350950628
1775722045448413200,10.0764130859375,-9.805849789533019,-0.012647836699977051,0.12462787572829984
1775722045458426000,10.086426025390624,-9.805751589855552,-0.016744529145793056,0.13168974953908472
1775722045468439000,10.09643896484375,-9.805648714002967,-0.018176882911805296,0.13896566795934923
1775722045478453000,10.106452880859376,-9.805501414486764,-0.018297923467098735,0.1489781078045722
1775722045488466000,10.1164658203125,-9.805328396007418,-0.018160371310065964,0.15997595109110696
1775722045498479000,10.12647900390625,-9.805164145356416,-0.01822850121789961,0.1697270183200948
1775722045508492000,10.136491943359376,-9.80504490289092,-0.018480943892296636,0.1764587559942156
1775722045518505200,10.146505126953125,-9.804958978173136,-0.019244136542337944,0.18109845329253002
1775722045528518000,10.156517822265625,-9.804879483196139,-0.020593292978836688,0.18518374984478578
1775722045538531000,10.166531005859374,-9.804798234653472,-0.022340865015238524,0.18926237919423727
1775722045548544000,10.1765439453125,-9.804712894457579,-0.023214168117893858,0.19352754409173503
1775722045558557000,10.186556884765626,-9.804629892349242,-0.02196986257864628,0.19783408217923715
1775722045568571100,10.196571044921875,-9.80452292484343,-0.01802507618384552,0.2034312263328582
1775722045578584000,10.206583984375,-9.804421218034625,-0.011666550028068013,0.208736821927689
1775722045588597000,10.216596923828124,-9.804321849313379,-0.00401763471859158,0.2136267676600255
1775722045598610000,10.22660986328125,-9.804168704578279,0.003807020464869856,0.22055174461761487
1775722045608623000,10.236623046875,-9.803874105545878,0.011769373365014326,0.23302533214567228
1775722045618636000,10.246635986328124,-9.803443897435068,0.020670577732438685,0.24989035956570876
1775722045628649000,10.25664892578125,-9.8029944001019,0.03082608387673972,0.26595439106747504
1775722045638662100,10.266662109375,-9.802624397745728,0.040871222698455674,0.27798253638297316
1775722045648675000,10.276675048828125,-9.80245371735394,0.04922707727595698,0.28259233173336834
1775722045658689000,10.28668896484375,-9.802535550418495,0.05467438289641868,0.2787340854026377
1775722045668702200,10.2967021484375,-9.802856452935934,0.0574296135884244,0.2666241435552016
1775722045678715000,10.30671484375,-9.8032889991343,0.05841344156058039,0.2500028617631644
1775722045688728000,10.31672802734375,-9.803734404814243,0.05939609135580249,0.2316246350348927
1775722045698741000,10.326740966796875,-9.804165197446942,0.06207833900998812,0.2118367972370237
1775722045708754200,10.336754150390625,-9.80452175579965,0.06766332236835733,0.1927570711758919
1775722045718766800,10.346766845703126,-9.80474621220529,0.07672105530463158,0.1773300406697206
1775722045728780000,10.356780029296875,-9.804813432222604,0.08875143824298866,0.1677639015535824
1775722045738794000,10.3667939453125,-9.804703542107344,0.10194782362026161,0.16668841780917718
1775722045748807000,10.376806884765625,-9.804460381001233,0.11432336673447861,0.17284388996530323
1775722045758820000,10.386820068359375,-9.804171042665839,0.12421165047707035,0.18217422929788007
1775722045768833000,10.3968330078125,-9.803929050603509,0.12967337734852916,0.19115654064407572
1775722045778846000,10.406845947265625,-9.803799286743997,0.130381361221103,0.19723902062922716
1775722045788859100,10.416859130859375,-9.803788765349983,0.1281992770748213,0.19917811719933523
1775722045798872000,10.4268720703125,-9.803878197199106,0.12584510603095403,0.19626668673204256
1775722045808885000,10.436885009765625,-9.804009130102395,0.12520644280123525,0.19003067841930313
1775722045818898000,10.44689794921875,-9.804141232049465,0.12729864757382311,0.18163858805121852
1775722045828912000,10.456912109375,-9.804227741289138,0.1320950880701188,0.17336031505484134
1775722045838925000,10.466925048828125,-9.804237678161263,0.1390620044732932,0.16725595203144475
1775722045848938800,10.476938720703124,-9.804175718840956,0.1467572808167897,0.16426517271762714
1775722045858951700,10.48695166015625,-9.804100315517186,0.15326604165630414,0.16281044386466964
1775722045868964600,10.496964599609376,-9.804079272729158,0.15656199619546532,0.1609331604843959
1775722045878977800,10.506977783203125,-9.804168704578279,0.15562847820501774,0.15631850629579275
1775722045888990700,10.51699072265625,-9.80433646236062,0.15082019200730137,0.1504169632349629
1775722045899003600,10.527003662109376,-9.8045416295439,0.14317066363482736,0.14439663436636327
1775722045909016600,10.5370166015625,-9.804743289595843,0.13339451676351016,0.14001374310702086
1775722045919030800,10.54703076171875,-9.80493384373188,0.12188846822651102,0.13711463326518422
1775722045929043700,10.557043701171875,-9.805134334740043,0.10886183165926486,0.1337102864481043
1775722045939056600,10.567056640625,-9.805338332879543,0.09490225249030627,0.12930755797713062
1775722045949069800,10.57706982421875,-9.805537070322035,0.08065840388671494,0.12375590606620535
1775722045959082500,10.58708251953125,-9.805739899417757,0.06621986382808535,0.11605549688986502
1775722045969095700,10.597095703125,-9.805942728513479,0.05076772628012113,0.10628954261899926
1775722045979108600,10.607108642578124,-9.806097042292356,0.03310567814732203,0.09873568404018879
1775722045989121800,10.617121826171875,-9.806143804043531,0.012741944724216591,0.09879688530866987
1775722045999134700,10.627134765625,-9.806077753069996,-0.009779755608999402,0.10546383238458074
1775722046009148700,10.637148681640625,-9.805934545207023,-0.032763036438822744,0.11384126403965056
1775722046019161600,10.64716162109375,-9.805737561330199,-0.0549119134127628,0.1219615151964128
1775722046029174500,10.657174560546874,-9.80549264665842,-0.07626391352112405,0.1299096155235078
1775722046039187700,10.667187744140625,-9.805208569020031,-0.09753456462211907,0.13697289584008976
1775722046049201000,10.677200927734376,-9.804892342677713,-0.11910054540787823,0.1424205302541144
1775722046059213600,10.687213623046874,-9.804531108149886,-0.14124795194393955,0.14696780002862214
1775722046069226800,10.697226806640625,-9.804099146473407,-0.16471945582376793,0.1512983674456831
1775722046079239700,10.70723974609375,-9.803574830338357,-0.19006701010800897,0.15549471402382478
1775722046089252600,10.717252685546875,-9.802969265660643,-0.21712871136637404,0.1582007215795107
1775722046099266800,10.727266845703125,-9.802316354709863,-0.24494176071500404,0.15804269973989576
1775722046109279700,10.73727978515625,-9.801618435573577,-0.2727083953723311,0.1558382119655609
1775722046119292700,10.747292724609375,-9.800856803551316,-0.29969089391464365,0.15418196919113397
1775722046129305600,10.7573056640625,-9.800053670474886,-0.3253118583127856,0.1533258455521427
1775722046139318800,10.76731884765625,-9.799240600526332,-0.3500010765524581,0.1508809548843652
1775722046149331500,10.77733154296875,-9.798392459264397,-0.3744150580473244,0.14729998199190011
1775722046159344600,10.7873447265625,-9.797495218163728,-0.3990106797194108,0.14232827626024372
1775722046169357800,10.79735791015625,-9.796536017742753,-0.42413715686518694,0.13555758568206802
1775722046179370800,10.807370849609375,-9.795525379395484,-0.449852430216968,0.12531080735800787
1775722046189384700,10.817384765625,-9.79443407702744,-0.47639980701133605,0.11176812929371371
1775722046199398000,10.82739794921875,-9.793161572873592,-0.5047774314401671,0.09781114394064061
1775722046209410600,10.83741064453125,-9.791606160125136,-0.5360049288747832,0.08676076674927026
1775722046219423700,10.847423828125,-9.789819276708364,-0.5687503565916792,0.0796406508120708
1775722046229436700,10.857436767578125,-9.787985631540417,-0.6000148981010541,0.07549024856777396
1775722046239449900,10.867449951171874,-9.78631915963292,-0.6270515562497079,0.07172600979658308
1775722046249462500,10.877462646484375,-9.784875975087285,-0.6497018525402992,0.06686963754028546
1775722046259475700,10.887475830078126,-9.783507609343529,-0.6706297089524567,0.060177231796132394
1775722046269488600,10.897488525390624,-9.782022339221834,-0.6926105084836482,0.05211445101422723
1775722046279502600,10.907502685546875,-9.780265266421436,-0.7175862520471215,0.04316331112443004
1775722046289515800,10.917515869140624,-9.778214763632416,-0.745454940573126,0.03459210589635186
1775722046299528700,10.92752880859375,-9.775973706707358,-0.7746013939499855,0.026736207047489004
1775722046309541600,10.937541748046876,-9.773687641596794,-0.8031804227024316,0.017783219977188854
1775722046319554600,10.947554443359374,-9.77147639528811,-0.8297997687544674,0.008157201045865077
1775722046329567700,10.957567626953125,-9.769435244849324,-0.8535301884319633,-0.0019269979944714576
1775722046339580700,10.96758056640625,-9.767591662809252,-0.8742870721913873,-0.012847002259088912
1775722046349593600,10.977593505859375,-9.765911746898293,-0.8926095684107392,-0.02448862220023293
1775722046359606800,10.987606689453125,-9.764215464374422,-0.9104855629716068,-0.038756431634724135
1775722046369620700,10.997620849609374,-9.762275436222552,-0.9301579394299536,-0.0562414997824002
1775722046379633700,11.007633544921875,-9.759946116492152,-0.9528602581687271,-0.07675219022841193
1775722046389646800,11.017646728515626,-9.757254977712035,-0.9779811823565512,-0.09953596757240593
1775722046399659500,11.027659423828124,-9.754324184957147,-1.0044028869446366,-0.12133901765020563
1775722046409672700,11.037672607421875,-9.75142554090619,-1.0300632517714052,-0.138026551345177
1775722046419685600,11.047685546875,-9.748805713796616,-1.0527909241471438,-0.15099599609877914
1775722046429698800,11.05769873046875,-9.746545952171086,-1.071377551195398,-0.16546015465585515
1775722046439711500,11.06771142578125,-9.744522337388991,-1.0859697748452424,-0.1879951540037058
1775722046449724700,11.077724609375,-9.742433840677142,-1.0984720404785127,-0.22073479130063203
1775722046459737900,11.08773779296875,-9.740010412922501,-1.1117182563468813,-0.2582038682722486
1775722046469751600,11.09775146484375,-9.737151516360044,-1.1281255665946752,-0.2925714538308792
1775722046479764700,11.1077646484375,-9.733881116387247,-1.1495695558354257,-0.3169169549331069
1775722046489778000,11.11777783203125,-9.730305011466145,-1.176257729339972,-0.3285900032006204
1775722046499790600,11.12779052734375,-9.726673961487412,-1.2061234369020908,-0.3278162423491478
1775722046509803800,11.1378037109375,-9.72332055940628,-1.235387598374486,-0.31818317547664043
1775722046519816700,11.147816650390626,-9.720564538696408,-1.2603935909457504,-0.30400523171611127
1775722046529829600,11.15782958984375,-9.718459675371646,-1.2792846077680586,-0.2921677684008144
1775722046539842600,11.167842529296875,-9.716807816511391,-1.292885555358231,-0.2871859979328699
1775722046549855700,11.177855712890626,-9.715286890554427,-1.304322456782311,-0.28692420519152656
1775722046559869700,11.18786962890625,-9.713481886959075,-1.316949444773793,-0.29034382264297454
1775722046569882600,11.197882568359375,-9.711199913501739,-1.3326290983341633,-0.2950996571342461
1775722046579895800,11.207895751953124,-9.708370827555656,-1.3521812094137071,-0.29921684666210785
1775722046589908500,11.217908447265625,-9.705002812427281,-1.375384098085761,-0.3026961584115401
1775722046599921700,11.227921630859376,-9.701315648347139,-1.4005064105130731,-0.3056806358487345
1775722046609934600,11.2379345703125,-9.697718500638008,-1.4250598370112477,-0.3063443056555465
1775722046619947800,11.24794775390625,-9.694670803505181,-1.4464151981204747,-0.30270350146777925
1775722046629960700,11.257960693359376,-9.69247592380941,-1.4628395325683057,-0.293924055749923
1775722046639973600,11.2679736328125,-9.691194651827216,-1.4733790467612444,-0.2833472782865166
1775722046649987600,11.277987548828126,-9.690735802143811,-1.477940071066469,-0.2751697987834923
1775722046660000800,11.288000732421875,-9.690781979373098,-1.4780815253637731,-0.2727621896524913
1775722046670013700,11.298013671875,-9.690939215761423,-1.476230490669608,-0.2771756952458061
1775722046680027000,11.30802685546875,-9.690940384805202,-1.474252614725381,-0.28747259632190686
1775722046690039600,11.31803955078125,-9.69051485286951,-1.4740056542269884,-0.3026741657754406
1775722046700052700,11.328052734375,-9.689380295881628,-1.4771831152193247,-0.32283527559880165
1775722046710065700,11.338065673828124,-9.687352004924415,-1.4851112778700888,-0.3464701990125701
1775722046720078600,11.34807861328125,-9.684358083805442,-1.4986514351837337,-0.37099732202570884
1775722046730091500,11.358091552734376,-9.680396194437145,-1.5183781721778213,-0.3934973961906507
1775722046740105700,11.368105712890625,-9.675452308294176,-1.5445903256684541,-0.41261593815851955
1775722046750118700,11.37811865234375,-9.6696474214077,-1.576242332125455,-0.42867304672915485
1775722046760131600,11.388131591796874,-9.663027126485108,-1.612354386731237,-0.4433993450874463
1775722046770144800,11.398144775390625,-9.655827570369839,-1.6511664940759538,-0.45719552298877386
1775722046780157700,11.40815771484375,-9.648414079242944,-1.6899556589365003,-0.4717366375058889
1775722046790170600,11.418170654296874,-9.64125953131318,-1.725281531600654,-0.4897944549070671
1775722046800183800,11.428183837890625,-9.634678399357199,-1.7549987706027923,-0.5131639323176815
1775722046810196700,11.43819677734375,-9.628772974705695,-1.7790134140491485,-0.5405748306062073
1775722046820209700,11.448209716796875,-9.623425183936954,-1.7988469724185763,-0.569407432260923
1775722046830222600,11.45822265625,-9.618454994308948,-1.8163412741854785,-0.5971699935313314
1775722046840236500,11.468236572265624,-9.613804538154602,-1.8325407138362526,-0.6220454185254871
1775722046850249500,11.47824951171875,-9.609607086464763,-1.8478169011622667,-0.6414121631007641
1775722046860262700,11.4882626953125,-9.605889527246356,-1.8625021368578076,-0.6544925208829343
1775722046870275600,11.498275634765625,-9.60263666293025,-1.876314242980629,-0.6627171091970055
1775722046880288500,11.50828857421875,-9.599771336627006,-1.8890809317037462,-0.6679393008247018
1775722046890301400,11.518301513671876,-9.597399346798658,-1.9003366313420236,-0.6700967711195349
1775722046900314600,11.528314697265625,-9.595554595714807,-1.909599257466942,-0.6701880295995623
1775722046910327600,11.53832763671875,-9.59417161692381,-1.9163710896894335,-0.6706559393722563
1775722046920340500,11.548340576171874,-9.593123569175601,-1.9206274319596588,-0.6734617905732244
1775722046930354700,11.558354736328125,-9.592363106197118,-1.9232051734931765,-0.6769303434666246
1775722046940367400,11.568367431640626,-9.591732407078146,-1.92529688507542,-0.6799123549520969
1775722046950380500,11.578380615234375,-9.590971944099664,-1.9278613287359474,-0.6833720669519155
1775722046960393500,11.5883935546875,-9.590000468719005,-1.9313800043813882,-0.6870591579668224
1775722046970406700,11.59840673828125,-9.589011457681655,-1.9358141874365506,-0.6883790814589709
1775722046980419600,11.608419677734375,-9.588025953775643,-1.9416347102835774,-0.685708108684048
1775722046990432500,11.6184326171875,-9.587071429529786,-1.9486969037547706,-0.678991879106313
1775722047000445700,11.62844580078125,-9.586125088590382,-1.9561092258378863,-0.6709910896107554
1775722047010458400,11.638458251953125,-9.585043723094463,-1.9636052806816995,-0.664512833507359
1775722047020472600,11.64847265625,-9.583649638387561,-1.9719119212560354,-0.6600052929550408
1775722047030485500,11.658485595703125,-9.581895488196611,-1.9820120211184025,-0.6552003038261085
1775722047040498400,11.66849853515625,-9.579685995453595,-1.99471718891263,-0.6489234885789453
1775722047050511600,11.67851171875,-9.576981412670015,-2.0098843629062175,-0.6420088138196617
1775722047060524500,11.688524658203125,-9.574037175911664,-2.0261198967836798,-0.6348479822795837
1775722047070537500,11.698537353515626,-9.57124783745408,-2.0415886840723454,-0.6273108647730201
1775722047080550400,11.70855029296875,-9.568801028823852,-2.0554722479961813,-0.6192410286292434
1775722047090563600,11.7185634765625,-9.566724222549796,-2.067664497832209,-0.6106861854474991
1775722047100576500,11.728576416015626,-9.565156534841655,-2.0778338635385034,-0.6006463644050062
1775722047110589400,11.73858935546875,-9.564025484985113,-2.086046688349545,-0.5900896433489397
1775722047120603600,11.748603759765626,-9.5630399810791,-2.093317702265829,-0.5802334717776626
1775722047130616300,11.7586162109375,-9.561823591026663,-2.100964856018126,-0.5725954146472737
1775722047140629500,11.76862939453125,-9.560552840438485,-2.1091858641356227,-0.5635172782437875
1775722047150642700,11.778642578125,-9.55949602486193,-2.1170476835519074,-0.5518429513346403
1775722047160655600,11.788655517578125,-9.558813303294777,-2.1234552125066517,-0.5389005407184362
1775722047170668500,11.79866845703125,-9.55841582840979,-2.128151261368394,-0.5273027496442199
1775722047180681500,11.808681396484374,-9.557958147770165,-2.132063758637011,-0.5197387806633487
1775722047190694700,11.818694580078125,-9.557457212510704,-2.1358942767105997,-0.5131817967679351
1775722047200707300,11.828707275390625,-9.557012975874542,-2.13971704986915,-0.5054692496292292
1775722047210720500,11.838720458984374,-9.556640635430812,-2.1434819553606212,-0.49647886457443235
1775722047220734700,11.848734619140625,-9.556174186962842,-2.1474984975256026,-0.4880228786572814
1775722047230747400,11.858747314453124,-9.555510170096158,-2.151945540062338,-0.4813949484175071
1775722047240760600,11.868760498046875,-9.554719311979412,-2.156750456126034,-0.4755495468575507
1775722047250773500,11.8787734375,-9.553879354023932,-2.161624638033658,-0.4702703643456101
1775722047260786400,11.888786376953124,-9.552901448902487,-2.166652987589687,-0.46698549745604395
1775722047270799600,11.898799560546875,-9.5516821362406,-2.1720124687962232,-0.46702824061922726
1775722047280812500,11.9088125,-9.55021147916615,-2.177876976915449,-0.46978239816557615
1775722047290825700,11.91882568359375,-9.548609889188409,-2.184091759777069,-0.47347233872469513
1775722047300838400,11.92883837890625,-9.546959783893824,-2.1904472662836314,-0.4773769084151834
1775722047310852600,11.9388525390625,-9.545214986053109,-2.1971143229573964,-0.4816049744389951
1775722047320865500,11.948865478515625,-9.543490061956643,-2.203891415876895,-0.4848185296580195
1775722047330878500,11.95887841796875,-9.541899577894807,-2.2105336303703487,-0.4858789984963834
1775722047340891600,11.9688916015625,-9.540617721390724,-2.2161846418693663,-0.48530693422947074
1775722047350904600,11.978904541015625,-9.539771918216347,-2.2203274407625195,-0.4829956250797957
1775722047360917500,11.98891748046875,-9.539466797789931,-2.222259431738406,-0.4801224442636594
1775722047370930400,11.998930419921875,-9.539518820238113,-2.2225778500378133,-0.47761166701912877
1775722047380943600,12.008943603515625,-9.539770164650678,-2.2216648268461228,-0.47684466470200565
1775722047390956300,12.018956298828124,-9.539968902093172,-2.2205323156848547,-0.4781394537528976
1775722047400969500,12.028969482421875,-9.540019170975684,-2.219755339962989,-0.48073732475899156
1775722047410983700,12.038983642578126,-9.539807574051618,-2.220124903927743,-0.4832165743540972
1775722047420996400,12.048996337890625,-9.5394685513556,-2.2213654055081307,-0.48421544919833537
1775722047431009500,12.059009521484375,-9.539157585710287,-2.2226116061769425,-0.48461475071422755
1775722047441022700,12.069022705078124,-9.539128359615802,-2.222734940295666,-0.48463038667477665
1775722047451035400,12.079035400390625,-9.539497192928195,-2.221369935552776,-0.4836306350477039
1775722047461048600,12.089048583984376,-9.540375144806504,-2.2180447366528213,-0.48156559227667745
1775722047471061500,12.0990615234375,-9.541692657145857,-2.212905035676807,-0.4791038052730262
1775722047481074700,12.10907470703125,-9.543411151501536,-2.2061529310680923,-0.4760071909645572
1775722047491087400,12.11908740234375,-9.54523135266602,-2.1987578523807225,-0.47371272335182874
1775722047501100500,12.1291005859375,-9.546837618818879,-2.191770331580937,-0.47372379273511467
1775722047511114500,12.139114501953125,-9.548056931480765,-2.186041578670591,-0.47562078546285624
1775722047521127400,12.14912744140625,-9.54886824786365,-2.18156706360504,-0.47985805770643053
1775722047531140600,12.159140625,-9.549471474453807,-2.177569518401474,-0.4859759925974533
1775722047541153500,12.169153564453126,-9.550236029085516,-2.172979706393182,-0.49146304570641364
1775722047551166500,12.17916650390625,-9.551361818245052,-2.167195131642371,-0.4951141886251047
1775722047561179600,12.1891796875,-9.552940027347207,-2.1600627955444156,-0.49583603662624953
1775722047571192600,12.199192626953124,-9.555029693102837,-2.1512391453586517,-0.4939200469370931
1775722047581205500,12.20920556640625,-9.557525017049908,-2.1408336328089237,-0.49084473114497956
1775722047591218400,12.219218505859375,-9.560217324873804,-2.129699513723701,-0.48683710293881594
1775722047601232600,12.229232666015625,-9.562895604172349,-2.1188228765308854,-0.48166733561810104
1775722047611245600,12.23924560546875,-9.565406125688552,-2.1084229169391095,-0.4774365661805495
1775722047621258500,12.249258544921876,-9.567730769243836,-2.098344444386661,-0.4752490295410156
1775722047631271700,12.259271728515625,-9.570002221307158,-2.0879808712825176,-0.47516018221378326
1775722047641284400,12.269284423828125,-9.57221931283474,-2.0770222548946737,-0.47852290011253207
1775722047651297500,12.279297607421874,-9.574421791315078,-2.0656398601368067,-0.48369142532423137
1775722047661310500,12.289310546875,-9.576438976356387,-2.05494778573066,-0.4892783220784738
1775722047671323600,12.29932373046875,-9.578078560256957,-2.0461450322024524,-0.49405328139532356
1775722047681336300,12.30933642578125,-9.579419453471898,-2.0392016428053377,-0.49675406478662043
1775722047691349500,12.319349609375,-9.581009937533736,-2.0323308802530167,-0.4942332410721108
1775722047701363500,12.329363525390624,-9.58342459746003,-2.023194510856271,-0.4848137438850477
1775722047711376400,12.33937646484375,-9.586735329443215,-2.0108917863830924,-0.47032074282597747
1775722047721389600,12.3493896484375,-9.590572131127118,-1.9960129278115928,-0.45524256229009474
1775722047731402800,12.35940283203125,-9.594497195616364,-1.979977592681348,-0.4423825692603364
1775722047741415400,12.36941552734375,-9.598183190652728,-1.964066030061245,-0.4332543101048097
1775722047751428600,12.3794287109375,-9.60149626072347,-1.948920191116631,-0.4282115666972473
1775722047761441500,12.389441650390625,-9.60457493751645,-1.9342356860734522,-0.4257398062888533
1775722047771454500,12.399454345703125,-9.607472997045516,-1.9198264908403158,-0.4255688336361199
1775722047781467400,12.40946728515625,-9.610389761275053,-1.9051403783619403,-0.4257145987823605
1775722047791480600,12.41948046875,-9.613455578586459,-1.8898146528057753,-0.4247981049919501
1775722047801494500,12.42949462890625,-9.616765141525864,-1.8734652832902967,-0.4223044250126928
1775722047811507500,12.439507568359375,-9.620343584534526,-1.8557588000774383,-0.4189615443255752
1775722047821520600,12.449520751953125,-9.623981064254044,-1.837417087700963,-0.4162591534990817
1775722047831533300,12.459533203125,-9.627494040811062,-1.819121260292828,-0.41538185920789833
1775722047841546500,12.46954638671875,-9.630818801319599,-1.8008112582288682,-0.41808713611122217
1775722047851559700,12.4795595703125,-9.633973465958237,-1.7822776765421031,-0.4247709977893159
1775722047861572900,12.48957275390625,-9.637116440159081,-1.7630942526444793,-0.4334454852953553
1775722047871585500,12.49958544921875,-9.640281626191735,-1.7426234192848205,-0.4456692627808079
1775722047881598700,12.5095986328125,-9.643240475997327,-1.721409950864315,-0.4637354826841503
1775722047891611600,12.519611572265624,-9.645844521015881,-1.7007510475866496,-0.485291773192957
