time,seconds_elapsed,z,y,x
1775714868152408300,0.059408203125,-0.4857414662837982,0.3440856635570526,0.9889683723449707
1775714868162422500,0.069422607421875,-0.5940477252006531,0.4811135530471802,1.00121009349823
1775714868172436500,0.0794365234375,-0.694317102432251,0.5160357356071472,1.0636636018753052
1775714868182449400,0.089449462890625,-0.8900464177131653,0.40791910886764526,1.158734679222107
1775714868192463400,0.09946337890625,-1.1368062496185303,0.2662436068058014,1.2794981002807617
1775714868202477600,0.1094775390625,-1.3369646072387695,0.20531928539276123,1.41702139377594
1775714868212491300,0.1194912109375,-1.4772751331329346,0.11963977664709091,1.5861835479736328
1775714868222506000,0.129506103515625,-1.599410891532898,-0.023540817201137543,1.7863688468933105
1775714868232519000,0.139518798828125,-1.6779009103775024,-0.2707676887512207,1.9904865026474
1775714868242532900,0.149532958984375,-1.6225996017456055,-0.6156982183456421,2.1284871101379395
1775714868252547000,0.159547119140625,-1.460853934288025,-1.004982590675354,2.149463415145874
1775714868262561000,0.16956103515625,-1.2202730178833008,-1.4922198057174683,2.0684525966644287
1775714868272575000,0.179574951171875,-0.8572658896446228,-2.2304134368896484,1.9478503465652466
1775714868282589000,0.1895888671875,-0.7034094929695129,-3.049053192138672,1.7756948471069336
1775714868292602000,0.19960205078125,-0.7868008017539978,-3.8965137004852295,1.6018831729888916
1775714868302616000,0.209615966796875,-0.7403768301010132,-4.703488349914551,1.4988454580307007
1775714868312630000,0.219630126953125,-0.33367282152175903,-4.360352993011475,1.4324085712432861
1775714868322644000,0.22964404296875,0.16758444905281067,-2.716167688369751,1.1663700342178345
1775714868332658200,0.239658203125,0.5819036960601807,-1.9641975164413452,1.0664279460906982
1775714868342672100,0.249672119140625,0.5675932168960571,-2.194617509841919,0.9341293573379517
1775714868352685000,0.25968505859375,0.434118390083313,-2.7027487754821777,0.9625025987625122
1775714868362699000,0.269698974609375,0.47017598152160645,-3.3023221492767334,1.2706692218780518
1775714868372713200,0.279713134765625,0.7144611477851868,-4.01600980758667,1.6660906076431274
1775714868382727000,0.289726806640625,1.1655583381652832,-4.942330837249756,2.0465099811553955
1775714868392740900,0.299740966796875,1.453771948814392,-5.81928014755249,2.0375168323516846
1775714868402755000,0.309755126953125,1.2024908065795898,-4.7765727043151855,1.2472907304763794
1775714868412768000,0.31976806640625,0.25580090284347534,-4.272921085357666,1.1624023914337158
1775714868422782000,0.329781982421875,-0.9992220401763916,-3.4326322078704834,1.389682650566101
1775714868432796000,0.3397958984375,-1.678213357925415,-2.776968479156494,1.6245721578598022
1775714868442810000,0.34981005859375,-1.831848382949829,-2.5483896732330322,1.8409124612808228
1775714868452824000,0.359823974609375,-2.0284698009490967,-2.56919002532959,2.135158061981201
1775714868462837000,0.3698369140625,-2.3959856033325195,-2.833510637283325,2.5711209774017334
1775714868472851000,0.379850830078125,-2.822065830230713,-3.3286643028259277,3.069816827774048
1775714868482865200,0.389865234375,-3.2626125812530518,-3.828355073928833,3.531707525253296
1775714868492878800,0.39987890625,-3.6511242389678955,-4.076970100402832,3.913334846496582
1775714868502893000,0.40989306640625,-3.8856287002563477,-4.172194957733154,4.200005531311035
1775714868512907000,0.419906982421875,-4.013529300689697,-4.0869903564453125,4.3496994972229
1775714868522920200,0.429920166015625,-4.060176372528076,-3.882058620452881,4.390256881713867
1775714868532934000,0.439933837890625,-4.133549213409424,-3.67575740814209,4.293097972869873
1775714868542948000,0.449947998046875,-4.292372703552246,-3.459491729736328,4.126748561859131
1775714868552962000,0.459962158203125,-4.478930473327637,-3.4634182453155518,3.8278565406799316
1775714868562976000,0.46997607421875,-4.680503845214844,-3.455387830734253,3.408386468887329
1775714868572990000,0.479989990234375,-4.6724677085876465,-3.2793123722076416,3.042663335800171
1775714868583003100,0.490003173828125,-4.443558216094971,-3.021108388900757,2.81133770942688
1775714868593017000,0.50001708984375,-4.03804349899292,-2.896657705307007,2.6788594722747803
1775714868603031000,0.510031005859375,-3.5903546810150146,-2.8664348125457764,2.5312340259552
1775714868613045000,0.520044921875,-3.2259771823883057,-2.3821959495544434,2.296715259552002
1775714868623059000,0.530058837890625,-2.931913375854492,-1.8597973585128784,2.0669162273406982
1775714868633073200,0.5400732421875,-2.7297141551971436,-1.4429179430007935,1.9297419786453247
1775714868643086000,0.550086181640625,-2.6475768089294434,-1.3009812831878662,1.7139068841934204
1775714868653100000,0.56010009765625,-2.6665844917297363,-1.4516459703445435,1.419262409210205
1775714868663114000,0.570114013671875,-2.753875732421875,-1.6407370567321777,1.1384280920028687
1775714868673128200,0.580128173828125,-2.747821092605591,-1.8212350606918335,0.9053730964660645
1775714868683142000,0.590141845703125,-2.608973503112793,-1.8799657821655273,0.6657831072807312
1775714868693155000,0.600155029296875,-2.370943307876587,-1.6749342679977417,0.4167186915874481
1775714868703169000,0.6101689453125,-2.0588669776916504,-1.3437981605529785,0.2164050042629242
1775714868713183000,0.620182861328125,-1.7097851037979126,-1.077186942100525,0.10467180609703064
1775714868723197000,0.630197021484375,-1.3932241201400757,-0.9028936624526978,0.06927227228879929
1775714868733211100,0.640211181640625,-1.2018120288848877,-0.7578979134559631,0.053718093782663345
1775714868743225000,0.65022509765625,-1.201882004737854,-0.5393460988998413,-0.023069892078638077
1775714868753238000,0.660238037109375,-1.219354510307312,-0.33677423000335693,-0.17971013486385345
1775714868763252000,0.670251953125,-1.0867202281951904,-0.1368406116962433,-0.368981271982193
1775714868773266200,0.68026611328125,-0.9856188893318176,0.22566816210746765,-0.4901566505432129
1775714868783279900,0.69027978515625,-0.8820605874061584,0.4453645646572113,-0.5655955076217651
1775714868793294000,0.700294189453125,-0.7557889819145203,0.33347541093826294,-0.6064957976341248
1775714868803308000,0.71030810546875,-0.6659368276596069,0.043649718165397644,-0.6323942542076111
1775714868813321200,0.7203212890625,-0.6722769141197205,-0.0664520114660263,-0.6465888619422913
1775714868823335000,0.7303349609375,-0.6613371968269348,-0.030644480139017105,-0.6946128606796265
1775714868833348900,0.740348876953125,-0.6393200755119324,0.09402301162481308,-0.7511727809906006
1775714868843363000,0.750363037109375,-0.5823825001716614,0.20544008910655975,-0.799634575843811
1775714868853377000,0.760376953125,-0.5175444483757019,0.22610241174697876,-0.8017632365226746
1775714868863391000,0.770390869140625,-0.3731563985347748,0.11348239332437515,-0.7925654649734497
1775714868873404000,0.78040380859375,-0.19555144011974335,0.015009994618594646,-0.776316225528717
1775714868883418000,0.790418212890625,-0.05098280683159828,0.11154239624738693,-0.7760368585586548
1775714868893431800,0.800431884765625,0.07334216684103012,0.3554973900318146,-0.850054144859314
1775714868903446000,0.810446044921875,0.21892733871936798,0.5943490862846375,-1.0033326148986816
1775714868913460000,0.8204599609375,0.3353074789047241,0.7658422589302063,-1.1503205299377441
1775714868923473200,0.83047314453125,0.4613306522369385,0.6662253737449646,-1.2943590879440308
1775714868933486800,0.84048681640625,0.3969627618789673,0.6530088782310486,-1.3182346820831299
1775714868943501000,0.8505009765625,0.271310031414032,0.6323811411857605,-1.252265214920044
1775714868953515000,0.860514892578125,0.16752642393112183,0.48441067337989807,-1.1094236373901367
1775714868963529200,0.870529296875,0.11097074300050735,0.30266618728637695,-0.9306922554969788
1775714868973543000,0.88054296875,0.09494146704673767,0.11521844565868378,-0.7345389723777771
1775714868983556000,0.89055615234375,0.12482426315546036,-0.01761336624622345,-0.49458521604537964
1775714868993570000,0.900570068359375,0.21091537177562714,-0.034870993345975876,-0.24967367947101593
1775714869003584000,0.910583984375,0.3266241252422333,0.0433734767138958,-0.054991550743579865
1775714869013598000,0.920597900390625,0.47133180499076843,0.0662824884057045,0.05798767879605293
1775714869023612000,0.93061181640625,0.6462900042533875,0.08777233213186264,0.10508435219526291
1775714869033626000,0.940626220703125,0.8004438281059265,0.23099403083324432,0.12236746400594711
1775714869043639000,0.95063916015625,0.9038568139076233,0.338741272687912,0.12395763397216797
1775714869053653000,0.960653076171875,0.9638363718986511,0.38638612627983093,0.13218466937541962
1775714869063667000,0.9706669921875,0.9684398770332336,0.4250278174877167,0.13760048151016235
1775714869073681200,0.98068115234375,0.9430009722709656,0.4399670362472534,0.11755754798650742
1775714869083694800,0.99069482421875,0.9070941209793091,0.38504546880722046,0.10190455615520477
1775714869093709000,1.000708984375,0.8517760634422302,0.426815390586853,0.10918857157230377
1775714869103722000,1.010721923828125,0.7470035552978516,0.5460280776023865,0.0861535593867302
1775714869113736000,1.02073583984375,0.6159152388572693,0.5531801581382751,0.046259667724370956
1775714869123750000,1.03075,0.4732324182987213,0.5031945109367371,0.04635580629110336
1775714869133764000,1.04076416015625,0.33406075835227966,0.4937131702899933,0.09032487124204636
1775714869143778000,1.050778076171875,0.24572768807411194,0.4504607915878296,0.15524448454380035
1775714869153791000,1.060791015625,0.17332527041435242,0.44466710090637207,0.23843306303024292
1775714869163805000,1.070804931640625,0.11291944980621338,0.3910265266895294,0.3246079087257385
1775714869173819100,1.080819091796875,0.07620467990636826,0.2655583620071411,0.43506520986557007
1775714869183833000,1.0908330078125,0.05257897824048996,0.18541666865348816,0.5407202839851379
1775714869193847000,1.100846923828125,0.051830388605594635,0.12243232876062393,0.5757003426551819
1775714869203861000,1.110861083984375,0.071174256503582,0.06982024759054184,0.5588942170143127
1775714869213874200,1.120874267578125,0.09774836152791977,0.09162546694278717,0.5110973119735718
1775714869223887000,1.13088720703125,0.15314291417598724,0.13083359599113464,0.43654853105545044
1775714869233901000,1.140901123046875,0.23911152780056,0.1347021907567978,0.3522163927555084
1775714869243915000,1.1509150390625,0.3315141499042511,0.06556626409292221,0.277346134185791
1775714869253929200,1.16092919921875,0.40866154432296753,-0.01634378544986248,0.22271032631397247
1775714869263943200,1.170943115234375,0.4874434471130371,-0.04534081742167473,0.16753655672073364
1775714869273956000,1.1809560546875,0.563950777053833,0.006307641975581646,0.0665295422077179
1775714869283970000,1.190969970703125,0.6503660678863525,0.15333330631256104,-0.06067315489053726
1775714869293984300,1.200984375,0.7246657013893127,0.25496524572372437,-0.14798064529895782
1775714869303998200,1.210998291015625,0.7216742038726807,0.22913947701454163,-0.16857193410396576
1775714869314012200,1.22101220703125,0.6820804476737976,0.10613952577114105,-0.12855979800224304
1775714869324026000,1.231026123046875,0.6468726396560669,-0.039168667048215866,-0.04748653247952461
1775714869334039300,1.241039306640625,0.5978964567184448,-0.053015463054180145,0.023841695860028267
1775714869344053000,1.251052978515625,0.5885208249092102,0.026902537792921066,0.018467435613274574
1775714869354067200,1.261067138671875,0.5865505933761597,0.11280173063278198,-0.03882754594087601
1775714869364081200,1.2710810546875,0.591529369354248,0.15614095330238342,-0.11105753481388092
1775714869374095000,1.28109521484375,0.5733811855316162,0.17562870681285858,-0.14713428914546967
1775714869384109000,1.291109130859375,0.5272440314292908,0.20989985764026642,-0.139600470662117
1775714869394122200,1.301122314453125,0.4662345349788666,0.2403959035873413,-0.08679640293121338
1775714869404136200,1.31113623046875,0.4020307958126068,0.22025388479232788,-0.017193622887134552
1775714869414150100,1.321150146484375,0.3558463156223297,0.15719306468963623,0.04927648603916168
1775714869424164000,1.3311640625,0.277147501707077,0.11415345221757889,0.11225545406341553
1775714869434178000,1.341177978515625,0.2093948870897293,0.07634066790342331,0.13239774107933044
1775714869444191200,1.351191162109375,0.16272085905075073,0.026973120868206024,0.12172806262969971
1775714869454205000,1.361204833984375,0.1266821026802063,0.0051488494500517845,0.0893978402018547
1775714869464219100,1.37121923828125,0.08538847416639328,-0.0004786762874573469,0.04152778536081314
1775714869474233000,1.381233154296875,0.05938083305954933,-0.06825525313615799,-0.01303005963563919
1775714869484247300,1.391247314453125,0.07941871881484985,-0.15875186026096344,-0.05634956806898117
1775714869494261000,1.401260986328125,0.13774406909942627,-0.22919565439224243,-0.11775750666856766
1775714869504274200,1.411274169921875,0.2630958557128906,-0.2685619592666626,-0.2020457535982132
1775714869514288000,1.4212880859375,0.41109055280685425,-0.17411178350448608,-0.2962214946746826
1775714869524302300,1.43130224609375,0.5213627815246582,-0.024509236216545105,-0.3889290690422058
1775714869534316000,1.44131591796875,0.5976647734642029,0.06443127244710922,-0.44915542006492615
1775714869544330200,1.451330322265625,0.6159220337867737,0.14485900104045868,-0.43069279193878174
1775714869554344200,1.46134423828125,0.5906152725219727,0.087635338306427,-0.33360302448272705
1775714869564357000,1.471357177734375,0.5218412280082703,-0.026986850425601006,-0.1531996726989746
1775714869574371000,1.48137109375,0.4732772409915924,-0.09208934754133224,0.14495402574539185
1775714869584385300,1.49138525390625,0.29887932538986206,-0.025591278448700905,0.7830365300178528
1775714869594399200,1.501399169921875,-0.3760969340801239,-0.022207502275705338,1.5198991298675537
1775714869604413000,1.511412841796875,-0.8231948614120483,-0.6504551768302917,1.541080117225647
1775714869614427100,1.52142724609375,-0.7603955864906311,-1.313022494316101,0.9219038486480713
1775714869624440300,1.5314404296875,-0.6052334308624268,-1.148354172706604,0.1766914427280426
1775714869634454300,1.541454345703125,-0.4776146709918976,-0.3136903643608093,-0.3295571804046631
1775714869644468000,1.551468017578125,-0.2101840227842331,0.3383265733718872,-0.4927026927471161
1775714869654482200,1.561482177734375,0.06679041683673859,0.4429232180118561,-0.38913649320602417
1775714869664496000,1.57149609375,0.18739059567451477,0.25696268677711487,-0.13709118962287903
1775714869674510300,1.58151025390625,0.20623749494552612,0.06450817734003067,0.15874437987804413
1775714869684523000,1.59152294921875,0.24053767323493958,-0.03007345460355282,0.397013396024704
1775714869694537200,1.601537109375,0.25361692905426025,-0.07291726022958755,0.5079687237739563
1775714869704551200,1.61155126953125,0.191916823387146,-0.08458510041236877,0.5229852199554443
1775714869714565000,1.621565185546875,0.11916705965995789,-0.1290629804134369,0.5054874420166016
1775714869724579000,1.6315791015625,0.049966417253017426,-0.1702895164489746,0.48003479838371277
1775714869734593300,1.64159326171875,-0.03510715067386627,-0.12224747985601425,0.4425249695777893
1775714869744606200,1.651606201171875,-0.12748315930366516,-0.038080405443906784,0.3632003366947174
1775714869754620200,1.6616201171875,-0.19729681313037872,0.03470928966999054,0.26590603590011597
1775714869764634000,1.671634033203125,-0.24436898529529572,0.09451217204332352,0.2059771716594696
1775714869774648000,1.68164794921875,-0.30519354343414307,0.1106809452176094,0.16604329645633698
1775714869784662300,1.691662353515625,-0.38844287395477295,0.08262960612773895,0.1494683176279068
1775714869794676000,1.701676025390625,-0.45907312631607056,0.028573505580425262,0.18364742398262024
1775714869804689200,1.711689208984375,-0.5160650014877319,-0.08558076620101929,0.26350709795951843
1775714869814703000,1.721703125,-0.5750062465667725,-0.236613929271698,0.34747013449668884
1775714869824717000,1.731717041015625,-0.6276273727416992,-0.30798691511154175,0.3783782422542572
1775714869834731000,1.74173095703125,-0.6176449060440063,-0.2955164611339569,0.33708029985427856
1775714869844745200,1.7517451171875,-0.5594736933708191,-0.26184797286987305,0.26720136404037476
1775714869854759200,1.76175927734375,-0.48517003655433655,-0.19892391562461853,0.21228298544883728
1775714869864772000,1.771772216796875,-0.39113569259643555,-0.17756563425064087,0.17121624946594238
1775714869874786000,1.7817861328125,-0.27435463666915894,-0.18560010194778442,0.13823489844799042
1775714869884800300,1.79180029296875,-0.19189146161079407,-0.19702373445034027,0.08966683596372604
1775714869894814200,1.801814208984375,-0.14903564751148224,-0.23902377486228943,0.03141094744205475
1775714869904828200,1.811828125,-0.1569148749113083,-0.2573047876358032,0.010794887319207191
1775714869914841000,1.821841064453125,-0.18906326591968536,-0.2878605127334595,0.02684684842824936
1775714869924855300,1.831855224609375,-0.2320845127105713,-0.34806230664253235,0.0599006749689579
1775714869934869000,1.841868896484375,-0.26427391171455383,-0.35865330696105957,0.07799415290355682
1775714869944883200,1.85188330078125,-0.2788049280643463,-0.29634889960289,0.05828196927905083
1775714869954897200,1.861897216796875,-0.2838439643383026,-0.2729135751724243,0.021752532571554184
1775714869964911000,1.8719111328125,-0.29467371106147766,-0.2980327606201172,-0.004608233459293842
1775714869974924000,1.881924072265625,-0.3098064363002777,-0.3100646138191223,-0.013558952137827873
1775714869984938200,1.891938232421875,-0.3318241238594055,-0.3360232710838318,-0.03135685622692108
1775714869994952200,1.9019521484375,-0.3451329171657562,-0.3031347393989563,-0.04995740205049515
1775714870004966100,1.911966064453125,-0.34380587935447693,-0.27383729815483093,-0.07718635350465775
1775714870014980000,1.92197998046875,-0.36069169640541077,-0.27173808217048645,-0.098161980509758
1775714870024994000,1.931994140625,-0.3926844894886017,-0.282532662153244,-0.08923187106847763
1775714870035007200,1.94200732421875,-0.43388447165489197,-0.2906850576400757,-0.04594242945313454
1775714870045021200,1.952021240234375,-0.46608981490135193,-0.3412688672542572,0.007338367868214846
1775714870055035100,1.96203515625,-0.4895513653755188,-0.33192452788352966,0.059081971645355225
1775714870065049000,1.972049072265625,-0.5100725889205933,-0.30184146761894226,0.09632042050361633
1775714870075063300,1.982063232421875,-0.46868348121643066,-0.2597428262233734,0.12803474068641663
1775714870085077000,1.992076904296875,-0.39042383432388306,-0.18316201865673065,0.15036481618881226
1775714870095090200,2.002090087890625,-0.30267858505249023,-0.10913822799921036,0.13317404687404633
1775714870105104100,2.012104248046875,-0.19690822064876556,-0.049718309193849564,0.05623239651322365
1775714870115118000,2.0221181640625,-0.0805274099111557,0.05368044227361679,-0.07028128951787949
1775714870125132000,2.032132080078125,0.037160612642765045,0.22048673033714294,-0.20860187709331512
1775714870135146200,2.042146240234375,0.1558496505022049,0.41445738077163696,-0.2898634672164917
1775714870145160200,2.05216015625,0.2273680418729782,0.6008962392807007,-0.27316412329673767
1775714870155173000,2.062173095703125,0.24235394597053528,0.6697583794593811,-0.1352110505104065
1775714870165187000,2.07218701171875,0.20906603336334229,0.6320227384567261,0.10987859964370728
1775714870175201300,2.082201171875,0.12895764410495758,0.543806254863739,0.35268673300743103
1775714870185215200,2.09221533203125,0.005171520635485649,0.3919234573841095,0.4960574805736542
1775714870195229000,2.10222900390625,-0.1523401290178299,0.26073896884918213,0.5486663579940796
1775714870205243100,2.1122431640625,-0.28612270951271057,0.2224392294883728,0.5098414421081543
1775714870215256300,2.12225634765625,-0.3550984263420105,0.261038213968277,0.4126627445220947
1775714870225270300,2.132270263671875,-0.35150793194770813,0.3110518455505371,0.31207436323165894
1775714870235284200,2.1422841796875,-0.3397552967071533,0.2908824682235718,0.26041939854621887
1775714870245298200,2.152298095703125,-0.3190707862377167,0.24207867681980133,0.2387268841266632
1775714870255312100,2.16231201171875,-0.2652233839035034,0.2229480892419815,0.1959485411643982
1775714870265326300,2.172326416015625,-0.2253798395395279,0.2482702136039734,0.11707396060228348
1775714870275339300,2.18233935546875,-0.2181776762008667,0.2111680656671524,0.05183716118335724
1775714870285353200,2.192353271484375,-0.24414056539535522,0.09142488986253738,0.05397514998912811
1775714870295367200,2.2023671875,-0.2936100363731384,-0.04683142155408859,0.10036472976207733
1775714870305381400,2.21238134765625,-0.3269573152065277,-0.14735430479049683,0.11317293345928192
1775714870315395300,2.222395263671875,-0.2772773206233978,-0.1580161303281784,0.0635366290807724
1775714870325408300,2.232408203125,-0.1473557949066162,-0.09179583191871643,-0.02691071480512619
1775714870335422200,2.242422119140625,0.02857450395822525,-0.03143799304962158,-0.13146613538265228
1775714870345436400,2.2524365234375,0.20541879534721375,0.010125963017344475,-0.259274423122406
1775714870355450000,2.2624501953125,0.32211384177207947,0.11063252389431,-0.40654850006103516
1775714870365464300,2.27246435546875,0.36511752009391785,0.2693321406841278,-0.513771653175354
1775714870375478300,2.282478271484375,0.32368266582489014,0.3672540783882141,-0.5322523713111877
1775714870385491500,2.292491455078125,0.21446722745895386,0.3090325891971588,-0.45904049277305603
1775714870395505200,2.302505126953125,0.06952185183763504,0.1362462192773819,-0.2803029417991638
1775714870405519400,2.312519287109375,-0.044674500823020935,-0.035686396062374115,-0.042381204664707184
1775714870415533300,2.322533203125,-0.07820309698581696,-0.13494279980659485,0.17358915507793427
1775714870425547300,2.33254736328125,-0.0178832970559597,-0.18821826577186584,0.2710837423801422
1775714870435561200,2.342561279296875,0.09582895785570145,-0.18371634185314178,0.2572430372238159
1775714870445574400,2.352574462890625,0.23129570484161377,-0.15268759429454803,0.17032146453857422
1775714870455588400,2.36258837890625,0.35085591673851013,-0.07195573300123215,0.06513405591249466
1775714870465602000,2.37260205078125,0.4271214008331299,-0.028248462826013565,-0.021917488425970078
1775714870475616300,2.3826162109375,0.4635937809944153,-0.033369142562150955,-0.08142264932394028
1775714870485630200,2.392630126953125,0.4405877888202667,-0.06241996958851814,-0.13083040714263916
1775714870495644400,2.40264453125,0.33507394790649414,-0.09549309313297272,-0.15579409897327423
1775714870505657000,2.412656982421875,0.21897611021995544,-0.12773944437503815,-0.17190836369991302
1775714870515671300,2.42267138671875,0.12454815208911896,-0.12106826156377792,-0.18915309011936188
1775714870525685200,2.432685302734375,0.05962134525179863,-0.12177985906600952,-0.22881022095680237
1775714870535699500,2.442699462890625,0.03418762609362602,-0.1504993885755539,-0.2809389531612396
1775714870545713200,2.452713134765625,0.041119568049907684,-0.14584603905677795,-0.32897889614105225
1775714870555727400,2.462727294921875,0.043765582144260406,-0.11466125398874283,-0.343630313873291
1775714870565740300,2.472740234375,0.03193502128124237,-0.10917380452156067,-0.3239538073539734
1775714870575754200,2.482754150390625,0.006146430037915707,-0.13188552856445312,-0.3058381676673889
1775714870585768200,2.492768310546875,-0.032223328948020935,-0.19591565430164337,-0.31762397289276123
1775714870595782400,2.502782470703125,-0.05909295752644539,-0.27138257026672363,-0.3750172555446625
1775714870605796400,2.51279638671875,-0.031205665320158005,-0.30938348174095154,-0.4565161168575287
1775714870615810000,2.52281005859375,0.003874942660331726,-0.2817280888557434,-0.5253521800041199
1775714870625823200,2.5328232421875,0.021627839654684067,-0.28497767448425293,-0.5833358764648438
1775714870635837400,2.54283740234375,0.041657455265522,-0.31827491521835327,-0.6191089749336243
1775714870645851400,2.552851318359375,0.054547153413295746,-0.3352392613887787,-0.6228693723678589
1775714870655865000,2.562864990234375,0.07809104025363922,-0.32555264234542847,-0.6024821400642395
1775714870665879300,2.57287939453125,0.10000433027744293,-0.3013940453529358,-0.5592374801635742
1775714870675893200,2.582893310546875,0.11497417837381363,-0.29451021552085876,-0.5082871913909912
1775714870685906200,2.59290625,0.10696551948785782,-0.2773972749710083,-0.46006134152412415
1775714870695920000,2.602920166015625,0.07082059234380722,-0.20946571230888367,-0.4235003590583801
1775714870705934300,2.612934326171875,0.03056904301047325,-0.15245090425014496,-0.3897794187068939
1775714870715948300,2.6229482421875,0.008339202962815762,-0.12619420886039734,-0.3428126871585846
1775714870725962200,2.632962158203125,0.004080542363226414,-0.0879962220788002,-0.26625561714172363
1775714870735976200,2.64297607421875,-0.003590643871575594,-0.029507717117667198,-0.15827694535255432
1775714870745989400,2.6529892578125,-0.01302515808492899,0.015397973358631134,-0.0367041639983654
1775714870756003300,2.66300341796875,-0.024046892300248146,0.05410457029938698,0.07496137917041779
1775714870766017300,2.673017333984375,-0.042758796364068985,0.09831970185041428,0.17770133912563324
1775714870776031200,2.68303125,-0.06216077506542206,0.1277373880147934,0.26008671522140503
1775714870786045400,2.69304541015625,-0.07946093380451202,0.12850677967071533,0.31154459714889526
1775714870796059400,2.703059326171875,-0.08473074436187744,0.10720880329608917,0.3244803845882416
1775714870806072300,2.713072265625,-0.08852893859148026,0.12345940619707108,0.2888760566711426
1775714870816086300,2.723086181640625,-0.08873248100280762,0.15390722453594208,0.21499598026275635
1775714870826100200,2.733100341796875,-0.0795818641781807,0.20622289180755615,0.13380472362041473
1775714870836114200,2.7431142578125,-0.0635058656334877,0.23591455817222595,0.06889547407627106
1775714870846128000,2.753128173828125,-0.0383262075483799,0.2266709953546524,0.02949400432407856
1775714870856142300,2.763142333984375,-0.013094715774059296,0.19571645557880402,0.01058238372206688
1775714870866155300,2.7731552734375,0.013194679282605648,0.18098890781402588,0.013306531123816967
1775714870876169200,2.783169189453125,0.037457868456840515,0.16164705157279968,0.0292774997651577
1775714870886183200,2.79318310546875,0.06232859939336777,0.13278557360172272,0.05934565141797066
1775714870896197400,2.803197265625,0.07624143362045288,0.09741753339767456,0.0841093510389328
1775714870906211300,2.81321142578125,0.08091235160827637,0.052496667951345444,0.092444509267807
1775714870916224300,2.823224365234375,0.09327053278684616,0.022421253845095634,0.07450223714113235
1775714870926238200,2.83323828125,0.10216496139764786,0.025190675631165504,0.04949302226305008
1775714870936252400,2.84325244140625,0.10752643644809723,0.059483665972948074,0.020231006667017937
1775714870946266000,2.85326611328125,0.10718235373497009,0.07907601445913315,-0.004378730431199074
1775714870956280300,2.8632802734375,0.09010640531778336,0.06354370713233948,-0.020899387076497078
1775714870966294300,2.873294189453125,0.06318716704845428,0.057336945086717606,-0.025816380977630615
1775714870976307200,2.88330712890625,0.035832539200782776,0.06849180907011032,-0.014654803089797497
1775714870986321200,2.893321044921875,0.010177509859204292,0.08841758221387863,0.002949489513412118
1775714870996335400,2.90333544921875,-0.0041892034932971,0.09113006293773651,0.015198962762951851
1775714871006349300,2.913349365234375,-0.017730312421917915,0.08094320446252823,0.02992837317287922
1775714871016363300,2.92336328125,-0.0172727108001709,0.06544987857341766,0.053315967321395874
1775714871026377200,2.933377197265625,-0.009244612418115139,0.03131347894668579,0.08453300595283508
1775714871036390400,2.943390380859375,-0.001355714863166213,-0.0028417857829481363,0.11464357376098633
1775714871046404400,2.953404296875,-0.0051512522622942924,-0.035766176879405975,0.13802292943000793
1775714871056418300,2.963418212890625,-0.0033443544525653124,-0.056293386965990067,0.1422801911830902
1775714871066432300,2.973432373046875,0.01325379777699709,-0.042388755828142166,0.13562949001789093
1775714871076446200,2.9834462890625,0.03471124917268753,-0.03736836835741997,0.11841322481632233
1775714871086460400,2.99346044921875,0.06484092772006989,-0.046149611473083496,0.09533027559518814
1775714871096473300,3.003473388671875,0.09282169491052628,-0.050715334713459015,0.07194346189498901
1775714871106487300,3.0134873046875,0.1226714625954628,-0.05945662781596184,0.036488793790340424
1775714871116501200,3.023501220703125,0.14050127565860748,-0.06581459194421768,0.003113820217549801
1775714871126515200,3.03351513671875,0.15592098236083984,-0.0742722600698471,-0.02627602592110634
1775714871136529200,3.043529052734375,0.16622737050056458,-0.0984339490532875,-0.05856606364250183
1775714871146543400,3.05354345703125,0.17749173939228058,-0.1173543781042099,-0.09105875343084335
1775714871156556300,3.063556396484375,0.19008922576904297,-0.09932167083024979,-0.11321898549795151
1775714871166570200,3.0735703125,0.1910085529088974,-0.06634507328271866,-0.12432596832513809
1775714871176584200,3.083584228515625,0.18856912851333618,-0.06260770559310913,-0.128475621342659
1775714871186598400,3.093598388671875,0.17393824458122253,-0.08839695900678635,-0.11556780338287354
1775714871196612400,3.1036123046875,0.1505984216928482,-0.13043168187141418,-0.08761850744485855
1775714871206626300,3.113626220703125,0.12628908455371857,-0.14961709082126617,-0.0604686439037323
1775714871216639200,3.12363916015625,0.11486725509166718,-0.14949683845043182,-0.053243789821863174
1775714871226654000,3.133654052734375,0.1051856055855751,-0.12489829212427139,-0.04690573364496231
1775714871236668200,3.143668212890625,0.1014178916811943,-0.11500680446624756,-0.033340610563755035
1775714871246681900,3.153681884765625,0.09292427450418472,-0.10612383484840393,-0.012264888733625412
1775714871256696000,3.163696044921875,0.07323375344276428,-0.11034674942493439,0.01199598703533411
1775714871266710000,3.1737099609375,0.05559191480278969,-0.10275247693061829,0.04090992733836174
1775714871276723000,3.183722900390625,0.03474926948547363,-0.07927019149065018,0.06026661396026611
1775714871286737000,3.19373681640625,0.02184332348406315,-0.05876092612743378,0.06999114900827408
1775714871296751000,3.203751220703125,0.01925348863005638,-0.05190954729914665,0.07352697849273682
1775714871306765000,3.21376513671875,0.01647740975022316,-0.059620197862386703,0.07328969240188599
1775714871316779000,3.223779052734375,0.02020755596458912,-0.057983145117759705,0.05709076300263405
1775714871326793000,3.23379296875,0.009967436082661152,-0.030593598261475563,0.032759856432676315
1775714871336806100,3.24380615234375,-0.008274152874946594,0.0022570258006453514,0.005428898148238659
1775714871346820000,3.253820068359375,-0.016961384564638138,0.029793312773108482,-0.0024460693821310997
1775714871356834000,3.263833984375,-0.019344843924045563,0.02561762183904648,0.005802517291158438
1775714871366848000,3.273847900390625,-0.02220640890300274,0.011045072227716446,0.02931343764066696
1775714871376862000,3.283862060546875,-0.025931663811206818,-0.0035439387429505587,0.05353301763534546
1775714871386876200,3.293876220703125,-0.0314934104681015,-0.014458638615906239,0.06869678944349289
1775714871396889000,3.30388916015625,-0.036623768508434296,-0.007841148413717747,0.07234827429056168
1775714871406903000,3.313903076171875,-0.03961209952831268,0.013659082353115082,0.07382739335298538
1775714871416917000,3.3239169921875,-0.03568870201706886,0.02305755950510502,0.08305368572473526
1775714871426931000,3.333930908203125,-0.03509695082902908,0.005446074530482292,0.09940575808286667
1775714871436945000,3.34394482421875,-0.03467985615134239,-0.01742681860923767,0.11218304932117462
1775714871446958000,3.3539580078125,-0.033920321613550186,-0.03907538950443268,0.1156558096408844
1775714871456972000,3.363971923828125,-0.030260369181632996,-0.03492232784628868,0.11778254806995392
1775714871466986000,3.373986083984375,-0.018523018807172775,-0.02571471780538559,0.12244787067174911
1775714871477000000,3.384,-0.0005922191776335239,-0.00435673538595438,0.14678120613098145
1775714871487014100,3.39401416015625,0.03357081115245819,0.015374092385172844,0.1776600331068039
1775714871497028000,3.404028076171875,0.066898874938488,0.019808072596788406,0.20720890164375305
1775714871507041000,3.414041015625,0.10484332591295242,0.011966926977038383,0.23352201282978058
1775714871517055000,3.424054931640625,0.136880561709404,0.011382538825273514,0.24997788667678833
1775714871527069200,3.434069091796875,0.14691323041915894,0.013219321146607399,0.26986825466156006
1775714871537083000,3.444082763671875,0.15102437138557434,0.007853496819734573,0.27959147095680237
1775714871547097000,3.45409716796875,0.14682963490486145,0.01950029842555523,0.2795587182044983
1775714871557111000,3.464111083984375,0.1304965317249298,0.05469118803739548,0.2670988440513611
1775714871567124200,3.474124267578125,0.10932733118534088,0.09322579950094223,0.2291375994682312
1775714871577138000,3.484137939453125,0.09161721169948578,0.11667963117361069,0.19059714674949646
1775714871587152100,3.494152099609375,0.08602537214756012,0.12766943871974945,0.16917015612125397
1775714871597166000,3.504166015625,0.08120399713516235,0.15729360282421112,0.17032918334007263
1775714871607180000,3.514179931640625,0.06908980756998062,0.1660785675048828,0.1908227503299713
1775714871617194000,3.524194091796875,0.06372594833374023,0.159088596701622,0.22191695868968964
1775714871627207200,3.534207275390625,0.06796170771121979,0.14159749448299408,0.2519441246986389
1775714871637221000,3.54422119140625,0.07590648531913757,0.1332765817642212,0.2685055732727051
1775714871647234800,3.55423486328125,0.09036451578140259,0.12622319161891937,0.26440802216529846
1775714871657249000,3.5642490234375,0.11778441816568375,0.10682879388332367,0.2417260855436325
1775714871667263000,3.574262939453125,0.168958380818367,0.10495632886886597,0.1994667798280716
1775714871677277200,3.584277099609375,0.24677114188671112,0.152644544839859,0.1406244933605194
1775714871687289900,3.594289794921875,0.3220653533935547,0.2523927092552185,0.03780650720000267
1775714871697304000,3.604303955078125,0.3747873306274414,0.31305885314941406,-0.09533099085092545
1775714871707318000,3.614318115234375,0.4098750054836273,0.3675748407840729,-0.20264172554016113
1775714871717332200,3.624332275390625,0.4484438896179199,0.40352049469947815,-0.26576557755470276
1775714871727346000,3.634345947265625,0.48841527104377747,0.4319566786289215,-0.2948260009288788
1775714871737360100,3.644360107421875,0.5276697278022766,0.4787205159664154,-0.31152984499931335
1775714871747373000,3.654373046875,0.5604516267776489,0.5169704556465149,-0.3349193334579468
1775714871757387000,3.664386962890625,0.5650603771209717,0.5487595796585083,-0.3525679111480713
1775714871767401000,3.67440087890625,0.5369701385498047,0.5722014904022217,-0.329163521528244
1775714871777415000,3.684414794921875,0.48511621356010437,0.5508062839508057,-0.2586855888366699
1775714871787429000,3.69442919921875,0.42851176857948303,0.5117976069450378,-0.15915128588676453
1775714871797442800,3.70444287109375,0.3883608281612396,0.4836025536060333,-0.07315725088119507
1775714871807456000,3.7144560546875,0.37131741642951965,0.4349324703216553,-0.03321782872080803
1775714871817470000,3.724469970703125,0.3530958592891693,0.3438788950443268,-0.03323084115982056
1775714871827484200,3.734484130859375,0.33916378021240234,0.26974979043006897,-0.004799467045813799
1775714871837497900,3.744497802734375,0.36261630058288574,0.19663608074188232,0.09538142383098602
1775714871847512000,3.754511962890625,0.41054362058639526,0.15389394760131836,0.24097031354904175
1775714871857526000,3.764526123046875,0.4372602701187134,0.12348707765340805,0.4002454876899719
1775714871867539000,3.7745390625,0.4179781675338745,0.09563706815242767,0.5357517004013062
1775714871877553000,3.784552978515625,0.31926998496055603,0.07916682958602905,0.5874091982841492
1775714871887567000,3.794567138671875,0.15352573990821838,0.06810246407985687,0.5208224654197693
1775714871897581000,3.8045810546875,-0.039268627762794495,0.02341652661561966,0.33311834931373596
1775714871907595000,3.814594970703125,-0.23468686640262604,-0.0024819141253829002,0.07593021541833878
1775714871917608000,3.82460791015625,-0.38566264510154724,-0.012538054026663303,-0.14666423201560974
1775714871927622100,3.8346220703125,-0.4486658275127411,0.002746093785390258,-0.28013068437576294
1775714871937635800,3.8446357421875,-0.44621172547340393,0.021349605172872543,-0.3660368025302887
1775714871947650000,3.854650146484375,-0.3763650059700012,0.07103700190782547,-0.4622088670730591
1775714871957664000,3.8646640625,-0.2523992955684662,0.1418534368276596,-0.5834002494812012
1775714871967678000,3.874677978515625,-0.12956471741199493,0.24806135892868042,-0.6996805667877197
1775714871977691000,3.88469091796875,-0.014070596545934677,0.30205801129341125,-0.7999352216720581
1775714871987705000,3.894705078125,0.05801025405526161,0.31820449233055115,-0.8695374727249146
1775714871997719000,3.904718994140625,0.07997424900531769,0.31273436546325684,-0.8862043619155884
1775714872007733000,3.91473291015625,0.0744902640581131,0.3067238926887512,-0.8475022315979004
1775714872017747000,3.924746826171875,0.051595717668533325,0.31620270013809204,-0.7578943371772766
1775714872027761000,3.934760986328125,0.022293221205472946,0.2986322343349457,-0.5980854630470276
1775714872037774000,3.944774169921875,-0.030214538797736168,0.28054583072662354,-0.38862738013267517
1775714872047788000,3.9547880859375,-0.07594633847475052,0.20332613587379456,-0.17443174123764038
1775714872057802000,3.964802001953125,-0.09237407147884369,0.10347199440002441,0.03244371339678764
1775714872067816000,3.97481591796875,-0.061180733144283295,0.07251274585723877,0.22593168914318085
1775714872077830100,3.984830078125,-0.007567259017378092,0.09767262637615204,0.37477999925613403
1775714872087843800,3.99484375,0.03717517852783203,0.19904878735542297,0.4820321500301361
1775714872097857000,4.00485693359375,0.05968797206878662,0.26245057582855225,0.5229695439338684
1775714872107871000,4.01487109375,0.053389329463243484,0.24018627405166626,0.5062233209609985
1775714872117885200,4.02488525390625,0.016113553196191788,0.18867415189743042,0.45349615812301636
1775714872127899000,4.03489892578125,0.001579883275553584,0.1900627166032791,0.3796698749065399
1775714872137913000,4.0449130859375,0.025894060730934143,0.224991574883461,0.26979053020477295
1775714872147927000,4.054927001953125,0.08787567168474197,0.23554648458957672,0.13889403641223907
1775714872157940000,4.06493994140625,0.18934574723243713,0.2470989227294922,-0.0005048590246587992
1775714872167954000,4.074953857421875,0.26896175742149353,0.2303668111562729,-0.11134402453899384
1775714872177968000,4.084968017578125,0.298700213432312,0.19502581655979156,-0.18260468542575836
1775714872187982000,4.094982177734375,0.26693829894065857,0.1397460550069809,-0.20503728091716766
1775714872197995800,4.104995849609375,0.17084378004074097,0.06317740678787231,-0.18319855630397797
1775714872208010000,4.115010009765625,0.055863939225673676,-0.08523629605770111,-0.15402761101722717
1775714872218023200,4.125023193359375,-0.05552148073911667,-0.2385839968919754,-0.11386177688837051
1775714872228036900,4.135036865234375,-0.14714381098747253,-0.35633140802383423,-0.07166025787591934
1775714872238050800,4.14505078125,-0.17218974232673645,-0.4180091619491577,-0.058154355734586716
1775714872248065000,4.15506494140625,-0.14046509563922882,-0.4282549023628235,-0.09874226152896881
1775714872258078700,4.16507861328125,-0.10690175741910934,-0.38048797845840454,-0.19182854890823364
1775714872268093000,4.175093017578125,-0.06261845678091049,-0.3475859761238098,-0.30621957778930664
1775714872278105900,4.18510595703125,-0.009650408290326595,-0.33368486166000366,-0.4088365137577057
1775714872288120000,4.1951201171875,0.008521138690412045,-0.33587023615837097,-0.47679585218429565
1775714872298133800,4.2051337890625,0.017170250415802002,-0.34746378660202026,-0.4913467466831207
1775714872308148000,4.21514794921875,0.011309698224067688,-0.3433856964111328,-0.43560171127319336
1775714872318162000,4.225161865234375,0.0004732375964522362,-0.35232865810394287,-0.35325711965560913
1775714872328174800,4.2351748046875,0.008445676416158676,-0.34316179156303406,-0.2856663465499878
1775714872338188800,4.245188720703125,0.0050249239429831505,-0.34146156907081604,-0.2833150029182434
1775714872348203000,4.255203125,-0.022580605000257492,-0.32097411155700684,-0.3322058618068695
1775714872358217000,4.265217041015625,-0.06984997540712357,-0.26288899779319763,-0.38535431027412415
1775714872368231000,4.27523095703125,-0.09484400600194931,-0.24547111988067627,-0.416524738073349
1775714872378244900,4.285244873046875,-0.09334368258714676,-0.2789390981197357,-0.42016348242759705
1775714872388258000,4.295258056640625,-0.07015926390886307,-0.28925299644470215,-0.41249996423721313
1775714872398272000,4.30527197265625,-0.00640555564314127,-0.24426832795143127,-0.3727511465549469
1775714872408286000,4.315285888671875,0.08891590684652328,-0.1847679764032364,-0.3200589120388031
1775714872418300000,4.3252998046875,0.2343514859676361,-0.13188417255878448,-0.27390554547309875
1775714872428313900,4.33531396484375,0.39510679244995117,-0.05839929357171059,-0.21352022886276245
1775714872438328000,4.345328125,0.5316076874732971,-0.005645268596708775,-0.14261090755462646
1775714872448341000,4.355341064453125,0.6338677406311035,0.009280150756239891,-0.029369568452239037
1775714872458355000,4.36535498046875,0.7036141157150269,-0.034808333963155746,0.06863261014223099
1775714872468369000,4.375368896484375,0.7304116487503052,-0.06310281902551651,0.11816101521253586
1775714872478382800,4.3853828125,0.7117857336997986,-0.01414558943361044,0.1250303089618683
1775714872488396800,4.395396728515625,0.6652935743331909,0.01928027719259262,0.08488181978464127
1775714872498411000,4.405410888671875,0.5797774791717529,0.04240241274237633,0.04837688058614731
1775714872508424000,4.415423828125,0.4585764706134796,0.03186801075935364,0.02462174743413925
1775714872518438000,4.42543798828125,0.3087051510810852,0.003495380049571395,0.04428225755691528
1775714872528451800,4.435451904296875,0.16110637784004211,-0.03900441154837608,0.11963827162981033
1775714872538466000,4.445466064453125,0.04492471367120743,-0.07444191724061966,0.21919842064380646
1775714872548480000,4.45547998046875,-0.04614154249429703,-0.06186593696475029,0.31398165225982666
1775714872558494000,4.465493896484375,-0.11196660995483398,-0.05955379456281662,0.37402284145355225
1775714872568507000,4.4755068359375,-0.1809488832950592,-0.027325285598635674,0.4119662344455719
1775714872578521000,4.48552099609375,-0.24718523025512695,0.013776993378996849,0.44453859329223633
1775714872588534800,4.49553466796875,-0.29426059126853943,0.037051957100629807,0.4578773081302643
1775714872598549000,4.505549072265625,-0.3316003382205963,0.020273679867386818,0.4577476382255554
1775714872608563000,4.51556298828125,-0.36152443289756775,-0.004281730391085148,0.4753953516483307
1775714872618577000,4.525576904296875,-0.3609244227409363,0.008895857259631157,0.5186794400215149
1775714872628589800,4.53558984375,-0.3611273467540741,-0.0023072625044733286,0.5557562112808228
1775714872638604000,4.54560400390625,-0.3560965061187744,-0.04484745115041733,0.5658508539199829
1775714872648618000,4.555617919921875,-0.31981173157691956,-0.03702334687113762,0.5334897637367249
1775714872658632000,4.5656318359375,-0.2269527018070221,0.021565018221735954,0.46963539719581604
1775714872668646000,4.57564599609375,-0.11349538713693619,0.030172089114785194,0.36937350034713745
1775714872678659000,4.5856591796875,-0.041626330465078354,0.007605643942952156,0.280821830034256
1775714872688673000,4.595673095703125,0.011607864871621132,-0.002349784830585122,0.23307719826698303
1775714872698686700,4.605686767578125,0.07379242777824402,0.0141777778044343,0.21114790439605713
1775714872708701000,4.615700927734375,0.14744055271148682,0.04032096639275551,0.18379616737365723
1775714872718715000,4.62571484375,0.19331716001033783,0.10544035583734512,0.12992984056472778
1775714872728729000,4.63572900390625,0.19429081678390503,0.09955424070358276,0.04998120293021202
1775714872738741800,4.64574169921875,0.17089350521564484,0.009441900998353958,-0.026324262842535973
1775714872748756000,4.655755859375,0.15894657373428345,-0.05028161406517029,-0.09611666202545166
1775714872758770000,4.66577001953125,0.11071357131004333,-0.08935483545064926,-0.1918708235025406
1775714872768784100,4.6757841796875,0.022912340238690376,-0.09932145476341248,-0.30053073167800903
1775714872778797800,4.6857978515625,-0.06492496281862259,-0.12197267264127731,-0.38753461837768555
1775714872788812000,4.69581201171875,-0.142537459731102,-0.17677228152751923,-0.4326384663581848
1775714872798825000,4.705824951171875,-0.21523484587669373,-0.2546476721763611,-0.44154053926467896
1775714872808839000,4.7158388671875,-0.27239295840263367,-0.30283355712890625,-0.43088844418525696
1775714872818852900,4.725852783203125,-0.3062824606895447,-0.28390032052993774,-0.4108594059944153
1775714872828867000,4.7358671875,-0.28572046756744385,-0.22239436209201813,-0.3946964144706726
1775714872838881000,4.745881103515625,-0.23766204714775085,-0.1654725968837738,-0.38644036650657654
1775714872848894700,4.755894775390625,-0.20256318151950836,-0.17207804322242737,-0.36241012811660767
1775714872858908000,4.765907958984375,-0.20741823315620422,-0.19146910309791565,-0.32787665724754333
1775714872868922000,4.775922119140625,-0.20761023461818695,-0.165178120136261,-0.3028455972671509
1775714872878935800,4.785935791015625,-0.20742987096309662,-0.12836219370365143,-0.2816886603832245
1775714872888949800,4.79594970703125,-0.21637596189975739,-0.1341220736503601,-0.26309099793434143
1775714872898964000,4.8059638671875,-0.23385001718997955,-0.1490350365638733,-0.2355693280696869
1775714872908978000,4.81597802734375,-0.23282258212566376,-0.14854075014591217,-0.1912948042154312
1775714872918990800,4.825990966796875,-0.2270338237285614,-0.12657062709331512,-0.13548776507377625
1775714872929004800,4.8360048828125,-0.18869122862815857,-0.09727533161640167,-0.09051389247179031
1775714872939019000,4.84601904296875,-0.14210866391658783,-0.051162239164114,-0.07005837559700012
1775714872949033000,4.856032958984375,-0.1094127744436264,0.0016072310972958803,-0.07504354417324066
1775714872959047000,4.866046875,-0.091963991522789,0.05415035039186478,-0.07920346409082413
1775714872969060900,4.876060791015625,-0.0749482586979866,0.07927381247282028,-0.06368149816989899
1775714872979074000,4.886073974609375,-0.06807080656290054,0.08243873715400696,-0.05174250155687332
1775714872989087700,4.896087646484375,-0.09935096651315689,0.045959025621414185,-0.06033998355269432
1775714872999102000,4.90610205078125,-0.15515948832035065,-0.0035123946145176888,-0.05159257724881172
1775714873009116000,4.916115966796875,-0.1917470544576645,-0.041553251445293427,-0.009805184789001942
1775714873019130000,4.926130126953125,-0.1926444172859192,-0.06778296083211899,0.03086390346288681
1775714873029142800,4.936142822265625,-0.16810844838619232,-0.10937594622373581,0.023178286850452423
1775714873039157000,4.946156982421875,-0.1102200597524643,-0.14243276417255402,-0.04616326466202736
1775714873049171000,4.9561708984375,-0.013410696759819984,-0.13624677062034607,-0.17678065598011017
1775714873059185200,4.96618505859375,0.12081948667764664,-0.11342614144086838,-0.3693699836730957
1775714873069198800,4.97619873046875,0.2417890578508377,-0.06538856774568558,-0.6005347371101379
1775714873079212800,4.986212890625,0.3555102050304413,0.019657040014863014,-0.7956771850585938
1775714873089226000,4.99622607421875,0.4369558095932007,0.09277518838644028,-0.9030587673187256
1775714873099240000,5.006239990234375,0.46413251757621765,0.08018466830253601,-0.9129087328910828
1775714873109254000,5.01625390625,0.45771855115890503,0.037541866302490234,-0.8380685448646545
1775714873119267800,5.026267822265625,0.44101834297180176,0.016352510079741478,-0.7357922196388245
1775714873129282000,5.036281982421875,0.41522669792175293,0.020799988880753517,-0.6548118591308594
1775714873139295700,5.046295654296875,0.37963443994522095,0.014469483867287636,-0.603195309638977
1775714873149309000,5.056308837890625,0.339851051568985,-0.01590120606124401,-0.5699744820594788
1775714873159323000,5.066322998046875,0.3004257380962372,-0.020763561129570007,-0.5473980903625488
1775714873169337000,5.076337158203125,0.2560260593891144,0.012594396248459816,-0.5192607045173645
1775714873179350800,5.086350830078125,0.20708784461021423,0.024457912892103195,-0.4964510500431061
1775714873189365000,5.096364990234375,0.15491466224193573,0.052846409380435944,-0.4643634259700775
1775714873199379000,5.10637890625,0.09498380869626999,0.08604724705219269,-0.4126892685890198
1775714873209391900,5.116391845703125,0.016455717384815216,0.07351814210414886,-0.34700533747673035
1775714873219405800,5.12640576171875,-0.058829136192798615,0.06527022272348404,-0.25510552525520325
1775714873229419500,5.13641943359375,-0.0975368469953537,0.02363543212413788,-0.16249728202819824
1775714873239433500,5.14643359375,-0.10081418603658676,-0.007014784961938858,-0.08611515909433365
1775714873249447400,5.156447509765625,-0.0731000006198883,-0.014029817655682564,-0.05731520429253578
1775714873259461400,5.16646142578125,-0.028828026726841927,0.024508070200681686,-0.06933010369539261
1775714873269474600,5.176474609375,0.021108906716108322,0.07181432843208313,-0.08839487284421921
1775714873279488300,5.18648828125,0.06771008670330048,0.10203665494918823,-0.08106501400470734
1775714873289502500,5.19650244140625,0.12694332003593445,0.12986482679843903,-0.07011009752750397
1775714873299516400,5.206516357421875,0.17175287008285522,0.18374407291412354,-0.0864289179444313
1775714873309530600,5.216530517578125,0.19870325922966003,0.23064793646335602,-0.13533467054367065
1775714873319544300,5.22654443359375,0.20742225646972656,0.24923819303512573,-0.18440577387809753
1775714873329557500,5.2365576171875,0.2037114053964615,0.23752933740615845,-0.20371928811073303
1775714873339571500,5.246571533203125,0.18490220606327057,0.20092037320137024,-0.19787229597568512
1775714873349585400,5.25658544921875,0.15639227628707886,0.17919936776161194,-0.17527244985103607
1775714873359599400,5.266599365234375,0.1336037963628769,0.17915211617946625,-0.14877267181873322
1775714873369613300,5.27661328125,0.09893769025802612,0.1823953092098236,-0.12245584279298782
1775714873379626500,5.28662646484375,0.04386930167675018,0.16663141548633575,-0.0934273898601532
1775714873389640400,5.296640380859375,-0.017301375046372414,0.1166239082813263,-0.06222259998321533
1775714873399654400,5.306654296875,-0.06212000176310539,0.03500846400856972,-0.03266977146267891
1775714873409668400,5.31666845703125,-0.06078123301267624,-0.029705820605158806,-0.024151120334863663
1775714873419682600,5.3266826171875,-0.010023944079875946,-0.03496793285012245,-0.047295015305280685
1775714873429696300,5.3366962890625,0.039271432906389236,0.015186311677098274,-0.11200183629989624
1775714873439709400,5.34670947265625,0.08301237225532532,0.044394608587026596,-0.20624582469463348
1775714873449723400,5.356723388671875,0.11822868138551712,0.05363790690898895,-0.32129332423210144
1775714873459737600,5.366737548828125,0.14935065805912018,0.09031093120574951,-0.4570585787296295
1775714873469751300,5.376751220703125,0.2055409550666809,0.14270277321338654,-0.5955091118812561
1775714873479765500,5.386765625,0.2673589587211609,0.14856059849262238,-0.7074689269065857
1775714873489779500,5.396779541015625,0.3176588714122772,0.13199546933174133,-0.7733789682388306
1775714873499792400,5.40679248046875,0.32585176825523376,0.09864135086536407,-0.7869020104408264
1775714873509806300,5.416806396484375,0.26792454719543457,0.04716457054018974,-0.7611441612243652
1775714873519820500,5.426820556640625,0.1883045732975006,0.0213561300188303,-0.6854747533798218
1775714873529834500,5.43683447265625,0.09507636725902557,0.024207575246691704,-0.5875458121299744
1775714873539848400,5.446848388671875,-0.0007446462986990809,0.03407471254467964,-0.48859092593193054
1775714873549862400,5.4568623046875,-0.08582491427659988,0.049265116453170776,-0.3826533257961273
1775714873559875600,5.46687548828125,-0.1745508462190628,0.06311209499835968,-0.2676282525062561
1775714873569889500,5.4768896484375,-0.23955382406711578,0.048352859914302826,-0.1543876975774765
1775714873579903500,5.486903564453125,-0.2592848837375641,0.05995941162109375,-0.045512855052948
1775714873589917400,5.49691748046875,-0.22976109385490417,0.11678221821784973,0.0476226806640625
1775714873599931400,5.506931396484375,-0.17725598812103271,0.15752144157886505,0.12121834605932236
1775714873609945600,5.516945556640625,-0.12385375052690506,0.15158233046531677,0.18446363508701324
1775714873619958500,5.52695849609375,-0.082124263048172,0.13688966631889343,0.2380131334066391
1775714873629972500,5.536972412109375,-0.045703403651714325,0.15509556233882904,0.2777315080165863
1775714873639986400,5.546986328125,-0.02296632155776024,0.19127917289733887,0.3011684715747833
1775714873650000400,5.55700048828125,-0.01858755201101303,0.20262344181537628,0.3164976239204407
1775714873660014300,5.567014404296875,-0.03484269976615906,0.1657792627811432,0.3251195251941681
1775714873670027500,5.577027587890625,-0.05694427341222763,0.10878334194421768,0.33891814947128296
1775714873680041200,5.587041259765625,-0.07510766386985779,0.06780735403299332,0.34186944365501404
1775714873690055400,5.597055419921875,-0.08064384013414383,0.04961476847529411,0.31759873032569885
1775714873700069400,5.6070693359375,-0.07885710150003433,0.0615515410900116,0.2760891020298004
1775714873710083600,5.61708349609375,-0.0711672231554985,0.06786003708839417,0.2155863493680954
1775714873720097500,5.62709765625,-0.053272079676389694,0.07067806273698807,0.15778569877147675
1775714873730110500,5.6371103515625,-0.031237352639436722,0.039505768567323685,0.11621695011854172
1775714873740124400,5.64712451171875,-0.007751283701509237,-0.006786670535802841,0.1009918600320816
1775714873750138600,5.657138671875,0.0099331708624959,-0.027805402874946594,0.0853993147611618
1775714873760152300,5.66715234375,0.008500492200255394,-0.038294240832328796,0.04550600051879883
1775714873770166300,5.677166259765625,0.00010381219908595085,-0.049301885068416595,-0.0012284802505746484
1775714873780180500,5.687180419921875,-0.013209915719926357,-0.05073345825076103,-0.03580007329583168
1775714873790193400,5.697193359375,-0.02174454927444458,-0.05976610258221626,-0.0688730776309967
1775714873800207400,5.707207275390625,-0.025925152003765106,-0.0781124010682106,-0.104193776845932
1775714873810221300,5.71722119140625,-0.01938602700829506,-0.07612302154302597,-0.1376934051513672
1775714873820235500,5.727235595703125,0.0009019614662975073,-0.042679935693740845,-0.16166502237319946
1775714873830249500,5.73724951171875,0.0322662778198719,0.009688732214272022,-0.16757911443710327
1775714873840263400,5.747263427734375,0.0764080286026001,0.03982663154602051,-0.1460346281528473
1775714873850276400,5.7572763671875,0.12433774024248123,0.04146101325750351,-0.09947191923856735
1775714873860290600,5.76729052734375,0.15348099172115326,0.0265068169683218,-0.03722880780696869
1775714873870304300,5.77730419921875,0.1669888198375702,0.0025689934846013784,0.025627119466662407
1775714873880318500,5.787318359375,0.15821325778961182,0.00021835323423147202,0.0761680081486702
1775714873890332400,5.79733251953125,0.14390595257282257,0.02249649539589882,0.11152467131614685
1775714873900345300,5.807345458984375,0.12803705036640167,0.019443556666374207,0.14179521799087524
1775714873910359300,5.817359375,0.10447713732719421,0.0012608254328370094,0.18213652074337006
1775714873920373500,5.82737353515625,0.07941628247499466,-0.025871815159916878,0.2194695621728897
1775714873930387500,5.837387451171875,0.058588769286870956,-0.024879520758986473,0.2350972443819046
1775714873940401400,5.8474013671875,0.04400038346648216,0.007475748658180237,0.22876796126365662
1775714873950415400,5.857415283203125,0.04024771973490715,0.041410014033317566,0.20631805062294006
1775714873960428500,5.867428466796875,0.03856281191110611,0.05038417503237724,0.1830630600452423
1775714873970442500,5.8774423828125,0.03824802488088608,0.03989824652671814,0.16839410364627838
1775714873980456400,5.88745654296875,0.02856934815645218,0.02044668234884739,0.16079185903072357
1775714873990470400,5.897470458984375,0.00553247332572937,-0.020851222798228264,0.1583731770515442
1775714874000484400,5.907484375,-0.02738708071410656,-0.06743264198303223,0.16575036942958832
1775714874010498600,5.91749853515625,-0.0669560581445694,-0.10744424164295197,0.17360855638980865
1775714874020511500,5.927511474609375,-0.09811633080244064,-0.11637361347675323,0.1765952706336975
1775714874030525400,5.937525390625,-0.10860306024551392,-0.11328887939453125,0.17295898497104645
1775714874040539400,5.947539306640625,-0.09967251867055893,-0.11596967279911041,0.15795660018920898
1775714874050553300,5.95755322265625,-0.08769361674785614,-0.11457550525665283,0.1389850378036499
1775714874060567300,5.9675673828125,-0.06865077465772629,-0.10539625585079193,0.11344669759273529
1775714874070581500,5.97758154296875,-0.04714175686240196,-0.09087537229061127,0.0876702293753624
1775714874080594400,5.987594482421875,-0.02945040538907051,-0.06632173806428909,0.051295943558216095
1775714874090608400,5.9976083984375,-0.021098732948303223,-0.055916767567396164,0.017906829714775085
1775714874100622300,6.007622314453125,-0.01107420027256012,-0.04800667613744736,-0.00229826383292675
1775714874110636500,6.017636474609375,-0.0009845480090007186,-0.04891800880432129,-0.004143834114074707
1775714874120650500,6.027650390625,-0.0028952020220458508,-0.06418167799711227,0.010002569295465946
1775714874130664400,6.03766455078125,-0.020273126661777496,-0.09693456441164017,0.029826074838638306
1775714874140677400,6.047677490234375,-0.03518684580922127,-0.11426590383052826,0.048626452684402466
1775714874150691600,6.057691650390625,-0.03897732496261597,-0.10404335707426071,0.06090575456619263
1775714874160705300,6.067705322265625,-0.04383345693349838,-0.08191832154989243,0.062533438205719
1775714874170719500,6.077719482421875,-0.03892791271209717,-0.07525722682476044,0.06322239339351654
1775714874180733400,6.0877333984375,-0.02547355182468891,-0.08712761849164963,0.07654593139886856
1775714874190746600,6.09774658203125,-0.015542357228696346,-0.0950033888220787,0.10135780274868011
1775714874200760300,6.10776025390625,-0.002056908793747425,-0.10213106870651245,0.11612024158239365
1775714874210774500,6.1177744140625,0.01244879700243473,-0.09545505791902542,0.11239954084157944
1775714874220788500,6.12778857421875,0.015110024251043797,-0.0708228275179863,0.08369041979312897
1775714874230802200,6.13780224609375,0.021621454507112503,-0.02499382011592388,0.04592599347233772
1775714874240816400,6.14781640625,0.03908566012978554,0.010667539201676846,0.012020726688206196
1775714874250829300,6.157829345703125,0.04486978054046631,0.03219014033675194,0.010305384173989296
1775714874260843300,6.16784326171875,0.042923107743263245,0.01972287893295288,0.04129473492503166
1775714874270857200,6.177857177734375,0.030540205538272858,0.004740200936794281,0.08828967809677124
1775714874280871200,6.18787109375,0.0159758348017931,0.0004945159889757633,0.13491812348365784
1775714874290885000,6.197885009765625,0.008561859838664532,0.008167615160346031,0.1737411618232727
1775714874300899300,6.2078994140625,0.015483125112950802,0.006049655377864838,0.1949273943901062
1775714874310912300,6.217912353515625,0.030225055292248726,-0.00795644149184227,0.20127584040164948
1775714874320926200,6.22792626953125,0.03314882144331932,-0.015271124430000782,0.20002363622188568
1775714874330940200,6.237940185546875,0.019219420850276947,-0.010801807045936584,0.18812543153762817
1775714874340954400,6.247954345703125,0.013275369070470333,-0.013171213679015636,0.1694236695766449
1775714874350968300,6.25796826171875,0.0007968610152602196,-0.025028938427567482,0.14586295187473297
1775714874360982300,6.267982177734375,-0.018015196546912193,-0.03796682506799698,0.11351568251848221
1775714874370995200,6.2779951171875,-0.020214702934026718,-0.04105449467897415,0.07938621193170547
1775714874381009400,6.288009521484375,-0.02437485009431839,-0.015114455483853817,0.04011736810207367
1775714874391023000,6.298023193359375,-0.02360040321946144,-0.0064826179295778275,-0.020622944459319115
1775714874401037300,6.308037353515625,-0.006054481491446495,0.014901603572070599,-0.07023631036281586
1775714874411051300,6.31805126953125,0.0039281114004552364,0.04489678516983986,-0.09564393013715744
1775714874421064400,6.328064453125,-0.0005728723481297493,0.057149406522512436,-0.10675356537103653
1775714874431078100,6.338078125,-0.021210506558418274,0.0586216002702713,-0.09669507294893265
1775714874441092400,6.34809228515625,-0.04514254257082939,0.054211560636758804,-0.07078652083873749
1775714874451106300,6.358106201171875,-0.07128013670444489,0.041765812784433365,-0.029872912913560867
1775714874461120300,6.368120361328125,-0.10672745853662491,0.00582055002450943,0.016740944236516953
1775714874471134200,6.37813427734375,-0.13322006165981293,-0.03455909714102745,0.07211605459451675
1775714874481147400,6.3881474609375,-0.1440517008304596,-0.05200906842947006,0.11741742491722107
1775714874491161300,6.398161376953125,-0.144714817404747,-0.049804769456386566,0.14551004767417908
1775714874501175000,6.408175048828125,-0.14035829901695251,-0.029182611033320427,0.142384871840477
1775714874511189200,6.418189208984375,-0.12057633697986603,-0.002345405286177993,0.11740441620349884
1775714874521203200,6.428203125,-0.08901064097881317,0.02274356409907341,0.0901736319065094
1775714874531217400,6.438217529296875,-0.05307074636220932,0.04579136148095131,0.06327144056558609
1775714874541230000,6.44822998046875,-0.027401918545365334,0.045171208679676056,0.03319849073886871
1775714874551244300,6.458244384765625,-0.026137448847293854,0.03893488645553589,0.014789922162890434
1775714874561258200,6.46825830078125,-0.04153299704194069,0.028592996299266815,0.024368979036808014
1775714874571272400,6.4782724609375,-0.0594552718102932,0.009907725267112255,0.05110711604356766
1775714874581286100,6.4882861328125,-0.07433883100748062,-0.014060827903449535,0.06837666034698486
1775714874591300400,6.49830029296875,-0.07752210646867752,-0.00010479905176907778,0.063071109354496
1775714874601313300,6.508313232421875,-0.06355869024991989,0.04327528178691864,0.028604231774806976
1775714874611327200,6.5183271484375,-0.057511452585458755,0.08922173082828522,-0.025320785120129585
1775714874621341200,6.528341064453125,-0.06708811223506927,0.10648556053638458,-0.07760558277368546
1775714874631355400,6.53835546875,-0.08775290846824646,0.1517246812582016,-0.10062594711780548
1775714874641369300,6.548369384765625,-0.10930609703063965,0.17895036935806274,-0.09865150600671768
1775714874651382300,6.55838232421875,-0.13376136124134064,0.18209342658519745,-0.05857519432902336
1775714874661396200,6.568396240234375,-0.1704084426164627,0.15848499536514282,0.018224796280264854
1775714874671410400,6.578410400390625,-0.22187109291553497,0.1181277260184288,0.12823492288589478
1775714874681424400,6.58842431640625,-0.2756494879722595,0.0732375979423523,0.24665088951587677
1775714874691438000,6.59843798828125,-0.3255097270011902,0.007240203209221363,0.35431554913520813
1775714874701452300,6.608452392578125,-0.3608815670013428,-0.06437129527330399,0.43481189012527466
1775714874711465500,6.618465576171875,-0.36018115282058716,-0.07799336314201355,0.4709579348564148
1775714874721479200,6.628479248046875,-0.3121986985206604,-0.041633062064647675,0.4637136161327362
1775714874731493000,6.6384931640625,-0.23632174730300903,0.00622048182412982,0.408733993768692
1775714874741507300,6.64850732421875,-0.15600021183490753,0.051756687462329865,0.334926575422287
1775714874751521300,6.658521240234375,-0.07988440990447998,0.12725010514259338,0.2507781386375427
1775714874761535200,6.66853515625,0.010820681229233742,0.21368630230426788,0.16868725419044495
1775714874771548200,6.678548095703125,0.08663208782672882,0.3115886449813843,0.09705649316310883
1775714874781562400,6.688562255859375,0.15087145566940308,0.35621532797813416,0.038120757788419724
1775714874791576000,6.698576171875,0.17037777602672577,0.3624899983406067,0.0037611851003021
1775714874801590300,6.70859033203125,0.15715649724006653,0.34546205401420593,-0.010135694406926632
1775714874811604200,6.718604248046875,0.11708684265613556,0.3567562401294708,-0.0017201052978634834
1775714874821618400,6.728618408203125,0.07623295485973358,0.37453192472457886,0.012926992028951645
1775714874831631000,6.738631103515625,0.043944258242845535,0.39161956310272217,0.04605964571237564
1775714874841645300,6.748645263671875,0.008720392361283302,0.3829629123210907,0.08273402601480484
1775714874851659300,6.7586591796875,-0.041982464492321014,0.35839658975601196,0.12188275903463364
1775714874861673500,6.768673583984375,-0.07871423661708832,0.33993950486183167,0.15440633893013
1775714874871687200,6.778687255859375,-0.10579725354909897,0.36566245555877686,0.18208323419094086
1775714874881700400,6.788700439453125,-0.11349797248840332,0.3703739643096924,0.2012244462966919
1775714874891714300,6.79871435546875,-0.1140066385269165,0.3316121995449066,0.23443911969661713
1775714874901728300,6.808728271484375,-0.0965157225728035,0.27194416522979736,0.2657632529735565
1775714874911742200,6.8187421875,-0.0732191875576973,0.25393161177635193,0.277865469455719
1775714874921756200,6.828756103515625,-0.048729658126831055,0.24109087884426117,0.28286391496658325
1775714874931770400,6.838770263671875,-0.05629463121294975,0.2508990466594696,0.2768579423427582
1775714874941783300,6.848783203125,-0.1035706028342247,0.2749352753162384,0.25920411944389343
1775714874951797200,6.85879736328125,-0.1411169171333313,0.3081419765949249,0.21568726003170013
1775714874961811200,6.868811279296875,-0.14778967201709747,0.3795459568500519,0.16906198859214783
1775714874971825400,6.878825439453125,-0.15414796769618988,0.466319739818573,0.14130358397960663
1775714874981839000,6.888839111328125,-0.1574825942516327,0.4814823269844055,0.12411027401685715
1775714874991853300,6.898853271484375,-0.1647636741399765,0.4375699758529663,0.13035564124584198
1775714875001866200,6.9088662109375,-0.16524814069271088,0.3539765775203705,0.1685570925474167
1775714875011880200,6.918880126953125,-0.1648007184267044,0.3025757074356079,0.20529299974441528
1775714875021894100,6.92889404296875,-0.17646168172359467,0.2988607585430145,0.22267621755599976
1775714875031908400,6.938908447265625,-0.20984840393066406,0.3001673221588135,0.22925768792629242
1775714875041922300,6.94892236328125,-0.2594794034957886,0.2701074779033661,0.25241363048553467
1775714875051935200,6.958935302734375,-0.3400520086288452,0.22570165991783142,0.29396986961364746
1775714875061949200,6.96894921875,-0.4415646195411682,0.26199573278427124,0.33345308899879456
1775714875071963400,6.97896337890625,-0.5034221410751343,0.2893304228782654,0.3354877531528473
1775714875081977300,6.988977294921875,-0.5392860770225525,0.2713340222835541,0.31469830870628357
1775714875091991300,6.9989912109375,-0.567716658115387,0.21521881222724915,0.29767483472824097
1775714875102005200,7.009005126953125,-0.5615485310554504,0.1795806586742401,0.2940146028995514
1775714875112018400,7.019018310546875,-0.5078293681144714,0.17331956326961517,0.27973899245262146
1775714875122032000,7.0290322265625,-0.42553094029426575,0.20957089960575104,0.2486785501241684
1775714875132046300,7.03904638671875,-0.32869869470596313,0.27181562781333923,0.2065073847770691
1775714875142060300,7.049060302734375,-0.2553700804710388,0.314443439245224,0.1707773357629776
1775714875152074200,7.05907421875,-0.2177145779132843,0.32760879397392273,0.1285955309867859
1775714875162088200,7.069088134765625,-0.23684245347976685,0.3191835582256317,0.07810892164707184
1775714875172101400,7.079101318359375,-0.3065762519836426,0.25936707854270935,0.04087473452091217
1775714875182115300,7.089115234375,-0.3914254903793335,0.17309261858463287,0.04438292980194092
1775714875192129300,7.09912939453125,-0.44299226999282837,0.07357694208621979,0.06961718201637268
1775714875202143200,7.109143310546875,-0.4216896891593933,0.015835685655474663,0.12972502410411835
1775714875212157200,7.1191572265625,-0.34826794266700745,-0.022786542773246765,0.20939961075782776
1775714875222170400,7.12917041015625,-0.2337736189365387,-0.04685423895716667,0.2817307710647583
1775714875232183800,7.139183837890625,-0.1186201274394989,-0.030160479247570038,0.32865673303604126
1775714875242198000,7.149197998046875,-0.03788129240274429,-0.00873785000294447,0.3448229134082794
1775714875252212000,7.1592119140625,0.015788327902555466,0.000997068826109171,0.3711157739162445
1775714875262226000,7.169225830078125,0.0328892320394516,0.001377738080918789,0.41652747988700867
1775714875272239900,7.179239990234375,0.021548429504036903,-0.033280909061431885,0.46221426129341125
1775714875282253000,7.189253173828125,0.006837152410298586,-0.09244601428508759,0.5108829736709595
1775714875292266800,7.199266845703125,0.0006548899691551924,-0.1742577850818634,0.5546852946281433
1775714875302281000,7.209281005859375,0.01659010723233223,-0.24294188618659973,0.5661352872848511
1775714875312295000,7.219294921875,0.07629391551017761,-0.2637222409248352,0.5282078981399536
1775714875322309000,7.22930908203125,0.16063538193702698,-0.2266208976507187,0.4411478638648987
1775714875332322800,7.23932275390625,0.24165940284729004,-0.1771811842918396,0.3313177525997162
1775714875342336000,7.2493359375,0.28883036971092224,-0.171090230345726,0.2282307744026184
1775714875352350000,7.259349853515625,0.30453503131866455,-0.20340609550476074,0.15527161955833435
1775714875362364000,7.269364013671875,0.3137945532798767,-0.20620346069335938,0.11492501199245453
1775714875372377900,7.2793779296875,0.2916543483734131,-0.11250627040863037,0.06959961354732513
1775714875382391800,7.289391845703125,0.275301069021225,-0.06624706834554672,0.0041603706777095795
1775714875392405000,7.299405029296875,0.2664223611354828,-0.07493963092565536,-0.03417982533574104
1775714875402419000,7.3094189453125,0.2394067943096161,-0.1289801150560379,-0.015597612597048283
1775714875412433000,7.319432861328125,0.21218502521514893,-0.22133508324623108,0.009563399478793144
1775714875422446800,7.32944677734375,0.1959182322025299,-0.28944262862205505,0.013932853937149048
1775714875432461000,7.3394609375,0.18554121255874634,-0.28894034028053284,0.003000577911734581
1775714875442474800,7.349474853515625,0.1998044103384018,-0.19557707011699677,-0.0290348120033741
1775714875452488000,7.359488037109375,0.23465053737163544,-0.11409872025251389,-0.06614463031291962
1775714875462502000,7.369501953125,0.26976826786994934,-0.03464480862021446,-0.10192713141441345
1775714875472515800,7.379515869140625,0.27946937084198,0.14116297662258148,-0.15726761519908905
1775714875482529800,7.38952978515625,0.2780782878398895,0.31976988911628723,-0.2518623173236847
1775714875492544000,7.3995439453125,0.22648543119430542,0.5370321869850159,-0.3447192907333374
1775714875502558000,7.409557861328125,0.14577776193618774,0.655653178691864,-0.39634227752685547
1775714875512571000,7.41957080078125,0.026673465967178345,0.6245567798614502,-0.3726350665092468
1775714875522584800,7.429584716796875,-0.10346466302871704,0.4339158833026886,-0.28841522336006165
1775714875532599000,7.43959912109375,-0.21726419031620026,0.20822899043560028,-0.1512821614742279
1775714875542613000,7.449613037109375,-0.3109268844127655,0.08985169976949692,0.010305419564247131
1775714875552627000,7.459626953125,-0.37024053931236267,0.015242177993059158,0.15938304364681244
1775714875562640000,7.469639892578125,-0.36192068457603455,-0.00579461082816124,0.2325676828622818
1775714875572654000,7.479654052734375,-0.2988855242729187,-0.018999895080924034,0.23831504583358765
1775714875582667800,7.489667724609375,-0.20619164407253265,-0.017665697261691093,0.2196952998638153
1775714875592682000,7.499681884765625,-0.07837456464767456,-0.00365240965038538,0.16895036399364471
1775714875602696000,7.509696044921875,0.01263018324971199,0.007747975643724203,0.08536126464605331
1775714875612710000,7.5197099609375,0.07876872271299362,-0.04489579424262047,-0.021065576002001762
1775714875622722800,7.529722900390625,0.12958478927612305,-0.0430096834897995,-0.09791570901870728
1775714875632737000,7.539737060546875,0.17009279131889343,-0.06976725906133652,-0.13636963069438934
1775714875642751000,7.5497509765625,0.19842611253261566,-0.12383949011564255,-0.14383549988269806
1775714875652765000,7.559764892578125,0.2194557636976242,-0.20105065405368805,-0.1371632218360901
1775714875662779000,7.56977880859375,0.24106431007385254,-0.24897673726081848,-0.13167178630828857
1775714875672792000,7.5797919921875,0.25643715262413025,-0.24585019052028656,-0.12717397511005402
1775714875682806000,7.589805908203125,0.2956349551677704,-0.2630957365036011,-0.13451944291591644
1775714875692819700,7.59981982421875,0.3557472825050354,-0.28332164883613586,-0.13911579549312592
1775714875702834000,7.609833984375,0.3914497196674347,-0.32773104310035706,-0.1510760635137558
1775714875712848000,7.619847900390625,0.4120516777038574,-0.37059566378593445,-0.19231776893138885
1775714875722862000,7.629862060546875,0.45597758889198303,-0.35173463821411133,-0.2529318630695343
1775714875732874800,7.639874755859375,0.47193631529808044,-0.26398801803588867,-0.3278825283050537
1775714875742889000,7.649888916015625,0.46544453501701355,-0.21695144474506378,-0.35094600915908813
1775714875752903000,7.65990283203125,0.44648706912994385,-0.16857698559761047,-0.2943674325942993
1775714875762917000,7.669917236328125,0.3719857335090637,-0.08764702826738358,-0.24898432195186615
1775714875772930800,7.679930908203125,0.2695475220680237,-0.06829037517309189,-0.26615798473358154
1775714875782945000,7.689945068359375,0.19915589690208435,-0.09354351460933685,-0.30179744958877563
1775714875792958000,7.6999580078125,0.16245806217193604,-0.07031862437725067,-0.3218534290790558
1775714875802972000,7.709971923828125,0.12047433108091354,0.00748361274600029,-0.34782350063323975
1775714875812985900,7.71998583984375,0.09037714451551437,0.07020504772663116,-0.39215153455734253
1775714875823000000,7.73,0.05208854004740715,0.10877151042222977,-0.43291255831718445
1775714875833014000,7.740013916015625,-0.03082045540213585,0.1446107178926468,-0.4342619776725769
1775714875843027000,7.75002685546875,-0.10948728770017624,0.13886331021785736,-0.39550551772117615
1775714875853041000,7.760041015625,-0.17723117768764496,0.12092479318380356,-0.31745681166648865
1775714875863055000,7.77005517578125,-0.22176262736320496,0.06761672347784042,-0.20653347671031952
1775714875873069000,7.780069091796875,-0.24798038601875305,-0.012548685073852539,-0.09431132674217224
1775714875883082800,7.790082763671875,-0.28428077697753906,-0.05436670035123825,-0.012807666324079037
1775714875893097000,7.800096923828125,-0.30484116077423096,-0.05561492219567299,0.04231151193380356
1775714875903110100,7.810110107421875,-0.29710856080055237,0.0018775335047394037,0.09967195987701416
1775714875913123800,7.820123779296875,-0.2619258165359497,-0.012991960160434246,0.13006767630577087
1775714875923137800,7.8301376953125,-0.20833739638328552,-0.060181666165590286,0.1415504664182663
1775714875933152000,7.840152099609375,-0.14596670866012573,-0.0539325587451458,0.15332695841789246
1775714875943166000,7.850166015625,-0.07987847179174423,-0.008488466963171959,0.1664704829454422
1775714875953180000,7.860179931640625,-0.03299351781606674,0.020828939974308014,0.16744627058506012
1775714875963192800,7.87019287109375,-0.01957542821764946,0.009452967904508114,0.17336459457874298
1775714875973207000,7.88020703125,-0.04462005943059921,-0.04323740676045418,0.1785852015018463
1775714875983220700,7.890220703125,-0.07519486546516418,-0.0887252688407898,0.18141531944274902
1775714875993235000,7.90023486328125,-0.10583027452230453,-0.11643625795841217,0.17371612787246704
1775714876003249000,7.910248779296875,-0.128944993019104,-0.1466589868068695,0.1493697613477707
1775714876013262000,7.920261962890625,-0.12301439791917801,-0.18499493598937988,0.1247863844037056
1775714876023275800,7.93027587890625,-0.09684644639492035,-0.17849814891815186,0.13670562207698822
1775714876033290000,7.9402900390625,-0.03809870779514313,-0.2010394036769867,0.1623406857252121
1775714876043304000,7.950303955078125,0.037968821823596954,-0.2511671483516693,0.1693652868270874
1775714876053318100,7.960318115234375,0.12544940412044525,-0.24880702793598175,0.14355765283107758
1775714876063331800,7.970331787109375,0.21987284719944,-0.17346061766147614,0.07815895229578018
1775714876073345000,7.980344970703125,0.30022600293159485,-0.16069555282592773,0.0012694947654381394
1775714876083359000,7.99035888671875,0.32622748613357544,-0.18973305821418762,-0.03299098089337349
1775714876093373000,8.000373046875,0.31210315227508545,-0.22963492572307587,-0.02287203073501587
1775714876103387000,8.010386962890625,0.31457486748695374,-0.2245079129934311,-0.020653346553444862
1775714876113400800,8.02040087890625,0.33607059717178345,-0.11043966561555862,-0.04062012955546379
1775714876123415000,8.0304150390625,0.3648817837238312,-0.04750959202647209,-0.07615760713815689
1775714876133428000,8.040427978515625,0.39486178755760193,-0.016343949362635612,-0.12091229110956192
1775714876143442000,8.05044189453125,0.4186309278011322,-0.057897523045539856,-0.18355412781238556
1775714876153455900,8.060455810546875,0.42823535203933716,-0.15185756981372833,-0.2451740801334381
1775714876163470000,8.070469970703124,0.3929111361503601,-0.2462700456380844,-0.2785557508468628
1775714876173483800,8.08048388671875,0.3258487582206726,-0.3150880038738251,-0.29789403080940247
1775714876183497000,8.0904970703125,0.2474193423986435,-0.3437284529209137,-0.309071809053421
1775714876193511000,8.100510986328125,0.18258176743984222,-0.35735106468200684,-0.2885742485523224
1775714876203524900,8.11052490234375,0.16382905840873718,-0.36063945293426514,-0.23566977679729462
1775714876213538800,8.120538818359375,0.1727389395236969,-0.3401477634906769,-0.1765342801809311
1775714876223553000,8.130552978515626,0.1778927594423294,-0.3171360194683075,-0.13398286700248718
1775714876233567200,8.140567138671875,0.19716870784759521,-0.3212735056877136,-0.11214546114206314
1775714876243580200,8.150580078125,0.21465963125228882,-0.328411728143692,-0.07730917632579803
1775714876253594000,8.160593994140624,0.21338531374931335,-0.3286849856376648,-0.05257560312747955
1775714876263608300,8.1706083984375,0.20474833250045776,-0.3246477246284485,-0.0647348091006279
1775714876273622300,8.180622314453124,0.19723795354366302,-0.3238128423690796,-0.09263195097446442
1775714876283636000,8.190635986328125,0.18827763199806213,-0.3118270933628082,-0.10132046788930893
1775714876293649200,8.200649169921874,0.16817183792591095,-0.30138641595840454,-0.07475357502698898
1775714876303663400,8.210663330078125,0.16050761938095093,-0.3226652145385742,-0.0200301893055439
1775714876313677000,8.220677001953124,0.1750016063451767,-0.3349139094352722,0.04064274579286575
1775714876323691000,8.23069091796875,0.19628062844276428,-0.34440216422080994,0.05940898880362511
1775714876333705200,8.240705322265624,0.21357598900794983,-0.30147626996040344,0.031830888241529465
1775714876343719200,8.25071923828125,0.21866077184677124,-0.24149493873119354,-0.04637762904167175
1775714876353732000,8.260732177734376,0.22521907091140747,-0.1758592128753662,-0.17450390756130219
1775714876363746000,8.27074609375,0.2559409737586975,-0.06294640153646469,-0.3323228359222412
1775714876373760300,8.28076025390625,0.27914804220199585,0.11553199589252472,-0.5139911770820618
1775714876383774200,8.290774169921875,0.26751965284347534,0.24099846184253693,-0.7030332684516907
1775714876393788200,8.3007880859375,0.25691789388656616,0.2873084247112274,-0.8182882070541382
1775714876403802000,8.310802001953125,0.25700804591178894,0.3042401969432831,-0.8011757135391235
1775714876413815300,8.320815185546875,0.25709113478660583,0.28673869371414185,-0.648115873336792
1775714876423829000,8.3308291015625,0.24541153013706207,0.21288886666297913,-0.4193115234375
1775714876433843200,8.34084326171875,0.20489978790283203,0.10959682613611221,-0.19578467309474945
1775714876443857200,8.350857177734374,0.171762153506279,0.012229357846081257,-0.02591843530535698
1775714876453871400,8.360871337890625,0.12888100743293762,-0.01599162630736828,0.07564414292573929
1775714876463884000,8.370884033203126,0.09384876489639282,0.005551416426897049,0.07078437507152557
1775714876473898200,8.380898193359375,0.06729651987552643,0.11583637446165085,-0.02285103313624859
1775714876483912200,8.390912109375,0.03583556041121483,0.27238088846206665,-0.15686632692813873
1775714876493926400,8.400926513671875,0.008507798425853252,0.3582707643508911,-0.2861364185810089
1775714876503940000,8.410940185546876,0.00009405286982655525,0.3795507848262787,-0.36689329147338867
1775714876513954000,8.4209541015625,0.0045394012704491615,0.3420095443725586,-0.3713732659816742
1775714876523967200,8.43096728515625,-0.0030107619240880013,0.2871822118759155,-0.3180350065231323
1775714876533981200,8.440981201171875,-0.020949015393853188,0.23345105350017548,-0.23546314239501953
1775714876543995100,8.4509951171875,-0.0401129312813282,0.15937486290931702,-0.1521024852991104
1775714876554009000,8.461009033203124,-0.0725124180316925,0.09837914258241653,-0.09669382125139236
1775714876564023300,8.471023193359375,-0.08567358553409576,0.05162961781024933,-0.09825144708156586
1775714876574036200,8.4810361328125,-0.08094434440135956,0.0876813605427742,-0.15216661989688873
1775714876584050200,8.49105029296875,-0.0603216253221035,0.16684678196907043,-0.28070172667503357
1775714876594064100,8.501064208984374,-0.028975151479244232,0.26394060254096985,-0.4770493805408478
1775714876604078300,8.511078369140625,0.012180396355688572,0.32246115803718567,-0.6718441843986511
1775714876614092000,8.521092041015624,0.04684330150485039,0.3531322479248047,-0.7847830057144165
1775714876624106200,8.531106201171875,0.10199160873889923,0.3431750237941742,-0.7357837557792664
1775714876634119200,8.541119140625,0.13940981030464172,0.28914162516593933,-0.5506066679954529
1775714876644133000,8.551133056640625,0.15135739743709564,0.18982869386672974,-0.324147492647171
1775714876654147000,8.56114697265625,0.15310603380203247,0.09421374648809433,-0.13920000195503235
1775714876664161300,8.571161376953125,0.17000260949134827,0.015068820677697659,-0.029032470658421516
1775714876674175200,8.58117529296875,0.15419168770313263,-0.011796882376074791,0.01426813192665577
1775714876684188200,8.591188232421874,0.12334010004997253,0.007888516411185265,-0.007855004630982876
1775714876694202000,8.6012021484375,0.12446422874927521,0.03651696816086769,-0.09234166145324707
1775714876704216300,8.61121630859375,0.1565583050251007,0.11967512965202332,-0.2332306057214737
1775714876714230000,8.62122998046875,0.19379088282585144,0.23053081333637238,-0.40500181913375854
1775714876724244200,8.631244140625,0.2502916157245636,0.3347757160663605,-0.486659973859787
1775714876734258200,8.641258056640625,0.29914116859436035,0.34481289982795715,-0.42243704199790955
1775714876744271400,8.651271240234376,0.3336811363697052,0.23408536612987518,-0.27934592962265015
1775714876754285000,8.66128515625,0.3324451744556427,0.08242366462945938,-0.1144786849617958
1775714876764299300,8.67129931640625,0.2992161512374878,-0.06411869823932648,0.021881267428398132
1775714876774313200,8.681313232421875,0.24416063725948334,-0.16712044179439545,0.08479871600866318
1775714876784327200,8.6913271484375,0.19960801303386688,-0.2047678381204605,0.08724617958068848
1775714876794341000,8.701341064453125,0.18769168853759766,-0.20632711052894592,0.043252892792224884
1775714876804354300,8.711354248046876,0.19996219873428345,-0.14125223457813263,-0.042551763355731964
1775714876814368300,8.7213681640625,0.21317601203918457,-0.07319330424070358,-0.15656621754169464
1775714876824382000,8.7313818359375,0.22514906525611877,-0.02814069576561451,-0.26917341351509094
1775714876834396200,8.741396240234375,0.25316178798675537,-0.002404704922810197,-0.37333816289901733
1775714876844410000,8.75141015625,0.2839275598526001,0.04543796181678772,-0.4316193163394928
1775714876854423300,8.76142333984375,0.31348279118537903,0.06465000659227371,-0.4503309726715088
1775714876864437000,8.77143701171875,0.33143430948257446,0.039297617971897125,-0.42646053433418274
1775714876874451200,8.781451171875,0.31988951563835144,-0.0020237243734300137,-0.3590756356716156
1775714876884465200,8.791465087890625,0.2665119171142578,-0.03691722825169563,-0.26080530881881714
1775714876894479400,8.801479248046874,0.187281534075737,-0.06239276006817818,-0.16713179647922516
1775714876904492000,8.811491943359375,0.11482125520706177,-0.09671711176633835,-0.08997386693954468
1775714876914506200,8.82150634765625,0.07333240658044815,-0.12746302783489227,-0.04004279151558876
1775714876924520200,8.831520263671875,0.06845457851886749,-0.12385450303554535,-0.021937021985650063
1775714876934534100,8.8415341796875,0.08183164149522781,-0.06519332528114319,-0.018198741599917412
1775714876944548000,8.851548095703125,0.09285309165716171,-0.004722454119473696,-0.0412806011736393
1775714876954562300,8.861562255859376,0.09777726978063583,0.04191802069544792,-0.07382629066705704
1775714876964575200,8.8715751953125,0.09366411715745926,0.0671718418598175,-0.0940471887588501
1775714876974589200,8.881589111328125,0.08973009139299393,0.08173374086618423,-0.07747034728527069
1775714876984603100,8.89160302734375,0.0936705470085144,0.11462344974279404,-0.03771444037556648
1775714876994617300,8.901617431640625,0.08333908021450043,0.12021715193986893,0.003491320414468646
1775714877004631300,8.91163134765625,0.0598752424120903,0.0677257552742958,0.042229484766721725
1775714877014644200,8.921644287109375,0.01586463674902916,-0.009267826564610004,0.07245422899723053
1775714877024658200,8.931658203125,-0.034843213856220245,-0.06425020098686218,0.08597797900438309
1775714877034672400,8.94167236328125,-0.05851578712463379,-0.07258030027151108,0.08669809252023697
1775714877044686000,8.95168603515625,-0.06543021649122238,-0.04738214984536171,0.05874131619930267
1775714877054700000,8.961699951171875,-0.04565252363681793,-0.026533327996730804,0.004317488521337509
1775714877064714200,8.97171435546875,-0.0019991742447018623,0.01346521358937025,-0.0633944571018219
1775714877074727400,8.9817275390625,0.05063420906662941,0.045118749141693115,-0.137002095580101
1775714877084741000,8.9917412109375,0.0863015428185463,0.06374059617519379,-0.2041313201189041
1775714877094755000,9.001755126953125,0.09990416467189789,0.08478276431560516,-0.25065141916275024
1775714877104769300,9.011769287109376,0.09102252125740051,0.10775575786828995,-0.26875564455986023
1775714877114783200,9.021783203125,0.060784995555877686,0.09553823620080948,-0.2376810610294342
1775714877124796200,9.031796142578125,0.02362767793238163,0.05061989650130272,-0.17790742218494415
1775714877134810000,9.04181005859375,-0.015580444596707821,0.00579889677464962,-0.11561980843544006
1775714877144824300,9.05182421875,-0.06238039955496788,-0.011947370134294033,-0.061511628329753876
1775714877154838000,9.061838134765624,-0.09964920580387115,-0.0072807129472494125,-0.0027732127346098423
1775714877164852200,9.071852294921875,-0.12292518466711044,-0.02675069496035576,0.04885273426771164
1775714877174866200,9.0818662109375,-0.11196387559175491,-0.06381070613861084,0.08762463182210922
1775714877184879000,9.091879150390625,-0.06506732851266861,-0.0721198171377182,0.10114684700965881
1775714877194893000,9.10189306640625,-0.014181510545313358,-0.02104118838906288,0.08219845592975616
1775714877204907300,9.1119072265625,0.025259125977754593,0.047201234847307205,0.04036016762256622
1775714877214921200,9.121921142578126,0.04791943356394768,0.10872797667980194,-0.01011365745216608
1775714877224935200,9.13193505859375,0.058725323528051376,0.11113875359296799,-0.05269046127796173
1775714877234948000,9.141947998046875,0.04128614813089371,0.07918188720941544,-0.06848327070474625
1775714877244962300,9.15196240234375,0.014346345327794552,0.05267495661973953,-0.0721338540315628
1775714877254976300,9.161976318359375,-0.00940159521996975,0.0392259918153286,-0.06326259672641754
1775714877264990200,9.171990234375,-0.02925761230289936,0.020113831385970116,-0.043595120310783386
1775714877275004200,9.182004150390625,-0.03641432523727417,-0.0031898936722427607,-0.02615487575531006
1775714877285018000,9.19201806640625,-0.02878599986433983,-0.002197966678068042,-0.019583890214562416
1775714877295031300,9.20203125,-0.012400103732943535,0.00632121879607439,-0.022037725895643234
1775714877305045200,9.212045166015624,0.01212775893509388,0.02804640494287014,-0.03270017355680466
1775714877315059200,9.22205908203125,0.038146842271089554,0.026921752840280533,-0.04956810176372528
1775714877325073200,9.2320732421875,0.05205335468053818,0.030260581523180008,-0.07253845781087875
1775714877335087400,9.24208740234375,0.05621561035513878,0.026338810101151466,-0.09453830122947693
1775714877345100300,9.252100341796876,0.045548394322395325,0.027173783630132675,-0.09411855041980743
1775714877355114200,9.2621142578125,0.020832663401961327,0.020147033035755157,-0.07478053867816925
1775714877365128200,9.272128173828126,-0.005480118561536074,-0.005456967744976282,-0.058305416256189346
1775714877375142400,9.282142333984375,-0.027147864922881126,-0.01842709444463253,-0.05219399556517601
1775714877385156000,9.292156005859376,-0.0344516783952713,-0.02804732881486416,-0.05678606405854225
1775714877395170300,9.30217041015625,-0.021877827122807503,-0.04038895294070244,-0.06694868206977844
1775714877405183200,9.312183349609375,-0.0037931776605546474,-0.03375348821282387,-0.07544474303722382
1775714877415197400,9.322197509765624,0.003556614276021719,-0.023916305974125862,-0.08071647584438324
1775714877425211100,9.332211181640625,-0.0004322715103626251,-0.023417722433805466,-0.086002878844738
1775714877435225300,9.342225341796874,0.0013200885150581598,-0.003155060578137636,-0.09686404466629028
1775714877445239300,9.3522392578125,0.013744709081947803,0.020471569150686264,-0.07859551161527634
1775714877455252200,9.362252197265626,0.02374967187643051,0.01503445953130722,-0.03624645248055458
1775714877465266200,9.37226611328125,0.019234109669923782,-0.02210375852882862,0.007369711063802242
1775714877475280400,9.3822802734375,-0.0028767839539796114,-0.06778363138437271,0.03195148706436157
1775714877485294300,9.39229443359375,-0.03308688476681709,-0.08680472522974014,0.045317891985177994
1775714877495308300,9.402308349609376,-0.05871954187750816,-0.0676395520567894,0.046698473393917084
1775714877505322200,9.412322265625,-0.06815606355667114,-0.03359555825591087,0.03281782567501068
1775714877515335400,9.42233544921875,-0.06014075130224228,-0.02123928815126419,0.02601851150393486
1775714877525349400,9.432349365234375,-0.051028601825237274,-0.03841108828783035,0.0421585850417614
1775714877535363000,9.442363037109375,-0.03818630427122116,-0.06664912402629852,0.06690547615289688
1775714877545377300,9.452377197265625,-0.017702702432870865,-0.06450130045413971,0.0808689147233963
1775714877555391200,9.46239111328125,-0.0000470099039375782,-0.04886721447110176,0.07867500185966492
1775714877565404200,9.472404052734374,0.008797403424978256,-0.04051385819911957,0.0682072564959526
1775714877575418000,9.482418212890625,0.006744105834513903,-0.029539505019783974,0.06045399233698845
1775714877585432300,9.492432373046874,0.005742250010371208,-0.026050549000501633,0.054492510855197906
1775714877595446300,9.5024462890625,-0.0027558973524719477,-0.013239678926765919,0.0478987917304039
1775714877605460200,9.512460205078124,-0.006539716385304928,-0.014006402343511581,0.027832403779029846
1775714877615473200,9.52247314453125,-0.01344103179872036,-0.024868372827768326,0.009039808064699173
1775714877625487400,9.5324873046875,-0.021317359060049057,-0.048053763806819916,-0.010448972694575787
1775714877635501000,9.5425009765625,-0.0225453432649374,-0.0650404691696167,-0.030686868354678154
1775714877645515300,9.552515380859376,-0.01258654985576868,-0.048194434493780136,-0.05385264754295349
1775714877655529200,9.562529296875,0.009026067331433296,-0.023509595543146133,-0.07490014284849167
1775714877665543400,9.57254345703125,0.030088866129517555,0.002740391530096531,-0.09551459550857544
1775714877675556000,9.58255615234375,0.06133680045604706,0.022900786250829697,-0.09846910089254379
1775714877685570300,9.5925703125,0.07923396676778793,0.02854924090206623,-0.09623498469591141
1775714877695584300,9.602584228515624,0.07639183849096298,0.023876192048192024,-0.09153344482183456
1775714877705598500,9.612598388671875,0.06063392013311386,-0.003344015683978796,-0.07380394637584686
1775714877715612200,9.622612060546874,0.040076978504657745,-0.029235268011689186,-0.0452740378677845
1775714877725625300,9.632625244140625,0.024107038974761963,-0.05334397777915001,-0.003567639272660017
1775714877735639300,9.642639404296874,0.02552996575832367,-0.05899466946721077,0.048767734318971634
1775714877745653200,9.6526533203125,0.03816988691687584,-0.07671300321817398,0.09278073906898499
1775714877755667200,9.662667236328126,0.048020653426647186,-0.07689542323350906,0.1237650215625763
1775714877765681200,9.67268115234375,0.06007235497236252,-0.039508044719696045,0.12866871058940887
1775714877775695400,9.6826953125,0.07157481461763382,-0.012598670087754726,0.10094013810157776
1775714877785708300,9.692708251953125,0.07715176790952682,-0.0006203940138220787,0.06317228823900223
1775714877795722200,9.70272216796875,0.07081104815006256,0.015154839493334293,0.03376194089651108
1775714877805736200,9.712736083984375,0.04312993213534355,0.008930663578212261,0.01449663657695055
1775714877815750400,9.72275048828125,-0.00014110771007835865,-0.00732580479234457,0.009128502570092678
1775714877825764000,9.73276416015625,-0.061269063502550125,-0.013066696934401989,0.01813499815762043
1775714877835777300,9.74277734375,-0.13360024988651276,-0.029457921162247658,0.025274667888879776
1775714877845791200,9.752791259765624,-0.19944360852241516,-0.03818397596478462,0.031235098838806152
1775714877855805200,9.76280517578125,-0.22990937530994415,-0.06277027726173401,0.03904561698436737
1775714877865819100,9.772819091796874,-0.22396793961524963,-0.08888272196054459,0.05722251534461975
1775714877875833300,9.782833251953125,-0.19866470992565155,-0.10533572733402252,0.089155413210392
1775714877885846300,9.79284619140625,-0.17261113226413727,-0.11040133982896805,0.11078505963087082
1775714877895860200,9.802860107421875,-0.13870029151439667,-0.09965681284666061,0.10044267773628235
1775714877905874200,9.812874267578126,-0.09734047949314117,-0.0756705105304718,0.07281692326068878
1775714877915888400,9.822888427734375,-0.049887217581272125,-0.047967780381441116,0.042065929621458054
1775714877925902300,9.83290234375,-0.012939807958900928,-0.032503627240657806,0.012800396420061588
1775714877935916300,9.842916259765625,-0.005286415107548237,-0.042371973395347595,-0.003954348154366016
1775714877945929200,9.85292919921875,-0.017396751791238785,-0.052999310195446014,-0.009232452139258385
1775714877955943400,9.862943359375,-0.030879803001880646,-0.029055628925561905,-0.002797190099954605
1775714877965957000,9.87295703125,-0.05593040585517883,-0.0032406640239059925,0.00021519180154427886
1775714877975971300,9.882971435546875,-0.07763384282588959,0.0023109614849090576,0.005714353173971176
1775714877985985300,9.8929853515625,-0.07181796431541443,0.004745316691696644,0.023247454315423965
1775714877995998200,9.902998291015624,-0.05840761959552765,0.008864427916705608,0.046346381306648254
1775714878006012200,9.91301220703125,-0.05236540362238884,0.00846562348306179,0.07373280078172684
1775714878016026400,9.9230263671875,-0.05713912099599838,0.005476491525769234,0.09005185216665268
1775714878026040300,9.933040283203125,-0.07135561108589172,0.019797639921307564,0.10095802694559097
1775714878036054300,9.94305419921875,-0.0927109643816948,0.028719762340188026,0.10515570640563965
1775714878046067200,9.953067138671875,-0.11143320798873901,0.023728400468826294,0.10700870305299759
1775714878056081400,9.963081298828126,-0.1378728151321411,0.00847647711634636,0.11108680069446564
1775714878066095400,9.973095458984375,-0.16376127302646637,-0.010227391496300697,0.12071544677019119
1775714878076109000,9.983109130859376,-0.1851232796907425,-0.029395492747426033,0.14313127100467682
1775714878086123300,9.993123291015625,-0.2104741930961609,-0.006116761825978756,0.16981291770935059
1775714878096137200,10.00313720703125,-0.22740177810192108,-0.015174971893429756,0.19736811518669128
1775714878106150100,10.013150146484374,-0.246355801820755,-0.038042712956666946,0.23104384541511536
1775714878116164000,10.0231640625,-0.2647097706794739,-0.08502646535634995,0.25061169266700745
1775714878126178300,10.03317822265625,-0.27399516105651855,-0.11567053198814392,0.27393317222595215
1775714878136192300,10.043192138671875,-0.27327319979667664,-0.1322697401046753,0.29057180881500244
1775714878146206500,10.05320654296875,-0.260177880525589,-0.11123595386743546,0.29179829359054565
1775714878156219100,10.06321923828125,-0.2475518435239792,-0.06367482244968414,0.27476099133491516
1775714878166233300,10.0732333984375,-0.23663786053657532,-0.05138690397143364,0.2576080858707428
1775714878176247300,10.083247314453125,-0.23029819130897522,-0.05848635733127594,0.26544949412345886
1775714878186261200,10.09326123046875,-0.23695817589759827,-0.07685188204050064,0.28829115629196167
1775714878196275200,10.103275146484375,-0.24657990038394928,-0.1080433577299118,0.3047305941581726
1775714878206288400,10.113288330078126,-0.242560476064682,-0.10263721644878387,0.32665425539016724
1775714878216302000,10.123302001953125,-0.225935161113739,-0.10076901316642761,0.34068483114242554
1775714878226316300,10.13331640625,-0.18398211896419525,-0.10729588568210602,0.35747233033180237
1775714878236330200,10.143330322265625,-0.1399153172969818,-0.09106817841529846,0.38106846809387207
1775714878246344400,10.153344482421875,-0.10312376171350479,-0.06218859180808067,0.3834083378314972
1775714878256358100,10.163358154296875,-0.07042627036571503,-0.00957491621375084,0.3454630970954895
1775714878266371300,10.173371337890625,-0.044592682272195816,0.042879242449998856,0.2800968587398529
1775714878276385300,10.18338525390625,-0.00927011203020811,0.0876549705862999,0.2191738486289978
1775714878286399500,10.1933994140625,0.01006170455366373,0.1404527872800827,0.17844988405704498
1775714878296413200,10.2034130859375,0.018409647047519684,0.17811255156993866,0.1574343591928482
1775714878306427100,10.21342724609375,0.03246358409523964,0.19166718423366547,0.1565440446138382
1775714878316440300,10.2234404296875,0.03934386000037193,0.21556265652179718,0.18243609368801117
1775714878326454300,10.233454345703125,0.028754379600286484,0.21101310849189758,0.22239252924919128
1775714878336468200,10.24346826171875,0.029290739446878433,0.2105526477098465,0.2781815230846405
1775714878346482200,10.253482177734375,0.036459892988204956,0.20853763818740845,0.33561810851097107
1775714878356496400,10.263496337890626,0.05217121168971062,0.16286203265190125,0.3897218406200409
1775714878366509300,10.27350927734375,0.0885944664478302,0.10678832978010178,0.4449654221534729
1775714878376523300,10.283523193359375,0.12033642083406448,0.04231426864862442,0.5079987049102783
1775714878386537200,10.293537109375,0.12915435433387756,-0.011423714458942413,0.5694085955619812
1775714878396551400,10.303551513671875,0.15187057852745056,-0.027792567387223244,0.6014629602432251
1775714878406565000,10.313565185546874,0.19553886353969574,-0.032424092292785645,0.5870487689971924
1775714878416579300,10.323579345703125,0.234840989112854,-0.015943918377161026,0.5319048166275024
1775714878426592300,10.33359228515625,0.2462954819202423,0.05081016942858696,0.4499867558479309
1775714878436606200,10.343606201171875,0.24594154953956604,0.11389486491680145,0.34465500712394714
1775714878446620200,10.3536201171875,0.2487739473581314,0.16368688642978668,0.2442975789308548
1775714878456634400,10.36363427734375,0.24100898206233978,0.2228279709815979,0.13065677881240845
1775714878466648300,10.3736484375,0.22145918011665344,0.270524263381958,0.006316407583653927
1775714878476661200,10.3836611328125,0.2004747986793518,0.2904071509838104,-0.10510998219251633
1775714878486675200,10.39367529296875,0.16555197536945343,0.2822011709213257,-0.16663967072963715
1775714878496689400,10.403689453125,0.1096905767917633,0.24847090244293213,-0.19942636787891388
1775714878506703400,10.413703369140626,0.01723375730216503,0.24275575578212738,-0.2148018777370453
1775714878516717300,10.42371728515625,-0.08828122168779373,0.25706544518470764,-0.22337034344673157
1775714878526730200,10.433730224609375,-0.19640833139419556,0.23505006730556488,-0.22231167554855347
1775714878536744400,10.443744384765624,-0.3109724521636963,0.1757284253835678,-0.1878570318222046
1775714878546758100,10.453758056640625,-0.4023781418800354,0.08363765478134155,-0.13087521493434906
1775714878556772400,10.4637724609375,-0.46354880928993225,-0.022568413987755775,-0.07219592481851578
1775714878566786300,10.473786376953125,-0.4723462164402008,-0.11707298457622528,-0.0344749353826046
1775714878576799200,10.48379931640625,-0.43351441621780396,-0.15467974543571472,-0.0481201708316803
1775714878586813200,10.493813232421875,-0.35423895716667175,-0.12790659070014954,-0.11558999121189117
1775714878596827400,10.503827392578126,-0.23543189465999603,-0.0783957690000534,-0.20429456233978271
1775714878606841300,10.51384130859375,-0.10442925989627838,0.0010073960293084383,-0.3038424253463745
1775714878616855000,10.52385498046875,0.03452436625957489,0.11441011726856232,-0.394442617893219
1775714878626869200,10.533869140625,0.16342969238758087,0.218075230717659,-0.4695438742637634
1775714878636882400,10.54388232421875,0.22586695849895477,0.2640579044818878,-0.5065527558326721
1775714878646896400,10.553896484375,0.2171023190021515,0.23393361270427704,-0.49133145809173584
1775714878656910000,10.56391015625,0.1823805570602417,0.15748277306556702,-0.43007713556289673
1775714878666924300,10.57392431640625,0.1547907441854477,0.10447464138269424,-0.33356335759162903
1775714878676938200,10.583938232421875,0.14883272349834442,0.06697680056095123,-0.21740026772022247
1775714878686951200,10.593951171875,0.1546260118484497,0.038676805794239044,-0.09812691807746887
1775714878696965000,10.603965087890625,0.18707184493541718,0.017672190442681313,0.014845971018075943
1775714878706979300,10.613979248046874,0.2343592643737793,0.05921867862343788,0.08672070503234863
1775714878716993300,10.6239931640625,0.27736055850982666,0.12269245833158493,0.10963853448629379
1775714878727007200,10.63400732421875,0.29342785477638245,0.15514345467090607,0.11709541082382202
1775714878737020200,10.644020263671875,0.28508761525154114,0.1666877269744873,0.12373653054237366
1775714878747034400,10.654034423828126,0.2544129192829132,0.18327249586582184,0.13537542521953583
1775714878757048300,10.66404833984375,0.22309282422065735,0.17230133712291718,0.16509230434894562
1775714878767062300,10.674062255859376,0.19074904918670654,0.134262353181839,0.20237113535404205
1775714878777076200,10.684076171875,0.17305713891983032,0.08441969752311707,0.2163921594619751
1775714878787090200,10.694090087890626,0.17754201591014862,0.09724362194538116,0.20453177392482758
1775714878797103000,10.70410302734375,0.1863458901643753,0.13141891360282898,0.16591913998126984
1775714878807117300,10.714117431640625,0.19036215543746948,0.13654115796089172,0.12816423177719116
1775714878817131300,10.72413134765625,0.1684723049402237,0.14468510448932648,0.11534751206636429
1775714878827145200,10.734145263671875,0.1323316991329193,0.15868933498859406,0.11233125627040863
1775714878837159200,10.7441591796875,0.10148964077234268,0.14796052873134613,0.10783584415912628
1775714878847172400,10.75417236328125,0.07263244688510895,0.14316226541996002,0.11630389839410782
1775714878857186300,10.764186279296876,0.06258274614810944,0.11014039814472198,0.1303344964981079
1775714878867200300,10.7742001953125,0.05301899090409279,0.07205339521169662,0.1541345864534378
1775714878877214200,10.784214111328126,0.04214050993323326,0.017478832975029945,0.18077312409877777
1775714878887228200,10.794228271484375,0.044511280953884125,-0.015440817922353745,0.20307870209217072
1775714878897241300,10.804241455078126,0.06408045440912247,-0.03932564705610275,0.2030552625656128
1775714878907255300,10.81425537109375,0.07299524545669556,-0.054211072623729706,0.17986230552196503
1775714878917269200,10.824269287109376,0.07355610281229019,-0.0626082792878151,0.15719321370124817
1775714878927283200,10.834283203125,0.08021422475576401,-0.08450077474117279,0.11487565189599991
1775714878937297400,10.84429736328125,0.10711374878883362,-0.0877852514386177,0.046740803867578506
1775714878947310300,10.854310302734374,0.12114299833774567,-0.056158870458602905,-0.028643138706684113
1775714878957324300,10.86432421875,0.11976481229066849,-0.03919799625873566,-0.1021256074309349
1775714878967338200,10.874338134765624,0.1287398785352707,-0.031198518350720406,-0.15611085295677185
1775714878977352400,10.8843525390625,0.14880280196666718,-0.030345240607857704,-0.19575440883636475
1775714878987366100,10.8943662109375,0.14565244317054749,-0.0426374115049839,-0.2036689966917038
1775714878997379300,10.90437939453125,0.12999197840690613,-0.0740765631198883,-0.17619289457798004
1775714879007393300,10.914393310546876,0.10932877659797668,-0.12024987488985062,-0.12478327006101608
1775714879017407200,10.9244072265625,0.06993476301431656,-0.13560378551483154,-0.04737237095832825
1775714879027421200,10.934421142578126,0.034045010805130005,-0.17425143718719482,0.010065330192446709
1775714879037435400,10.944435302734375,0.027501892298460007,-0.2007749229669571,0.03192136064171791
1775714879047449300,10.954449462890626,0.050967082381248474,-0.21777434647083282,0.03528816998004913
1775714879057462300,10.964462158203125,0.07713290303945541,-0.22599445283412933,0.028393512591719627
1775714879067476200,10.974476318359375,0.10447346419095993,-0.23928867280483246,0.004383455496281385
1775714879077490400,10.984490478515625,0.13727135956287384,-0.24972505867481232,-0.01501341164112091
1775714879087504100,10.994504150390625,0.1801091879606247,-0.24489136040210724,-0.022756511345505714
1775714879097518000,11.00451806640625,0.1900305151939392,-0.23480889201164246,-0.019271232187747955
1775714879107531300,11.01453125,0.18773378431797028,-0.2466963827610016,-0.021428128704428673
1775714879117545500,11.02454541015625,0.168927863240242,-0.30171677470207214,-0.02394375018775463
1775714879127559200,11.03455908203125,0.1619575321674347,-0.3161299526691437,-0.009759228676557541
1775714879137573000,11.044572998046876,0.16355037689208984,-0.3296319246292114,0.0406900979578495
1775714879147587300,11.05458740234375,0.14152152836322784,-0.3331671357154846,0.12019377201795578
1775714879157600300,11.064600341796876,0.1388799399137497,-0.3660806119441986,0.22093023359775543
1775714879167614200,11.0746142578125,0.09485603868961334,-0.3601193130016327,0.34804150462150574
1775714879177628200,11.084628173828126,-0.035751234740018845,-0.37378427386283875,0.4368661642074585
1775714879187642400,11.094642333984375,-0.24249804019927979,-0.39460238814353943,0.38864219188690186
1775714879197656000,11.104656005859376,-0.45091864466667175,-0.36586475372314453,0.11887434870004654
1775714879207669200,11.114669189453124,-0.5711529850959778,-0.2756137549877167,-0.31934666633605957
1775714879217683200,11.12468310546875,-0.5863652229309082,-0.10105472803115845,-0.6978654265403748
1775714879227697400,11.134697509765624,-0.5075236558914185,0.030528005212545395,-0.8706977367401123
1775714879237710800,11.1447109375,-0.33873915672302246,0.06172133982181549,-0.8592035174369812
1775714879247725000,11.15472509765625,-0.12023626267910004,0.018596209585666656,-0.7413668632507324
1775714879257739000,11.164739013671875,0.08230458945035934,-0.014424856752157211,-0.5653047561645508
1775714879267752200,11.174752197265626,0.2768048346042633,0.028987597674131393,-0.3623788058757782
1775714879277766000,11.184765869140625,0.40891972184181213,0.06879599392414093,-0.16889721155166626
1775714879287780000,11.194780029296876,0.430481493473053,0.05050748214125633,-0.030469819903373718
1775714879297794000,11.2047939453125,0.34384116530418396,0.032535940408706665,0.05391989275813103
1775714879307808300,11.214808349609376,0.18574705719947815,0.06001937389373779,0.10292867571115494
1775714879317821000,11.224821044921875,0.009442874230444431,0.09529107809066772,0.0944393202662468
1775714879327835100,11.234835205078125,-0.14213186502456665,0.12955287098884583,0.038212843239307404
1775714879337849000,11.24484912109375,-0.25575965642929077,0.15834085643291473,-0.017546556890010834
1775714879347863000,11.254863037109375,-0.3432254195213318,0.1690368503332138,-0.03025035187602043
1775714879357877000,11.264876953125,-0.41385218501091003,0.1335158795118332,-0.008408168330788612
1775714879367890200,11.27489013671875,-0.4537028670310974,0.11467930674552917,0.0348164439201355
1775714879377903900,11.28490380859375,-0.4611613154411316,0.10955724865198135,0.10105938464403152
1775714879387918000,11.29491796875,-0.47465112805366516,0.09588368237018585,0.18439531326293945
1775714879397932000,11.30493212890625,-0.48044589161872864,0.04592970758676529,0.2636618912220001
1775714879407946000,11.314946044921875,-0.46425893902778625,-0.004977148957550526,0.3192655146121979
1775714879417959000,11.324958984375,-0.46835222840309143,-0.02609228901565075,0.34757623076438904
1775714879427973000,11.33497314453125,-0.46584266424179077,-0.03774962201714516,0.3544653356075287
1775714879437987000,11.344987060546876,-0.4495678246021271,-0.04510101303458214,0.3484516441822052
1775714879448001000,11.3550009765625,-0.42110416293144226,-0.0479925200343132,0.3188239634037018
1775714879458015000,11.365014892578126,-0.38389235734939575,-0.03804295137524605,0.26729393005371094
1775714879468028200,11.375028076171875,-0.32723069190979004,-0.020867057144641876,0.222873717546463
1775714879478042000,11.3850419921875,-0.2729932963848114,-0.032110922038555145,0.21004128456115723
1775714879488056000,11.39505615234375,-0.23253606259822845,-0.06384429335594177,0.21906276047229767
1775714879498070000,11.405070068359375,-0.2140667736530304,-0.11152872443199158,0.23428085446357727
1775714879508084000,11.415083984375,-0.21702967584133148,-0.16153542697429657,0.25562238693237305
1775714879518098200,11.42509814453125,-0.20691446959972382,-0.17529037594795227,0.2906397581100464
1775714879528111000,11.435111083984374,-0.1929132044315338,-0.15685294568538666,0.3148987591266632
1775714879538125000,11.445125,-0.17031975090503693,-0.17666099965572357,0.312113881111145
1775714879548139000,11.455138916015626,-0.15233084559440613,-0.2206626981496811,0.3006034791469574
1775714879558153200,11.4651533203125,-0.15751522779464722,-0.2382957637310028,0.2861185371875763
1775714879568167000,11.4751669921875,-0.16039711236953735,-0.22716428339481354,0.24819160997867584
1775714879578180000,11.48518017578125,-0.140266552567482,-0.1988692730665207,0.1827063411474228
1775714879588194000,11.495194091796876,-0.11997485905885696,-0.16326391696929932,0.11536595970392227
1775714879598208000,11.5052080078125,-0.09321701526641846,-0.11407932639122009,0.0679001733660698
1775714879608222000,11.515221923828125,-0.0822187066078186,-0.11761113256216049,0.032719749957323074
1775714879618236200,11.525236083984375,-0.09672414511442184,-0.14112284779548645,0.009412828832864761
1775714879628249000,11.5352490234375,-0.11633332818746567,-0.14190250635147095,-0.01102158147841692
1775714879638263000,11.545262939453124,-0.12984168529510498,-0.1333494931459427,-0.030225370079278946
1775714879648277000,11.555277099609375,-0.13381503522396088,-0.1404581367969513,-0.046967651695013046
1775714879658291200,11.565291259765624,-0.12891322374343872,-0.1398320198059082,-0.07439768314361572
1775714879668305200,11.57530517578125,-0.1102132648229599,-0.11340135335922241,-0.10198609530925751
1775714879678318000,11.585318115234376,-0.08804964274168015,-0.08240455389022827,-0.1096101924777031
1775714879688332000,11.59533203125,-0.06143708527088165,-0.05331213399767876,-0.10473422706127167
1775714879698346200,11.60534619140625,-0.03427630290389061,-0.03189472481608391,-0.06771575659513474
1775714879708360000,11.61535986328125,-0.024067705497145653,-0.05792159214615822,-0.010798157192766666
1775714879718374000,11.625373779296876,-0.03719522804021835,-0.10193698853254318,0.04006129503250122
1775714879728387000,11.635386962890625,-0.05375877767801285,-0.12124542146921158,0.058818235993385315
1775714879738401000,11.645401123046875,-0.07263899594545364,-0.11346393078565598,0.031124290078878403
1775714879748415000,11.6554150390625,-0.0901455506682396,-0.09891002625226974,-0.039689164608716965
1775714879758429000,11.665428955078125,-0.08384344726800919,-0.09185504168272018,-0.13545642793178558
1775714879768443100,11.675443115234375,-0.05684930086135864,-0.03584200143814087,-0.2510216534137726
1775714879778456000,11.6854560546875,-0.03066590242087841,0.08260980993509293,-0.4042982757091522
1775714879788470000,11.695469970703124,0.007440054789185524,0.21229679882526398,-0.6085407137870789
1775714879798484000,11.70548388671875,0.05033079534769058,0.3157677948474884,-0.8207898139953613
1775714879808498200,11.715498291015624,0.07564518600702286,0.3802866041660309,-0.934175968170166
1775714879818512000,11.725511962890625,0.09673236310482025,0.3774186372756958,-0.8214089870452881
1775714879828525000,11.735525146484376,0.1116466149687767,0.28056666254997253,-0.46807411313056946
1775714879838539000,11.7455390625,0.08997620642185211,0.06303912401199341,-0.0028057568706572056
1775714879848553000,11.755552978515626,0.03370301425457001,-0.25331687927246094,0.4424327313899994
1775714879858567000,11.76556689453125,-0.04668130353093147,-0.4550587832927704,0.7642722725868225
1775714879868581000,11.7755810546875,-0.10532581061124802,-0.4609292149543762,0.9062634706497192
1775714879878595000,11.785594970703125,-0.11099381744861603,-0.36165857315063477,0.8741859793663025
1775714879888608000,11.79560791015625,-0.06067820265889168,-0.20953351259231567,0.6813417077064514
1775714879898622000,11.8056220703125,0.01196963805705309,-0.08020056039094925,0.3570108115673065
1775714879908636200,11.81563623046875,0.09702993184328079,0.03967376798391342,-0.02502639777958393
1775714879918650000,11.825650146484374,0.18593689799308777,0.15460222959518433,-0.3589327335357666
1775714879928664000,11.8356640625,0.25676819682121277,0.26613858342170715,-0.5380669832229614
1775714879938677000,11.845677001953124,0.2697063386440277,0.28485605120658875,-0.572763204574585
1775714879948691200,11.855691162109375,0.22726038098335266,0.20979802310466766,-0.49678266048431396
1775714879958705000,11.865704833984376,0.1742674708366394,0.08251915127038956,-0.3655189275741577
1775714879968719000,11.875718994140625,0.11835572868585587,-0.008409911766648293,-0.24245242774486542
1775714879978733000,11.885733154296876,0.06591781973838806,-0.04665663465857506,-0.20571599900722504
1775714879988746200,11.895746337890625,0.03342398256063461,-0.042578645050525665,-0.2852385342121124
1775714879998760000,11.905760009765626,0.022059742361307144,0.017670581117272377,-0.4535878598690033
1775714880008774100,11.915774169921875,0.03286200761795044,0.11243341118097305,-0.5940768122673035
1775714880018788000,11.9257880859375,0.05939668044447899,0.17530213296413422,-0.6135892271995544
1775714880028802000,11.935802001953125,0.0668896809220314,0.15029990673065186,-0.5217575430870056
1775714880038815000,11.94581494140625,0.0489671416580677,0.0793684795498848,-0.36458760499954224
1775714880048829200,11.9558291015625,0.02148336172103882,-0.01881137304008007,-0.202017143368721
1775714880058843100,11.965843017578125,-0.012624007649719715,-0.11723674833774567,-0.03793738782405853
1775714880068856800,11.97585693359375,-0.02378954365849495,-0.17547652125358582,0.06305910646915436
1775714880078871000,11.98587109375,-0.013495893217623234,-0.18969327211380005,0.052921511232852936
1775714880088884200,11.99588427734375,-0.017421763390302658,-0.14750079810619354,-0.02757686749100685
1775714880098898200,12.005898193359375,-0.028425145894289017,-0.07882772386074066,-0.09852640330791473
1775714880108911900,12.015911865234376,-0.019460802897810936,-0.021440336480736732,-0.1319405734539032
1775714880118926000,12.025926025390625,0.011575144715607166,-0.00778018357232213,-0.13003695011138916
1775714880128940000,12.03593994140625,0.06430254131555557,-0.019077394157648087,-0.10782264918088913
1775714880138953000,12.045952880859375,0.10676318407058716,-0.014717798680067062,-0.08289333432912827
1775714880148967000,12.055966796875,0.1440810263156891,-0.012685788795351982,-0.06598688662052155
1775714880158981000,12.065981201171875,0.19501158595085144,-0.034010786563158035,-0.053225018084049225
1775714880168995000,12.0759951171875,0.2527276277542114,-0.06537110358476639,-0.030713316053152084
1775714880179009000,12.086009033203124,0.2829984426498413,-0.08788333833217621,-0.014034469611942768
1775714880189022000,12.09602197265625,0.2956143617630005,-0.08151654899120331,-0.022027352824807167
1775714880199036200,12.1060361328125,0.2934587895870209,-0.04766910523176193,-0.055409278720617294
1775714880209049900,12.1160498046875,0.2810455560684204,-0.015912290662527084,-0.10755210369825363
1775714880219064000,12.12606396484375,0.26352623105049133,0.010402403771877289,-0.17007140815258026
1775714880229078000,12.136078125,0.26482880115509033,0.04352780058979988,-0.21806451678276062
1775714880239091500,12.146091552734376,0.2593719959259033,0.08330557495355606,-0.2320927232503891
1775714880249105400,12.15610546875,0.23920398950576782,0.10670606046915054,-0.2284700870513916
1775714880259119600,12.16611962890625,0.20530489087104797,0.09899035096168518,-0.20928680896759033
1775714880269133600,12.176133544921875,0.16100449860095978,0.07626748085021973,-0.16638775169849396
1775714880279147500,12.1861474609375,0.11285160481929779,0.05169396102428436,-0.11176630109548569
1775714880289160400,12.196160400390625,0.07280001044273376,0.04437672346830368,-0.07091206312179565
1775714880299174700,12.206174560546875,0.06181393936276436,0.0637834444642067,-0.058682024478912354
1775714880309188600,12.216188720703125,0.06371022760868073,0.10169412195682526,-0.05693953484296799
1775714880319202300,12.226202392578125,0.08241067826747894,0.11857376992702484,-0.06617084890604019
1775714880329216500,12.236216552734374,0.11768647283315659,0.13997556269168854,-0.05208434909582138
1775714880339230500,12.24623046875,0.12787678837776184,0.14269225299358368,-0.032075751572847366
1775714880349243400,12.256243408203124,0.1091516762971878,0.10825680196285248,-0.027750467881560326
1775714880359257300,12.26625732421875,0.08446790277957916,0.07586796581745148,-0.03638363629579544
1775714880369271600,12.276271484375,0.07221326231956482,0.0653468668460846,-0.04480912536382675
1775714880379285500,12.286285400390625,0.06207834184169769,0.09536122530698776,-0.05847220495343208
1775714880389299700,12.2962998046875,0.05172254145145416,0.11035023629665375,-0.09646221250295639
