time,seconds_elapsed,z,y,x
1775721921269976600,0.0559765625,-9.802965174007415,-0.17317018104391171,0.20560953848632052
1775721921279990500,0.065990478515625,-9.803394797596335,-0.20489733509635552,0.147812169297738
1775721921290003500,0.07600341796875,-9.803656078881025,-0.22459409707728772,0.09090781255927868
1775721921300017700,0.086017578125,-9.803863584151863,-0.22783649479830637,0.05227397069118451
1775721921310030300,0.0960302734375,-9.804263397124409,-0.21148308842852712,0.0455474160822574
1775721921320044500,0.10604443359375,-9.804909878334403,-0.1702243185840547,0.07175769727621227
1775721921330057700,0.1160576171875,-9.80532430435419,-0.10459379895124583,0.12272227956899441
1775721921340071400,0.126071533203125,-9.804850841623544,-0.021614329422533045,0.1865952788768336
1775721921350084600,0.136084716796875,-9.803241068339346,0.07414167436987627,0.24769316004868594
1775721921360098600,0.1460986328125,-9.800480371454357,0.17757791448356583,0.2990643777804449
1775721921370111500,0.156111572265625,-9.796637724551559,0.28093402486601843,0.34255865159202364
1775721921380125400,0.16612548828125,-9.792541395148634,0.37099966011326757,0.37265612208340315
1775721921390138600,0.176138671875,-9.79005191642046,0.43226244952324777,0.37204511404559015
1775721921400152300,0.18615234375,-9.790522456541657,0.4561116732748225,0.32865864799004046
1775721921410165500,0.19616552734375,-9.79374141858816,0.43868101132865994,0.24611526147378607
1775721921420179700,0.2061796875,-9.798318809506297,0.38593390213381495,0.11993219219273887
1775721921430192400,0.2161923828125,-9.801581610694527,0.3113020011281594,-0.04970628476080019
1775721921440206600,0.22620654296875,-9.801419698131085,0.22362514244727788,-0.22923611419685183
1775721921450219500,0.236219482421875,-9.798383691436051,0.12857131612445227,-0.38147776297517116
1775721921460233500,0.2462333984375,-9.79398341065049,0.036153238282829986,-0.496953204087913
1775721921470246700,0.25624658203125,-9.788368493378162,-0.0408071673191851,-0.597131378553994
1775721921480260600,0.266260498046875,-9.782690447741746,-0.09956219799220561,-0.6778223969355225
1775721921490273500,0.2762734375,-9.778763629686832,-0.13568063667300156,-0.7264684274870902
1775721921500287500,0.28628759765625,-9.776820094403623,-0.14463300040550528,-0.7505028716124594
1775721921510300700,0.29630078125,-9.776091780129075,-0.12735023163058795,-0.7630184351187199
1775721921520314400,0.306314453125,-9.776302208009362,-0.0873288489608094,-0.7659468167208134
1775721921530327600,0.31632763671875,-9.777903213465214,-0.02827877173081506,-0.7497937004297971
1775721921540341500,0.326341552734375,-9.782390003490448,0.04345936689497903,-0.6879952697731554
1775721921550354400,0.3363544921875,-9.787774034616351,0.12207849263958633,-0.5957865032836794
1775721921560368600,0.34636865234375,-9.791992529094218,0.1985111594568938,-0.49785252754781395
1775721921570381600,0.356381591796875,-9.79491689210832,0.2620345142100006,-0.4016522072041407
1775721921580395500,0.3663955078125,-9.796696761262416,0.30727241681851447,-0.3173406237052753
1775721921590408400,0.376408447265625,-9.798109550669789,0.3306958529060706,-0.24098153358083216
1775721921600421400,0.38642138671875,-9.7994124499619,0.33258334715310484,-0.17689071767069398
1775721921610435600,0.396435546875,-9.800711257600783,0.31699104308262466,-0.1263531012188643
1775721921620448500,0.406448486328125,-9.802094820913672,0.28906393890026955,-0.07592168508786708
1775721921630462500,0.41646240234375,-9.803250420689583,0.25631726907435803,-0.0310654113412369
1775721921640475400,0.426475341796875,-9.804033095499873,0.22652848093966022,0.0022522899915980816
1775721921650489600,0.436489501953125,-9.804398421680927,0.20841122496882453,0.026909641085367184
1775721921660502500,0.44650244140625,-9.804192669975757,0.21610725936414674,0.038607903709239326
1775721921670516500,0.4565166015625,-9.803056359422206,0.2629735303594731,0.0362968799706432
1775721921680529700,0.46652978515625,-9.800198631903529,0.35430337685625996,0.03091635369278956
1775721921690543400,0.47654345703125,-9.794594236025214,0.48431850771401075,0.04174532951870933
1775721921700556500,0.486556640625,-9.785991242852807,0.6333682651158422,0.05999015282539185
1775721921710570500,0.496570556640625,-9.776721310204266,0.758433664611727,0.10434310299265198
1775721921720583400,0.50658349609375,-9.76936627126634,0.8438141925163567,0.1335905781917274
1775721921730597400,0.516597412109375,-9.766456521299482,0.8782851288516074,0.12379770851447246
1775721921740610300,0.5266103515625,-9.768830849215387,0.8565832923922687,0.08121267676861024
1775721921750624500,0.53662451171875,-9.775436531090735,0.7817347529612481,0.010709607779548968
1775721921760637200,0.54663720703125,-9.783453248807787,0.6680120007347315,-0.09049360573519952
1775721921770651400,0.5566513671875,-9.790262344300746,0.5284292329235002,-0.20472108348030596
1775721921780664300,0.566664306640625,-9.794230078887939,0.37703331425432113,-0.31825744628924874
1775721921790678300,0.57667822265625,-9.794356920138,0.23217697168802842,-0.4324904495928436
1775721921800691500,0.58669140625,-9.790900642204283,0.10807265404295176,-0.5449463236887008
1775721921810705400,0.596705322265625,-9.785597275099157,0.014157563126203603,-0.642082755838707
1775721921820718300,0.60671826171875,-9.78087316918671,-0.04802305808132514,-0.7089413924943655
1775721921830732300,0.616732177734375,-9.778621590867639,-0.07722534243180416,-0.736868971600756
1775721921840745200,0.6267451171875,-9.777918995556234,-0.07279194939450825,-0.7465850405815988
1775721921850759200,0.63675927734375,-9.77804116063118,-0.03044620401394786,-0.7479086904007941
1775721921860772400,0.6467724609375,-9.778839033010602,0.03468339405913139,-0.7372130357980727
1775721921870786300,0.656786376953125,-9.779310742175578,0.09242659222492948,-0.7258957421656698
1775721921880799200,0.66679931640625,-9.77856196963489,0.12498851660108193,-0.7310845429804176
1775721921890813400,0.6768134765625,-9.776541277462243,0.12810215510958806,-0.7571122798148542
1775721921900826000,0.686826171875,-9.774077517697215,0.10928534516780637,-0.7911077806580811
1775721921910840300,0.69684033203125,-9.771322666031121,0.08295754767456091,-0.8275025977279991
1775721921920853500,0.706853515625,-9.767965172296762,0.05755411675092764,-0.8682876856461167
1775721921930867500,0.716867431640625,-9.763886378550529,0.03486949578233761,-0.9141626440491527
1775721921940880400,0.72688037109375,-9.75894132336378,0.016735386858112176,-0.9660055709458887
1775721921950894300,0.736894287109375,-9.754490189173817,0.01178684737291187,-1.0100312482204288
1775721921960907300,0.7469072265625,-9.755447636029123,0.03757354655966628,-1.0001061395987867
1775721921970920400,0.75692041015625,-9.760749249568581,0.08214512617997825,-0.9441478132724761
1775721921980934400,0.766934326171875,-9.766623110038042,0.128794420823222,-0.8757113328408449
1775721921990947300,0.776947265625,-9.770669170558453,0.1682069326133467,-0.8222650624006986
1775721922000961300,0.786961181640625,-9.772345579338074,0.18809611189384012,-0.7976654586732387
1775721922010974500,0.796974365234375,-9.772131644326448,0.1885503219347447,-0.8001718154709786
1775721922020988200,0.80698828125,-9.770758017885685,0.17788761975355447,-0.8191640276454388
1775721922031001300,0.81700146484375,-9.768765967285633,0.16386035477640107,-0.8454264500185846
1775721922041015300,0.827015380859375,-9.766616680297256,0.1541834670284763,-0.8716712636698037
1775721922051028200,0.8370283203125,-9.764495450359583,0.15668808852685615,-0.8946838174015284
1775721922061042400,0.84704248046875,-9.763379013550281,0.1754286822941154,-0.9033497197423129
1775721922071055400,0.857055419921875,-9.764066411292552,0.20784111519698054,-0.8889283956799655
1775721922081069300,0.8670693359375,-9.766574010199308,0.2483604283183813,-0.8501398153413087
1775721922091082200,0.877082275390625,-9.769987618035078,0.2922867551379837,-0.7951687464866787
1775721922101096400,0.887096435546875,-9.77373031169474,0.3316047479119152,-0.7311721481986343
1775721922111109400,0.897109375,-9.777544317024946,0.3584978328714147,-0.664450801121816
1775721922121123300,0.907123291015625,-9.780953248685599,0.371507865363732,-0.6044181380286813
1775721922131136500,0.917136474609375,-9.783694656348228,0.372858805048652,-0.557389369948022
1775721922141150200,0.927150146484375,-9.78544471488595,0.36809137145113197,-0.5291138176541775
1775721922151163400,0.937163330078125,-9.78606021643579,0.3637222895214334,-0.5206893959190696
1775721922161177300,0.94717724609375,-9.786009363031386,0.3631553032884374,-0.5220407739954069
1775721922171190300,0.957190185546875,-9.785748666268587,0.36749318636227396,-0.5238857808075845
1775721922181204200,0.967204345703125,-9.785519533687829,0.3764244251083582,-0.5218190940687433
1775721922191217400,0.977217529296875,-9.785522456297278,0.3890070259688422,-0.5124493543075397
1775721922201231400,0.9872314453125,-9.785847450467944,0.4027823437452316,-0.4953138759156689
1775721922211244300,0.997244384765625,-9.786354815468192,0.4148576526707038,-0.4749124910630285
1775721922221258500,1.007258544921875,-9.787057995301485,0.4227351080475375,-0.45296537460573016
1775721922231271200,1.017271240234375,-9.787881586644053,0.4268187240993604,-0.4307908426007256
1775721922241285400,1.027285400390625,-9.788639127013086,0.4283870693946257,-0.411592330731824
1775721922251298300,1.03729833984375,-9.7894147875607,0.42640594204738735,-0.39486331424899396
1775721922261312300,1.047312255859375,-9.790129657831788,0.4204674919091165,-0.38334468935821203
1775721922271325400,1.057325439453125,-9.790699566674231,0.41051670085694636,-0.37955088656581937
1775721922281338000,1.067338134765625,-9.79122738994062,0.39790447204317897,-0.3793776123581454
1775721922291352300,1.077352294921875,-9.791834708184004,0.38511042038910087,-0.37688543021623044
1775721922301365200,1.087365234375,-9.792536718973517,0.37533410912100224,-0.3684262659613043
1775721922311379500,1.09737939453125,-9.793423438680172,0.3694390232004225,-0.3503725036807358
1775721922321392400,1.107392333984375,-9.794303728646039,0.3679698639633134,-0.3264980724226683
1775721922331406300,1.11740625,-9.794939103940129,0.37038185700848697,-0.30392619339684024
1775721922341419300,1.127419189453125,-9.795350607350468,0.37334337369520215,-0.28653219193294643
1775721922351433200,1.13743310546875,-9.795651636123656,0.3736897759800777,-0.27559207931617274
1775721922361446400,1.1474462890625,-9.79598013742566,0.37013953615259376,-0.26860660434300077
1775721922371460000,1.157460205078125,-9.796340787431598,0.3644262000070885,-0.2632154676228762
1775721922381473300,1.167473388671875,-9.796675718474388,0.35869635111819953,-0.25858347870698195
1775721922391487500,1.177487548828125,-9.796976747247577,0.3526071308650076,-0.25553044781191275
1775721922401500200,1.187500244140625,-9.797271930801868,0.3455019019696861,-0.2539270312032662
1775721922411514400,1.197514404296875,-9.797582896447182,0.33778033127430823,-0.2523088554169051
1775721922421527300,1.20752734375,-9.797870481216908,0.33086496239528057,-0.25030328774815425
1775721922431541200,1.217541259765625,-9.798137023198604,0.3266661224659532,-0.24531958105145021
1775721922441554400,1.227554443359375,-9.798389536654948,0.3257969384159893,-0.23623232975974678
1775721922451568400,1.237568359375,-9.798747848573326,0.32558420898076146,-0.22118624312886967
1775721922461581300,1.247581298828125,-9.799138309195637,0.3258377088177949,-0.20274116170946507
1775721922471595300,1.25759521484375,-9.799470317628979,0.32738329429198054,-0.1832706827650778
1775721922481608400,1.2676083984375,-9.799661456286907,0.33113753225896503,-0.1654248641467653
1775721922491622100,1.2776220703125,-9.799642751586436,0.33775461231116205,-0.15268448804183862
1775721922501635300,1.28763525390625,-9.799437584403156,0.3467461664097383,-0.1455279582175426
1775721922511648500,1.2976484375,-9.799036017864942,0.3581231908727437,-0.14501383468294515
1775721922521662200,1.307662109375,-9.798567231309413,0.36976251953374595,-0.1474496195956599
1775721922531675400,1.31767529296875,-9.798155143377183,0.3800228879917413,-0.1487277771721594
1775721922541689300,1.327689453125,-9.79779215528369,0.3897472864095121,-0.14747331099850125
1775721922551702300,1.337702392578125,-9.797519768083095,0.39861064755115655,-0.14175569140352307
1775721922561716200,1.34771630859375,-9.797289466458558,0.4068198191003874,-0.13415061409412882
1775721922571729400,1.3577294921875,-9.797112940847873,0.41344373075217006,-0.12660628139548935
1775721922581743400,1.367743408203125,-9.797017079257964,0.41750769225545226,-0.12053041381421498
1775721922591756300,1.37775634765625,-9.797022924476861,0.4179376081053167,-0.11856555261518806
1775721922601770500,1.3877705078125,-9.797223415485023,0.413531043709442,-0.11741267451932653
1775721922611783200,1.397783203125,-9.797512753820419,0.4069260194212198,-0.1163431455916725
1775721922621797400,1.40779736328125,-9.797750069707632,0.4014843032913282,-0.11526719605638645
1775721922631810300,1.417810302734375,-9.797831318250298,0.3997755996773019,-0.11431589581407606
1775721922641824300,1.42782421875,-9.797695124650001,0.40284634889215226,-0.11518332629837096
1775721922651837400,1.43783740234375,-9.797382989960909,0.4093548174707219,-0.11875252655465156
1775721922661851400,1.447851318359375,-9.79695161280632,0.4171374341709539,-0.1269854169061873
1775721922671864300,1.4578642578125,-9.796436064499616,0.42430524344108994,-0.14208266746872103
1775721922681878300,1.467878173828125,-9.795931037586927,0.42834545874260366,-0.1631989682582207
1775721922691891500,1.477891357421875,-9.795468096250294,0.42922370288185774,-0.1869664868094027
1775721922701905200,1.4879052734375,-9.794987619256972,0.43043037525787947,-0.20817074901014565
1775721922711918300,1.49791845703125,-9.794351659440993,0.43578788370303806,-0.22616003121975808
1775721922721932300,1.507932373046875,-9.793588858374953,0.4472395808374509,-0.23659376521697267
1775721922731945000,1.517945068359375,-9.792803260955214,0.46537137679029256,-0.2341438330478966
1775721922741958000,1.5279580078125,-9.79204630510807,0.48744836670495567,-0.22047475212495773
1775721922751971800,1.537971923828125,-9.791573426899314,0.5065674931947142,-0.19714829187216237
1775721922761984800,1.54798486328125,-9.791412683379649,0.5191261286577209,-0.17065830782083793
1775721922771999000,1.5579990234375,-9.791547707936168,0.5239808021472767,-0.1463451015530154
1775721922782012000,1.568011962890625,-9.79193407690525,0.5221788307592272,-0.1254822001358494
1775721922792026000,1.578026123046875,-9.792422152683137,0.5168727602403611,-0.10812971799243241
1775721922802038800,1.588038818359375,-9.792905552285909,0.5106145766284317,-0.09301748905647546
1775721922812053000,1.598052978515625,-9.793338683006167,0.5047132070975378,-0.07851597589738667
1775721922822066000,1.60806591796875,-9.793670691439509,0.4998430437779054,-0.06746902820554096
1775721922832080000,1.618079833984375,-9.793999192741513,0.4941217800542712,-0.06167603725283406
1775721922842093000,1.628093017578125,-9.794438168680667,0.485206506062299,-0.06272557370522991
1775721922852107000,1.63810693359375,-9.79502736674547,0.4722932850079611,-0.06902472408178728
1775721922862120000,1.648119873046875,-9.79562708620429,0.45820948580428955,-0.07819318281696178
1775721922872134000,1.6581337890625,-9.796118669113516,0.4459926860488951,-0.08682236074339598
1775721922882146800,1.668146728515625,-9.796476981031894,0.43680462299752976,-0.0928525716851931
1775721922892160800,1.678160888671875,-9.796718973094224,0.4299594332778826,-0.09905279629849828
1775721922902174000,1.688174072265625,-9.796976747247577,0.4221396994376555,-0.10689512556302361
1775721922912188200,1.698188232421875,-9.797276606976986,0.41211503943167627,-0.11797825424652546
1775721922922200800,1.708200927734375,-9.797571790531277,0.4013091293875128,-0.1300672629037872
1775721922932215000,1.718215087890625,-9.79776994345188,0.3932410833420232,-0.1394769602160435
1775721922942228000,1.72822802734375,-9.797813782593607,0.3902930471913889,-0.14456406335514038
1775721922952241000,1.738240966796875,-9.797779295802115,0.39132922183871266,-0.144087577550346
1775721922962255000,1.748255126953125,-9.797765267276763,0.3936671997996047,-0.13857581012523731
1775721922972267800,1.758267822265625,-9.797875157392024,0.39411092497911304,-0.12923098560958168
1775721922982282000,1.768281982421875,-9.798136438676714,0.39085163092222064,-0.11892355400631203
1775721922992295000,1.778294921875,-9.79848072206974,0.38465171683616933,-0.11049129602462053
1775721923002308900,1.788308837890625,-9.798799871021508,0.3782162404285744,-0.10421381405717693
1775721923012322000,1.798322021484375,-9.798997439420223,0.3738403634319082,-0.1013487343491055
1775721923022336000,1.8083359375,-9.799139478239416,0.3700706721674651,-0.1015016416221857
1775721923032349000,1.818348876953125,-9.7992821015805,0.36583036771658806,-0.10305032323575578
1775721923042363000,1.82836279296875,-9.799415372571348,0.36172779123596843,-0.1048567972689867
1775721923052376000,1.8383759765625,-9.799538706690072,0.357987435663864,-0.10618670329903251
1775721923062389800,1.8483896484375,-9.799604173141717,0.3559914030084386,-0.1068066435619723
1775721923072403000,1.85840283203125,-9.799628138539195,0.35621841669734566,-0.10381841239826753
1775721923082417000,1.8684169921875,-9.799612356448172,0.3580698897829279,-0.09885902729206718
1775721923092429800,1.878429931640625,-9.799589560094475,0.3600905454229563,-0.09358930672821589
1775721923102444000,1.888444091796875,-9.799531107905507,0.3627738296901807,-0.08929290644223802
1775721923112457000,1.89845703125,-9.799427063009142,0.3659452993331477,-0.08775990645498968
1775721923122471000,1.908470947265625,-9.799297883671521,0.3688487656896934,-0.08995659451535902
1775721923132483800,1.91848388671875,-9.79915058415532,0.3714594961773604,-0.09515131361423991
1775721923142498000,1.928498046875,-9.7990044536829,0.37394627149179577,-0.10032746500996872
1775721923152511000,1.938510986328125,-9.79890859209299,0.3756125242035836,-0.10341583207990042
1775721923162524000,1.94852392578125,-9.798898655220865,0.3756950513878837,-0.10404997439812869
1775721923172538000,1.9585380859375,-9.798940740796922,0.3747232472136616,-0.10356666612690314
1775721923182550800,1.96855078125,-9.798938987231255,0.37469745518527925,-0.10380883171916938
1775721923192565000,1.97856494140625,-9.798848970860242,0.37668939618747677,-0.10508732722238637
1775721923202578000,1.988577880859375,-9.79868413568735,0.38059787486810237,-0.10639935966902411
1775721923212591900,1.998591796875,-9.798467278066276,0.3858765093907714,-0.10734651345917955
1775721923222605000,2.00860498046875,-9.798272047755122,0.39134953397437927,-0.10533433338655158
1775721923232619000,2.018618896484375,-9.798194306343794,0.39459173076599835,-0.10032711795009672
1775721923242632000,2.0286318359375,-9.798284322714805,0.39423758356608446,-0.09267304126666859
1775721923252646000,2.03864599609375,-9.798504687467217,0.3907121128536761,-0.08387753033000044
1775721923262658800,2.048658935546875,-9.798830850681663,0.3847848051639274,-0.07237225811113603
1775721923272672800,2.0586728515625,-9.79922774104476,0.37723932168781754,-0.056676708295312704
1775721923282686000,2.06868603515625,-9.799586637485026,0.37023780889529734,-0.037550046953069974
1775721923292700200,2.0787001953125,-9.79982219980657,0.36553251728117464,-0.016121307797089684
1775721923302712800,2.088712890625,-9.79991572330892,0.3633512277193367,0.002804687009176996
1775721923312727000,2.09872705078125,-9.799927413746714,0.36272491251453753,0.015442176701308926
1775721923322739700,2.10873974609375,-9.799928582790493,0.36226723187491294,0.023306778304791078
1775721923332753000,2.1187529296875,-9.799931505399941,0.36204149682763964,0.02564167154274182
1775721923342767000,2.12876708984375,-9.799981774282454,0.36078426330816,0.024076385854242835
1775721923352779800,2.13877978515625,-9.800070621609688,0.3584479293150827,0.022610165209602563
1775721923362794000,2.1487939453125,-9.800106277444959,0.35743166494462636,0.023274739198712632
1775721923372807000,2.158806884765625,-9.800078804916144,0.35792562247402965,0.027009665110451168
1775721923382820900,2.16882080078125,-9.800035550296306,0.35873116670325395,0.03159329397312831
1775721923392834000,2.178833984375,-9.799988204023242,0.35975049981363116,0.03449791567372158
1775721923402848000,2.188847900390625,-9.79993618157506,0.361195985914208,0.03421542035435559
1775721923412861000,2.19886083984375,-9.79991338522136,0.3621107992041856,0.030895954792154953
1775721923422875000,2.208875,-9.79993501253128,0.3620422274800017,0.024247911062825003
1775721923432888000,2.21888818359375,-9.799994633764028,0.3609605697231367,0.014193677902489434
1775721923442901800,2.22890185546875,-9.800077635872363,0.3589672770140692,0.0020914922438292705
1775721923452915000,2.2389150390625,-9.800108615532517,0.357976695074141,-0.01048249933416373
1775721923462929000,2.248928955078125,-9.800033212208747,0.3595995105030015,-0.02043525743948994
1775721923472941800,2.25894189453125,-9.799875975820422,0.3635313335265964,-0.025685122525400946
1775721923482956000,2.2689560546875,-9.799735690566896,0.36728038386180994,-0.025838979646551886
1775721923492969000,2.278968994140625,-9.799694774034618,0.3686886066919192,-0.020750901543209327
1775721923502983000,2.28898291015625,-9.799741535785794,0.36777379340194166,-0.013964701727003558
1775721923512995800,2.298995849609375,-9.799858440163732,0.36483014116548,-0.00781260769640794
1775721923523009000,2.309009033203125,-9.800014507508278,0.36068142398819325,-0.002506391332480416
1775721923533023000,2.31902294921875,-9.800175251027941,0.35630404915418473,0.0012272410962483264
1775721923543036000,2.329035888671875,-9.800354114726185,0.35133082731887694,0.0034689227861585095
1775721923553050000,2.339050048828125,-9.800528302249312,0.34642628680560733,0.004245384768082294
1775721923563062800,2.349062744140625,-9.800665664893389,0.34252906017135826,0.00391680840296467
1775721923573077000,2.359076904296875,-9.800713011166453,0.3411616077430546,0.0035504321945511036
1775721923583090000,2.36908984375,-9.800656897065043,0.3427743036366999,0.0035385610915443975
1775721923593104000,2.379103759765625,-9.800537654599546,0.34616222904194144,0.004741061043002991
1775721923603117000,2.389116943359375,-9.800412566915154,0.3496269460104406,0.0074864998517121415
1775721923613131000,2.399131103515625,-9.800331902894378,0.3517732007915154,0.011387883783737196
1775721923623144000,2.40914404296875,-9.800295662537216,0.3526225841624662,0.01578828786688391
1775721923633158000,2.419157958984375,-9.800265267398952,0.35324535570330917,0.019933908904786222
1775721923643170800,2.4291708984375,-9.800237210348248,0.35379531773626804,0.023807492085255216
1775721923653184800,2.439184814453125,-9.800202723556756,0.3545822668628767,0.02617559575635241
1775721923663198000,2.449197998046875,-9.800155961805581,0.35582192819304764,0.02669924060454359
1775721923673212200,2.459212158203125,-9.800075882306695,0.3580813244923949,0.025976145927805918
1775721923683224800,2.469224853515625,-9.799967745757103,0.36099878284167497,0.026316819441504775
1775721923693238000,2.479238037109375,-9.799882405561208,0.36311182947289194,0.028968023503455332
1775721923703251700,2.489251708984375,-9.79984265807271,0.36386381688397373,0.032682354151736946
1775721923713265000,2.499264892578125,-9.79984265807271,0.3634318552074954,0.03716465294823283
1775721923723279000,2.509279052734375,-9.799853763988613,0.3626759588062763,0.04144380298859905
1775721923733292000,2.5192919921875,-9.799882405561208,0.3614156200142577,0.045496882338263094
1775721923743306000,2.529305908203125,-9.799939688706397,0.3595032105216756,0.048247240492329
1775721923753319000,2.53931884765625,-9.799992880198358,0.35805195226743813,0.04818234942941926
1775721923763333000,2.5493330078125,-9.800034381252527,0.35735176810882985,0.044819878125842656
1775721923773346000,2.559345947265625,-9.800097509616613,0.3562115120325237,0.0398793438505847
1775721923783360000,2.569360107421875,-9.800202723556756,0.35401100631356236,0.03297674083829624
1775721923793373200,2.579373291015625,-9.800396784824132,0.34916166658625003,0.026228024629910942
1775721923803387000,2.589386962890625,-9.800709504035115,0.3406719245299697,0.02062342782219639
1775721923813400000,2.599400146484375,-9.801087105175853,0.329943573234044,0.0145946793267678
1775721923823414000,2.6094140625,-9.801504453805089,0.3175096966618672,0.00925597319266817
1775721923833427000,2.619427001953125,-9.801942845222353,0.30378486696369944,0.003730911319502047
1775721923843441000,2.62944091796875,-9.802334474888443,0.29089813205748793,0.0000023483743426240267
1775721923853454000,2.6394541015625,-9.80258348121345,0.282387730805669,-0.0001139070175434881
1775721923863467000,2.649467041015625,-9.80269512489438,0.27845769788036123,0.003905456748121651
1775721923873481000,2.65948095703125,-9.802726689076422,0.2771178458450362,0.011730366803676588
1775721923883494100,2.669494140625,-9.80269454037249,0.2778612663571723,0.01899057505651144
1775721923893507800,2.6795078125,-9.802625566789507,0.2799019236056134,0.023962958924891427
1775721923903521000,2.68952099609375,-9.802500479105115,0.28418979352526363,0.024695593181531875
1775721923913535200,2.69953515625,-9.802317523753642,0.2908401730588637,0.019075818212638842
1775721923923548000,2.7095478515625,-9.802101835176348,0.2985228913148865,0.008492857603618176
1775721923933562000,2.71956201171875,-9.80178034813702,0.308981193497777,-0.0038140604145432007
1775721923943575000,2.729574951171875,-9.801329681760071,0.32269484421480443,-0.013673985426919534
1775721923953589000,2.739589111328125,-9.800824654847382,0.3373103391423821,-0.02091881002259906
1775721923963602200,2.749602294921875,-9.800339501678943,0.3506363422486931,-0.02796068222497124
1775721923973616000,2.7596162109375,-9.799973590975998,0.36022177058719096,-0.033821413784800095
1775721923983629000,2.769629150390625,-9.799801157018543,0.364466239756532,-0.038069819343741984
1775721923993643000,2.77964306640625,-9.799833890244365,0.3633670463429764,-0.040008226360683324
1775721924003656000,2.789656005859375,-9.800070037087798,0.3568803877374157,-0.04055171755366027
1775721924013669000,2.799669189453125,-9.800440623965859,0.34625527762025593,-0.04310852589700371
1775721924023683000,2.80968310546875,-9.80086615590155,0.33290472459457815,-0.05084466854042839
1775721924033696000,2.819696044921875,-9.801306300884484,0.3170112821530551,-0.06543543088554869
1775721924043710000,2.8297099609375,-9.801733001863957,0.29799660241845993,-0.08723251244686543
1775721924053723100,2.83972314453125,-9.802105342307685,0.2746343036673032,-0.11698467663191259
1775721924063736800,2.84973681640625,-9.802448456656933,0.2448931540666148,-0.14973156565353274
1775721924073750000,2.85975,-9.802852945804595,0.20849453760441392,-0.17602787202997133
1775721924083764000,2.869763916015625,-9.80333108471036,0.16805744114005938,-0.1919473439618945
1775721924093777000,2.87977685546875,-9.803789349871874,0.1278200593657326,-0.1994009844360873
1775721924103791000,2.889791015625,-9.804120773783325,0.09212788327299058,-0.20276094412216916
1775721924113804000,2.899803955078125,-9.804266319733857,0.06345850935596972,-0.20669472164083272
1775721924123818000,2.90981787109375,-9.804233001986145,0.04251832318520173,-0.2135241475357674
1775721924133831000,2.919830810546875,-9.80411200595498,0.028072264257108324,-0.2213278618229553
1775721924143845000,2.92984521484375,-9.80399977775216,0.01613591285282164,-0.2273942491898313
1775721924153858000,2.939858154296875,-9.8039465862602,0.002741917977639241,-0.23023237695889545
1775721924163871000,2.94987109375,-9.803956523132324,-0.01283127839192748,-0.22947967716176063
1775721924173885200,2.95988525390625,-9.804009130102395,-0.02971662708078511,-0.22561322925826532
1775721924183897900,2.96989794921875,-9.804041863328218,-0.045414441918930966,-0.22155904023032635
1775721924193912000,2.979912109375,-9.804032510977983,-0.05760063190693036,-0.21911762016126884
1775721924203925200,2.98992529296875,-9.803902747118473,-0.0657663205074612,-0.22260926166931166
1775721924213939000,2.99993896484375,-9.803640296790004,-0.07167280003831256,-0.2321310136544518
1775721924223952100,3.0099521484375,-9.803221194595098,-0.07687301272964105,-0.24765604290869087
1775721924233966000,3.019966064453125,-9.802605693045258,-0.08613066128534265,-0.26812223662585016
1775721924243979000,3.02997900390625,-9.801643570014834,-0.10258216686788946,-0.2960556792174466
1775721924253993000,3.039992919921875,-9.800297416102886,-0.12521317393612116,-0.3299711188280955
1775721924264006100,3.050006103515625,-9.798799871021508,-0.1495330017409753,-0.36268713778741657
1775721924274019800,3.060019775390625,-9.797357855519651,-0.17275226615909486,-0.3902763152522966
1775721924284033000,3.070032958984375,-9.796012286129594,-0.1981361703983508,-0.4114220156662166
1775721924294047200,3.080047119140625,-9.794493113738298,-0.22922968445606529,-0.4309782183989882
1775721924304060000,3.090059814453125,-9.792516260707378,-0.26807280799355354,-0.45292719801981
1775721924314073000,3.100072998046875,-9.789989957100152,-0.3122420219246298,-0.47851906418763096
1775721924324087000,3.110087158203125,-9.786988437196612,-0.354013307868503,-0.5098211246958002
1775721924334100000,3.120099853515625,-9.783760122799873,-0.38551794174406673,-0.5475396281175315
1775721924344114200,3.1301142578125,-9.780828161001205,-0.4032771780574694,-0.5857911424374207
1775721924354126800,3.140126953125,-9.778317639485001,-0.40675767711699007,-0.6240480635847896
1775721924364141000,3.15014111328125,-9.775933374696969,-0.40170254915188996,-0.6634366556432097
1775721924374154000,3.160154052734375,-9.773349203422665,-0.3971737466158345,-0.7030489003896713
1775721924384168000,3.17016796875,-9.77005776066184,-0.3992593572508544,-0.7462867882873863
1775721924394181000,3.18018115234375,-9.765902394548059,-0.40847774237524714,-0.7941505093548447
1775721924404195000,3.190195068359375,-9.760870245599746,-0.4217706469295546,-0.8472933398690075
1775721924414208000,3.2002080078125,-9.755630591380596,-0.4353643245287239,-0.8991723609924316
1775721924424222000,3.210221923828125,-9.75049381301403,-0.444944272974506,-0.9488315871745348
1775721924434235100,3.220235107421875,-9.744998722729086,-0.4468275659704581,-1.0028595299601555
1775721924444248000,3.230248046875,-9.738664259010553,-0.4451096561366692,-1.0633351145152001
1775721924454262000,3.240261962890625,-9.730559863010049,-0.44463462250344454,-1.1352909281793981
1775721924464275200,3.250275146484375,-9.72065163245797,-0.4441355138748884,-1.2173966721970588
1775721924474289000,3.260288818359375,-9.709975340142845,-0.4452159295227378,-1.2994384841330349
1775721924484302000,3.270302001953125,-9.701697341141104,-0.45319827004615215,-1.3572250487998128
1775721924494316000,3.28031591796875,-9.697467740747332,-0.4740913839384913,-1.3801219402626157
1775721924504329000,3.290328857421875,-9.696499772498012,-0.5137808586396276,-1.3726982200026512
1775721924514343000,3.300343017578125,-9.696700848028064,-0.5708619419181719,-1.348513334555924
1775721924524356000,3.310356201171875,-9.695852122244238,-0.6363200275935232,-1.3251168230079113
1775721924534370000,3.3203701171875,-9.692942372277379,-0.7019115669228136,-1.3132318855553864
1775721924544383000,3.330383056640625,-9.688418172851204,-0.764240158933401,-1.3118205574527382
1775721924554397200,3.340397216796875,-9.682969844317435,-0.8188947091847658,-1.3190510932281612
1775721924564409900,3.350409912109375,-9.676668698346614,-0.8572910022702067,-1.3407171277217567
1775721924574423000,3.360423095703125,-9.670245387300849,-0.86985741918087,-1.378436325263232
1775721924584437200,3.370437255859375,-9.666618428975344,-0.8547939247574656,-1.4128681716971099
1775721924594450000,3.380449951171875,-9.668235216522216,-0.8169178561538457,-1.424169610173255
1775721924604464000,3.390464111328125,-9.674377372539043,-0.7663695721775293,-1.4104897521279751
1775721924614476800,3.400476806640625,-9.681384620952606,-0.7271707305375487,-1.3828957888901232
1775721924624491000,3.410490966796875,-9.685697223454714,-0.7128872075106948,-1.3599433678478001
1775721924634504200,3.420504150390625,-9.68465852805674,-0.7193287118002772,-1.3639425204865634
1775721924644518100,3.43051806640625,-9.67702993287444,-0.7405936912123113,-1.4060571765080094
1775721924654531000,3.440531005859375,-9.664242932015657,-0.77897807466425,-1.4717277724228799
1775721924664545000,3.450544921875,-9.650008070436119,-0.8362705722037702,-1.532441914974153
1775721924674558000,3.460557861328125,-9.636856912440061,-0.9027592795684933,-1.5768332837559282
1775721924684572000,3.470572021484375,-9.628078562700749,-0.9627651277199387,-1.5948577468767762
1775721924694585000,3.480585205078125,-9.626054363396763,-1.0082994559917597,-1.5788580675818025
1775721924704598000,3.490597900390625,-9.629217795863747,-1.0395026957679538,-1.5388262091837823
1775721924714612000,3.500612060546875,-9.632200026544927,-1.0628162052076309,-1.5038390669547022
1775721924724625200,3.510625244140625,-9.630954994919895,-1.087482006039098,-1.494145794327557
1775721924734639000,3.52063916015625,-9.625963762503861,-1.1239021036807446,-1.4993495004504918
1775721924744652000,3.530652099609375,-9.620655719223619,-1.1775609939582645,-1.4922196485705672
1775721924754666000,3.540666015625,-9.616217444515227,-1.2413422689951956,-1.4689512934468685
1775721924764679200,3.55067919921875,-9.61295113619566,-1.3031307627797126,-1.4364549451202153
1775721924774693400,3.560693359375,-9.61158569306135,-1.3527306599900126,-1.3992600637137889
1775721924784706000,3.5707060546875,-9.61252092808485,-1.3846464319497347,-1.3610960450142622
1775721924794720300,3.58072021484375,-9.615717678299546,-1.3991072112396359,-1.3232006141230463
1775721924804733000,3.59073291015625,-9.620778468820452,-1.3970561239287256,-1.288116002868861
1775721924814747100,3.6007470703125,-9.627677580684423,-1.3803084027454255,-1.2541764699965714
1775721924824760300,3.61076025390625,-9.63616834565401,-1.3510133346781135,-1.2204122206259518
1775721924834773000,3.62077294921875,-9.645722355940938,-1.3096522735029459,-1.1896378737863154
1775721924844787200,3.630787109375,-9.655293901884555,-1.2593567952439189,-1.16606227934435
1775721924854800100,3.640800048828125,-9.663851886871457,-1.2052779990538953,-1.15224030941464
1775721924864814000,3.65081396484375,-9.670159462583065,-1.150188564516604,-1.1556226453293115
1775721924874827300,3.6608271484375,-9.673440383949876,-1.097346470514685,-1.1793065955165773
1775721924884841200,3.67084130859375,-9.673291330868006,-1.0503693960886449,-1.2225143074717373
1775721924894854100,3.680854248046875,-9.66992448478341,-1.0125985414251684,-1.2796836900882422
1775721924904868000,3.6908681640625,-9.664561496445536,-0.9849266906455159,-1.3403556009329856
1775721924914881300,3.70088134765625,-9.658830843839048,-0.9658070526991039,-1.3944830585703254
1775721924924895000,3.71089501953125,-9.654398414349556,-0.9528766247816384,-1.4335267827138305
1775721924934908200,3.720908203125,-9.652355510345101,-0.9448495318010449,-1.4524720139414071
1775721924944922000,3.730922119140625,-9.65261737615168,-0.9404203171819447,-1.4536046712331474
1775721924954935000,3.74093505859375,-9.65403717982173,-0.9386125371076166,-1.4453217037953436
1775721924964948200,3.7509482421875,-9.655617727011442,-0.9396629960086196,-1.4340380932368337
1775721924974962200,3.760962158203125,-9.656952775007486,-0.9440162227820604,-1.4221382504761217
1775721924984975000,3.77097509765625,-9.658125325918197,-0.9522632421236484,-1.40861577494964
1775721924994989000,3.780989013671875,-9.65895768508911,-0.9651997344557195,-1.3940284466706216
1775721925005002200,3.791002197265625,-9.659567925941943,-0.9843364696674048,-1.3763023819744586
1775721925015016200,3.80101611328125,-9.660485625308752,-1.0101294478978962,-1.3509412923552095
1775721925025029000,3.811029052734375,-9.661939331248401,-1.0383565214075148,-1.3187608781099318
1775721925035043300,3.821043212890625,-9.663817984601854,-1.0633286117091774,-1.284655194890499
1775721925045056000,3.831055908203125,-9.665946228802204,-1.0817325026016682,-1.2528873069688677
1775721925055070200,3.8410703125,-9.668297760364412,-1.0931661160901187,-1.2244972249172628
1775721925065083400,3.85108349609375,-9.671036245417595,-1.0981514302220194,-1.1981269582554697
1775721925075097000,3.86109716796875,-9.67423299563229,-1.0976439921565353,-1.1725086790047585
1775721925085110300,3.8711103515625,-9.677639589205384,-1.0931132899243383,-1.1483790308766066
1775721925095123000,3.881123046875,-9.680898883262277,-1.0864026863697915,-1.1270793454773724
1775721925105137200,3.89113720703125,-9.683936059001088,-1.079231552631408,-1.107710701205954
1775721925115150300,3.901150390625,-9.68673007363379,-1.0728506194226444,-1.0893277800362557
1775721925125164300,3.911164306640625,-9.68920961548984,-1.0663432102899997,-1.0735524110164492
1775721925135177200,3.92117724609375,-9.690939215761423,-1.0596754229638725,-1.0645027700550853
1775721925145191200,3.931191162109375,-9.691630120635033,-1.0543371306758373,-1.0635160971052944
1775721925155204000,3.9412041015625,-9.691517307910322,-1.051557509894669,-1.0672895512294023
1775721925165218000,3.951218017578125,-9.691060211792587,-1.050351129779592,-1.0726149109706282
1775721925175231200,3.961231201171875,-9.690689040392638,-1.0496740342356263,-1.0766213701330125
1775721925185245000,3.971244873046875,-9.690386842575668,-1.048140979449451,-1.0808291240211576
1775721925195258000,3.981258056640625,-9.689967740380764,-1.044666946663335,-1.087925365892425
1775721925205271300,3.991271240234375,-9.689413613629341,-1.0409407657470553,-1.0963969877701252
1775721925215285000,4.001284912109375,-9.68874258249998,-1.0393288735710084,-1.103833932837844
1775721925225298200,4.011298095703125,-9.687896194803715,-1.0402740454666315,-1.1103542745172976
1775721925235312000,4.02131201171875,-9.686509708881378,-1.0436292741786688,-1.119264068616554
1775721925245325000,4.031324951171875,-9.68421253785491,-1.0501759193431586,-1.1329342820506543
1775721925255339300,4.04133935546875,-9.68089362256527,-1.0621874788500367,-1.1499728759393095
1775721925265352200,4.051352294921875,-9.67693757841587,-1.0790180560112,-1.1674676891628653
1775721925275366100,4.0613662109375,-9.672931849905847,-1.096031588523835,-1.1846915764905512
1775721925285379000,4.071379150390625,-9.669668464195727,-1.1095667774014175,-1.1986499592162667
1775721925295393300,4.081393310546875,-9.667812022674083,-1.116301857810095,-1.2073391693674027
1775721925305406200,4.09140625,-9.667385321694612,-1.1156791958671062,-1.2113252433288841
1775721925315420200,4.101420166015625,-9.667661216026543,-1.1103650151070206,-1.2140027189098297
1775721925325433300,4.111433349609375,-9.667842417812347,-1.1035849265128372,-1.2187335468240081
1775721925335446000,4.121446044921875,-9.667644264891743,-1.0986694627467541,-1.2247313989993185
1775721925345460200,4.131460205078125,-9.667312256458402,-1.0967475547734646,-1.2290652634851633
1775721925355473200,4.14147314453125,-9.667100075012446,-1.096712337329611,-1.2307646147489546
1775721925365487000,4.151487060546875,-9.667304657673835,-1.0963599436953664,-1.2294709216766058
1775721925375500300,4.161500244140625,-9.66791197591722,-1.0936381905812769,-1.2271190978534519
1775721925385514200,4.17151416015625,-9.66910732318163,-1.08836857961528,-1.2223757027186453
1775721925395527200,4.181527099609375,-9.67085971980691,-1.079459954559803,-1.2163997701141982
1775721925405541000,4.191541015625,-9.672537882152199,-1.0659008733499795,-1.2150127727352082
1775721925415554000,4.201553955078125,-9.674090372291207,-1.0524212140519171,-1.2144008513819426
1775721925425568000,4.211568115234375,-9.675767950114608,-1.0414086024545133,-1.210523571557179
1775721925435581200,4.221581298828125,-9.677812023162842,-1.0316481098100543,-1.2025137219723314
1775721925445594000,4.231593994140625,-9.680729371914268,-1.0214895577587186,-1.1876131630256772
1775721925455608000,4.241608154296875,-9.68458312473297,-1.008610421637073,-1.167021260569617
1775721925465621200,4.251621337890625,-9.689444593289494,-0.9937997329309582,-1.1390413667540997
1775721925475635000,4.261635009765625,-9.694880646863579,-0.9774711139425635,-1.10644506518431
1775721925485648100,4.271648193359375,-9.700278706514835,-0.9604582390170544,-1.0735431317314506
1775721925495662300,4.281662353515625,-9.705540572565793,-0.9433460684355348,-1.04065471534729
1775721925505675000,4.291675048828125,-9.710486212274432,-0.9252670986484736,-1.010307580943778
1775721925515689200,4.301689208984375,-9.714754975634813,-0.9057806001510471,-0.9866493497196585
1775721925525702100,4.3117021484375,-9.717399352663755,-0.8866535095505416,-0.9779486683264375
1775721925535716000,4.321716064453125,-9.71822703565955,-0.8711008433707058,-0.9836816590204834
1775721925545729300,4.331729248046875,-9.717682845780253,-0.8597853033039718,-0.9988945718519389
1775721925555742200,4.3417421875,-9.716615508809685,-0.8492848059471696,-1.0180775573581458
1775721925565756200,4.351756103515625,-9.715568630105256,-0.8372063917491585,-1.0378818896330892
1775721925575769000,4.36176904296875,-9.714696523445845,-0.8248843780536204,-1.0557543770626188
1775721925585783300,4.371783203125,-9.714119600340723,-0.8156983973614871,-1.0681300937067717
1775721925595796200,4.381796142578125,-9.713481886959075,-0.8087281930226832,-1.0791738310948014
1775721925605810200,4.39181005859375,-9.711964468133448,-0.8008758720871061,-1.0985133223369716
1775721925615823400,4.4018232421875,-9.709693016070126,-0.7913377169564366,-1.125178334161639
1775721925625837000,4.411837158203125,-9.707420979484915,-0.7764391307711601,-1.1547738464802504
1775721925635850200,4.421850341796875,-9.705849200123549,-0.7537404652941971,-1.1826895159531383
1775721925645864200,4.4318642578125,-9.705464584720135,-0.7266205493088811,-1.2026486734636128
1775721925655877000,4.441877197265625,-9.706019880515337,-0.7000538102269173,-1.2138712745498865
1775721925665890300,4.451890380859375,-9.707177818378806,-0.6764243667058646,-1.218003625114262
1775721925675904000,4.461904052734375,-9.708184949594736,-0.651009354942292,-1.223813553502038
1775721925685917200,4.471917236328125,-9.70864204571247,-0.6195676302351057,-1.2364422219939528
1775721925695931100,4.48193115234375,-9.708877023512125,-0.5815774337325245,-1.2529390371561049
1775721925705944000,4.491944091796875,-9.709254040130972,-0.537893299904652,-1.2694235773585736
1775721925715958000,4.5019580078125,-9.710252403518558,-0.4922330436982214,-1.2802690887607633
1775721925725971200,4.51197119140625,-9.71201882866919,-0.448831781932339,-1.2828170196779072
1775721925735985000,4.52198486328125,-9.714408938676119,-0.41088370753843334,-1.2774250975064934
1775721925745997800,4.531997802734375,-9.717411627623438,-0.38059118939898906,-1.2639030603714287
1775721925756010800,4.5420107421875,-9.720662153851986,-0.3567538022156805,-1.2457295441687106
1775721925766024700,4.552024658203125,-9.723649060708285,-0.3386367289079353,-1.227339900997281
1775721925776038000,4.562037841796875,-9.726257781901955,-0.3265683977125212,-1.2098143273092805
1775721925786051800,4.5720517578125,-9.72826327650547,-0.31793508246708657,-1.1959077478360385
1775721925796064800,4.582064697265625,-9.729908705624938,-0.3110780561791733,-1.184268382642418
1775721925806079000,4.592078857421875,-9.731019881737232,-0.303544537135493,-1.1770710915494709
1775721925816091600,4.602091552734375,-9.731703772348165,-0.2967044437160715,-1.1731550140842795
1775721925826105900,4.61210595703125,-9.73292717666328,-0.29794028738765044,-1.1626469179429113
1775721925836119000,4.622119140625,-9.735047822079062,-0.3059576444255188,-1.1426356649190186
1775721925846132700,4.6321328125,-9.738690562495588,-0.3147167049424723,-1.1087118410725145
1775721925856146000,4.64214599609375,-9.744048874658345,-0.32129783689845354,-1.058615830908343
1775721925866158800,4.652158935546875,-9.749643918186425,-0.3241736480630934,-1.0048558914091437
1775721925876172800,4.6621728515625,-9.754140645083785,-0.32598672536704687,-0.959614189408347
1775721925886186000,4.67218603515625,-9.757538470828532,-0.3306732757480815,-0.9227573077846318
1775721925896199700,4.68219970703125,-9.76013550158441,-0.3346483899241313,-0.8933942890476435
1775721925906212900,4.692212890625,-9.762033444160222,-0.3316905995644629,-0.873538007389754
1775721925916226800,4.702226806640625,-9.763833771580456,-0.321817513391003,-0.8569504452042281
1775721925926239700,4.71223974609375,-9.765641697785258,-0.31317535725198686,-0.8393756255470216
1775721925936253700,4.722253662109375,-9.767356685009599,-0.31414347163178025,-0.8188070309013128
1775721925946267000,4.732266845703125,-9.768903914451599,-0.3261462267776951,-0.7953173611771315
1775721925956280800,4.74228076171875,-9.770552850702405,-0.3522182046126574,-0.7633011975828558
1775721925966293800,4.752293701171875,-9.772062670743464,-0.3866789118148386,-0.7263961659684777
1775721925976307000,4.762306884765625,-9.773021286642551,-0.419924251877889,-0.6943321446444839
1775721925986320600,4.772320556640625,-9.773485397022961,-0.4516893998531624,-0.6673417733229696
1775721925996333800,4.782333740234375,-9.77320950269103,-0.4827140681920573,-0.6494182132933288
1775721926006347800,4.79234765625,-9.772189511993528,-0.5101915654433891,-0.6437396562002599
1775721926016360700,4.802360595703125,-9.770989488554001,-0.5282274998063221,-0.6473975211206823
1775721926026375000,4.812375,-9.770160051992535,-0.5350075518678874,-0.6543129265323281
1775721926036387800,4.822387939453125,-9.770272280195355,-0.5301138980748131,-0.6566106820806861
1775721926046401800,4.83240185546875,-9.771534847477078,-0.5130430824169889,-0.6513656940992921
1775721926056414700,4.842414794921875,-9.773645556020735,-0.48868316919691857,-0.6382989264510571
1775721926066429000,4.852428955078125,-9.775904733124374,-0.4673610893027857,-0.6193907392982393
1775721926076441900,4.86244189453125,-9.777602769213914,-0.45736890679430214,-0.5997378712579607
1775721926086454800,4.872454833984375,-9.778666014531254,-0.4602822004251182,-0.5798420247746631
1775721926096469000,4.882468994140625,-9.77943758342564,-0.4715358177041635,-0.5573503165792674
1775721926106481700,4.892481689453125,-9.780300922256707,-0.4821939167754724,-0.5325292521208524
1775721926116496000,4.902495849609375,-9.781484579083322,-0.48436041062697766,-0.5082720686228945
1775721926126508800,4.9125087890625,-9.782967511117457,-0.47557391411382705,-0.48760092691816387
1775721926136522800,4.922522705078125,-9.78445336576104,-0.4595530459003523,-0.4729306330634281
1775721926146536000,4.932535888671875,-9.785669755813478,-0.4424747775884345,-0.46397345615848895
1775721926156550000,4.9425498046875,-9.78665759780705,-0.4278469346359372,-0.45680345493126656
1775721926166562800,4.952562744140625,-9.78762731962204,-0.41457215026021,-0.44818431434165684
1775721926176576000,4.962575927734375,-9.78893080343604,-0.398960155108571,-0.4336427979657426
1775721926186589700,4.972589599609375,-9.790651635879277,-0.379038516596891,-0.4121274605218321
1775721926196603000,4.982602783203125,-9.792541395148634,-0.3567677576757967,-0.38631238005738705
1775721926206616800,4.992616943359375,-9.794389653363824,-0.3345961848128587,-0.3582791120868176
1775721926216629800,5.002629638671875,-9.796084766843915,-0.31214199561625716,-0.33116438373327256
1775721926226643700,5.012643798828125,-9.797619721326232,-0.28928594762049614,-0.3055312539733015
1775721926236657000,5.022656982421875,-9.798947755059599,-0.2681915390023962,-0.2812092616108246
1775721926246670800,5.0326708984375,-9.799854348510504,-0.25002454387200995,-0.26594555017389354
1775721926256683800,5.042683837890625,-9.800263513833285,-0.2346000889154151,-0.26492884741201994
1775721926266697000,5.052697021484375,-9.800183434334397,-0.22050695562781764,-0.279572892580647
1775721926276710700,5.062710693359375,-9.799780698752402,-0.20638576528951524,-0.30346847622459755
1775721926286723800,5.072723876953125,-9.799349321597814,-0.19329760779337957,-0.3252235224422067
1775721926296737800,5.08273779296875,-9.799164612680674,-0.18198150147106498,-0.3371011168384924
1775721926306750700,5.092750732421875,-9.799382639345525,-0.173304054822959,-0.3353364452535286
1775721926316765000,5.102764892578125,-9.799913969743251,-0.1678591420889832,-0.3223223576406017
1775721926326777900,5.11277783203125,-9.800570387825369,-0.165408461001236,-0.3030590551734902
1775721926336791800,5.122791748046875,-9.801137958580254,-0.16457871391251683,-0.28459059287849814
1775721926346804700,5.1328046875,-9.801568166691064,-0.16593555361526086,-0.2685246434142813
1775721926356819000,5.14281884765625,-9.801877378770708,-0.16753933555008843,-0.25595671039996665
1775721926366831900,5.152831787109375,-9.802100081610678,-0.16696851339219138,-0.24766488380227236
1775721926376844800,5.1628447265625,-9.802249719214439,-0.16789870691439135,-0.2410357845187187
1775721926386858800,5.172858642578125,-9.80241864604056,-0.16603979944102465,-0.23537406896259636
1775721926396871700,5.18287158203125,-9.802760006824135,-0.15569688553242012,-0.2281156770658679
1775721926406886000,5.192885986328125,-9.803428115344047,-0.13888883986347353,-0.2095127564699389
1775721926416898800,5.20289892578125,-9.804364519411324,-0.11740519446576944,-0.1761644126901403
1775721926426912800,5.212912841796875,-9.805330734094976,-0.09300896782330237,-0.13123231549463235
1775721926436926000,5.222926025390625,-9.80603449845016,-0.07044734533000736,-0.08428602893250063
1775721926446939600,5.232939697265625,-9.806400409153103,-0.05640059933424927,-0.04134734774364624
1775721926456952800,5.242952880859375,-9.806498608830571,-0.05398233181191608,-0.0074949126286752285
1775721926466966000,5.252966064453125,-9.806432557857036,-0.06280977225680835,0.01796934110834845
1775721926476979700,5.262979736328125,-9.806279413121938,-0.07675651021050289,0.037040464879560746
1775721926486993000,5.272992919921875,-9.806119838646053,-0.08828776625399477,0.05105906934293453
1775721926497006800,5.2830068359375,-9.805969616520404,-0.09427176343388854,0.06674484668341465
1775721926507019800,5.293019775390625,-9.80582757770121,-0.0915251681394875,0.08804663270819
1775721926517033700,5.30303369140625,-9.805696644797921,-0.07697875639274716,0.11298729582512751
1775721926527047000,5.313046875,-9.805582663029432,-0.05267400285943877,0.13474804113116115
1775721926537060900,5.323060791015625,-9.805533563190698,-0.023520722449570892,0.1460816739770118
1775721926547073800,5.33307373046875,-9.805575064244866,0.005491418756823987,0.14510595167949794
1775721926557086700,5.343086669921875,-9.805686707925796,0.032032023317110726,0.1336447834638413
1775721926567100700,5.3531005859375,-9.805819394394755,0.05621487207037862,0.11456316683972254
1775721926577113900,5.36311376953125,-9.805942143991588,0.0779194713089615,0.08838444069465622
1775721926587127800,5.3731279296875,-9.805994750961661,0.09719062828896567,0.058374543455452656
1775721926597140700,5.383140625,-9.80590356554687,0.11746861509080045,0.02899633856577566
1775721926607155000,5.393155029296875,-9.805611889123917,0.1426688424593769,0.0027912601303789414
1775721926617167600,5.403167724609375,-9.805144856134056,0.17134102938799187,-0.012690086672815959
1775721926627181800,5.413181884765625,-9.80452409388721,0.203350416181609,-0.018450561312120407
1775721926637194800,5.42319482421875,-9.803780582043528,0.23649976679058743,-0.01837757256607874
1775721926647207700,5.433207763671875,-9.802971603748201,0.268042120594345,-0.016765085593343245
1775721926657222000,5.443221923828125,-9.802110018482804,0.2979975705328397,-0.015028174231562297
1775721926667234800,5.45323486328125,-9.801155494236946,0.32796792577952144,-0.012961787745176116
1775721926677248800,5.463248779296875,-9.800126151189207,0.357531691252999,-0.00926158094954735
1775721926687261700,5.47326171875,-9.799053553521633,0.3858670839753002,-0.0059631987037486395
1775721926697276000,5.48327587890625,-9.797986801072955,0.4120952752852812,-0.0044986611282409284
1775721926707288800,5.493288818359375,-9.796955119937659,0.43591202153936026,-0.006017888603874599
1775721926717302800,5.503302734375,-9.796009363520145,0.45653862998262046,-0.012372258603520458
1775721926727316000,5.51331591796875,-9.795261760023235,0.47192346531488,-0.022704485579684842
1775721926737328600,5.52332861328125,-9.794816938865184,0.4805227686928585,-0.032249643556587396
1775721926747342800,5.5333427734375,-9.794653857257961,0.4834782209649682,-0.03722281744283391
1775721926757356000,5.54335595703125,-9.794697696399687,0.48266610086448486,-0.03629336142286192
1775721926767369700,5.55336962890625,-9.794868376791477,0.47961328916512425,-0.030173775714158545
1775721926777383000,5.5633828125,-9.795073543974757,0.47590135596990585,-0.020818498303147498
1775721926787396900,5.57339697265625,-9.795261175501347,0.4723724146587774,-0.010446067180758108
1775721926797409800,5.583409912109375,-9.795425426152349,0.46906756442710756,0.00024732411210716236
1775721926807423700,5.593423828125,-9.795607212460041,0.4650825864441693,0.012796862382383551
1775721926817437000,5.60343701171875,-9.795788414245843,0.46068818741012363,0.026054195583099498
1775721926827449900,5.613449951171875,-9.795963186290859,0.45611671477612103,0.03799792771788779
1775721926837463800,5.6234638671875,-9.796175367736815,0.4506595453487709,0.04726276406620163
1775721926847476700,5.633476806640625,-9.796456522765755,0.44375568424444645,0.05388720087436959
1775721926857490700,5.64349072265625,-9.796763396757841,0.43610177195779976,0.06022919487881008
1775721926867503900,5.65350390625,-9.796996620991825,0.4296900417519733,0.06786582267051562
1775721926877517800,5.663517822265625,-9.797111187282203,0.4256159607134759,0.0764436129030073
1775721926887530800,5.67353076171875,-9.797160871642827,0.4226201398983597,0.08610553597724065
1775721926897545000,5.683544921875,-9.797218154788016,0.4191415770675987,0.09600904468842782
1775721926907557600,5.6935576171875,-9.797334474644064,0.4149986685765907,0.10195882907146588
1775721926917570800,5.70357080078125,-9.79752853591144,0.41022882382627573,0.1026113290302921
1775721926927584800,5.713584716796875,-9.79773428761661,0.40551027087178076,0.10171705620484427
1775721926937597700,5.72359765625,-9.797803845721482,0.4039470401430502,0.1012445524554234
1775721926947612000,5.73361181640625,-9.797688694909214,0.4070090215295553,0.10013100172295235
1775721926957624800,5.743624755859375,-9.797480020594596,0.41223665651734914,0.0991431871288456
1775721926967638800,5.753638671875,-9.797270761758089,0.41748898755498226,0.09783336490560322
1775721926977651700,5.763651611328125,-9.79706384100914,0.42268162429463113,0.09625599605366587
1775721926987666000,5.773666015625,-9.796807235899568,0.42913785122931003,0.09376891934513114
1775721926997678800,5.783678955078125,-9.796490425035357,0.4367847492532804,0.09150692009674384
1775721927007691800,5.79369189453125,-9.796121591722965,0.4451036282546818,0.0909388013525866
1775721927017706000,5.8037060546875,-9.795729377534984,0.4534942938506603,0.09170920120319351
1775721927027718700,5.81371875,-9.795315536037087,0.46182457102891056,0.0943000944792293
1775721927037732900,5.82373291015625,-9.794807001993059,0.4715333334861323,0.09899848142853006
1775721927047745800,5.833745849609375,-9.79417454930842,0.4832328679017722,0.10494224706273525
1775721927057759700,5.843759765625,-9.79348130634725,0.49580129410643126,0.11084430158021859
1775721927067773000,5.85377294921875,-9.792844177487492,0.5069520720655099,0.11655986621542833
1775721927077787000,5.863786865234375,-9.792256148466468,0.5165544515388086,0.12360070637133903
1775721927087799800,5.8737998046875,-9.79159739229679,0.5266033692032098,0.1330089332457166
1775721927097813000,5.88381298828125,-9.790842774537206,0.5373431917412206,0.14507104476289823
1775721927107826700,5.89382666015625,-9.790074712774157,0.5473206881372258,0.15895026130517945
1775721927117840000,5.90383984375,-9.789372701984643,0.5556081856196746,0.1728274502871558
1775721927127853800,5.913853759765625,-9.788796363401412,0.561529501960054,0.18583346419148147
1775721927137866800,5.92386669921875,-9.788376092162729,0.5654591695591807,0.19580129770999774
1775721927147880700,5.933880615234375,-9.788174432110786,0.5668204114424065,0.20183303388860074
1775721927157894000,5.943893798828125,-9.788118902531266,0.5661264012962579,0.20642357654925433
1775721927167907800,5.953907958984375,-9.788103120440244,0.5643972394160927,0.2118372173621319
1775721927177920800,5.963920654296875,-9.788145790538191,0.5615830222455784,0.21727902482356876
1775721927187934000,5.973933837890625,-9.788310625711082,0.5569537915423513,0.22172829585000872
1775721927197947600,5.98394775390625,-9.788571322473883,0.5507119380107149,0.2257594693285413
1775721927207960800,5.9939609375,-9.788819744277,0.5444564943451434,0.23011852305456995
1775721927217974800,6.003974853515625,-9.788964121183753,0.5397897811757401,0.23492082703607156
1775721927227987700,6.01398779296875,-9.788996854409575,0.5376971197454259,0.23835142253926023
1775721927238002000,6.024001953125,-9.788992178234457,0.5365444425789639,0.2411212891113944
1775721927248014800,6.034014892578125,-9.789115512353181,0.5329502905445173,0.24405482181264085
1775721927258027800,6.04402783203125,-9.789551565682887,0.5247791129181161,0.24427673920132217
1775721927268041700,6.054041748046875,-9.79031144413948,0.5123511180974543,0.2401716785026714
1775721927278054700,6.0640546875,-9.791212192371487,0.4987481612132862,0.23195514563089234
1775721927288068900,6.07406884765625,-9.792036368235944,0.4871778792005032,0.2214991815355606
1775721927298081800,6.084081787109375,-9.792727857631444,0.4787109334979206,0.2090516417642124
1775721927308096000,6.094095947265625,-9.793354465097188,0.47198202710170295,0.19448752996399998
1775721927318108700,6.104108642578125,-9.794053553277253,0.4649519823344424,0.17525805670125408
1775721927328123000,6.114122802734375,-9.794943195593357,0.4546847822768613,0.15078844516216777
1775721927338135800,6.1241357421875,-9.796024561089277,0.43870530551970005,0.12578240692513062
1775721927348148700,6.134148681640625,-9.797204126262665,0.4171780584422871,0.10554708108808844
1775721927358163000,6.144162841796875,-9.798401811614632,0.39117377554867416,0.093226483031502
1775721927368175900,6.15417578125,-9.79956442565322,0.3611491876304149,0.09212476886729709
1775721927378189800,6.16418994140625,-9.800627670970558,0.32852618071679024,0.10077770212865433
1775721927388203000,6.174203125,-9.801544785815477,0.2946819431788288,0.1151839656191878
1775721927398216700,6.184216796875,-9.802297650009393,0.26004129456616937,0.1331144577131141
1775721927408230000,6.19422998046875,-9.802896200424431,0.22551577849946916,0.15084674208750948
1775721927418243800,6.204243896484375,-9.8033854452461,0.19128332709521054,0.16560562754115088
1775721927428256800,6.2142568359375,-9.803827343794703,0.15847734656380488,0.17387695934008807
1775721927438270000,6.22427001953125,-9.804247615033388,0.12778345368239097,0.17545670281220227
1775721927448284000,6.234283935546875,-9.804607095995545,0.09873321808846666,0.17411297831935807
1775721927458296800,6.244296875,-9.80486077849567,0.06975741313735488,0.17386293081473558
1775721927468310800,6.254310791015625,-9.804975344786047,0.03768653966417769,0.17726904946379363
1775721927478324000,6.264323974609375,-9.804965407913922,0.0004438524728495395,0.18176471691522747
1775721927488337700,6.274337646484375,-9.804800572741032,-0.04293970410216134,0.18554677447089923
1775721927498350800,6.284350830078125,-9.804406604987383,-0.0914750179879833,0.18873941476605832
1775721927508363800,6.29436376953125,-9.80375837021172,-0.14251724122739395,0.1907825196999125
1775721927518377700,6.304377685546875,-9.802841839888691,-0.19471112785311415,0.19173521731486542
1775721927528391000,6.314390869140625,-9.801760474392772,-0.24637157432241363,0.18755334678664803
1775721927538404600,6.324404541015625,-9.800611888879537,-0.29633246859852225,0.17484916537310927
1775721927548417800,6.334417724609375,-9.799466810497641,-0.343694121895358,0.15070322369728237
1775721927558431700,6.344431640625,-9.798151636245846,-0.3896183262676,0.1217041155023966
1775721927568444700,6.354444580078125,-9.796583948537707,-0.434173543841578,0.09390299405357799
1775721927578459000,6.364458984375,-9.79489935645163,-0.4750573794264346,0.06820579521460458
1775721927588471800,6.374471923828125,-9.793196059665084,-0.5110492051860317,0.05026429766947403
1775721927598484700,6.384484619140625,-9.791540693673491,-0.5426971199898049,0.0399650356729282
1775721927608498700,6.394498779296875,-9.789831551668048,-0.5732177112640813,0.031750322582188524
1775721927618512000,6.404511962890625,-9.787923087698221,-0.6054126289587467,0.020622226812376174
1775721927628525800,6.41452587890625,-9.785812379154562,-0.6389294794395566,0.005832375969135319
1775721927638538800,6.424538818359375,-9.783605809020996,-0.6718043056897819,-0.010783679946046322
1775721927648553000,6.434552978515625,-9.781437817332147,-0.702070776072517,-0.03092831355864182
1775721927658565600,6.444565673828125,-9.779423554900289,-0.7280612496364861,-0.0564774959287839
1775721927668578800,6.454578857421875,-9.77759107877612,-0.7494253055088221,-0.08636220501889474
1775721927678593000,6.464593017578125,-9.775836928585171,-0.767461166806519,-0.12000218868902884
1775721927688605700,6.474605712890625,-9.773927880093455,-0.7854100074078887,-0.15443411732129753
1775721927698620000,6.484619873046875,-9.771682731515169,-0.8063230315770954,-0.18558606530167163
1775721927708632800,6.4946328125,-9.769113173288106,-0.8308710512477904,-0.2108802271645516
1775721927718646800,6.504646728515625,-9.766155492526293,-0.8597363495957105,-0.23118131171418352
1775721927728660000,6.514659912109375,-9.762594585174321,-0.8942291324365883,-0.24997986448006704
1775721927738674400,6.52467431640625,-9.758244573271273,-0.9348956354763358,-0.2702180581276305
1775721927748687600,6.5346875,-9.753035898712277,-0.9809195008307695,-0.29406313542705026
1775721927758700300,6.5447001953125,-9.747182496508955,-1.0291336427710949,-0.32202622423823923
1775721927768714500,6.554714599609375,-9.74096318360269,-1.0766192512411623,-0.3534252788474783
1775721927778727200,6.56472705078125,-9.73452876664102,-1.1227227577030658,-0.38578773512877523
1775721927788741400,6.574741455078125,-9.728010178527235,-1.167249954758957,-0.4168126591959968
1775721927798754600,6.584754638671875,-9.721592712700366,-1.2101875445358454,-0.44324941522274164
1775721927808768500,6.5947685546875,-9.715361709356307,-1.251921822937578,-0.46349213891495017
1775721927818781400,6.604781494140625,-9.709129536968469,-1.2931754782155156,-0.4805062924820929
1775721927828794400,6.61479443359375,-9.702633745208383,-1.336031600254029,-0.49427207524515687
1775721927838808300,6.624808349609375,-9.696057289427518,-1.379962658047676,-0.5025568327812477
1775721927848821500,6.634821533203125,-9.689586632108687,-1.4240082821317017,-0.5044779005043208
1775721927858835500,6.64483544921875,-9.683196638810633,-1.4679597981914878,-0.5011756075559184
1775721927868848400,6.654848388671875,-9.676945761722326,-1.5115268449783323,-0.4923362118117511
1775721927878862300,6.6648623046875,-9.670814127099513,-1.554060018672794,-0.48024380562100555
1775721927888875500,6.67487548828125,-9.664714056658744,-1.5944069343693554,-0.4706891742795706
1775721927898889200,6.68488916015625,-9.658597035083174,-1.6317863785624502,-0.4681499015929177
1775721927908902400,6.69490234375,-9.65239467331171,-1.6667717672258615,-0.4727908227339387
1775721927918915600,6.70491552734375,-9.645833999621868,-1.7020634453594683,-0.4808821035245433
1775721927928929300,6.71492919921875,-9.638853639215231,-1.7391785395279526,-0.4879926661821082
1775721927938942500,6.7249423828125,-9.631567573860288,-1.7783790616683661,-0.4905749742928892
1775721927948956400,6.734956298828125,-9.624072834190725,-1.8196115280278027,-0.4864305314319208
1775721927958969300,6.74496923828125,-9.61636123690009,-1.8614478054992853,-0.48062107796818015
1775721927968983300,6.7549833984375,-9.608532735231519,-1.9021141624085605,-0.4779648278383538
1775721927978996500,6.76499658203125,-9.600887188914419,-1.9399650235056876,-0.47945776980984955
1775721927989009400,6.775009521484375,-9.593518705973029,-1.9751606939189135,-0.4832476270794868
1775721927999023400,6.7850234375,-9.586527824172377,-2.008266406315565,-0.4855300023956224
1775721928009036300,6.795036376953125,-9.580078794163464,-2.039008019929379,-0.48469070202726866
1775721928019050200,6.80505029296875,-9.574173954033851,-2.0667508901186284,-0.4838583063237369
1775721928029063400,6.8150634765625,-9.568516366663575,-2.0919562046542763,-0.4874371511911973
1775721928039077600,6.82507763671875,-9.562732522565126,-2.1164298439145086,-0.4952300700897351
1775721928049090300,6.83509033203125,-9.556786765903233,-2.1405469248220323,-0.506233658130467
1775721928059103500,6.845103515625,-9.551214518728852,-2.1620149525254964,-0.5199767906703054
1775721928069117200,6.8551171875,-9.546442482021451,-2.1799906080685556,-0.5324090232746675
1775721928079130400,6.86513037109375,-9.542316926524043,-2.19521433455497,-0.5436962505623698
1775721928089144600,6.87514453125,-9.539008532628417,-2.2068553802490234,-0.5545200615894049
1775721928099157200,6.8851572265625,-9.536347788986562,-2.2154189181938766,-0.5660184474097565
1775721928109171500,6.89517138671875,-9.533605212280154,-2.224318702355772,-0.5771981592023745
1775721928119184400,6.905184326171875,-9.530854452267288,-2.2316963915169237,-0.5939114301268011
1775721928129198300,6.9151982421875,-9.528622747692465,-2.2338747584693133,-0.6209112268637865
1775721928139211500,6.92521142578125,-9.526438389390707,-2.23124177961722,-0.6625092385999858
1775721928149224400,6.935224365234375,-9.523251576048136,-2.2297810594148935,-0.7114330631796271
1775721928159238400,6.94523828125,-9.518129995250701,-2.2343917680807412,-0.7635974040504544
1775721928169251300,6.955251220703125,-9.509541030603646,-2.2514337960354984,-0.8185694227531551
1775721928179265500,6.965265625,-9.49640273208916,-2.2865723294340072,-0.8719570218086242
1775721928189278500,6.975278564453125,-9.479458027029036,-2.3393147624537347,-0.9153522922251373
1775721928199292400,6.98529248046875,-9.460870230937003,-2.40178203228265,-0.945389191635698
1775721928209305300,6.995305419921875,-9.442311076417564,-2.4667156922250983,-0.96356687255688
1775721928219318300,7.005318359375,-9.425883673229814,-2.5280142105355856,-0.9655310853019357
1775721928229332500,7.01533251953125,-9.413603452849388,-2.579437523780763,-0.9491867572877556
1775721928239345400,7.025345458984375,-9.405082292741536,-2.6237027819648384,-0.9115869483422487
1775721928249359400,7.035359375,-9.398551429668068,-2.6685855875253677,-0.8463282942291349
1775721928259372500,7.04537255859375,-9.391434291139245,-2.71991566952914,-0.7572360523249954
1775721928269386200,7.05538623046875,-9.381123909527062,-2.780572967326641,-0.6582678016379475
1775721928279399400,7.0653994140625,-9.367063819992541,-2.8476617594763636,-0.5650820798750966
1775721928289412600,7.07541259765625,-9.35085911964476,-2.914169244606793,-0.48932219775281843
1775721928299426300,7.08542626953125,-9.33502559069693,-2.9731404890134927,-0.43372572700884193
1775721928309439500,7.095439453125,-9.322233913663029,-3.0191186885952948,-0.3889240238605067
1775721928319453400,7.105453369140625,-9.313926104044914,-3.0500954261392352,-0.34363402573857454
1775721928329466400,7.11546630859375,-9.309749695143102,-3.067802640004456,-0.2958466395766474
1775721928339480300,7.125480224609375,-9.30844913393855,-3.07563669463098,-0.2522302189564332
1775721928349493500,7.135493408203125,-9.30876828289032,-3.0771655116334555,-0.21970707395439967
1775721928359506400,7.14550634765625,-9.31014717002809,-3.0744197200566528,-0.1987044170066714
1775721928369520400,7.155520263671875,-9.31259280961454,-3.0677927031323313,-0.18614181775460018
1775721928379533300,7.165533203125,-9.316509106275438,-3.056350687141716,-0.1782166325122118
1775721928389547300,7.17554736328125,-9.32211876285076,-3.039605304045975,-0.1711397529285401
1775721928399560400,7.185560546875,-9.329228887116908,-3.0180431683182714,-0.1651976495284587
1775721928409574400,7.195574462890625,-9.338095499661565,-2.9907182312801477,-0.16112811680091543
1775721928419587300,7.20558740234375,-9.348843103647232,-2.957029896689951,-0.1596503175996244
1775721928429600500,7.2156005859375,-9.359969477817415,-2.921720390638709,-0.15781787800807504
1775721928439614200,7.2256142578125,-9.369619934216141,-2.8907673262313005,-0.1551673817656003
1775721928449627400,7.23562744140625,-9.377129871454834,-2.866313268454373,-0.1551273602824658
1775721928459641300,7.245641357421875,-9.382717900720237,-2.8474843570828434,-0.16377548950454218
1775721928469654300,7.255654296875,-9.386533659616113,-2.8338401548728345,-0.18088619878133758
1775721928479668500,7.26566845703125,-9.38868119303882,-2.825421870617568,-0.20011194571703672
1775721928489681400,7.275681396484375,-9.389404246616364,-2.821643813383579,-0.21862371743079273
1775721928499695400,7.2856953125,-9.389187388995289,-2.820994994086027,-0.23564857505504042
1775721928509708300,7.295708251953125,-9.388481871074438,-2.821914739279449,-0.2521798587423749
1775721928519721500,7.305721435546875,-9.387183647957444,-2.8248285808995366,-0.2674194951839745
1775721928529735400,7.3157353515625,-9.3851968580544,-2.8300512839838863,-0.2815611985873431
1775721928539748400,7.325748291015625,-9.382620285564661,-2.837076652576029,-0.29633906273609023
1775721928549762600,7.335762451171875,-9.379529918333887,-2.8457535877674816,-0.31063440406490117
1775721928559775200,7.345775146484375,-9.37648455928862,-2.854287315095961,-0.3239819614158943
1775721928569789400,7.35578955078125,-9.374075744581223,-2.861019545960426,-0.33414628562089055
1775721928579802600,7.365802734375,-9.372948201856017,-2.8641426464170214,-0.33899500429369506
1775721928589815300,7.375815185546875,-9.373280794811249,-2.8627815871968862,-0.34128264030683786
1775721928599829500,7.38582958984375,-9.374148225295544,-2.8596742688313124,-0.3435014854000881
1775721928609842200,7.39584228515625,-9.374562651315332,-2.8580528051093217,-0.3456804368743673
1775721928619856400,7.4058564453125,-9.374681309258937,-2.857661467704177,-0.3456962554980069
1775721928629869600,7.41586962890625,-9.374982338032126,-2.856799297916889,-0.3446571582412347
1775721928639883500,7.425883544921875,-9.375357601085305,-2.8557693703472613,-0.34298323367964473
1775721928649896400,7.435896484375,-9.375810605549812,-2.854629844923317,-0.3400661041239276
1775721928659909400,7.445909423828125,-9.37676337623,-2.8524019397407767,-0.3324083559123799
1775721928669923300,7.45592333984375,-9.378231110695005,-2.849166611081362,-0.31846604753863067
1775721928679936500,7.4659365234375,-9.379502445805072,-2.8467046048820017,-0.3026381628802977
1775721928689950500,7.475950439453125,-9.379778924658893,-2.8472628232866524,-0.28848290587561204
1775721928699963400,7.48596337890625,-9.379236488345265,-2.850180464299023,-0.27709906807933
1775721928709977300,7.495977294921875,-9.378290147405862,-2.8542843924865124,-0.2666940852525644
1775721928719990500,7.505990478515625,-9.37760508775115,-2.857560345417261,-0.2554591726739891
1775721928730003500,7.51600341796875,-9.377878643995523,-2.857763466773927,-0.24281850321702658
1775721928740017200,7.52601708984375,-9.379213691991566,-2.8546128937885165,-0.22786623234944417
1775721928750030300,7.5360302734375,-9.381197559285164,-2.8492469828411937,-0.21284999286755918
1775721928760044000,7.5460439453125,-9.383332233226298,-2.8431179785668848,-0.20035041238171977
1775721928770057200,7.55605712890625,-9.38549437969625,-2.8364064982295036,-0.1941109517365694
1775721928780071200,7.5660712890625,-9.387722577139735,-2.828969041705131,-0.19489296895973382
1775721928790084000,7.576083984375,-9.390134898978472,-2.820664739218354,-0.1989905770042911
1775721928800097300,7.58609716796875,-9.393001394325495,-2.8109230974048374,-0.20155708475774153
1775721928810111200,7.596111328125,-9.396393374851346,-2.7996079226642845,-0.20091856765849514
1775721928820124200,7.606124267578125,-9.400119701898097,-2.7872745107918977,-0.1980676900057122
1775721928830138000,7.61613818359375,-9.40405061160624,-2.774183266289532,-0.19525181060107424
1775721928840151300,7.6261513671875,-9.408141680312156,-2.7603306820258497,-0.19449496435178443
1775721928850165200,7.636165283203125,-9.412577616932987,-2.7452418339654803,-0.19343040386019272
1775721928860178200,7.64617822265625,-9.417895012563466,-2.7271248702555893,-0.1908478034884669
1775721928870191000,7.656191162109375,-9.424389050757885,-2.7048648153916,-0.18704289478017017
1775721928880205000,7.666205078125,-9.43172889212668,-2.679622237585485,-0.1802632445774041
1775721928890218200,7.67621826171875,-9.439753793150185,-2.6518551097378134,-0.17056993541764096
1775721928900232200,7.686232177734375,-9.448255664035678,-2.621923497332632,-0.16237818992724642
1775721928910245000,7.6962451171875,-9.456858072686195,-2.590935069350898,-0.15898949733702464
1775721928920259300,7.70625927734375,-9.465704811486601,-2.558050160098076,-0.16491696942355483
1775721928930272000,7.71627197265625,-9.474756717470287,-2.5230796767428516,-0.1828511969776824
1775721928940285200,7.72628515625,-9.48359059678912,-2.487482001399994,-0.2105342084721662
1775721928950299100,7.736299072265625,-9.492035184529422,-2.4523045972958206,-0.24052880311096086
1775721928960312000,7.74631201171875,-9.50073287024796,-2.4156258487179874,-0.26685685633253303
1775721928970326300,7.756326171875,-9.510372220730781,-2.3750224740423262,-0.2871911490320228
1775721928980339200,7.766339111328125,-9.520718258178233,-2.3316193856455385,-0.2997629727701656
1775721928990353200,7.776353271484375,-9.530902967584133,-2.2890999482154846,-0.3037921734873205
1775721929000366300,7.786366455078125,-9.540285128435492,-2.25015822314173,-0.3002124701033346
1775721929010379000,7.79637890625,-9.548616903451084,-2.2159702684663234,-0.289436297610309
1775721929020393200,7.806393310546875,-9.555519522446394,-2.188156671128422,-0.27276187912523747
1775721929030406100,7.81640625,-9.561279985669255,-2.164972779417783,-0.25533923608874903
1775721929040420400,7.82642041015625,-9.566423193776608,-2.143911286688596,-0.2399518434732221
1775721929050433300,7.836433349609375,-9.571113397419452,-2.124369550872594,-0.2263342552755028
1775721929060447200,7.846447265625,-9.575532382905482,-2.105592954210192,-0.2145878129782155
1775721929070460200,7.856460205078125,-9.579532266196608,-2.0883685554258524,-0.20412262439681217
1775721929080473000,7.86647314453125,-9.582516834965348,-2.075836844502389,-0.19146348770139737
1775721929090487300,7.8764873046875,-9.584777765634655,-2.0667941447384655,-0.17544862910360096
1775721929100500200,7.886500244140625,-9.58685632547438,-2.058523013868928,-0.1582900255644694
1775721929110514200,7.89651416015625,-9.588308277848363,-2.0530477973282335,-0.14045808934103696
1775721929120527400,7.90652734375,-9.588559037739039,-2.0530657713763416,-0.12181928458097391
1775721929130541000,7.916541015625,-9.587984452721477,-2.0566430453412234,-0.10560519535033963
1775721929140554200,7.92655419921875,-9.586887889656424,-2.062371798251569,-0.09269301547561772
1775721929150567200,7.936567138671875,-9.58592459758222,-2.0672224531531334,-0.08380529621085152
1775721929160581000,7.9465810546875,-9.586179449126124,-2.0662344650290905,-0.07890128542054443
1775721929170594300,7.95659423828125,-9.587933014795183,-2.058379952136427,-0.07068367483653128
1775721929180608300,7.966608154296875,-9.591021628460288,-2.0444028647102415,-0.05569807708808221
1775721929190621200,7.97662109375,-9.594860768231749,-2.0267498652502893,-0.036279912852821866
1775721929200635100,7.98663525390625,-9.598602292847632,-2.0092124549940227,-0.01671751784128137
1775721929210648300,7.9966484375,-9.60177741575241,-1.9940553640030323,0.00007268165263981245
1775721929220661200,8.0066611328125,-9.604955461266636,-1.9786422524243592,0.013628243164118611
1775721929230675200,8.01667529296875,-9.608578327938913,-1.9608390308387575,0.026684337579645216
1775721929240688000,8.026688232421876,-9.613156887900828,-1.938162942519784,0.03355894519002177
1775721929250702000,8.0367021484375,-9.619033670979737,-1.9088124910034239,0.03178663372129668
1775721929260715300,8.04671533203125,-9.625525371086598,-1.8758469177298247,0.028997368328948503
1775721929270728200,8.056728271484374,-9.631794952875374,-1.843296647258848,0.03412550673133228
1775721929280742100,8.0667421875,-9.637598086196183,-1.812233546605706,0.053790425969008356
1775721929290755300,8.07675537109375,-9.642955813837052,-1.7820640337914226,0.08964508088077418
1775721929300769000,8.08676904296875,-9.647823712134361,-1.7526573220431803,0.1344579812765587
1775721929310782200,8.0967822265625,-9.652027593564986,-1.7253190871320663,0.17894816165715455
1775721929320796200,8.106796142578125,-9.655926354569196,-1.6995236977487802,0.21235603533815592
1775721929330809000,8.11680908203125,-9.660146602612734,-1.6731000934645532,0.22954558200482278
1775721929340822300,8.126822265625,-9.664622286722063,-1.6458054054342208,0.23829881556918844
1775721929350836200,8.136836181640625,-9.669561496689916,-1.6157846534408629,0.24333041652822865
1775721929360849200,8.14684912109375,-9.675250648242235,-1.5807935656890273,0.2469764996793121
1775721929370863000,8.156863037109375,-9.681119832536577,-1.5428253618225454,0.2569010968443006
1775721929380876300,8.166876220703125,-9.686305710741877,-1.5064925040729342,0.2763147493012249
1775721929390890200,8.17689013671875,-9.690094581630825,-1.476090789937973,0.30594606358557935
1775721929400903200,8.186903076171875,-9.692620885238052,-1.4510497260533273,0.34342962574027475
1775721929410916000,8.196916015625,-9.694466220843792,-1.4273874031759797,0.38765546522941435
1775721929420930000,8.206929931640625,-9.696068395343422,-1.4016278157584368,0.438264795210585
1775721929430943200,8.216943115234375,-9.698005500885843,-1.3713264932580291,0.48840756712593136
1775721929440957200,8.226957275390625,-9.70071592888832,-1.336274907490611,0.5299643335362896
1775721929450970000,8.23697021484375,-9.703920862409472,-1.299600688957423,0.5615562438365072
1775721929460984300,8.246984375,-9.70720938256085,-1.26376072929129,0.5859892588254064
1775721929470997000,8.2569970703125,-9.70998644605875,-1.2301838922515511,0.6108994263393804
1775721929481010200,8.26701025390625,-9.711920044469833,-1.1995816871084273,0.6403117275781929
1775721929491024100,8.277024169921875,-9.713296008998155,-1.1709855610907076,0.671604399203509
1775721929501037000,8.287037109375,-9.714395494672656,-1.1441271455857902,0.7013375664271414
1775721929511051300,8.29705126953125,-9.715073540064692,-1.1206594684977085,0.7292800508417189
1775721929521064200,8.307064208984375,-9.715662153607607,-1.10050968378596,0.7517758141577243
1775721929531077000,8.3170771484375,-9.716725983446835,-1.0819137774527072,0.7649104594103991
1775721929541091300,8.32709130859375,-9.71856547383368,-1.0639753851801157,0.766695223935321
1775721929551104300,8.337104248046876,-9.721350720638036,-1.046219948258996,0.7557434756796807
1775721929561118200,8.3471181640625,-9.724698277500272,-1.0295383511144667,0.7353098325252533
1775721929571131100,8.357131103515625,-9.727879245623946,-1.0153524432431906,0.7126098518740386
1775721929581145300,8.367145263671874,-9.730525376218557,-1.003078068081662,0.6936128173939883
1775721929591158300,8.377158203125,-9.732606858667731,-0.9911108591731637,0.6815023275572806
1775721929601171200,8.387171142578126,-9.73419325107634,-0.9786473181150853,0.6768444187488406
1775721929611185400,8.397185302734375,-9.735379830512404,-0.9664196316394954,0.6773484958134591
1775721929621198000,8.407197998046875,-9.736254859781265,-0.9550898438517004,0.6808309311017393
1775721929631212300,8.41721240234375,-9.737228673249483,-0.9420656001709401,0.6850321821838616
1775721929641225200,8.42722509765625,-9.738619250825048,-0.9231658885855227,0.6909697555392981
1775721929651239200,8.4372392578125,-9.740307350042462,-0.8979805208593606,0.7003085156403481
1775721929661252400,8.44725244140625,-9.742017076569795,-0.8696629195220767,0.7121607198670507
1775721929671265000,8.45726513671875,-9.74357599644959,-0.8419631578221917,0.7240215457916259
1775721929681279200,8.467279296875,-9.74499346203208,-0.8161106314241886,0.7344723587878048
1775721929691292200,8.477292236328125,-9.74622154252231,-0.7913654817461967,0.7451792654369026
1775721929701306000,8.48730615234375,-9.747292971146106,-0.7648227811269461,0.7587569782819599
1775721929711319300,8.4973193359375,-9.748191381290555,-0.7355057204235345,0.7760046118114143
1775721929721332200,8.507332275390626,-9.74883552441299,-0.7055870405651629,0.7954461751885712
1775721929731346200,8.51734619140625,-9.749507140064239,-0.6765694742649794,0.8122493528861552
1775721929741359600,8.527359619140626,-9.750558110421895,-0.6488420208405703,0.8221961618829519
1775721929751373800,8.537373779296875,-9.752035781759023,-0.6226191998254508,0.8249404190897941
1775721929761386800,8.54738671875,-9.753788762906193,-0.5975252367097884,0.8227681896172463
1775721929771400700,8.557400634765624,-9.755693135222792,-0.5730425008276477,0.8175945863716304
1775721929781413600,8.56741357421875,-9.757722595223784,-0.5478015669893473,0.8106441096466034
1775721929791426600,8.577426513671876,-9.759764914706349,-0.5200754287391901,0.8042963480550795
1775721929801440800,8.587440673828125,-9.761845228111744,-0.4904448816398158,0.797640981819108
1775721929811453700,8.59745361328125,-9.763563137945532,-0.46371626652702685,0.7925829677771776
1775721929821467600,8.607467529296875,-9.764804662439227,-0.44172074435073877,0.7898467477463186
1775721929831480800,8.617480712890625,-9.765782567560672,-0.4226935339281335,0.7881661742482334
1775721929841493500,8.627493408203126,-9.7664781486094,-0.4042206329200417,0.7892378220677375
1775721929851507700,8.6375078125,-9.767080790677666,-0.38487043762076645,0.7914494337026029
1775721929861520600,8.647520751953126,-9.767758251547813,-0.36617136317398397,0.7919637399002909
1775721929871534600,8.65753466796875,-9.768437465983629,-0.3500227403949946,0.7908824474696069
1775721929881547800,8.6675478515625,-9.769116680419444,-0.3356199383700266,0.7887341103293001
1775721929891561700,8.677561767578124,-9.769871882700919,-0.3207596383685246,0.7855559917498379
1775721929901574700,8.68757470703125,-9.770630592113733,-0.30290231197550893,0.7832057753618806
1775721929911587800,8.697587890625,-9.771435478755832,-0.2813922900275327,0.7811827451016753
1775721929921601500,8.7076015625,-9.772155025202036,-0.26024573109708726,0.779513862041384
1775721929931614700,8.71761474609375,-9.772765850576757,-0.2422519371091388,0.7776520136922598
1775721929941628700,8.727628662109375,-9.773288997668027,-0.22576852941783143,0.7760364682544022
1775721929951641600,8.7376416015625,-9.773701085600257,-0.20906084798397495,0.7755280803408473
1775721929961655600,8.747655517578124,-9.774106743791698,-0.19109319308428094,0.775050745152682
1775721929971668700,8.757668701171875,-9.774493112760782,-0.17100834510121493,0.7748724659763276
1775721929981681700,8.767681640625,-9.774798233187198,-0.14815567637262866,0.775726525522396
1775721929991695600,8.777695556640625,-9.775156545105576,-0.12207278441800735,0.7757586011610925
1775721930001708800,8.787708740234375,-9.775624747139215,-0.09408853408778085,0.7737554446451366
1775721930011722500,8.797722412109374,-9.77626889026165,-0.06477136835309211,0.7686073411669582
1775721930021735700,8.807735595703125,-9.777024677065015,-0.03509165291632525,0.7608812769595533
1775721930031748600,8.81774853515625,-9.777598093038797,-0.007597462541807908,0.7542541869699955
1775721930041762600,8.827762451171875,-9.777801506656408,0.018565709841100033,0.7514247356977314
1775721930051775700,8.837775634765626,-9.777477097007631,0.04718171645293478,0.7543889192655682
1775721930061789700,8.847789794921875,-9.776557059553266,0.08219161393651739,0.7632557510059327
1775721930071802600,8.857802734375,-9.775234871038794,0.12287954335678368,0.7746439909826963
1775721930081816600,8.867816650390624,-9.77378642579615,0.16288845927063375,0.7854634180955589
1775721930091829500,8.87782958984375,-9.772554253652691,0.1981118762073107,0.7926664082769304
1775721930101842700,8.8878427734375,-9.771712542131542,0.22914620742369443,0.7946751908160745
1775721930111856600,8.897856689453125,-9.7711028858006,0.25991679140366614,0.7927003836117684
1775721930121869600,8.90786962890625,-9.770510765126346,0.29448874042797835,0.7878935678519308
1775721930131883500,8.917883544921875,-9.76970237135291,0.3330860359782353,0.7825293374050408
1775721930141896700,8.927896728515625,-9.768855399134754,0.37239345255922524,0.7753506779473275
1775721930151909600,8.93790966796875,-9.768276137942076,0.408914709020406,0.7641712584156543
1775721930161923600,8.947923583984375,-9.768010765004158,0.44160022324360904,0.7492264950010925
1775721930171936800,8.957936767578126,-9.76789561419189,0.47202783900480716,0.7319776924278587
1775721930181950500,8.967950439453125,-9.767830732262134,0.5005496942099183,0.7136612606231123
1775721930191963600,8.977963623046875,-9.767750068241357,0.5261872626829892,0.6961133289728313
1775721930201977900,8.987977783203124,-9.767551915320754,0.5483738504519686,0.6816190127395093
1775721930211990500,8.997990478515625,-9.767150348782538,0.5663709141092375,0.6725977210897952
1775721930222003700,9.008003662109376,-9.766581024461985,0.5811954121449961,0.6682011666312814
1775721930232017700,9.018017578125,-9.765914084985852,0.5944743247065692,0.6662614307403564
1775721930242030600,9.028030517578125,-9.765280463257431,0.605996675924398,0.6651683748066425
1775721930252044800,9.038044921875,-9.7647777744323,0.6153606800645589,0.6639513271670788
1775721930262057500,9.048057373046875,-9.764440505301952,0.6224622556980699,0.662289604499936
1775721930272070700,9.058070556640626,-9.764196175152064,0.6269646816838532,0.6616415158547461
1775721930282084600,9.068084716796875,-9.763989254403114,0.6288363938398659,0.6629173079442232
1775721930292097500,9.07809765625,-9.763817989489436,0.6272798120476305,0.6669022128619253
1775721930302111700,9.08811181640625,-9.763671274495124,0.6221096428681164,0.6738570004358887
1775721930312124700,9.098124755859375,-9.763614575871825,0.6152107501998544,0.6809754541389643
1775721930322138600,9.108138671875,-9.76379110148251,0.606388670916669,0.6863421688038855
1775721930332151600,9.118151611328125,-9.764330030664802,0.5943684897119179,0.6891842603620142
1775721930342164700,9.128164794921876,-9.765267019253969,0.5794425771282985,0.6886149360414594
1775721930352178700,9.1381787109375,-9.76634546214044,0.5635103005137294,0.6865427328772843
1775721930362191600,9.148191650390626,-9.767273682901262,0.5488092096619308,0.6852396874547004
1775721930372205800,9.158205810546875,-9.768111887291074,0.5364209623297677,0.6830993874903768
1775721930382218500,9.168218505859375,-9.769048875880241,0.5257645072262734,0.6779642896242439
1775721930392231700,9.178231689453124,-9.770184601911902,0.5150869728021323,0.6697516840089112
1775721930402245600,9.18824560546875,-9.771558812874556,0.5035609683224931,0.6583722118604928
1775721930412258600,9.198258544921876,-9.773090260225533,0.4913897612744942,0.6446870931182056
1775721930422272800,9.208272705078125,-9.77464625749588,0.479627390755713,0.6297890183895826
1775721930432285400,9.218285400390625,-9.77621102259457,0.46832091077826915,0.6138106741435826
1775721930442298600,9.228298583984374,-9.777758252036572,0.45673751355558634,0.5976796966191381
1775721930452312800,9.238312744140625,-9.77930665052235,0.4449347379611805,0.5810183020124211
1775721930462325500,9.248325439453126,-9.780872584664822,0.43319501766562457,0.5632539145998656
1775721930472339700,9.258339599609375,-9.782360192874073,0.4225361514093354,0.5452287573592737
1775721930482352600,9.2683525390625,-9.783717452701925,0.4143224863480776,0.5268680114887655
1775721930492366600,9.27836669921875,-9.784933842754363,0.40739681527074423,0.5093905512588098
1775721930502379800,9.2883798828125,-9.786102302011846,0.401259993016161,0.4914990303352475
1775721930512392700,9.298392822265624,-9.78730758614838,0.39627482501473277,0.4711263235878199
1775721930522406700,9.30840673828125,-9.788515208372473,0.3916236747406423,0.4494300035538152
1775721930532419600,9.318419677734376,-9.789642166575788,0.38745935813542454,0.4279784885937348
1775721930542433800,9.328433837890625,-9.790620071697235,0.38511217395476993,0.40722861909698693
1775721930552446700,9.33844677734375,-9.791360660931467,0.3847008897401392,0.3894195522924885
1775721930562459600,9.348459716796874,-9.791836461749673,0.3846202622519806,0.3773463987914845
1775721930572473900,9.358473876953125,-9.792163209486008,0.38271293079331514,0.37074656213503326
1775721930582486500,9.368486572265626,-9.792552501064538,0.3778858759630471,0.3653768517954275
1775721930592500700,9.378500732421875,-9.793142283651232,0.370186407501623,0.3573703632114455
1775721930602513700,9.388513671875,-9.793851893225312,0.3614140491116792,0.34674715279042717
1775721930612527600,9.398527587890625,-9.794496620869635,0.35427009564116596,0.33572562723420557
1775721930622540800,9.408540771484375,-9.794987619256972,0.35021018925849345,0.3255048966668546
1775721930632553500,9.418553466796874,-9.795332487171887,0.34856885179225355,0.31678236876800653
1775721930642567700,9.428567626953125,-9.795551098358631,0.34920755155459043,0.3092167558193207
1775721930652580900,9.438580810546876,-9.79564462186098,0.352125521360524,0.30287635555034503
1775721930662594600,9.448594482421875,-9.795563957840203,0.3574837969906628,0.2991991648749448
1775721930672607700,9.458607666015626,-9.79527228141725,0.3656781728295609,0.29883478854196144
1775721930682620700,9.46862060546875,-9.79482453764975,0.3755288645081222,0.3012972696653567
1775721930692634600,9.478634521484375,-9.79431892621517,0.3856681638697162,0.30490137683823704
1775721930702647800,9.488647705078124,-9.793861830097436,0.39472273673452435,0.3079696418350562
1775721930712661800,9.498661865234375,-9.793522807401418,0.40182475075945256,0.30956315810419616
1775721930722674700,9.5086748046875,-9.793349204400181,0.40701479368321597,0.30826957462970167
1775721930732688600,9.518688720703125,-9.793326992568373,0.41094446128234263,0.3037295200472697
1775721930742701300,9.528701416015625,-9.79335154248774,0.4146923425737768,0.2978002030635252
1775721930752714500,9.538714599609374,-9.7933538805753,0.4185337473675608,0.29228410652317105
1775721930762728200,9.548728271484375,-9.793352711531519,0.4225635508729145,0.286477648734115
1775721930772741400,9.558741455078126,-9.793357387706637,0.42667946175914256,0.2801368283400312
1775721930782755300,9.56875537109375,-9.793363232925534,0.4307509124491363,0.27363933781320227
1775721930792768300,9.578768310546875,-9.793393043541908,0.4335554850084707,0.2680692277969792
1775721930802781400,9.588781494140624,-9.793495919394493,0.43411509165260936,0.26336853929273785
1775721930812795100,9.598795166015625,-9.793661339089274,0.4321938777990639,0.2603638958503492
1775721930822808300,9.608808349609374,-9.79385423131287,0.4278544238226488,0.2602838346177712
1775721930832822300,9.618822265625,-9.79404303188324,0.4208198855433613,0.2646108857703395
1775721930842835200,9.628835205078126,-9.794182732614875,0.412081685151346,0.2730517837162129
1775721930852848400,9.638848388671875,-9.794240015760064,0.40322537480499593,0.28400565086370333
1775721930862862300,9.6488623046875,-9.794254628807305,0.3956648398902267,0.2939593462590128
1775721930872875300,9.658875244140624,-9.794323017868399,0.38908188130334015,0.30038981769792733
1775721930882889200,9.66888916015625,-9.794380885535478,0.38336372285224496,0.30580665511488914
1775721930892902400,9.67890234375,-9.794344645178317,0.38026312648840244,0.3108021253146231
1775721930902915300,9.688915283203125,-9.794160520783066,0.3798326261166483,0.3170614779703319
1775721930912929300,9.69892919921875,-9.793851893225312,0.38076329456288366,0.32538090496100486
1775721930922942200,9.708942138671874,-9.793558463236689,0.3798650670815259,0.3351081529229879
1775721930932956200,9.7189560546875,-9.79337141623199,0.37413331849649545,0.3468227753099054
1775721930942969300,9.72896923828125,-9.793291336733102,0.36430246402956545,0.35932405456248667
1775721930952983300,9.7389833984375,-9.793237560719252,0.35330212739184497,0.37156715780291705
1775721930962996200,9.748996337890626,-9.793170340701938,0.34420221754796804,0.38174211299978195
1775721930973009400,9.759009521484375,-9.793116564688086,0.3369545479746535,0.38950503861885516
1775721930983023000,9.769023193359375,-9.79318495374918,0.33016890642251817,0.3935769642328843
1775721930993036300,9.779036376953124,-9.793325239002703,0.3226647048048675,0.39630178608689454
1775721931003050200,9.78905029296875,-9.79340590302348,0.3157153971236199,0.39989195606596767
1775721931013063200,9.799063232421876,-9.793375507885218,0.3087295202916488,0.40603265077807005
1775721931023076400,9.809076416015625,-9.793243405938147,0.30027870373995974,0.415450357866846
1775721931033090300,9.81909033203125,-9.793004336485266,0.2908467854627408,0.427623683806695
1775721931043103200,9.829103271484374,-9.792705645799636,0.28065049521690233,0.4410584445171058
1775721931053117200,9.8391171875,-9.79240286346078,0.26865659923087803,0.4550333399862051
1775721931063130400,9.84913037109375,-9.792167885661124,0.2551580891018733,0.4676782289605587
1775721931073143300,9.859143310546875,-9.791975577959418,0.24032032972574233,0.4794236483445391
1775721931083157200,9.8691572265625,-9.791837630793452,0.22552253703381864,0.4893213940352201
1775721931093170200,9.879170166015625,-9.791722479981184,0.21171782876616344,0.4977307643316686
1775721931103184100,9.88918408203125,-9.791679225361346,0.19900339995324612,0.5037846210105345
1775721931113197300,9.899197265625,-9.79174702990055,0.1853649516305886,0.5076561652142554
1775721931123211300,9.909211181640625,-9.791935245949029,0.1695655258817598,0.509539312079735
1775721931133224200,9.91922412109375,-9.792146258351206,0.15150686823036522,0.5111803572850302
1775721931143237400,9.9292373046875,-9.792135152435302,0.1318899208868388,0.5167964436011389
1775721931153251000,9.9392509765625,-9.79182418678999,0.11290644000810571,0.5270862938819453
1775721931163264300,9.94926416015625,-9.791344878840446,0.09514780648290179,0.5393519012151285
1775721931173278200,9.9592783203125,-9.790844528102873,0.07662902050646953,0.5512534244762733
1775721931183291100,9.969291015625,-9.790462835308908,0.05538826678681653,0.560499135999009
1775721931193304300,9.97930419921875,-9.790195708805323,0.02960920748382341,0.5670784047914669
1775721931203318300,9.989318359375,-9.78995663935244,-0.0007595812009538349,0.571956787950173
1775721931213331200,9.999331298828125,-9.78967840693295,-0.03270278958498966,0.5757740446833893
1775721931223345200,10.00934521484375,-9.789368610331415,-0.06309180406858213,0.5784991222657263
1775721931233358300,10.0193583984375,-9.789162858626247,-0.09023247058098204,0.578389487878792
1775721931243371300,10.029371337890625,-9.789114343309402,-0.11494321566587314,0.5748149173276499
1775721931253385200,10.03938525390625,-9.789030756679177,-0.1386597072827164,0.5709944457240402
1775721931263398100,10.049398193359375,-9.788740833821892,-0.16059463097872212,0.5702126842292026
1775721931273412400,10.059412353515626,-9.788145206016301,-0.17894089166615157,0.5749577963970601
1775721931283425300,10.06942529296875,-9.787248549437523,-0.19481270679775625,0.5849801183154806
1775721931293438200,10.079438232421875,-9.78622914326191,-0.21064429951682687,0.5964342996679246
1775721931303452200,10.0894521484375,-9.785285140410066,-0.2270293066012673,0.6058376494377851
1775721931313465300,10.09946533203125,-9.784441675323247,-0.2434536410490982,0.61303691329211
1775721931323479300,10.109479248046876,-9.783362647914887,-0.2619958627000451,0.6225406546965241
1775721931333492200,10.1194921875,-9.781883807533978,-0.28316817712625486,0.6363517379060387
1775721931343506400,10.12950634765625,-9.780195708316564,-0.3062912420277484,0.6514154515251517
1775721931353519000,10.13951904296875,-9.778633865827322,-0.3309885157097131,0.66268327999264
1775721931363532300,10.1495322265625,-9.777326290360092,-0.3573488089667633,0.6682650987129658
1775721931373546200,10.159546142578124,-9.776409760037064,-0.38330654930491,0.6672868282653391
1775721931383559200,10.16955908203125,-9.77576561691463,-0.40714751668479293,0.6625887335769832
1775721931393573400,10.179573486328126,-9.775041394293307,-0.42839949048478154,0.6598634002663195
1775721931403586300,10.18958642578125,-9.774075179609655,-0.4474549406211823,0.6615336715660989
1775721931413599200,10.19959912109375,-9.77287340260446,-0.4658700470274314,0.666552084250003
1775721931423613200,10.20961328125,-9.771500360685586,-0.4852667848821729,0.672819108755514
1775721931433626000,10.219626220703125,-9.770185770955681,-0.5061080589894205,0.6765404673662037
1775721931443640300,10.229640380859376,-9.769000945085287,-0.5294537171330302,0.675786799454689
1775721931453653200,10.2396533203125,-9.767806182342767,-0.5551302659096196,0.6724446494199335
1775721931463666200,10.249666259765625,-9.766502114006876,-0.5808697238545865,0.6696324415434152
1775721931473680400,10.259680419921875,-9.765148945832252,-0.6043445978684351,0.668597180211544
1775721931483693300,10.269693359375,-9.763845462018251,-0.6249674434520304,0.6686728757962584
1775721931493707300,10.279707275390624,-9.762812611839175,-0.6430145567961036,0.6666393972072749
1775721931503720200,10.28972021484375,-9.762187757939099,-0.6594826573204249,0.6596607173010707
1775721931513733400,10.2997333984375,-9.762051564338803,-0.6749871735095977,0.6458487573087215
1775721931523747300,10.309747314453125,-9.762253224390745,-0.6895052359446883,0.6271987096354364
1775721931533760300,10.31976025390625,-9.762581141170859,-0.702861634189263,0.6069452818861231
1775721931543774500,10.3297744140625,-9.762924840041995,-0.7146327360037714,0.5873561997970566
1775721931553787100,10.339787109375,-9.763122992962598,-0.7258234806470573,0.5700799977602437
1775721931563800300,10.34980029296875,-9.7629698482275,-0.7389029616463929,0.5557235190950334
1775721931573814300,10.359814208984375,-9.762398770341276,-0.7550729560069739,0.5438964858422055
1775721931583827200,10.3698271484375,-9.761524325594305,-0.7729028464037925,0.5344594164658337
1775721931593841400,10.37984130859375,-9.76043477679193,-0.7911825263947247,0.5275689262997358
1775721931603854000,10.38985400390625,-9.759244105702638,-0.8089185279630124,0.5226730440169572
1775721931613867300,10.3998671875,-9.75799030624926,-0.8254442769587039,0.5202412502927706
1775721931623881200,10.409881103515625,-9.756736506795882,-0.8406344665016978,0.5194346466176212
1775721931633894100,10.41989404296875,-9.75549147517085,-0.8551701376587152,0.5190950028670951
1775721931643908400,10.429908447265625,-9.754257549461721,-0.8696295287091285,0.5182526337588206
1775721931653921300,10.43992138671875,-9.752935360947252,-0.8843238975591957,0.5182778047326952
1775721931663935200,10.449935302734374,-9.751673378187418,-0.8983755845915525,0.5178480350133031
1775721931673948200,10.4599482421875,-9.750599611476064,-0.9122017192397266,0.5138914794072509
1775721931683961300,10.46996142578125,-9.749613523048161,-0.9275195537503809,0.5051048367636278
1775721931693975300,10.479975341796875,-9.74860931444168,-0.9442149602245539,0.49342013459093864
1775721931703988200,10.48998828125,-9.747729024475813,-0.9595251959506421,0.4811163872044533
1775721931714002400,10.50000244140625,-9.747032274383306,-0.9718817695029079,0.47030726228989655
1775721931724015400,10.510015380859375,-9.746435477533936,-0.9821626327596604,0.4612350441705435
1775721931734028300,10.5200283203125,-9.74586732225716,-0.9923405470985919,0.4513502310266718
1775721931744042000,10.5300419921875,-9.744911044445633,-1.006743750982359,0.4399551594503224
1775721931754055000,10.540054931640626,-9.743309454467893,-1.0277954529698938,0.4265521455850452
1775721931764069000,10.550069091796875,-9.741215112537144,-1.0546045494403689,0.4085590274505317
1775721931774082000,10.56008203125,-9.73876245868802,-1.0855108520966024,0.38543029999323186
1775721931784095000,10.570094970703124,-9.735992409452795,-1.1186794005963951,0.35971904522944237
1775721931794109200,10.580109130859375,-9.73305518695712,-1.152076716350764,0.3327701749620959
1775721931804121900,10.590121826171876,-9.729913966321945,-1.1856473428454248,0.3056036981550045
1775721931814136000,10.600135986328125,-9.726456519344449,-1.2198179810598493,0.28012727506039664
1775721931824149200,10.610149169921876,-9.722636668795346,-1.2545870966240762,0.2583312209789641
1775721931834162000,10.620161865234374,-9.718718618568778,-1.2881722631007433,0.23981336658429353
1775721931844176100,10.630176025390625,-9.715088737633824,-1.317940209376812,0.22465728024030102
1775721931854188800,10.640188720703126,-9.71184931732118,-1.3434206875920296,0.21351528837587683
1775721931864203000,10.650203125,-9.709038936075567,-1.3654030945584177,0.20155770581224933
1775721931874216200,10.66021630859375,-9.70651789316535,-1.3856753366060555,0.1838297048873268
1775721931884228900,10.670228759765624,-9.703913263624907,-1.406512080668658,0.16179229806438086
1775721931894243000,10.6802431640625,-9.700970195910333,-1.4290833934389053,0.13885934890750795
1775721931904256000,10.690256103515624,-9.697824299100041,-1.4522022570893167,0.11701347346813418
1775721931914270000,10.70027001953125,-9.694776017445326,-1.4739451562114059,0.09584331446639262
1775721931924283100,10.710283203125,-9.692027595520019,-1.4932070521727203,0.07292113786528352
1775721931934296000,10.720296142578125,-9.689225397580861,-1.5122946144804357,0.047581497459439556
1775721931944310000,10.73031005859375,-9.6857036531955,-1.535280353270471,0.021063008832838386
1775721931954323000,10.740322998046874,-9.681309802150725,-1.5628852762937544,-0.004077721456809376
1775721931964337200,10.750337158203125,-9.676692079222201,-1.5909987333610653,-0.02723888445617631
1775721931974350000,10.76035009765625,-9.672374216023087,-1.6165750731661914,-0.04737513383291662
1775721931984363000,10.770363037109375,-9.668464349102974,-1.6391627525493502,-0.0657549497300759
1775721931994377200,10.780377197265626,-9.665036128219961,-1.658452851691842,-0.08361390182459727
1775721932004390000,10.790389892578125,-9.662151512694358,-1.6740404430545865,-0.1039356821023859
1775721932014404000,10.800404052734375,-9.659311905354262,-1.688929676889628,-0.1248591637335252
1775721932024417000,10.8104169921875,-9.655973116320371,-1.706815169931203,-0.13911913235485554
1775721932034430000,10.820429931640625,-9.652100074279307,-1.72815664864555,-0.14431583334826864
1775721932044444200,10.830444091796876,-9.647774027773737,-1.7525420251004398,-0.1394012006992474
1775721932054456800,10.840456787109375,-9.64280851432085,-1.780873654963076,-0.12297098449990153
1775721932064471000,10.850470947265626,-9.63711994729042,-1.8128727212920783,-0.09896551987384446
1775721932074484200,10.860484130859374,-9.630822892972827,-1.8471900014355778,-0.07430376046325546
1775721932084497000,10.870496826171875,-9.624641573989392,-1.8797728590019047,-0.055787970161507834
1775721932094511000,10.880510986328124,-9.619415363773703,-1.9066626194931566,-0.04327046129333321
1775721932104524000,10.89052392578125,-9.615048400735855,-1.9287870652787387,-0.03184884876993019
1775721932114538000,10.9005380859375,-9.61116133016944,-1.948226071372628,-0.01952492852838477
1775721932124551200,10.91055126953125,-9.607591070467233,-1.9658491140857337,-0.0036781879017100433
1775721932134565000,10.920565185546875,-9.604228316035867,-1.9821160660147665,0.019960627948353064
1775721932144578000,10.930578125,-9.601307460153102,-1.9956625069387255,0.0510698738647392
1775721932154591000,10.940591064453125,-9.599332360687852,-2.0039825915165244,0.085155012053065
1775721932164605200,10.950605224609374,-9.598307693815231,-2.0072142669141293,0.11819322130461223
1775721932174618000,10.9606181640625,-9.597540216574073,-2.0089226782672105,0.14776674098712392
1775721932184631000,10.970631103515625,-9.596067805933952,-2.0140460126303137,0.17172148007294163
1775721932194645000,10.98064501953125,-9.59342225986123,-2.025528068370372,0.18404130181139333
1775721932204658000,10.990657958984375,-9.589457447883486,-2.044224293272942,0.183932708604075
1775721932214672100,11.000672119140624,-9.584854922524094,-2.0664742651343344,0.17499509491613133
1775721932224685000,11.01068505859375,-9.581030395799875,-2.085545899220556,0.15727124044336377
1775721932234699000,11.020698974609376,-9.578008417630196,-2.10153534938246,0.12524922249703668
1775721932244712200,11.030712158203125,-9.573695815128087,-2.123201676137,0.08213515277523548
1775721932254724900,11.040724853515625,-9.566922959992288,-2.154830009457469,0.03280769299787935
1775721932264739000,11.050739013671874,-9.558326396560668,-2.1928538890339433,-0.01334659266154631
1775721932274752300,11.060752197265625,-9.549470889931916,-2.230638114635646,-0.04742399164305534
1775721932284766000,11.070765869140626,-9.541509117272495,-2.2639244442962108,-0.06812028148877435
1775721932294779100,11.080779052734375,-9.534574934095144,-2.292480238303542,-0.0824637454087846
1775721932304791800,11.090791748046875,-9.527235092726348,-2.3225052280806002,-0.09023365789107046
1775721932314806000,11.100805908203125,-9.518372571834922,-2.3585602918021378,-0.09032519036573357
1775721932324819200,11.110819091796875,-9.5088068711102,-2.3970422904096544,-0.08462884188764729
1775721932334833200,11.120833251953124,-9.499793543571233,-2.4330543917722998,-0.06744733696354087
1775721932344846000,11.13084619140625,-9.492344396609067,-2.462651511526108,-0.033611885520233774
1775721932354859000,11.14085888671875,-9.487351995149254,-2.4820143836438655,0.011702821209625108
1775721932364873000,11.150873046875,-9.484987604105472,-2.4903467431813477,0.05976541329196188
1775721932374886100,11.16088623046875,-9.484949025660752,-2.489315062046051,0.0971526891650632
1775721932384900000,11.170900146484374,-9.486556460857392,-2.4825197028174997,0.11282836067005991
1775721932394913000,11.1809130859375,-9.488242806509136,-2.476235507981479,0.10901967083578928
1775721932404926000,11.190926025390626,-9.489315404176711,-2.472712886813283,0.09471914187520741
1775721932414940200,11.200940185546875,-9.490651621216536,-2.468150693464279,0.07843839888283982
1775721932424953000,11.210953125,-9.493308857727051,-2.458350307200849,0.06316211565870325
1775721932434967000,11.220967041015625,-9.497222231778501,-2.443550359084457,0.0470259413693333
1775721932444980200,11.230980224609375,-9.501668689793348,-2.426454701246321,0.031486554796178824
1775721932454993000,11.240992919921876,-9.505977200642228,-2.409673808445781,0.016047079225321066
1775721932465007000,11.251007080078125,-9.5095720102638,-2.3955011984474956,-0.00005780016735880053
1775721932475020000,11.26102001953125,-9.512345566630364,-2.3844210015065967,-0.014166238481359323
1775721932485034000,11.271033935546875,-9.51466319592297,-2.375068505141139,-0.024812933667597827
1775721932495047200,11.281047119140625,-9.51673415697813,-2.366627424532175,-0.035011201241391246
1775721932505059800,11.291059814453124,-9.518366142094134,-2.3598365953482685,-0.04760687392929103
1775721932515074000,11.301073974609375,-9.519071075493097,-2.356655188833177,-0.06203546798264142
1775721932525087200,11.311087158203126,-9.518511103522776,-2.3584674989521504,-0.07721555169015192
1775721932535101000,11.321100830078125,-9.516833525699376,-2.3647068317331374,-0.09177027460751123
1775721932545114000,11.331114013671876,-9.514556228417158,-2.3734515714637934,-0.10164668524921872
1775721932555127000,11.341126953125,-9.512416878300904,-2.3818822768092156,-0.10461641264185309
1775721932565141000,11.35114111328125,-9.510937453398109,-2.3879168807983397,-0.10151801736825145
1775721932575154200,11.361154296875,-9.510247717568278,-2.390877045778185,-0.09634435932370833
1775721932585168100,11.371168212890625,-9.510035536122322,-2.39188870703876,-0.09209362481036223
1775721932595181000,11.38118115234375,-9.51015068693459,-2.391444470402598,-0.09171336592165753
1775721932605194000,11.391194091796875,-9.510722349342704,-2.3890518761776387,-0.09471435610223561
1775721932615208000,11.4012080078125,-9.511685641416907,-2.384994271349907,-0.10012470897948368
1775721932625221000,11.41122119140625,-9.512842410236596,-2.3799824345372618,-0.10906799435638823
1775721932635235000,11.421235107421875,-9.51388052111268,-2.3753411846026777,-0.1192334784720093
1775721932645248000,11.431248046875,-9.51485199649334,-2.3710668682843443,-0.1265578848096542
1775721932655261000,11.441260986328125,-9.51583866944313,-2.366969808229059,-0.12906562984688208
1775721932665275100,11.451275146484376,-9.516607900249957,-2.3640360928647217,-0.1260672060827259
1775721932675288000,11.4612880859375,-9.51708662367761,-2.3624372793659565,-0.11974278883417136
1775721932685302000,11.471302001953125,-9.517510986569523,-2.3610972629338502,-0.11219755195323378
1775721932695315200,11.481315185546874,-9.518176172479986,-2.3588385242216288,-0.10288436468485743
1775721932705327900,11.491327880859375,-9.519470888465642,-2.3540504131622613,-0.0922222652918659
1775721932715342000,11.501342041015626,-9.521221531525253,-2.3473940240129827,-0.08040600002822466
1775721932725355000,11.51135498046875,-9.523231117781997,-2.3395409724250436,-0.07072325336167123
1775721932735369000,11.521368896484375,-9.525224337425827,-2.3315501198016104,-0.06606509339148178
1775721932745382700,11.531382568359374,-9.52667336719036,-2.325723751735687,-0.06233583460212685
1775721932755395300,11.541395263671875,-9.527575868988036,-2.32221676652804,-0.05470328476391732
1775721932765409500,11.551409423828124,-9.528430439990759,-2.3189248853757976,-0.044513282694970256
1775721932775422500,11.56142236328125,-9.529457444950937,-2.314895045337826,-0.032970098751666954
1775721932785435400,11.571435302734375,-9.530901214018463,-2.3090669237062333,-0.02282632414435502
1775721932795449600,11.58144970703125,-9.532841242170333,-2.301102228437364,-0.015793389875331194
1775721932805462500,11.591462646484375,-9.53501332551241,-2.292107313337922,-0.012088341936981304
1775721932815476500,11.6014765625,-9.536956276273727,-2.284013584861904,-0.011291041521361329
1775721932825489400,11.611489501953125,-9.538182603198289,-2.2788977031528947,-0.009072492113988846
1775721932835502600,11.621502685546876,-9.538618072006106,-2.2770912382528183,0.00046142608921363715
1775721932845516500,11.6315166015625,-9.538749589431285,-2.276490495880693,0.015345420062256743
1775721932855529500,11.641529541015625,-9.538836683192848,-2.2759793314881622,0.02999630482197972
1775721932865543700,11.651543701171875,-9.53902022306621,-2.275010194195062,0.0425017967420863
1775721932875556400,11.661556396484375,-9.539607667565345,-2.272347550857067,0.05201988633226137
1775721932885569500,11.671569580078126,-9.540646947485207,-2.267806692557037,0.059141235245321874
1775721932895583700,11.681583740234375,-9.542062074980139,-2.2616566454946994,0.06593256218614987
1775721932905596400,11.691596435546876,-9.54375777298212,-2.254278371811658,0.07281154001096729
1775721932915610600,11.701610595703125,-9.545442365068197,-2.2470092575915155,0.07654333781728055
1775721932925623300,11.711623291015625,-9.546605563628672,-2.2420620104476807,0.0766129644208122
1775721932935636500,11.721636474609374,-9.547314588680862,-2.239114851079881,0.07440320681631565
1775721932945650700,11.731650634765625,-9.547539629608393,-2.2382135183259844,0.0725838139360072
1775721932955663400,11.741663330078126,-9.547198853346705,-2.239624408037215,0.07387993186088278
1775721932965677600,11.751677490234375,-9.546806054636836,-2.241177628828585,0.07744817313593812
1775721932975690500,11.7616904296875,-9.54696446006894,-2.240363097575307,0.08143467635568231
1775721932985703400,11.771703369140624,-9.54797276032865,-2.2359122556462885,0.08543560082642361
1775721932995717600,11.781717529296875,-9.549527004033326,-2.2291388159886,0.08865547618838027
1775721933005730600,11.79173046875,-9.550673251459003,-2.224162635011226,0.09013227987582795
1775721933015744500,11.80174462890625,-9.550483281844853,-2.2249055623330176,0.0919013353749644
1775721933025757400,11.81175732421875,-9.549143557673693,-2.2304753252893685,0.09600585721749812
1775721933035770400,11.821770263671874,-9.54754313673973,-2.2369475900433957,0.10426140692541375
1775721933045784600,11.83178466796875,-9.546242575535178,-2.24192800880447,0.1157363296717871
1775721933055797500,11.841797607421874,-9.545302664336562,-2.245132065542787,0.13022772329566068
1775721933065811700,11.851811767578125,-9.544507714566588,-2.247422076176107,0.1478360890294425
1775721933075824400,11.861824462890626,-9.543930206939578,-2.248591266085952,0.16618169212974607
1775721933085837600,11.871837646484375,-9.543584169980884,-2.248728044208139,0.18332643154030664
1775721933095851500,11.8818515625,-9.543389524191618,-2.248176693935692,0.19950033489102498
1775721933105864400,11.891864501953124,-9.543415827676654,-2.2466128056198356,0.215253053687606
1775721933115878700,11.901878662109375,-9.54374140636921,-2.243685081604868,0.23078619318306445
1775721933125891300,11.911891357421876,-9.544386718535423,-2.239397321283072,0.24528155059600248
1775721933135904500,11.921904541015625,-9.5451191244632,-2.234804148273915,0.2583264717386104
1775721933145918700,11.931918701171876,-9.545617721635102,-2.2313260968998074,0.2697185111076571
1775721933155931400,11.941931396484375,-9.545859713697434,-2.2290755414940415,0.279586062589474
1775721933165945600,11.951945556640625,-9.546092353409529,-2.227153195129335,0.2868774617066607
1775721933175958500,11.96195849609375,-9.546659924164414,-2.2244804687887427,0.28870887838490306
1775721933185971500,11.971971435546875,-9.547266657885908,-2.2221784754566847,0.28636036076368765
1775721933195985700,11.981985595703126,-9.547756487229465,-2.22039743725881,0.2838425509901717
1775721933205998300,11.991998291015625,-9.548188448905945,-2.218276207321137,0.2858963965137489
1775721933216011500,12.002011474609375,-9.5486046284914,-2.2152477994106707,0.29531490732012317
1775721933226025500,12.012025390625,-9.549276244142652,-2.2100879324294627,0.3118047995511442
1775721933236038400,12.022038330078125,-9.550812367668748,-2.200662078566849,0.3308447963900864
1775721933246052600,12.032052490234374,-9.553990997704863,-2.184478128746152,0.3459762049505487
1775721933256065500,12.0420654296875,-9.55848947816789,-2.162553735577315,0.3591949848227203
1775721933266078500,12.052078369140625,-9.563334580111503,-2.1379979709915817,0.37680922317486254
1775721933276092400,12.062092529296875,-9.567840659359097,-2.113041955041885,0.402326051345095
1775721933286105600,12.072105712890625,-9.571697334787249,-2.088997500979155,0.43483865668680516
1775721933296119600,12.08211962890625,-9.57531435624063,-2.0654221257328986,0.46666050328537817
1775721933306132500,12.092132568359375,-9.579610592129827,-2.039890647982806,0.4901948158688843
1775721933316145400,12.1021455078125,-9.584818097645044,-2.0117149393342433,0.5046296204673126
1775721933326159400,12.112159423828125,-9.59094213348329,-1.9813072338499127,0.5085604936428367
1775721933336172500,12.122172607421875,-9.597513913089037,-1.9506817939616738,0.5029458686314523
1775721933346186800,12.132186767578125,-9.60399859893322,-1.9210861355125903,0.49297388866078107
1775721933356199400,12.142199462890625,-9.610395606493949,-1.8915578432112932,0.48237822383381423
1775721933366212600,12.152212646484376,-9.61660322896242,-1.8616599869452415,0.4749243641639128
1775721933376226300,12.162226318359375,-9.622548985624313,-1.830777503556013,0.47454051594547925
1775721933386239500,12.172239501953126,-9.628176177856325,-1.7989150692187248,0.482197570037283
1775721933396253700,12.182253662109375,-9.63301601910293,-1.7694905295528471,0.494259654155001
1775721933406266400,12.192266357421875,-9.636761635372043,-1.7455967360071838,0.5060668501961976
1775721933416279600,12.202279541015624,-9.640341831946373,-1.7228702326752245,0.5156643342986703
1775721933426293500,12.21229345703125,-9.64489818007648,-1.6946718738034368,0.5238452661341056
1775721933436306400,12.222306396484376,-9.650872578310967,-1.658986958568543,0.5280171449912712
1775721933446320600,12.232320556640625,-9.657906130209565,-1.6186191462144255,0.5246951609617099
1775721933456333600,12.24233349609375,-9.665308515420556,-1.5778617500208316,0.5123906463902443
1775721933466346500,12.252346435546874,-9.672328038793802,-1.5411001454651354,0.49138548695817585
1775721933476360400,12.2623603515625,-9.678496498295663,-1.510175430369377,0.4652484079977497
1775721933486373400,12.272373291015626,-9.684124275049566,-1.481830356503278,0.43851986595019693
1775721933496386600,12.282386474609375,-9.690115039896964,-1.4498368431322275,0.4123375230759382
1775721933506400500,12.292400390625,-9.696865098679066,-1.4106675929129122,0.3888496434500441
1775721933516413400,12.302413330078124,-9.703677701303363,-1.367297530002892,0.37352779035139827
1775721933526427400,12.312427490234375,-9.709880063074827,-1.3246109193123876,0.36609088181629773
1775721933536440600,12.322440673828124,-9.71502093309462,-1.287709175633639,0.3613320699166506
1775721933546453500,12.33245361328125,-9.718718618568778,-1.2602622196510433,0.3586553615206852
1775721933556467500,12.342467529296876,-9.721241999566555,-1.2404548186361788,0.35931294864658264
1775721933566480600,12.352480712890625,-9.723425188824534,-1.222287586043775,0.3624941724985838
1775721933576494300,12.362494384765625,-9.72641794089973,-1.1980457097128032,0.3631383156210184
1775721933586507500,12.372507568359374,-9.730243052145838,-1.1663673267055301,0.36378706185333426
1775721933596520400,12.3825205078125,-9.734086283570527,-1.1313806228678673,0.3713799281351268
1775721933606534400,12.392534423828126,-9.737539054372906,-1.095605325935781,0.3877682048888877
1775721933616547600,12.402547607421875,-9.740345343965291,-1.060903868780285,0.41297092560864984
1775721933626561500,12.4125615234375,-9.742201200965047,-1.0306322838310151,0.4446269141210243
1775721933636574500,12.422574462890625,-9.743162739473581,-1.0076127889018505,0.4752659076105803
1775721933646587600,12.432587646484375,-9.744085699537395,-0.9892105054445565,0.49461237658280877
1775721933656601300,12.442601318359374,-9.745227270787954,-0.9718329619251191,0.5064249429188669
1775721933666614500,12.452614501953125,-9.746597974619268,-0.9520998682554811,0.5174154157496988
1775721933676628500,12.46262841796875,-9.748588271653652,-0.9265810307912528,0.526174366668798
1775721933686641400,12.472641357421875,-9.751189394062758,-0.8947354014582931,0.533047576906532
1775721933696654600,12.482654541015625,-9.75416753309071,-0.8579356568492948,0.5390227788586169
1775721933706668500,12.49266845703125,-9.757480018639564,-0.8180670992542057,0.541049571978487
1775721933716681500,12.502681396484375,-9.760614809533953,-0.7789058862108736,0.5422989144524559
1775721933726694700,12.512694580078126,-9.762961080399155,-0.7438777543842792,0.5492053328400478
1775721933736708600,12.52270849609375,-9.764742118597031,-0.7119527031395584,0.5597479523055255
1775721933746721500,12.532721435546875,-9.766413851201534,-0.6809760386608541,0.5690448460262268
1775721933756735200,12.5427353515625,-9.768188459658623,-0.6503260488532483,0.5744187576169147
1775721933766748400,12.55274853515625,-9.76998001925051,-0.6213146930981427,0.5760538480054587
1775721933776761600,12.56276171875,-9.771696175518631,-0.5941993071574717,0.575556602540426
1775721933786775300,12.572775390625,-9.77313585293293,-0.5687100611139089,0.5768615476591512
1775721933796788500,12.58278857421875,-9.77429203723073,-0.5430078664394096,0.5820186381613836
1775721933806802400,12.592802490234375,-9.775426009696721,-0.514444656310603,0.588875006862171
