time,seconds_elapsed,z,y,x
1775719605993781500,0.067781494140625,-1.9716437718391417,-1.8150994574308394,-0.2491360888659954
1775719606003794400,0.07779443359375,-0.46854456346631046,-1.048513612154126,-0.3866217748001218
1775719606013808400,0.087808349609375,0.8643497616752982,-0.23662907399237154,-0.48620852271169424
1775719606023822600,0.097822509765625,1.1645426685616374,0.005979074409604072,-0.4382426564440131
1775719606033835500,0.10783544921875,1.3904916508466005,-0.12610007630586623,-0.48414516044110056
1775719606043849500,0.117849365234375,1.7685072176039218,-0.13882161071300506,-0.765941117632389
1775719606053862700,0.127862548828125,2.860790413379669,0.04282674981355667,-1.0843857205241918
1775719606063876400,0.13787646484375,2.7649232705131173,-0.15666472591757774,-1.0787636428587137
1775719606073889500,0.1478896484375,2.882948761434853,0.09891688582599162,-1.0398938139773906
1775719606083903500,0.157903564453125,0.9139864837646484,0.29032909999787804,-0.9465265251025557
1775719606093917700,0.167917724609375,-1.5062135410010813,0.29118367100059983,-1.0896443717047573
1775719606103929900,0.177929931640625,-2.760164093287289,0.20561025087237356,-1.1419199178650974
1775719606113943800,0.18794384765625,-2.832753820940852,0.17178104650676249,-1.1025808640368282
1775719606123957000,0.19795703125,-3.0668671127200127,0.4600952995508909,-0.9917994990244507
1775719606133970700,0.207970703125,-2.4568922173470256,0.9791086520165204,-0.814498520052433
1775719606143985000,0.21798486328125,-1.934372902587056,1.2316525034993886,-0.7083290327496826
1775719606153997800,0.227997802734375,-2.376002863381803,0.5104103592932224,-0.7118710892707109
1775719606164011800,0.23801171875,-2.356139056004584,-0.9677075525581836,0.2747441389836371
1775719606174024700,0.248024658203125,-2.7414289976790545,-1.0385282247126102,2.1981780066661534
1775719606184039000,0.258038818359375,-3.32321678622663,1.65629304330945,1.6534578198835252
1775719606194051800,0.2680517578125,-3.261735020303726,1.9518261416912077,-0.906437675820291
1775719606204065800,0.278065673828125,-2.343441486994922,1.010752913558483,-1.1265449463397263
1775719606214079700,0.288079833984375,-2.3564961988791824,1.4595090729713438,-0.7323045132294297
1775719606224092700,0.2980927734375,-1.092037404321134,1.4560972187012433,-1.0240800126433371
1775719606234107000,0.30810693359375,0.0771431531742215,0.8974006751447916,-2.4255562911018727
1775719606244119800,0.318119873046875,1.0014198525458573,1.0215817660868167,-4.017496396966278
1775719606254134000,0.328134033203125,1.232366496987641,1.3250608550369738,-4.403072754366695
1775719606264147700,0.338147705078125,0.74193655718863,1.3268097445309162,-3.225649561443925
1775719606274161000,0.348160888671875,0.47292087885439393,1.4030769916534422,-1.9102954230375586
1775719606284174800,0.3581748046875,-0.0176285956710577,1.6217442924976349,-1.0326615246362985
1775719606294187800,0.368187744140625,-0.6626900019943713,2.0151748705297705,-0.6536205603539943
1775719606304201700,0.37820166015625,-0.921445275337994,2.130095965695381,-0.7873520083211362
1775719606314216000,0.3882158203125,-0.9284931480228901,1.9857249041616916,-0.9419465038359165
1775719606324228900,0.398228759765625,-0.819187262390554,2.063886586728692,-0.6164920221820474
1775719606334242800,0.408242919921875,-0.8203408163398503,2.265214045715332,-0.40619273671060796
1775719606344256000,0.418256103515625,-1.4523007490277289,2.3032120601981876,-0.8928338056206703
1775719606354269700,0.428269775390625,-0.9186725957542657,2.5758506052047014,-1.2160910694912075
1775719606364283000,0.438282958984375,-0.9086451227366924,2.6960949412196875,-1.0595514312580228
1775719606374296800,0.448296875,-1.352599434825778,2.6440754156470296,-0.6625035395115614
1775719606384310800,0.458310791015625,-1.6007533807866274,2.595778125467896,-0.130255734680593
1775719606394323700,0.46832373046875,-1.3816833443604408,2.4823306099861857,0.4854550739958882
1775719606404338000,0.478337890625,-1.7364298253417014,2.216294824245572,0.8700257614850997
1775719606414350800,0.488350830078125,-1.8366444958932697,2.029254833808541,1.0955898361057042
1775719606424364800,0.49836474609375,-1.2471816426731646,2.0438883393168448,1.238753567676246
1775719606434378800,0.508378662109375,-0.975652812474221,1.807319471079111,1.5373267644062638
1775719606444391700,0.5183916015625,-0.8551180421452969,1.4647674318909645,2.2214342329606414
1775719606454406000,0.528406005859375,-0.5889420442163944,1.143908753594756,2.8270269677266477
1775719606464418800,0.538418701171875,-0.24487368218116462,0.7164601706266402,3.1387270647943017
1775719606474433000,0.54843310546875,0.19691972554698586,0.3472182774335146,3.171248985953629
1775719606484445700,0.55844580078125,0.6240484289109707,0.016777531799674034,3.091299543187022
1775719606494460000,0.5684599609375,1.1121757177907974,-0.4061725707054138,3.193080586272478
1775719606504473900,0.578473876953125,1.2838713510364292,-0.6423866341561079,3.2683009546905755
1775719606514486800,0.58848681640625,1.5032067604005337,-0.834953863582015,3.167011494514346
1775719606524500700,0.598500732421875,1.7806453991651534,-0.8925380375444889,2.985851794287562
1775719606534514000,0.608513916015625,1.7703209890276193,-0.7665764929264783,2.626723298829794
1775719606544528000,0.61852783203125,1.7654788096934555,-0.6694137572914362,2.323883092305064
1775719606554541800,0.628541748046875,1.3981974029183386,-0.5367570989489555,2.231314114201069
1775719606564555000,0.638554931640625,0.7130635139256716,-0.39920273169279097,2.225367773017287
1775719606574568700,0.648568603515625,0.31457152431812135,-0.3166770086973905,2.0955922230690716
1775719606584582000,0.658581787109375,0.15715218064095823,-0.19039573060572146,1.7432921123266218
1775719606594595800,0.668595947265625,0.1217144085675478,-0.03147708828151226,1.1927613395690917
1775719606604608800,0.67860888671875,0.43898704507052894,0.09421849887669086,0.7626502593934535
1775719606614622700,0.688622802734375,0.7862386402517557,0.15718787300884723,0.5692880801975727
1775719606624637000,0.698636962890625,1.1148773048996925,0.18630349285602568,0.5870838491290807
1775719606634649900,0.70864990234375,1.3745973316222428,0.2196346845716238,0.5694318725824355
1775719606644663800,0.718663818359375,1.5271177973419428,0.3041121261566877,0.48883214921355245
1775719606654677000,0.728677001953125,1.7325187893778085,0.3601432254582643,0.37780747696459294
1775719606664690700,0.738690673828125,1.8439830220878124,0.40602293310165405,0.1444710147768259
1775719606674705000,0.748704833984375,1.8448820167541502,0.4912222592204809,-0.1168733982771635
1775719606684717800,0.7587177734375,1.5695850661933421,0.5199889194995164,-0.13307576053738593
1775719606694732000,0.76873193359375,1.1611270148992539,0.5544143361926078,0.012731471279263495
1775719606704744700,0.77874462890625,0.6563228050500154,0.6435358041912317,0.11827391272485256
1775719606714759000,0.788759033203125,0.20113105963170527,0.6321469796925783,0.15084814859330653
1775719606724771800,0.798771728515625,-0.028880057525634766,0.5437608402311802,0.12456862895488738
1775719606734785800,0.808785888671875,-0.011583433755300939,0.5750023661911488,0.03612929800152778
1775719606744799700,0.8187998046875,0.17265139960050582,0.6454518669456243,-0.06868249108195304
1775719606754812700,0.828812744140625,0.07000294429706409,0.5973825403034687,-0.07658405798673629
1775719606764827000,0.838826904296875,0.01929742393242195,0.4599100061118602,-0.06207739372849464
1775719606774839800,0.84883984375,0.06377305519785732,0.35713586033582684,-0.1396598151028156
1775719606784854000,0.85885400390625,0.09832710323929786,0.28243513187766073,-0.21720190446674822
1775719606794867700,0.86886767578125,-0.10718198881354182,0.18969138172864913,-0.20793021825253963
1775719606804881000,0.878880859375,-0.1882890771826729,0.14101882849633693,-0.125212772077322
1775719606814894800,0.888894775390625,-0.17667996099684385,0.12632920888662338,-0.03024257805049419
1775719606824907800,0.89890771484375,-0.024010990184545517,0.019032617250084875,0.08902560640871525
1775719606834921700,0.908921630859375,0.09958616338968276,-0.10548866543173789,0.14232874205112456
1775719606844935000,0.918934814453125,0.12433595271017402,-0.23321195902526376,0.2485334467977285
1775719606854948900,0.928948974609375,-0.020587482009269294,-0.2979565261363983,0.3561328207731247
1775719606864962800,0.938962890625,-0.15930033511817454,-0.33249826268553734,0.39242753846943373
1775719606874976000,0.94897607421875,-0.14623627088367938,-0.31624563154280183,0.4229653000742197
1775719606884989700,0.95898974609375,-0.18643091862797737,-0.2656429870307445,0.34484511856138705
1775719606895003000,0.9690029296875,-0.2571825441341847,-0.17532500272393226,0.21977613886892794
1775719606905016800,0.979016845703125,-0.3006961437007412,-0.11146306366622448,0.15282090997099876
1775719606915030800,0.98903076171875,-0.39917175203263755,-0.0464636450111866,0.07037234386503696
1775719606925043700,0.999043701171875,-0.3470488391507417,0.09112403999269009,0.004341828596591949
1775719606935058000,1.009057861328125,-0.32265023788809777,0.21668518711626528,-0.030342531293630598
1775719606945070800,1.01907080078125,-0.3577286385972053,0.2986667202323675,0.0457750782251358
1775719606955084800,1.029084716796875,-0.327014351381734,0.2872059995412826,0.2945540242165327
1775719606965098000,1.039097900390625,-0.25315935303270815,0.2790361370891333,0.4214098873257637
1775719606975111700,1.049111572265625,-0.10390691266562789,0.3370616250783205,0.4099474130690098
1775719606985126000,1.0591259765625,0.08402202596776187,0.38181963521540163,0.3657084583699703
1775719606995138800,1.069138916015625,0.10529230260942131,0.481826069843769,0.41386546329557894
1775719607005153000,1.079153076171875,0.06767251032181083,0.6414058064252138,0.5301496635079384
1775719607015165700,1.089165771484375,-0.03163958536684513,0.7433294728517532,0.6118517951607704
1775719607025180000,1.099179931640625,-0.12225567583739756,0.9240274007856846,0.5943365967363119
1775719607035192800,1.10919287109375,-0.15096505297124385,1.1677917334854602,0.6304027663737535
1775719607045206800,1.119206787109375,-0.3171189072459936,1.2401163804620503,0.7901426619529723
1775719607055220700,1.129220703125,-0.39272096845805643,1.2580711393475532,0.9323936625927686
1775719607065234000,1.13923388671875,-0.3599795593291521,1.2604746933579445,1.0389578483015298
1775719607075247900,1.149247802734375,-0.33261165993213654,1.30904787786901,1.0295499684870242
1775719607085260800,1.1592607421875,-0.1478776083499193,1.4856629204034804,0.8770680812120437
1775719607095275300,1.169275146484375,-0.1180412730127573,1.6355121210873127,0.8469581896305084
1775719607105288000,1.179287841796875,-0.222946585598588,1.6681798804581165,0.8354355096191167
1775719607115302100,1.18930224609375,-0.28308738524131477,1.694212147337198,0.7998498169749975
1775719607125316000,1.199316162109375,-0.3221059749435633,1.7081722836285829,0.8638117092758416
1775719607135329000,1.2093291015625,-0.33103630037419496,1.713899429103732,0.876881034207344
1775719607145343000,1.219343017578125,-0.2463181819010526,1.7586077548801897,0.7571744583308696
1775719607155356200,1.229356201171875,-0.30213001242876053,1.848438832452893,0.6066694240868091
1775719607165370000,1.2393701171875,-0.42314942446947096,1.9314596454888582,0.4826122517853975
1775719607175384000,1.249384033203125,-0.5939730241209268,1.9993191297501325,0.3023649902284145
1775719607185397200,1.259397216796875,-0.7462935833543538,2.045537275567651,0.1322141752719879
1775719607195411200,1.2694111328125,-0.7137234391391277,2.07176068110466,0.03436813354790211
1775719607205424000,1.279424072265625,-0.6980792222183198,2.116957082659006,0.010936989077925681
1775719607215438000,1.28943798828125,-0.615973770461604,2.0892548367410897,-0.031028175470232962
1775719607225451300,1.299451171875,-0.5168242449235171,2.1784102070093154,-0.16813129182755945
1775719607235465000,1.30946484375,-0.5117827436249703,2.253044299972057,-0.38977264004647727
1775719607245479200,1.319479248046875,-0.44632389076463874,2.3022668883025643,-0.7123860530555248
1775719607255492000,1.3294921875,-0.30166648657023903,2.3827684119939803,-1.0536416226923464
1775719607265506000,1.339506103515625,-0.2508480804156512,2.4758090992629525,-1.282853698426485
1775719607275519200,1.349519287109375,-0.3293441095035523,2.490299396908283,-1.3425614404141901
1775719607285533200,1.359533203125,-0.5960830750774592,2.4390689758867024,-1.4298860881239175
1775719607295546000,1.369546142578125,-0.8327771040648222,2.476492989873886,-1.652790588146448
1775719607305560000,1.37956005859375,-1.1887369063585995,2.593111536607146,-1.7831681956410408
1775719607315574300,1.38957421875,-1.5224024592578411,2.4577783525317907,-1.8353192386388777
1775719607325587000,1.3995869140625,-1.7087408772967754,2.282829197382927,-1.9626345359534023
1775719607335601200,1.40960107421875,-1.7115893985956907,2.2129951981782914,-2.1829957812339065
1775719607345614000,1.419614013671875,-1.5159779791682957,2.0726585067272185,-2.4022166243076324
1775719607355628000,1.4296279296875,-1.127099657613039,1.9476409649610518,-2.5374440099209545
1775719607365641200,1.43964111328125,-0.8552402802854776,1.7717618354856968,-2.5271646079689263
1775719607375655200,1.4496552734375,-0.6354834306389093,1.5643430738866329,-2.451427522200346
1775719607385669000,1.459669189453125,-0.44079614031910896,1.4433791914254426,-2.33888543112576
1775719607395682000,1.46968212890625,-0.4484808496028185,1.258153556933999,-2.2526152609050274
1775719607405696300,1.4796962890625,-0.34119361031651496,1.117666058835387,-2.1423294243246316
1775719607415709000,1.489708984375,-0.3369172481715679,1.113304356494546,-1.9612819523006677
1775719607425723100,1.49972314453125,-0.5079179579555988,1.0174404284983873,-1.7394301762014626
1775719607435737000,1.509737060546875,-0.5777122096717358,0.8386556407094001,-1.5550404080122708
1775719607445750300,1.519750244140625,-0.5727297450840473,0.733490215882659,-1.402594761094451
1775719607455764000,1.529763916015625,-0.3878033858001232,0.5067845700114965,-1.140745905649662
1775719607465777200,1.539777099609375,-0.05546294402480125,0.26162556808292864,-0.9594277999907731
1775719607475791000,1.549791015625,0.33611060796380043,0.2743500250995159,-1.0920552322387695
1775719607485804000,1.559803955078125,0.6382382823050021,0.24866321065723895,-1.3904852211058139
1775719607495818200,1.569818359375,0.8774550347030162,0.315057298541069,-1.6464917802631853
1775719607505832200,1.579832275390625,1.1271546026706696,0.4101291993767023,-1.6563468193233013
1775719607515845000,1.58984521484375,1.214365268611908,0.6166565650939941,-1.3322925598561763
1775719607525859000,1.599859130859375,0.9428033398609608,0.8115811713010073,-0.7752911297798156
1775719607535872300,1.609872314453125,0.5179482805173844,0.9472504554629325,-0.3591910392999649
1775719607545886000,1.619885986328125,0.27293898925781246,1.0016139138132334,-0.14071195450425147
1775719607555899100,1.629899169921875,0.1820166093170643,0.8696598507821559,0.0609551117002964
1775719607565913000,1.6399130859375,0.39673137314319606,0.6770534583896398,0.040083004063367844
1775719607575927000,1.649927001953125,0.6892892551064491,0.5146393751651048,-0.019573299998044965
1775719607585940200,1.659940185546875,0.7722551230847835,0.29451836838126183,-0.09379998120367526
1775719607595954200,1.6699541015625,0.8723942441821098,0.22394319542050362,-0.23149171110391614
1775719607605967000,1.679967041015625,0.9892097747921943,0.19468787484169006,-0.3744201726138592
1775719607615981000,1.68998095703125,1.0399743318676948,0.04225917905867099,-0.30210721607506275
1775719607625994200,1.699994140625,1.2315922977447509,-0.0481061515212059,-0.06452244879305362
1775719607636008000,1.710008056640625,1.0633178711194544,-0.1759597934961319,0.27522914602160453
1775719607646022100,1.720022216796875,0.7389782919049263,-0.35557752497792244,0.40715924365520473
1775719607656035000,1.73003515625,0.41694187506623565,-0.47600072469115257,0.16724281855523584
1775719607666049300,1.74004931640625,0.23459782389309256,-0.540187657919526,-0.18848960472345352
1775719607676062200,1.750062255859375,0.14054357566740364,-0.6505266859918832,-0.5077332490384578
1775719607686076200,1.760076171875,0.20592117998506873,-0.7814835546791553,-0.7292191144347191
1775719607696089000,1.770089111328125,0.42201541547086086,-0.9281967954248189,-0.6863000101625919
1775719607706103000,1.78010302734375,0.5165876231560483,-1.0572796869337557,-0.5685135886937379
1775719607716117200,1.7901171875,0.49211716223359103,-1.2105635382413864,-0.6954723276555538
1775719607726130000,1.8001298828125,0.5139408349743113,-1.3691297138661145,-0.8780781350374222
1775719607736144100,1.81014404296875,0.41753447066452354,-1.4994383477777242,-0.9639742112487554
1775719607746157000,1.820156982421875,0.2631786427438259,-1.6609879231274127,-0.9739344642490148
1775719607756171300,1.830171142578125,0.24869422685001044,-1.8778677560329435,-0.9629127194970846
1775719607766184200,1.84018408203125,0.22745149580240248,-2.0179028341889382,-1.0187608634471892
1775719607776198100,1.8501982421875,0.026150340300798415,-2.1048720925897357,-1.1054396144688128
1775719607786212000,1.860212158203125,-0.04148468755483627,-2.1727660636425017,-1.1395154870718718
1775719607796225000,1.87022509765625,-0.14674537118328734,-2.2526333810836077,-1.0509119054675102
1775719607806239200,1.8802392578125,-0.06538578762412071,-2.3021534910559653,-0.8473544954717159
1775719607816252200,1.890252197265625,0.05698388824807479,-2.2902713300824162,-0.6956283950001001
1775719607826266000,1.90026611328125,0.003362169909477234,-2.190842403081059,-0.775232677590847
1775719607836279000,1.910279052734375,-0.30235680692195893,-2.1838205416202543,-0.8633382465451955
1775719607846293200,1.920293212890625,-0.8152852865159511,-2.3229911119014024,-0.8608937760025263
1775719607856307000,1.930306884765625,-1.208479133182764,-2.5668326014906166,-0.7843465428948402
1775719607866320100,1.940320068359375,-1.3593781351804732,-2.831269135341048,-0.7191986556798219
1775719607876334000,1.950333984375,-1.2962439258754253,-3.110357879400253,-0.7303244453281164
1775719607886347000,1.960346923828125,-0.9812918412744999,-3.2539357447296378,-0.8082686857521534
1775719607896361200,1.970361328125,-0.4367056561350822,-3.2670196827083826,-0.9755874921530484
1775719607906374100,1.9803740234375,0.035111060869693754,-3.449968604439497,-0.9546931726843119
1775719607916388000,1.99038818359375,0.3216588887631893,-3.779755270078778,-0.7168775192558765
1775719607926402000,2.000402099609375,0.36757425224184986,-3.9745325767695903,-0.4526806393802166
1775719607936415200,2.010415283203125,0.16849778705239296,-4.022832789558172,-0.22717560147047042
1775719607946429000,2.020428955078125,-0.05915712693419773,-3.9298657520473,-0.17937457037568091
1775719607956442000,2.030442138671875,-0.18382161291241644,-3.8382653267145153,-0.20756547659337518
1775719607966456000,2.0404560546875,-0.21425065344572067,-3.9373797809392213,-0.2231242802530527
1775719607976469000,2.050468994140625,-0.15300094271302223,-3.956728040009737,-0.3236901023298502
1775719607986483200,2.060483154296875,-0.24342297191619872,-3.8248394434303044,-0.5899883383989334
1775719607996497200,2.0704970703125,-0.15739070210456846,-3.5503584854274988,-0.9800953249663114
1775719608006510000,2.080510009765625,-0.05764905589222908,-3.324964506676793,-1.225237960281968
1775719608016524000,2.09052392578125,-0.06658641385184601,-3.287060600218177,-1.030712582525611
1775719608026537200,2.100537109375,-0.016029946569073944,-3.190449653246999,-0.7017986080676317
1775719608036551200,2.11055126953125,-0.061834214356075966,-3.0616549310296772,-0.4459913708746433
1775719608046565000,2.120565185546875,-0.18138298758864402,-2.981750788709521,-0.31415830387473104
1775719608056578000,2.130578125,-0.30647301006913186,-2.85483881149888,-0.3623059564501047
1775719608066592300,2.14059228515625,-0.41008419119119643,-2.6189783837914464,-0.48925300497412677
1775719608076605200,2.150605224609375,-0.737514649093151,-2.3110002298563717,-0.6742945150703191
1775719608086619100,2.160619140625,-1.1026210499167441,-2.191952410149574,-0.8620143044650554
1775719608096632000,2.170632080078125,-1.2134487382888792,-2.17961373758018,-0.9764116680175066
1775719608106646000,2.18064599609375,-1.0955950968027115,-2.2606249643594025,-1.0181184738904236
1775719608116660200,2.19066015625,-0.7573100674092769,-2.4638170481741426,-0.8791595005333424
1775719608126673000,2.2006728515625,-0.29125443468187,-2.641001415029168,-0.6202858615070581
1775719608136687000,2.21068701171875,0.12335508844666182,-2.8247563924461603,-0.22737784604430197
1775719608146700000,2.220699951171875,0.4511878435391932,-2.879578115957975,0.05516600690484046
1775719608156714000,2.2307138671875,0.5633914233744144,-2.7925650184154507,0.10458733267784118
1775719608166727200,2.24072705078125,0.4678769664030522,-2.5396803906708953,0.0645318011432886
1775719608176741000,2.2507412109375,0.35599246245436367,-2.1627426822781564,-0.18865911607146263
1775719608186755000,2.260755126953125,0.33921091206669807,-1.746706889206171,-0.6200123052626848
1775719608196768000,2.27076806640625,0.5322550382893532,-1.2569997107237576,-0.9891402166873215
1775719608206782200,2.2807822265625,0.8743603566233068,-0.7623691043645143,-1.3853741617023945
1775719608216795000,2.290794921875,1.119900686019659,-0.3743517835527658,-1.754468755379319
1775719608226809000,2.30080908203125,1.0141278698842973,-0.16528116309344767,-1.7263047371685505
1775719608236822000,2.310822021484375,0.7064167693875729,0.1356955876469612,-1.4470599257647991
1775719608246836200,2.320836181640625,0.2603649004973471,0.37687867168188094,-0.8458411682993173
1775719608256849200,2.33084912109375,-0.29112098102793094,0.6344482423722744,-0.0953624082148075
1775719608266863000,2.340863037109375,-0.700159097232297,0.9007692747950553,0.5751093336969614
1775719608276877000,2.350876953125,-0.8855473749395459,1.029044941574335,1.1686878055423497
1775719608286890000,2.360889892578125,-0.8647942905724048,1.0159078121036291,1.4752110844939945
1775719608296904200,2.370904296875,-0.4026432275354862,1.107382565230131,1.130896711808443
1775719608306917000,2.380917236328125,0.09572598083019256,1.0759656827032567,0.6708218705236911
1775719608316931000,2.39093115234375,0.5323217468500137,1.028672016608715,0.3409650622576475
1775719608326944000,2.400944091796875,0.9959539883553982,0.9232418033659457,0.049806525698304176
1775719608336958200,2.410958251953125,1.5037303458832203,0.8638748376399278,-0.32492578160464763
1775719608346972000,2.420971923828125,1.9536580332934854,0.8274544477373361,-0.3909124577313661
1775719608356985000,2.430985107421875,2.077604877088219,0.8428922553658484,-0.016549568262696265
1775719608366999000,2.4409990234375,1.884454148685932,1.0370084677994251,0.43734161595106125
1775719608377012000,2.451011962890625,1.4164169502198696,1.1466051530718804,0.9245154765635728
1775719608387026200,2.461026123046875,0.9403612804710865,1.1958762567192316,1.4546382520645855
1775719608397039000,2.4710390625,0.57373643790856,1.2694675626307725,1.8164006031572817
1775719608407053000,2.481052978515625,0.24117351248897612,1.136885138568282,2.077937323912978
1775719608417067000,2.49106689453125,0.2379167026501149,1.081966384422779,2.152958954888582
1775719608427080200,2.501080078125,0.39288171197772026,1.086095447051525,1.9839789372771977
1775719608437094000,2.511093994140625,0.6673544866740703,1.0527776993393898,1.8071698334753512
1775719608447107000,2.521107177734375,0.9347942939937114,1.0504045404672622,1.706025334727764
1775719608457121000,2.53112109375,0.9045183981955051,1.0344733963638544,1.6662924592763184
1775719608467134000,2.541134033203125,0.6771616680044681,1.071578261399269,1.5853589739084242
1775719608477148200,2.551148193359375,0.4558768050730228,1.1454694270402193,1.3756091390132903
1775719608487162000,2.561162109375,0.29405886111073193,1.1756021149754523,1.185300502169132
1775719608497175000,2.571175048828125,-0.05236855820603668,1.1978589549690484,1.064964980739355
1775719608507189000,2.58118896484375,-0.3832908768117428,1.229012802645564,1.0089356350034475
1775719608517202200,2.5912021484375,-0.5288941104888916,1.1644447611451147,1.0598369702011345
1775719608527216000,2.601216064453125,-0.5509563412258401,1.0820616614907979,1.0592986255407333
1775719608537229000,2.61122900390625,-0.6040577437510714,0.9261819484710693,0.9379302539318799
1775719608547243000,2.621242919921875,-0.5697930705776437,0.7474491831302642,0.7504395971179008
1775719608557257200,2.63125732421875,-0.38461653592493383,0.6537918252676725,0.4479612096428871
1775719608567270100,2.641270263671875,-0.3039911301255226,0.6622796676278114,0.1352209558725357
1775719608577284000,2.6512841796875,-0.30735563812255856,0.7376350606024265,-0.07456921103298664
1775719608587297000,2.661297119140625,-0.41301849107742306,0.8539169227272272,-0.14769582204222678
1775719608597311000,2.67131103515625,-0.5794716205596924,1.004216205266118,-0.2247229476213455
1775719608607324200,2.68132421875,-0.8666834653198718,1.161024139046669,-0.3817886555552482
1775719608617338000,2.691338134765625,-1.262528703278303,1.2751894474089145,-0.4095984535008669
1775719608627352000,2.70135205078125,-1.4864718986988066,1.3661387153565883,-0.26324995441436766
1775719608637365000,2.711364990234375,-1.474922915202379,1.388185127469897,-0.011432079118490219
1775719608647379200,2.721379150390625,-1.370113464206457,1.3198241234272718,0.36092823835611343
1775719608657392000,2.73139208984375,-1.2377753702938556,1.2214946821004151,0.6761790136426686
1775719608667406000,2.741406005859375,-0.8889023113906382,1.1376111147552728,0.8152782722532749
1775719608677419300,2.751419189453125,-0.6175660811543464,1.0635212116718291,0.8933896859377622
1775719608687433000,2.761432861328125,-0.34717677637934685,0.9486661674797534,0.9313649040669202
1775719608697446100,2.771446044921875,-0.008377363156410866,0.8123527401953935,0.8404197277724742
1775719608707460000,2.781460205078125,0.39569910748600956,0.6369394746661186,0.7427297533929348
1775719608717474000,2.79147412109375,0.7836825260281562,0.5775123031854629,0.6425029540121555
1775719608727487000,2.801487060546875,0.8505681968212128,0.4994353762924671,0.5109826062232256
1775719608737501200,2.811501220703125,0.7119570139884949,0.42985038341283793,0.4856447513490915
1775719608747514000,2.82151416015625,0.5474760613620281,0.40661505377590657,0.5850695866972208
1775719608757528000,2.831528076171875,0.30388942331671714,0.5294359622806311,0.5859224041342735
1775719608767541200,2.841541259765625,-0.0700222152531147,0.6206295603781938,0.5326894111186266
1775719608777555000,2.851554931640625,-0.3076116587102413,0.6616080519765615,0.4498042071610689
1775719608787569200,2.861569091796875,-0.22986790929436682,0.697543873232603,0.44480479143857954
1775719608797582000,2.87158203125,-0.014636428117752074,0.7912357178866862,0.4877209731012582
1775719608807596000,2.881595947265625,0.1162766014277935,0.9602689269900322,0.5318482841193676
1775719608817609000,2.89160888671875,0.17706921604275702,1.0949217275857925,0.5932470479339361
1775719608827623200,2.901623046875,0.21200959652066229,1.1724345908552407,0.6963906115442514
1775719608837636000,2.911635986328125,0.24577976417541503,1.2915934697210787,0.8261556400984525
1775719608847650000,2.921650146484375,0.33978608160614965,1.442684779420495,0.8287672839015722
1775719608857664000,2.9316640625,0.3026069822907448,1.541836058524251,0.8113783422052859
1775719608867677000,2.941677001953125,0.16627309674024582,1.585769892796874,0.8393424539297819
1775719608877691100,2.951691162109375,-0.05783727194070816,1.5749626675784587,0.8490800040900707
1775719608887704000,2.9617041015625,-0.25762568479180337,1.4542372700482606,0.9396393959373235
1775719608897718300,2.97171826171875,-0.3809878605663776,1.3543331267505883,1.0818220075160265
1775719608907731000,2.98173095703125,-0.49815059717893595,1.2940572294861077,1.2348135978788137
1775719608917745200,2.9917451171875,-0.6834300076842308,1.270906655523181,1.2545733603596687
1775719608927759000,3.001759033203125,-0.6767009916901588,1.3189736440777777,1.1073580153107643
1775719608937772000,3.01177197265625,-0.47659693701863287,1.4485153852701187,0.8927864593476057
1775719608947786000,3.021785888671875,-0.3633563422858715,1.5853133812010287,0.7217746436476707
1775719608957799200,3.031799072265625,-0.43861353558301924,1.7937638239353895,0.6302864465177059
1775719608967813000,3.041813232421875,-0.5544599289000034,2.000985017135739,0.6692728875160217
1775719608977826000,3.051825927734375,-0.4805903905689716,2.175313410037756,0.8437515025436878
1775719608987840300,3.06184033203125,-0.44356326694488524,2.2731553601086136,1.1718138286083937
1775719608997853000,3.07185302734375,-0.3796130650818348,2.2440245426923036,1.6628291670799253
1775719609007867100,3.0818671875,-0.3161982487371191,2.2110025630563497,2.157116074568033
1775719609017881000,3.091881103515625,-0.19712883825302122,2.3462708652019497,2.478218498492241
1775719609027894000,3.10189404296875,-0.16511694897506385,2.413846271824837,2.6619816592156886
1775719609037908000,3.111907958984375,-0.20048518120991066,2.3952298341602085,2.708801862579584
1775719609047921200,3.121921142578125,-0.08647186680529266,2.4703175161093474,2.6309704348802563
1775719609057935000,3.13193505859375,0.08427749856617302,2.590263745960593,2.5261358494430777
1775719609067948000,3.141947998046875,0.05218264371249824,2.724097046867013,2.3634277517080307
1775719609077962200,3.151962158203125,-0.10057163076307624,2.8445371977150438,2.1331611984848973
1775719609087976000,3.161975830078125,-0.15498597905039788,2.9684266122341154,1.8966309086918829
1775719609097989000,3.171989013671875,-0.21900519102904945,3.03520356195569,1.7939818506002425
1775719609108002800,3.1820029296875,-0.3037690483400598,3.1378678176164625,1.6698112810522316
1775719609118016000,3.19201611328125,-0.48150688435938205,3.2400036654889584,1.5789602127820253
1775719609128030000,3.202030029296875,-0.7345826872944832,3.2081688498109577,1.6189719051748512
1775719609138043000,3.21204296875,-0.8982546616256236,3.1311680277168747,1.7190958287030458
1775719609148057000,3.22205712890625,-0.946841290140152,3.1001077035427094,1.6837427757710217
1775719609158071000,3.232071044921875,-0.9796937584280967,3.0406022061288356,1.543148894688487
1775719609168084000,3.242083984375,-0.9320014484047889,2.9453315678507086,1.3765917203098534
1775719609178098000,3.252097900390625,-0.805137986510992,2.8425293650239705,1.2120026311337948
1775719609188111000,3.262111083984375,-0.5698457140803337,2.838731141784787,1.0760352408081293
1775719609198124800,3.272124755859375,-0.3755307642042637,2.8436761969715354,0.9314952524483203
1775719609208138000,3.282137939453125,-0.1551414618730545,2.8105244534760714,0.897267404153943
1775719609218152000,3.29215185546875,-0.08057519171582535,2.765717928022146,0.8373048106223344
1775719609228164900,3.302164794921875,-0.18778233323693275,2.6254765136390925,0.8554974699169396
1775719609238179000,3.312178955078125,-0.3767068222463131,2.300935931959748,0.880607361254096
1775719609248193000,3.322193115234375,-0.48996378359198567,2.027656166440248,0.8792845882177353
1775719609258206000,3.3322060546875,-0.6000093816757202,1.7783382912665604,0.997416462123394
1775719609268220000,3.342219970703125,-0.7690355765163898,1.4574240833908318,1.0902513976871966
1775719609278233000,3.352233154296875,-0.9082862262964249,1.090996663096547,1.027885250145197
1775719609288247000,3.3622470703125,-0.9311082989573478,0.8622510358303784,0.8988491203874349
1775719609298260000,3.372260009765625,-0.7777648264169692,0.5401081629425287,0.8592319802701472
1775719609308274000,3.38227392578125,-0.5015770644962787,0.14972002134621143,0.751757693979144
1775719609318288100,3.3922880859375,-0.33928689991235733,-0.37758418960273266,0.5494803869217634
1775719609328301000,3.402301025390625,-0.15819849308980627,-1.1195300991415977,0.4209925386965275
1775719609338315000,3.41231494140625,-0.030039758087927474,-1.898285105639696,0.598252893397212
1775719609348328200,3.422328125,0.07450900527834892,-2.62016496322751,0.8494570207089185
1775719609358342000,3.432341796875,0.14491463949163444,-3.261246360003948,1.0150380435317754
1775719609368355000,3.44235498046875,0.0007516768838278949,-3.757254099935293,1.0574556280225516
1775719609378369000,3.452369140625,0.02416065518776886,-4.081027204373479,0.8089940774172544
1775719609388382000,3.4623818359375,0.04194879793524742,-4.106033050814271,0.439466353020072
1775719609398396000,3.47239599609375,-0.15480711535215377,-4.079151473629475,0.2052653829574585
1775719609408410000,3.48241015625,-0.581087239062786,-4.0497675582349295,0.31338147428333757
1775719609418423000,3.492423095703125,-1.0989315477490424,-4.090857693514228,0.6122060154259205
1775719609428437000,3.50243701171875,-1.2181272514939308,-4.157077593874931,0.8007166629374026
1775719609438450200,3.5124501953125,-1.0314520027160643,-4.290411128565669,0.828251151072979
1775719609448464000,3.5224638671875,-0.6441442914783955,-4.481428205940127,0.7136164716333151
1775719609458477000,3.53247705078125,-0.19653028783798215,-4.546427624595165,0.3517226031154394
1775719609468491000,3.542490966796875,0.24412792358146979,-4.555153951886296,0.1431687000066042
1775719609478505000,3.5525048828125,0.6072983696401119,-4.444045108485222,0.05383095890879631
1775719609488518000,3.562517822265625,1.018302598285675,-4.209384119695425,0.0163911628305912
1775719609498532000,3.572531982421875,1.2271136910259723,-3.971123645108938,0.2632873638153076
1775719609508545000,3.582544921875,1.286190149372816,-3.878479263681173,0.715149672549963
1775719609518559000,3.59255908203125,1.1389748043239116,-3.8550042800694704,1.0690332530915736
1775719609528572200,3.602572265625,0.8143278396606445,-3.8738738157123325,1.3323644560486076
1775719609538585900,3.6125859375,0.4712614212095737,-3.775993871718645,1.5762795953959226
1775719609548600000,3.62260009765625,0.16816928575038909,-3.670521572899818,1.5412749175101517
1775719609558613000,3.632613037109375,-0.13608254113793372,-3.5875118657797573,1.1475403880953787
1775719609568627000,3.642626953125,-0.21145897690057752,-3.5805104625850914,0.5978080722391605
1775719609578640000,3.652639892578125,0.199794239803683,-3.6180385214686392,0.06485971792340278
1775719609588654000,3.662654052734375,0.651319882196188,-3.7134646425694227,-0.25970716724097725
1775719609598667000,3.6726669921875,0.8237666991353034,-3.781105515643954,-0.5038140297681093
1775719609608681000,3.682680908203125,0.8913806842029094,-3.800456112802028,-0.8784592433094978
1775719609618694100,3.692694091796875,1.17441319745183,-3.827310801979899,-1.2422446246623993
1775719609628707800,3.702707763671875,1.5998796666920183,-3.855931331786513,-1.3976765939146278
1775719609638722000,3.71272216796875,1.7706804699897765,-3.932475642284751,-1.1222545556694268
1775719609648735000,3.72273486328125,1.6902163556993006,-3.9809529652059075,-0.4615250400930643
1775719609658749200,3.732749267578125,1.5019827715635299,-3.724237380996346,0.07228840661942959
1775719609668761900,3.742761962890625,1.1333131253004074,-3.426222987192869,0.35659985376298425
1775719609678776000,3.752776123046875,0.6584744301259517,-3.2407325642853975,0.5090045841485261
1775719609688789000,3.7627890625,0.33790041399002074,-2.8554905534058808,0.3521247541755438
1775719609698803000,3.772802978515625,0.20892447172058745,-2.4799784939020872,-0.09195172298848628
1775719609708817000,3.78281689453125,0.000514370129769668,-2.2976579332023856,-0.5799696332097053
1775719609718830000,3.792830078125,-0.18878654184341429,-2.2263860101491213,-0.9853536838859319
1775719609728844000,3.802843994140625,-0.22008768903613088,-2.122667861521244,-1.2533294977784155
1775719609738857000,3.81285693359375,-0.09108954406804405,-2.174212755319476,-1.3360709093511103
1775719609748871200,3.82287109375,0.15133623350434935,-2.12209678363502,-1.3726935438275336
1775719609758883800,3.8328837890625,0.20010054754018783,-2.0135352866292,-1.3138672608494757
1775719609768898000,3.84289794921875,0.12699790192842483,-1.8055834410667417,-1.1291899078905583
1775719609778911200,3.8529111328125,-0.05361352133241016,-1.5132412476807833,-0.8769394863963127
1775719609788925000,3.862925048828125,-0.3580488835275173,-1.1926163781404495,-0.6303408070534467
1775719609798939000,3.87293896484375,-0.7434709271490574,-0.8130939139515161,-0.459882533583045
1775719609808952000,3.8829521484375,-1.054050788015127,-0.3571037116318941,-0.5650163942277431
1775719609818966000,3.892966064453125,-1.0952794549822806,0.09499299038052558,-0.8743126450240611
1775719609828979000,3.90297900390625,-0.988525884181261,0.28681203178763387,-1.2202666016101837
1775719609838993200,3.9129931640625,-0.660780953502655,0.42824820891320703,-1.5083657505989074
1775719609849005800,3.923005859375,-0.2102618760704994,0.44227731878757476,-1.4942477933973073
1775719609859020000,3.93302001953125,0.22394904063940047,0.5021066413283348,-1.2812860107183455
1775719609869034000,3.943033935546875,0.4228641777873039,0.6852531314581632,-1.136872279086709
1775719609879047000,3.953046875,0.40327918735146523,0.861923703572154,-1.095266010978818
1775719609889060900,3.963060791015625,0.373310750067234,1.0595277581214904,-1.1956810264080762
1775719609899074000,3.973073974609375,0.19502689753770827,1.2295242592990399,-1.2192705763101577
1775719609909088000,3.983087890625,-0.12014029111862182,1.3567612306803465,-1.0917980426073073
1775719609919101000,3.993100830078125,-0.4741419450819492,1.5506670152336357,-1.076166173711419
1775719609929115100,4.003115234375,-0.7361597273528575,1.6518945160895584,-1.1811445515334607
1775719609939127800,4.0131279296875,-0.769490334546566,1.7744874610573051,-1.4239111053675413
1775719609949142000,4.02314208984375,-0.5145090267837047,1.8977064289689063,-1.7410703446239233
1775719609959156000,4.033156005859375,-0.1928559832394123,1.7852233746051787,-1.9338292972296476
1775719609969169000,4.0431689453125,0.17097732890844344,1.618720560762286,-1.9579566072702406
1775719609979182800,4.053182861328125,0.7621791347503661,1.5467296757847069,-1.9618384171396492
1775719609989196000,4.063196044921875,1.3389900116682052,1.6048966180711983,-1.940288848632574
1775719609999210000,4.0732099609375,1.6303309190571307,1.6461340528666972,-1.6987047825813293
1775719610009223000,4.083222900390625,1.6230957071065901,1.633883058580756,-1.3507389016509055
1775719610019237000,4.093237060546875,1.361823774766922,1.7374819647431372,-1.0937450850218533
1775719610029251000,4.1032509765625,0.997582466340065,1.9164795184999703,-0.9279980579823255
1775719610039264000,4.113263916015625,0.5124795667827129,2.1321377006560565,-1.0088386043697595
1775719610049278000,4.12327783203125,-0.009510162012046202,2.278910562634468,-1.244492695850134
1775719610059291000,4.133290771484375,-0.347926133441925,2.4377982252985237,-1.5147668498128652
1775719610069304800,4.143304931640625,-0.3988005806326866,2.599909526184201,-1.6510089654266833
1775719610079318000,4.153318115234375,-0.12056757661998271,2.7613942196041346,-1.6953209853619335
1775719610089332200,4.163332275390625,0.3142506583333015,2.8529677569299934,-1.597107279369235
1775719610099344400,4.173344482421875,0.7381804195255041,2.9130846642404795,-1.4441110128313301
1775719610109358600,4.183358642578125,1.1768483156442642,2.974934094431996,-1.2743804691135883
1775719610119372500,4.19337255859375,1.3448568578749893,3.0481086362361904,-0.9669114337444304
1775719610129385500,4.203385498046875,1.1009867267131805,3.0419881075292823,-0.6359013637900353
1775719610139399400,4.2133994140625,0.39880237073097374,2.786285499754548,-0.39959962205588817
1775719610149412600,4.22341259765625,-0.34419513022005555,2.7136574859172105,-0.45701662275791166
1775719610159426800,4.2334267578125,-0.8261614853173493,2.865247977310419,-0.8481050215780734
1775719610169439500,4.243439453125,-1.0693167462080717,3.0903947033017873,-1.466965234196186
1775719610179453700,4.25345361328125,-1.1451999624490736,3.227797094866633,-2.0669962431818245
1775719610189467600,4.263467529296875,-1.1293920793991534,3.1195816348195073,-2.4921397640779612
1775719610199480600,4.27348046875,-1.067546229404211,2.9116204369068144,-2.6436373164907097
1775719610209494500,4.28349462890625,-0.7600859618633985,2.772178063946962,-2.586845169688761
1775719610219507700,4.2935078125,-0.424398474682495,2.7544769875615835,-2.483783439143002
1775719610229521400,4.303521484375,-0.27245456674173474,2.7490052781522274,-2.237604738777876
1775719610239534600,4.31353466796875,-0.46784021458923813,2.588874337428808,-1.8792700240463018
1775719610249548800,4.323548828125,-1.0492927798330782,2.1388480119496585,-1.4996534518331288
1775719610259561500,4.3335615234375,-1.533160000115633,1.684411468812823,-1.2987895187050102
1775719610269575700,4.34357568359375,-1.5448764491334557,1.3445786254554986,-1.343841251091659
1775719610279589600,4.353589599609375,-1.2869412600010632,1.2517097876220942,-1.5297691886335611
1775719610289602600,4.3636025390625,-0.992643840894103,1.0897691671282053,-1.5052879505887626
1775719610299616500,4.373616455078125,-0.4465659558922052,0.8595774327069521,-1.2154480954125524
1775719610309629700,4.383629638671875,0.15889116979539394,0.5789303532898425,-0.7138058567255735
1775719610319643400,4.393643310546875,0.5629315507777035,0.2723322555363178,-0.11405191111564636
1775719610329656600,4.403656494140625,0.8285720535904169,0.02814823611974716,0.4207604835063219
1775719610339670800,4.4136708984375,0.9378238709479569,-0.1568143635213375,0.8892512709587812
1775719610349683500,4.423683349609375,0.903765972393006,-0.2616150466889143,1.2846172009676695
1775719610359697700,4.43369775390625,0.7962439014375209,-0.35108430521190165,1.540478214174509
1775719610369711600,4.443711669921875,0.6368005776520818,-0.3613432488977909,1.6219517977684734
1775719610379724500,4.453724609375,0.4318531015373766,-0.2827344070851803,1.6213386343061924
1775719610389738500,4.463738525390625,0.22985738790035246,-0.2658282804697752,1.613573261001706
1775719610399751700,4.473751708984375,0.1050363916195929,-0.2152946095407009,1.6150585311233996
1775719610409765400,4.483765380859375,-0.06410568468570708,-0.2275911965340376,1.6091536909937858
1775719610419778600,4.493778564453125,-0.21134616417586802,-0.2320610354244709,1.504254223626852
1775719610429792800,4.503792724609375,-0.19979308902621268,-0.17377134354114532,1.2607301294237374
1775719610439805400,4.513805419921875,-0.07221402620896697,-0.15276888752281664,1.1210597929269075
1775719610449819600,4.523819580078125,-0.07130056462585925,-0.18549977525770664,0.9955705419957637
1775719610459833600,4.53383349609375,-0.2555987090088427,-0.2536585347265005,0.8666758665353059
1775719610469846500,4.543846435546875,-0.4523829716078937,-0.22259587246477602,0.6123948159962892
1775719610479860500,4.553860595703125,-0.5244441453427076,-0.1352560271859169,0.2692716989219189
1775719610489873700,4.563873779296875,-0.4847124389350414,-0.145569331407547,-0.012674772655963897
1775719610499887400,4.573887451171875,-0.3842693664550781,-0.10379238290786742,-0.1092880577147007
1775719610509900500,4.583900634765625,-0.3280531198449433,-0.05447568655312061,-0.09482757068574428
1775719610519914800,4.593914794921875,-0.4330662767194211,-0.003940262058377266,-0.034544659158587454
1775719610529928700,4.6039287109375,-0.5015554371863603,0.04948211604952812,-0.029807693764567374
1775719610539941600,4.613941650390625,-0.4515016587287187,0.14061433934867382,-0.20845102725625037
1775719610549955600,4.62395556640625,-0.32126755135804413,0.22597090185582636,-0.40461481986939907
1775719610559968500,4.633968505859375,-0.23519977184161542,0.2510533206641674,-0.409885453748703
1775719610569982500,4.643982421875,-0.1470201147377491,0.2958727055996656,-0.28924072023928166
1775719610579995600,4.65399560546875,-0.14553184894137083,0.3434691540330648,-0.14942659135758876
1775719610590009600,4.664009521484375,-0.18021788933202623,0.29312428367435933,-0.06028875674605369
1775719610600022500,4.6740224609375,-0.1464016905784607,0.3009580460399389,-0.02413724691271782
1775719610610036700,4.68403662109375,-0.10403729757964611,0.33582068510651586,-0.018715806385874747
1775719610620050700,4.69405078125,0.03156476656496525,0.41117958521246906,-0.10438391906023024
1775719610630063600,4.704063720703125,0.062329980250075454,0.4761842645645141,-0.15848258899450302
1775719610640077600,4.71407763671875,0.08774360377416014,0.5494248573422431,-0.12495499792397022
1775719610650090800,4.7240908203125,0.11898951364830136,0.5831541084647178,-0.002260346147418022
1775719610660104400,4.7341044921875,0.10772957622632384,0.512471967998147,0.11976093641221523
1775719610670117600,4.74411767578125,0.08343881925232707,0.4505670082271099,0.16930501178205012
1775719610680131600,4.754131591796875,0.0888565334521234,0.4267173460841179,0.23048867154121397
1775719610690144500,4.76414453125,0.1635300085771829,0.3526958320617676,0.27106676564514637
1775719610700158700,4.77415869140625,0.3493857576657086,0.2621528068274259,0.2585854697346687
1775719610710172700,4.784172607421875,0.4875649057567119,0.20953239275217056,0.2516571317762136
1775719610720185600,4.794185546875,0.5454734893679618,0.1424362940788269,0.22712065641283988
1775719610730199600,4.804199462890625,0.5160432506136596,0.07147416762709617,0.1967033063173294
1775719610740212700,4.814212646484375,0.4282160602092743,0.0010118073910474776,0.19346856217980385
1775719610750226400,4.824226318359375,0.322866584052518,0.010909516549110413,0.16201485477387903
1775719610760239600,4.834239501953125,0.27361338138803837,0.00789630620777607,0.015892565658688546
1775719610770253600,4.844253662109375,0.3301707695860415,0.034545828202366825,-0.20240590187311172
1775719610780266500,4.8542666015625,0.28100612198784947,0.06765957777500152,-0.3156304222539067
1775719610790280700,4.86428076171875,0.1639325249634683,-0.014611878198385237,-0.23388912763446568
1775719610800294700,4.874294677734375,0.03400931017287075,-0.1238835693001747,-0.07916676795631647
1775719610810307600,4.8843076171875,0.012190788531303405,-0.2083019741743803,-0.028908406837284562
1775719610820321500,4.894321533203125,0.016760580664873122,-0.27365970474779605,-0.07266162384599446
1775719610830334700,4.904334716796875,0.03013743717558682,-0.23735388113558292,-0.1595066713452339
1775719610840348400,4.914348388671875,-0.017309373654052614,-0.143564421325922,-0.24947540382295846
1775719610850361600,4.924361572265625,-0.0797333157978952,-0.09195815272927284,-0.21714345227777956
1775719610860375600,4.93437548828125,-0.1552022521495819,0.006603928309679031,-0.15285247415304182
1775719610870388500,4.944388427734375,-0.2587438021015376,0.06066401979923248,-0.0450102313324809
1775719610880402700,4.954402587890625,-0.3446064874999225,0.08907762885689735,0.05721300256252288
1775719610890416600,4.964416748046875,-0.46747196579873557,0.15539631341695784,0.1286538524419069
1775719610900429600,4.9744296875,-0.5582207427382468,0.28450901554226876,0.15929010598510504
1775719610910443500,4.984443603515625,-0.538050645890832,0.4240454965263605,0.1556979267120361
1775719610920456700,4.994456787109375,-0.4038197970341891,0.5437982496321201,0.14749445425122976
1775719610930470400,5.004470458984375,-0.35439503719508647,0.5890829139918089,0.22057342672646044
1775719610940483600,5.014483642578125,-0.3534041995268315,0.5907020396262407,0.29853491054624315
1775719610950497500,5.02449755859375,-0.30309082028493284,0.6102116267383099,0.34830578040927646
1775719610960510500,5.034510498046875,-0.20249065754711626,0.6921995895951986,0.4169868101865053
1775719610970524700,5.044524658203125,-0.07078793892860412,0.8054255712807178,0.5250070399224758
1775719610980538600,5.05453857421875,0.016548399218916893,0.9507055643528699,0.6114639648869633
1775719610990551600,5.064551513671875,0.050119756365939974,0.9972358448594808,0.6894003142654895
1775719611000565500,5.0745654296875,0.11668569368533789,1.1197837816417218,0.5925201949641108
1775719611010578700,5.08457861328125,0.14536124161481856,1.2721551942795515,0.4211138269886374
1775719611020592600,5.094592529296875,0.1685446218688041,1.396425132548809,0.30028058516979217
1775719611030605600,5.10460546875,0.25877660839259625,1.4908563973933457,0.17925941956341265
1775719611040619500,5.11461962890625,0.41340668667741115,1.6144564735770224,0.039130817905068394
1775719611050632400,5.124632568359375,0.458351743819192,1.7107821738660334,0.03876461494117975
1775719611060646700,5.134646728515625,0.4445090233623981,1.8387720094412565,0.10915683255046606
1775719611070659600,5.14465966796875,0.3235896376300603,1.9852023415923117,0.2080503375008702
1775719611080673800,5.154673828125,0.10767178162448107,2.265482341262698,0.2514998953878879
1775719611090687500,5.1646875,-0.09389650038070976,2.6135855848371983,0.19362024561017752
1775719611100701200,5.174701171875,-0.28598076859526333,2.9727818848341703,0.08169979356527328
1775719611110715100,5.184715087890625,-0.29154015628807245,3.335755365282297,-0.02035655933022499
1775719611120728000,5.19472802734375,-0.17586926566846667,3.6785277692228555,-0.14039426685720682
1775719611130742000,5.204741943359375,-0.1798322510153055,3.978648779916763,-0.2692348740428686
1775719611140755200,5.214755126953125,-0.2592512036344036,4.268035046106577,-0.4109533752411604
1775719611150769200,5.22476904296875,-0.4343202223032713,4.434001853376627,-0.5211436424925923
1775719611160782000,5.234781982421875,-0.49164194593727584,4.45725296510458,-0.5729737829729914
1775719611170796000,5.244796142578125,-0.6293879633080214,4.460999165895581,-0.6992495081067085
1775719611180810200,5.254810302734375,-0.8180289592009037,4.393230282527208,-0.9120011551663278
1775719611190823200,5.2648232421875,-0.8878052368689328,4.217126696646213,-1.1982555530712007
1775719611200837000,5.274837158203125,-0.714711281132698,3.9201527518063783,-1.5875123525500296
1775719611210850300,5.284850341796875,-0.42756724091172216,3.5032483592063186,-1.8788418617621063
1775719611220864000,5.294864013671875,-0.24597207187712192,2.9597324336469173,-1.9762141484946012
1775719611230877200,5.304877197265625,-0.027481881165504454,2.3549136058628557,-2.1617928342074153
1775719611240891100,5.31489111328125,0.05855681838691234,1.7708897288262844,-2.4103493696197864
1775719611250904000,5.324904052734375,0.1183025542974472,1.2100982588171958,-2.7271619873955846
1775719611260918000,5.33491796875,0.39040162213239815,0.8336807749062776,-3.1876240744322537
1775719611270932200,5.34493212890625,0.48582069243788717,0.5079799172759056,-3.693192546652257
1775719611280945200,5.354945068359375,0.3726104928433895,0.1773579698562622,-4.02159681802243
1775719611290959000,5.364958984375,0.24734219118654727,-0.0165261873871088,-4.227448768696188
1775719611300972300,5.37497216796875,0.17626549844443798,-0.10539748001694679,-4.1832855095818635
1775719611310986000,5.384986083984375,0.07873396602962165,-0.21422142735123634,-3.8124233217105266
1775719611320999200,5.394999267578125,-0.11025540490951388,-0.29152620082795616,-3.0858006535097955
1775719611331013000,5.40501318359375,-0.28249413205590096,-0.40235155111253257,-2.2409639860779045
1775719611341026000,5.415026123046875,-0.2837993694355711,-0.4649392324507236,-1.7006489023864269
1775719611351040000,5.4250400390625,-0.027749592190980908,-0.4137234244763851,-1.4790449635684488
1775719611361054200,5.43505419921875,0.2560831497912295,-0.2522387310564518,-1.4178490288496017
1775719611371067100,5.445067138671875,0.582004938429594,-0.0702618692278862,-1.4024725960195064
1775719611381081000,5.4550810546875,0.8150058850526809,0.18428338520526885,-1.2904977834388613
1775719611391094300,5.46509423828125,0.8318342702567577,0.4193137918293476,-0.9666770404666661
1775719611401108000,5.47510791015625,0.6738403415620327,0.46187166157364845,-0.5733399859368801
1775719611411121200,5.48512109375,0.3995727340489626,0.3697480891495943,-0.1000920670852065
1775719611421135000,5.495135009765625,0.150008227170445,0.28467443523705005,0.5440355655193329
1775719611431148000,5.50514794921875,-0.08548051768038421,0.08865034335553645,1.2549769727244973
1775719611441162000,5.515161865234375,-0.1860702503557317,-0.23675007002353668,1.9541379257649183
1775719611451175200,5.525175048828125,-0.23232173218727112,-0.666551353597641,2.4229268193811175
1775719611461189000,5.535189208984375,-0.04057223061872646,-1.108281559896469,2.564768946959078
1775719611471203000,5.545203125,0.3758686178565025,-1.4536965873003005,2.290398755854368
1775719611481216300,5.55521630859375,0.843219587624073,-1.7177368153095245,1.701359388743341
1775719611491230000,5.56522998046875,1.1841191834300755,-1.9780045390427112,0.9011942222088575
1775719611501243100,5.5752431640625,1.0264905809164047,-1.9390292039602994,-0.020712240900099276
1775719611511257000,5.585257080078125,0.42524906362984327,-1.7701877180367707,-0.9062515055984258
1775719611521270000,5.59527001953125,-0.2546925539493561,-1.6792618309646843,-1.5180451408311724
1775719611531284000,5.605283935546875,-0.7648702735304832,-1.5937655677258968,-1.8594287207618354
1775719611541297200,5.615297119140625,-1.146668865957856,-1.4814648841917515,-2.1549051205202936
1775719611551311000,5.62531103515625,-1.6212579702854155,-1.5559592764228583,-2.229301313073933
1775719611561324000,5.635323974609375,-2.0403058046549556,-1.7342402063429354,-2.017887928880751
1775719611571338200,5.645338134765625,-2.207192064857483,-1.9092519053339958,-1.649331095342338
1775719611581352200,5.655352294921875,-1.9192618426948784,-2.011625069093704,-1.2852861862704157
1775719611591365000,5.665365234375,-1.3226269058883189,-2.1605729370236397,-1.1169432975187896
1775719611601379000,5.675379150390625,-0.5019020951995625,-2.3792168569922447,-1.1102151583075524
1775719611611392000,5.68539208984375,0.2370417464464903,-2.494704938390851,-1.1471303459897637
1775719611621406000,5.695406005859375,0.6922966202288866,-2.5304613114267585,-1.1589914641752839
1775719611631419100,5.705419189453125,0.8505711194306611,-2.6194220359057185,-1.1220867978870868
1775719611641433300,5.715433349609375,0.8743190747648477,-2.808752767628431,-1.0468491860732436
1775719611651446000,5.725446044921875,0.9971604415357113,-2.9803274779081343,-0.8736591495513916
1775719611661460200,5.735460205078125,0.9818068050593137,-3.0110955411374567,-0.6646086950972676
1775719611671474200,5.74547412109375,0.8989286153644322,-3.1142198155254124,-0.503697125390172
1775719611681487000,5.755487060546875,0.933776641383767,-3.1715064678460356,-0.4940571903854608
1775719611691501000,5.7655009765625,1.0362655404776333,-3.132898212510347,-0.6644970514163374
1775719611701514000,5.775513916015625,0.8883511072486638,-3.285607478800416,-0.8360130172461271
1775719611711528000,5.78552783203125,0.7278916652232408,-3.6280917134493587,-0.9281210998401045
1775719611721541000,5.795541015625,0.5461603025883436,-3.7902655581772327,-1.0597317562609911
1775719611731555300,5.805555419921875,0.22923896374106406,-3.8724353073418136,-1.234798108048737
1775719611741568000,5.815568115234375,0.0024199206233024594,-4.1994472475707525,-1.287988430966437
1775719611751582200,5.825582275390625,-0.0470125110656023,-4.416021960049868,-1.4267980589807032
1775719611761596200,5.83559619140625,0.04416355137526989,-4.419920136532188,-1.6569167281657455
1775719611771609000,5.845609130859375,0.11221885046958922,-4.527669732633233,-1.8716218473806976
1775719611781623000,5.855623046875,0.1983755869111046,-4.45188003989458,-2.2509324223846194
1775719611791636200,5.86563623046875,0.1629933444172144,-4.354627872410417,-2.526741706381738
1775719611801650000,5.87564990234375,-0.025533706239797175,-4.278669252845645,-2.5757144116044044
1775719611811663000,5.8856630859375,-0.38209026885032654,-4.1379496995568275,-2.4801173178508877
1775719611821677300,5.89567724609375,-0.7116174067705869,-3.965149831396341,-2.286438035529852
1775719611831690000,5.90568994140625,-0.9040431818991899,-3.7665199409306047,-1.9716481557533143
1775719611841704200,5.9157041015625,-0.7583826650768518,-3.5375872666597363,-1.6281749100670218
1775719611851717000,5.925717041015625,-0.42230420581698414,-3.17142463478148,-1.1299997629687188
1775719611861731000,5.93573095703125,-0.020042013488337396,-2.855873999765515,-0.7385869544997811
1775719611871745000,5.9457451171875,0.34034897618591786,-2.16999016918838,-1.0363117177069185
1775719611881758200,5.95575830078125,0.2955080004731193,-1.5623463471114634,-1.2257307122349739
1775719611891772000,5.96577197265625,0.0803045398145914,-1.1908423542052506,-1.1367372545301913
1775719611901785000,5.97578515625,-0.06699322282075881,-0.616498159661889,-0.815251968768239
1775719611911799300,5.98579931640625,-0.2957189398100599,-0.3502607138693333,-0.20710954951941965
1775719611921812000,5.99581201171875,-0.26757249378859993,-0.07225508887171744,0.09746376440823078
1775719611931826200,6.005826171875,-0.1123655837302096,0.3445078494310379,0.2335983279943466
1775719611941839000,6.015839111328125,0.2701122596655972,0.4020043451100588,0.5923790329277515
1775719611951853000,6.02585302734375,0.5452794281005859,0.30521804157197474,0.9530512506961822
1775719611961866200,6.0358662109375,0.6300386092364788,0.4775333410859108,1.011238066726923
1775719611971880200,6.045880126953125,0.4393476950764656,0.5812234326630831,0.9573416413664817
1775719611981894100,6.05589404296875,0.2503092060322873,0.6654705726236104,0.7950386173009872
1775719611991907000,6.065906982421875,0.45534781276285646,0.8450134853035212,0.09383388347327709
1775719612001921300,6.07592138671875,0.5853419738978147,0.8932102377176284,-0.6708616180121898
1775719612011934000,6.085933837890625,0.2216705560470931,0.7113099482566118,-0.7018442007750272
1775719612021948200,6.0959482421875,-0.4035094889760017,0.1931342156589031,-0.2423398528546095
1775719612031961000,6.105961181640625,-0.6420669006824493,-0.09032850570082664,-0.15197627584040163
1775719612041975000,6.11597509765625,-0.6369301223158836,-0.33922903224527834,-0.07593582321107387
1775719612051988200,6.12598828125,-0.32783728513717647,-0.5234691628307104,0.013906944799423218
1775719612062002200,6.136002197265625,-0.06411909215655177,-0.3274737125217914,0.19803309361636637
1775719612072015000,6.14601513671875,0.022421638633869586,-0.26626959449648857,0.7512924145549535
1775719612082029000,6.156029052734375,0.01815057371854782,-0.0471954664170742,1.2886188378244638
1775719612092043300,6.166043212890625,-0.16010986140277236,0.3528542374938726,1.3961954154461622
1775719612102056000,6.176055908203125,-0.24965982047915458,0.8249205453455448,0.9663204821139574
1775719612112070100,6.186070068359375,-0.6658224548012018,1.0840192252993583,1.013981227955222
1775719612122083000,6.1960830078125,-0.9410954399645328,1.3130255493283272,1.1070850435882806
1775719612132097000,6.206096923828125,-0.7924515234172343,1.4737404274195431,1.0645523082852364
1775719612142110200,6.216110107421875,-0.44599312444031236,1.3987690653264522,1.305342009088397
1775719612152124200,6.226124267578125,-0.03436992364618927,1.3619459398418665,1.7369272534698248
1775719612162137000,6.23613720703125,0.21246143194139003,1.3223662091255186,2.2101228576123715
1775719612172151000,6.246151123046875,0.38038872562944887,1.2306763519436121,2.5777158145546912
1775719612182164200,6.256164306640625,0.6296469795703887,1.065640103521943,2.7162439952790733
1775719612192178000,6.266177978515625,0.7924100223630667,0.9804051215678453,2.8554221643447875
1775719612202192100,6.276192138671875,0.8255664420336485,0.8956260666877031,2.971618101751804
1775719612212205000,6.286205078125,0.9213777630597353,0.8302835336834192,2.969072508922219
1775719612222219000,6.296218994140625,0.9024848465412855,0.8146861515790224,2.8156138855695723
1775719612232232200,6.306232177734375,0.8954314208984374,0.8746504986763,2.453967269811034
1775719612242246100,6.31624609375,0.8567500272613018,0.9794774853289127,2.0061112741082905
1775719612252259000,6.326259033203125,0.6621580140095203,1.024714803415537,1.6724994972229004
1775719612262273000,6.33627294921875,0.49928573868870735,1.0916548347443342,1.3155968611210584
1775719612272286200,6.3462861328125,0.20252631338238716,1.1485282300889492,1.099202765905857
1775719612282300000,6.3562998046875,0.0034018443327397106,1.1221510952949523,0.7685685435265303
1775719612292313000,6.36631298828125,0.07934950411207974,1.277086805462837,0.2515373047888279
1775719612302327000,6.3763271484375,0.02492584000714123,1.4414011693507431,0.08359305996596812
1775719612312341000,6.386341064453125,-0.17575002320297062,1.4077052359759807,0.264002818608284
1775719612322354200,6.396354248046875,-0.47606509516425427,1.4753063615620134,0.4367413119703531
1775719612332368100,6.4063681640625,-0.726121806006506,1.5539929447859524,0.5619546685695648
1775719612342381000,6.416381103515625,-0.8119049964278936,1.7645108414441346,0.6112269412606954
1775719612352395000,6.42639501953125,-0.8293277673285454,2.070654765689373,0.4892167646169662
1775719612362408200,6.436408203125,-0.8353565991640091,2.3131080157905815,0.40825756028592586
1775719612372422000,6.446421875,-0.8787351376414299,2.599099963366985,0.4902110363513231
1775719612382435000,6.45643505859375,-1.0552378789078443,2.7937597811579704,0.7656710685193538
1775719612392449000,6.466448974609375,-1.2619576253920792,2.7685557817965742,1.0635913542985915
1775719612402462000,6.4764619140625,-1.182064515922591,2.846592376679182,1.158327155047655
1775719612412476200,6.48647607421875,-1.0196083471219985,2.861275566548109,1.3279963239669799
1775719612422489000,6.496489013671875,-0.7430388924073428,2.766357979491353,1.6171201398283241
1775719612432503000,6.5065029296875,-0.20980185734331608,2.672339387100935,1.7891045999526975
1775719612442517000,6.51651708984375,0.33773269274029877,2.5283020875662565,1.9831348876684902
1775719612452530200,6.5265302734375,0.7104373301405459,2.3907371989160775,2.2991069629669187
1775719612462544000,6.5365439453125,0.9917034182388335,2.3007447933018206,2.559724230790138
1775719612472557000,6.54655712890625,1.190635506521538,2.2119763765245675,2.626708101260662
1775719612482571000,6.556571044921875,1.2654321696348487,2.1528654313862323,2.573773798930645
1775719612492584000,6.566583984375,1.1787199547350407,2.129172421109676,2.5829016927599904
1775719612502598100,6.57659814453125,1.0033329926908015,2.101502323895693,2.6305688683420416
1775719612512611000,6.586611083984375,0.9258832577854395,2.0748346817225216,2.520995563945174
1775719612522625000,6.596625,0.8963450286120176,2.153283364537358,2.2948475519567726
1775719612532638000,6.606637939453125,0.9233516934812068,2.2043080338537693,2.1051859808444977
1775719612542652200,6.616652099609375,0.9155085787653923,2.21238203471601,1.9397434897094963
1775719612552665000,6.6266650390625,0.8289215976804495,2.256595270451903,1.9629992776125669
1775719612562679000,6.636678955078125,0.8351215482991188,2.251684702056646,2.011951816830039
1775719612572693000,6.64669287109375,0.8962753974419087,2.3379683162808416,2.0080729295700785
1775719612582706000,6.656705810546875,0.8848468985199928,2.3824434178233145,2.11909467920959
1775719612592720100,6.66672021484375,0.780555991505459,2.6152239996939897,2.010358994680643
1775719612602733000,6.676733154296875,0.4037275156408548,2.8358026871174573,1.9123516249150037
1775719612612747300,6.686747314453125,0.0863127672534436,3.164767514979839,1.694773872873187
1775719612622760000,6.696760009765625,-0.2252185125859454,3.5564421892553564,1.4204758702218532
1775719612632774100,6.706774169921875,-0.4445452637195587,3.8996933166235683,1.2186994984239339
1775719612642787000,6.716787109375,-0.44234216418471184,4.101192040523887,1.0836123980641363
1775719612652801000,6.726801025390625,-0.4487947378575802,4.191103197595477,1.0420505536198614
1775719612662814200,6.736814208984375,-0.669435896058008,4.108023347848653,1.0839192720562218
1775719612672828200,6.746828125,-0.8045996418505906,4.063192272475361,0.9146762195944785
1775719612682841000,6.756841064453125,-0.7265789021242409,4.0008284630209205,0.8114063992559909
1775719612692855000,6.76685498046875,-0.7024843253094702,3.8489129774570463,0.9070750969409942
1775719612702869200,6.776869140625,-0.749653999698162,3.491492454960942,1.0270295100986957
1775719612712882000,6.7868818359375,-0.812053464987874,3.0726129628956316,1.0062316367417574
1775719612722896100,6.796896240234375,-0.7409877320311963,2.7380297106295823,0.8558370771348476
1775719612732909000,6.806908935546875,-0.5039613292843104,2.3596757056981326,0.6649392422258854
1775719612742923000,6.816923095703125,-0.20246895717196164,1.9926392135947941,0.33843232890963554
1775719612752936200,6.826936279296875,0.08833239998016505,1.8008242638409138,0.07529635626375675
1775719612762950100,6.8369501953125,0.2117570830643177,1.5685937170684336,0.10942542035877705
1775719612772963000,6.846963134765625,0.27598902447819706,1.3006465447485447,0.2941185554087162
1775719612782977000,6.85697705078125,0.2903624177455902,1.0088631542891264,0.5845493622153997
1775719612792990000,6.866989990234375,0.16003442154638467,0.6329430985063315,0.923032544529438
1775719612803004000,6.87700390625,0.2304524311840534,0.23275895456075668,1.1343085660785437
1775719612813017000,6.88701708984375,0.3813584474444389,-0.22675006953477858,1.407249308902025
1775719612823031300,6.89703125,0.46438400972075755,-0.6763403416842222,1.8228244987249373
1775719612833045000,6.907044921875,0.5391022738356143,-1.1957289572030305,2.209330830451846
1775719612843058200,6.91705810546875,0.3782973793733865,-1.7394705082118511,2.4530004706054926
1775719612853072100,6.927072021484375,0.3903250862974673,-2.168675579458475,2.553390936115384
1775719612863085000,6.9370849609375,0.14821202793605626,-2.480825466120243,2.5956770031809806
1775719612873099000,6.94709912109375,-0.30035072779655453,-2.9009558350294826,2.578137839359045
1775719612883112200,6.9571123046875,-0.8530599405717104,-3.2281057224243876,2.6132342871814966
1775719612893126000,6.9671259765625,-1.4646306537687777,-3.493775597462058,2.425863457354903
1775719612903139000,6.97713916015625,-1.7128548884868622,-3.857899416989088,2.2246078945606946
1775719612913153300,6.9871533203125,-1.5248212108373642,-4.250004299375415,2.0817770482063294
1775719612923166000,6.997166015625,-1.3623451682925223,-4.6652305296301835,1.8974381334215402
1775719612933180200,7.00718017578125,-1.3372060508608816,-5.080352130466699,1.7410288435697554
1775719612943193000,7.017193115234375,-1.2373860787153244,-5.4005672501623625,1.6825199559777975
1775719612953207000,7.02720703125,-0.9274860168069601,-5.590844322824478,1.5228642315506935
1775719612963221000,7.037220947265625,-0.8713480961300433,-5.759473042780161,1.099805407974124
1775719612973234200,7.047234130859375,-0.818136145902425,-5.695377294966578,0.2869605003476143
1775719612983248000,7.057247802734375,-0.6850397809684277,-5.620035345995426,-0.5764186627298593
1775719612993261000,7.067260986328125,-0.8571322315119206,-5.50542287838757,-1.24685007263124
1775719613003275300,7.077275146484375,-1.2551936842150986,-5.278800819146633,-1.702344015866518
1775719613013288000,7.087287841796875,-1.3837661419838667,-5.055529239377379,-2.029659322956204
1775719613023302100,7.09730224609375,-1.3332861009381711,-4.773061958795785,-1.9512796137243509
1775719613033315000,7.107315185546875,-1.3995441413521765,-4.552766179966926,-1.3460481134861706
1775719613043329000,7.1173291015625,-1.5529491348214446,-4.39710624717772,-0.6718693337500095
1775719613053342200,7.12734228515625,-1.6776355449371039,-4.298962099289894,-0.23195757504999637
1775719613063356200,7.137356201171875,-1.6454682824343443,-4.1268326777368785,0.10315817665755748
1775719613073369000,7.147369140625,-1.346789141111821,-4.0134710869729515,0.37026363745629787
1775719613083383000,7.157383056640625,-1.03803883376047,-3.971224767395854,0.4806470891922712
1775719613093397200,7.167397216796875,-0.5798058209501207,-3.844251415386796,0.6667138506829738
1775719613103409700,7.17740966796875,-0.11660057268515228,-3.75313789678812,0.885478766682744
1775719613113424000,7.187423828125,0.31401451148986814,-3.697875443771481,0.8739835592001676
1775719613123436800,7.197436767578125,0.8052205502279103,-3.4414971286922693,0.5089215820401907
1775719613133450800,7.20745068359375,1.079538280493021,-3.1734166853815315,0.11076572905182838
1775719613143464000,7.2174638671875,1.1397099867306648,-2.9409342096745967,-0.2986404167473316
1775719613153478000,7.227477783203125,1.0600110115937889,-2.7823984291881323,-0.6252303321719169
1775719613163490800,7.23749072265625,0.7897767512500286,-2.65045371850729,-0.6481552806854247
1775719613173504800,7.2475048828125,0.5891916350632905,-2.7069530198425054,-0.546631427231431
1775719613183518000,7.25751806640625,0.5978660129714757,-2.721468451929092,-0.5770394249767065
1775719613193531600,7.26753173828125,0.7587520829111337,-2.6303321369767185,-0.8723013052016496
1775719613203544800,7.277544921875,0.8499526952713727,-2.6425036362856624,-1.2498650365382433
1775719613213559000,7.28755908203125,0.7596633525371551,-2.579368257936835,-1.3910495769903064
1775719613223571700,7.29757177734375,0.7088730764985084,-2.4147440974473953,-1.101328964279592
1775719613233586000,7.3075859375,0.5638572873204947,-2.3269413108319044,-0.5715948958352208
1775719613243600000,7.317599853515625,0.3296703457832336,-2.2157383594065903,-0.2292676053136587
1775719613253612800,7.32761279296875,-0.014655863470584153,-2.091001388147473,-0.1431687000066042
1775719613263626800,7.337626708984375,-0.2581985162436962,-1.9545365696936845,-0.4367684922382235
1775719613273640000,7.347639892578125,-0.5448750850833952,-1.716969338068366,-0.9317167862445116
1775719613283653600,7.357653564453125,-0.8539408881247043,-1.5391332293063402,-1.2795166629582644
1775719613293666800,7.367666748046875,-0.9872801949691027,-1.2990525535553692,-1.5151581872180104
1775719613303681000,7.377680908203125,-0.9911714302539825,-1.0681921260923146,-1.6810238722011446
1775719613313693700,7.387693603515625,-0.9767905843324959,-0.9775900641471147,-1.7549261437579988
1775719613323708000,7.3977080078125,-0.8945096298784017,-0.9651064301490783,-1.6060165620118378
1775719613333720800,7.407720947265625,-0.8108902664273977,-0.8864157552719115,-1.290850542399287
1775719613343734800,7.41773486328125,-0.747135806332156,-0.7263625559598207,-1.0946928872659802
1775719613353748000,7.427748046875,-0.700828301730752,-0.5778630163192748,-1.1733487830907106
1775719613363762000,7.437761962890625,-0.3816892868340015,-0.35141105294823644,-1.2621405807435513
1775719613373775600,7.447775634765625,0.07112469660229981,-0.10986088916659355,-1.272387249469757
1775719613383788800,7.457788818359375,0.3792815681051463,0.16292378631234167,-1.2888444632738827
1775719613393803000,7.467802978515625,0.5417728082191199,0.4057318412005901,-1.2084162970796226
1775719613403815700,7.477815673828125,0.6265343274425715,0.6724480104207993,-1.2288014979824422
1775719613413830000,7.487829833984375,0.558981863303855,0.9362743034183979,-1.3535919529944658
1775719613423842800,7.4978427734375,0.3638713791359216,1.2128718151837588,-1.4669164266183972
1775719613433856800,7.507856689453125,0.2241781001549214,1.490067292842269,-1.5522268118962645
1775719613443870000,7.517869873046875,0.029696123148873446,1.6614578787267207,-1.448442027772963
1775719613453884000,7.5278837890625,-0.178115510225296,1.7031933261722325,-1.2027248074397443
1775719613463896800,7.537896728515625,-0.21487901447713373,1.6865315297067165,-1.131731993588805
1775719613473910800,7.547910888671875,-0.0764957221161574,1.826391251295805,-1.18466132748276
1775719613483924000,7.557924072265625,0.21198745775409042,1.9821651658535002,-1.179280803488195
1775719613493937700,7.567937744140625,0.6558534339725971,2.0614292567044497,-1.3125295825049281
1775719613503950800,7.577950927734375,0.9928431628584862,2.090272489351034,-1.488921629938483
1775719613513964800,7.58796484375,1.2422563151001929,2.0634365048736334,-1.451987445294857
1775719613523977700,7.597977783203125,1.4783411992132662,2.1774644505918026,-1.473766730904579
1775719613533992000,7.607991943359375,1.4090426220595835,2.3510996005326508,-1.544101665368676
1775719613544006000,7.618005859375,0.7559762615222484,2.1726322081297633,-1.530951384155452
1775719613554018800,7.628018798828125,-0.2541325819790363,1.9244132341086864,-1.6041741490155457
1775719613564032800,7.63803271484375,-1.015020946266502,1.8878046281576155,-1.849789370279014
1775719613574046000,7.6480458984375,-1.2807464970141649,2.0302397531926633,-2.279005839702487
1775719613584059600,7.6580595703125,-0.9434615845739841,2.2299942637741563,-2.7832114991366863
1775719613594072800,7.66807275390625,-0.20688677361421287,2.293720009231567,-3.0493562982097266
1775719613604086800,7.678086669921875,0.6637749476868658,2.250862864279747,-2.9112510190725325
1775719613614099700,7.688099609375,1.2327163333386182,2.238462232390046,-2.551611359222233
1775719613624114000,7.698114013671875,1.3207026598274707,2.3236679882496594,-2.206234325741231
1775719613634126800,7.708126953125,1.0254442867338658,2.4846704511106013,-1.9095508882805703
1775719613644140800,7.718140869140625,0.46934375101998443,2.632388484984636,-1.6107225477457046
1775719613654153700,7.72815380859375,-0.050152562656998634,2.77964240847826,-1.3139850420102477
1775719613664168000,7.73816796875,-0.5189087230473757,2.777303151875734,-1.1549787214025855
1775719613674180900,7.748180908203125,-0.8011071235597134,2.9320775340020653,-1.2670286450460553
1775719613684194800,7.75819482421875,-0.8362173807118087,3.0976521270841357,-1.555726636710763
1775719613694208800,7.768208740234375,-0.6638643064707517,3.2160341763585802,-1.7828148521587253
1775719613704221700,7.7782216796875,-0.4185517214156687,3.099560006532073,-1.6861577279582618
1775719613714236000,7.78823583984375,0.07077690607793628,2.8277871384441853,-1.5072981213673948
1775719613724248800,7.798248779296875,0.7316957336813211,2.680319864460826,-1.5240005421042442
1775719613734263000,7.808262939453125,1.0332038148194551,2.5647031882464884,-1.5022835080757737
1775719613744275700,7.818275634765625,0.8840525332719087,2.4001181907236573,-1.3583449927404523
1775719613754290000,7.8282900390625,0.3798110718719661,2.1704653854846954,-1.1170607864186166
1775719613764302800,7.838302734375,-0.0479529337208718,1.9691075313597917,-0.860931477664411
1775719613774316800,7.84831689453125,-0.12126374219059943,1.9162591537475584,-0.7053904950797557
1775719613784330000,7.858330078125,0.11028335236236453,1.890097707530856,-0.604884878757596
1775719613794344000,7.868343994140625,0.38210195928812024,1.7645359758853911,-0.45065936268568035
1775719613804356900,7.87835693359375,0.6523965715169906,1.6608599128335713,-0.29219781647920606
1775719613814370800,7.888370849609375,0.8382751169592142,1.4912334140121937,-0.0777364428922534
1775719613824383700,7.8983837890625,0.8416033845990896,1.3250918346971272,0.19305530520379544
1775719613834397700,7.908397705078125,0.6608557723045348,1.1674281608700752,0.45336511451303957
1775719613844411000,7.918410888671875,0.3759340843081474,1.0290601391434668,0.7001920496538281
1775719613854424800,7.9284248046875,0.31632059647515415,0.9277139803439378,0.7831716538965702
1775719613864438800,7.938438720703125,0.3232195622086525,0.8317711418926715,0.7393892107933759
1775719613874452000,7.948451904296875,0.38484336695075033,0.6764759507626295,0.750480221389234
1775719613884466000,7.9584658203125,0.4615548507094383,0.46828445122539997,0.774941585689783
1775719613894478800,7.968478759765625,0.533662055543065,0.2560930683970451,0.7873948245495558
1775719613904492800,7.978492919921875,0.5022166775740683,0.10359598355293273,0.7519470790714025
1775719613914505700,7.988505615234375,0.4931342303216457,0.03567804710268974,0.7417384042680263
1775719613924519700,7.998519775390625,0.43428515098989007,0.047048751422762866,0.7280947865799069
1775719613934532900,8.008532958984375,0.1736287202000618,0.017016016730666158,0.7061655711054802
1775719613944546800,8.018546875,-0.19895488463640212,-0.031821371674537656,0.6832648802503943
1775719613954559700,8.028559814453125,-0.4895131172150373,-0.09943594126403331,0.6563964548081159
1775719613964574000,8.038573974609376,-0.627589462518692,-0.06838555396199227,0.7085626953750849
1775719613974586600,8.048586669921875,-0.7450631647765636,-0.08342764027118682,0.7909051707580685
1775719613984600800,8.058600830078126,-0.8374981412373482,-0.0879039089024067,0.7837532531768083
1775719613994613800,8.06861376953125,-0.8343816166520118,-0.05557108057439327,0.7714484828770161
1775719614004628000,8.0786279296875,-0.735648709090799,-0.013752046498656273,0.7363859373241662
1775719614014641000,8.088640869140624,-0.7002110466152429,-0.0029255320578813553,0.6253022283643483
1775719614024654800,8.09865478515625,-0.6183060858666897,0.034684359890222546,0.5319628504097461
1775719614034668800,8.108668701171876,-0.5799949137814343,0.09594400749504566,0.4620949489355087
1775719614044681700,8.118681640625,-0.6254654561020434,0.11345102261304854,0.42363896155208347
1775719614054696000,8.128696044921876,-0.5667711289405822,0.03578092295527458,0.37840661190152164
1775719614064708900,8.138708984375,-0.5313245525062084,0.05626081640422344,0.31436990079879756
1775719614074722800,8.148722900390625,-0.48439036737382407,0.11276304034888744,0.3222200297772884
1775719614084735700,8.15873583984375,-0.37748774349093434,0.17322832270562646,0.36273704134374857
1775719614094750000,8.16875,-0.296516410330683,0.16525193699896334,0.3551183830335736
1775719614104763000,8.178762939453126,-0.14132277987897396,0.14805004230737684,0.2742386736795306
1775719614114776800,8.18877685546875,-0.057389528173208235,0.16861001525521277,0.2465308748036623
1775719614124789800,8.198789794921876,-0.07121405538618564,0.28185119450986384,0.26475422149747607
1775719614134803700,8.2088037109375,-0.19280147657319902,0.27813831146657464,0.31759003188908097
1775719614144817000,8.21881689453125,-0.23073782399669288,0.12810206377804279,0.27335663014799355
1775719614154830800,8.228830810546874,-0.05707914704978466,0.07466916427612304,0.046051557078957556
1775719614164843800,8.23884375,0.09554887069761753,0.01903670890331268,-0.12884849823117256
1775719614174857700,8.248857666015626,0.10047522118389605,0.062107204344868654,-0.22925503809303044
1775719614184870700,8.25887060546875,-0.003407762616872787,0.10097206479012966,-0.22154548662900925
1775719614194884900,8.268884765625,-0.10612520976960658,0.04547580301761627,-0.22673633327037096
1775719614204897800,8.278897705078125,-0.040688130349665876,-0.008352817803621291,-0.3845271406084299
1775719614214912000,8.288912109375,0.04657309673503041,-0.022311785051226614,-0.6113698568627238
1775719614224925700,8.29892578125,-0.0015383154831826685,0.010462357303500175,-0.7033829546496272
1775719614234939000,8.30893896484375,-0.10646700894460082,0.004780220013856888,-0.5824015365317463
1775719614244952800,8.318952880859374,-0.24681962861716747,-0.16118308012485502,-0.39394758764356375
1775719614254965800,8.3289658203125,-0.09747253223657608,-0.2246323467284441,-0.4084185960665345
1775719614264979700,8.338979736328126,0.10868833825588226,-0.24992285532951353,-0.4969160869479179
1775719614274993000,8.348992919921875,0.20040347600951788,-0.1926519850999117,-0.4359194741934538
1775719614285006800,8.3590068359375,0.26061799847558137,-0.14782909303307532,-0.2972854950070381
1775719614295019800,8.369019775390624,0.21615575641468165,-0.168704707801342,-0.12889818259179592
1775719614305034000,8.379033935546875,0.24185703777372836,-0.09758651400506496,-0.21764643336385486
1775719614315047000,8.389046875,0.29595512318611145,-0.03507189790308475,-0.41392362322360277
1775719614325060900,8.399060791015625,0.3060691054433584,0.016249708533287048,-0.4152800062686205
1775719614335074000,8.409073974609376,0.24989888993203638,0.05518880325853824,-0.18388357223272322
1775719614345087700,8.419087646484375,0.13603811747431754,-0.017976970717310903,0.15832038417011499
1775719614355101000,8.429100830078125,0.11416530836224555,-0.0932142902702093,0.4087734008535743
1775719614365115000,8.439114990234375,0.22423457958251236,-0.08775134868919848,0.3857794787570834
1775719614375127800,8.4491279296875,0.31788287735581394,-0.09444412432610988,0.26657559170573947
1775719614385141800,8.459141845703124,0.3270943578153849,-0.13855565325319766,0.19599924970120192
1775719614395154700,8.46915478515625,0.3575589080534875,-0.16438742912411689,0.14175503381639717
1775719614405169000,8.4791689453125,0.33447847671732306,-0.13636778782010078,0.028552433006465434
1775719614415182800,8.489182861328125,0.22398002029955386,-0.0792804574638605,-0.2555658296525478
1775719614425196000,8.499196044921876,0.1447882640324533,-0.08556231421232223,-0.5449260846182704
1775719614435209700,8.509209716796875,0.08708966991007328,-0.10563888755738735,-0.6758195326805114
1775719614445223000,8.519222900390625,0.056346887252479785,-0.10515373438894748,-0.7180795885220169
1775719614455236900,8.52923681640625,0.02695595759525895,-0.17004501649439333,-0.7076771447122097
1775719614465249800,8.539249755859375,0.08033449656143785,-0.27287060019671916,-0.5912526592463254
1775719614475263700,8.549263671875,0.2120183643490076,-0.3614958091109991,-0.390017554718256
1775719614485277000,8.55927685546875,0.2950583204768598,-0.44536710149645803,-0.3185387109160423
1775719614495291000,8.569290771484376,0.3250976310402155,-0.4378565797358751,-0.31163404609411954
1775719614505303800,8.5793037109375,0.3094533410541713,-0.3599257833153009,-0.2468848028078675
1775719614515318000,8.589318115234375,0.2814576651476323,-0.2729430809110403,-0.1874471099331975
1775719614525330700,8.59933056640625,0.19969430482685566,-0.15235036984980105,-0.11603987006247043
1775719614535345000,8.609344970703125,0.10657865262553096,-0.047962943658232685,0.02031739636361599
1775719614545357800,8.61935791015625,0.010573854853957891,0.0011959317862987517,0.24664661013782022
1775719614555371800,8.629371826171875,-0.06978431484401226,0.11652677679657936,0.4915405313894152
1775719614565385000,8.639385009765626,-0.10876432610154152,0.2553887195199728,0.6603378859102725
1775719614575399000,8.64939892578125,-0.11523206081092358,0.3457487894028425,0.7369885793924331
1775719614585411800,8.659411865234375,-0.0748579648464918,0.470692096889019,0.6656099810943007
1775719614595425800,8.66942578125,0.021637831312417984,0.6410469099849462,0.6098629594311118
1775719614605439000,8.67943896484375,0.10012114704921841,0.7756015109032393,0.666625880138576
1775719614615452700,8.68945263671875,0.0740842039950192,0.8078969298303127,0.7202040333300829
1775719614625467000,8.699466796875,0.012849106309562921,0.9131868578195571,0.7609992773160338
1775719614635479800,8.709479736328126,-0.07793108868151903,1.0331365948021412,0.832464092592895
1775719614645493800,8.71949365234375,-0.10939736330807208,1.1410492725104093,0.9022139206454157
1775719614655507000,8.7295068359375,-0.11643164585903286,1.2663356943458317,0.9102662941977381
1775719614665521000,8.73952099609375,-0.0863520032852888,1.4389239655822514,0.8946315026924013
1775719614675533800,8.749533935546875,-0.11116145037114619,1.5532114390194416,0.9697752987429499
1775719614685547800,8.7595478515625,-0.11021744751930236,1.6719921322226523,1.031074109314382
1775719614695561000,8.76956103515625,-0.13595321566984056,1.8110908063113689,1.0051090624526142
1775719614705574700,8.77957470703125,-0.025483839216083288,1.9522773925900458,0.8569880007356405
1775719614715587800,8.789587890625,0.08772972137928009,2.1401947503834964,0.7021934526041149
1775719614725601800,8.799601806640625,0.11712664238587021,2.1992519195079803,0.6039344461649656
1775719614735614700,8.80961474609375,0.2454873571000993,2.1274065804809332,0.5297571570590138
1775719614745629000,8.81962890625,0.3972147727459669,2.1769173381030558,0.33429771332293745
1775719614755641900,8.829641845703126,0.34962548470571636,2.197310722312331,0.030382571043074128
1775719614765655800,8.83965576171875,0.14347425882443784,2.215966322943568,-0.2678165316775441
1775719614775668700,8.849668701171876,0.04727262330651283,2.3372505234003067,-0.507106349311769
1775719614785683000,8.859682861328125,-0.01768982433900237,2.518433019980788,-0.5949427459359169
1775719614795695900,8.86969580078125,-0.11260215069875121,2.6257600067555904,-0.5617974321812391
1775719614805709800,8.879709716796874,-0.1678682569772005,2.7157138339251277,-0.5460223554223775
1775719614815723000,8.889722900390625,-0.19745164046660066,2.722175723415613,-0.5673153188198804
1775719614825736700,8.89973681640625,-0.17574921948537228,2.809454193896055,-0.6198451320022345
1775719614835750000,8.90975,-0.11980404490157961,2.852492540633678,-0.6549436256512999
1775719614845763800,8.919763916015626,-0.036509091099351645,2.878444143491983,-0.6799769446209073
1775719614855777800,8.92977783203125,0.09097864017263055,2.8744898529082534,-0.6506620028093457
1775719614865790700,8.939790771484375,0.2734071912914514,2.768444722637534,-0.5778761680617929
1775719614875805000,8.949804931640625,0.3082704148799181,2.605218738508224,-0.45783144627213473
1775719614885817900,8.95981787109375,0.23477453216686844,2.43513806617856,-0.32786446540504693
1775719614895831800,8.969831787109374,0.19562310986518858,2.238788395604491,-0.3806584824815392
1775719614905845000,8.979844970703125,0.29104060926809905,2.044724205619097,-0.5736769628062844
1775719614915858700,8.989858642578126,0.4215390666633844,2.0220435872554776,-0.8477174835652113
1775719614925871900,8.999871826171875,0.3552648057669401,2.007967715629935,-0.9830664497315883
1775719614935885800,9.0098857421875,0.2245136887848377,2.0287544830709696,-1.1099939167723059
1775719614945898800,9.019898681640624,0.0022217677026987073,2.0801818879693745,-1.2597285511657594
1775719614955912700,9.02991259765625,-0.2885363713622093,2.0620973652243615,-1.3103610062941908
1775719614965926000,9.03992578125,-0.5065495922118425,1.9452058467686175,-1.351694594940543
1775719614975939800,9.04993994140625,-0.595699701783061,1.817155220916867,-1.3640309294223785
1775719614985952800,9.059952880859376,-0.6037647886864841,1.6841496030062435,-1.3273130178779362
1775719614995967000,9.069967041015625,-0.5547789317212999,1.4229291085928677,-1.2569006342634559
1775719615005980000,9.07997998046875,-0.4488699950508773,1.0605939260482788,-1.2124056589767336
1775719615015993900,9.089993896484375,-0.12777458538934588,0.7853127575784922,-1.209152502399683
1775719615026007000,9.100007080078125,0.19462313904240727,0.5508861620664596,-1.2029898881167174
1775719615036020700,9.110020751953124,0.3734435826666653,0.300913037854433,-1.1683122502282262
1775719615046034000,9.120033935546875,0.5255700806327164,0.07279810970723628,-1.010808735398948
1775719615056047900,9.1300478515625,0.6580677490212022,-0.0756429777443409,-0.7796814736932516
1775719615066060800,9.140060791015625,0.625423370525986,-0.2757324193686247,-0.4915817401826381
1775719615076074800,9.15007470703125,0.5313659074299037,-0.4032581445634365,-0.2398044891580939
1775719615086089000,9.1600888671875,0.4343621617488563,-0.4910960024923086,-0.07495294965356587
1775719615096102000,9.170101806640625,0.3104612029224634,-0.6098638362139464,0.024140461783111095
1775719615106116000,9.1801162109375,0.2837039827696979,-0.6223544844746589,0.0370434902369976
1775719615116129000,9.19012890625,0.25854572224617,-0.5195446828633546,0.05151479092091322
1775719615126143000,9.20014306640625,0.22558000284209845,-0.3889566474884748,0.08415361645817757
1775719615136156000,9.210156005859375,0.14912088640928267,-0.2818044327586889,0.1719634173363447
1775719615146169900,9.220169921875,-0.005904255607724189,-0.1495423266917467,0.2094645882129669
1775719615156183000,9.23018310546875,-0.25950901432037354,-0.2025286514699459,0.1958843911498785
1775719615166197000,9.240197021484375,-0.4790498831287026,-0.349998263540864,0.1704240789398551
1775719615176210000,9.2502099609375,-0.534149985190481,-0.43279929634630676,0.08065349938273429
1775719615186223900,9.260223876953125,-0.46159386754557485,-0.5089361950874328,0.028992285728454588
1775719615196236800,9.27023681640625,-0.3570017125621438,-0.5928343754798173,-0.03332330067008733
1775719615206251000,9.2802509765625,-0.19264087918400763,-0.5785527521491051,-0.10414631091207266
1775719615216264000,9.290263916015626,-0.1963914638891816,-0.5741285059660672,-0.05397212094515562
1775719615226278100,9.300278076171875,-0.29913141513466834,-0.698129564166069,0.054528293523192405
1775719615236290800,9.310290771484375,-0.449460800550878,-0.7558201211124658,0.1320426180973649
1775719615246305000,9.320304931640624,-0.6002908289656043,-0.7977426155626773,0.21099252843260763
1775719615256318000,9.33031787109375,-0.7092512621611357,-0.8918424564957618,0.2836032988741994
1775719615266332000,9.340331787109376,-0.6751926329538226,-0.9397481170088052,0.2127414179265499
1775719615276345000,9.350344970703125,-0.5622849234372377,-1.1132792220532894,0.12707184394747018
1775719615286359000,9.360359130859376,-0.4265056030295789,-1.230795594409108,-0.05451894117295742
1775719615296372000,9.3703720703125,-0.4123126808956265,-1.4369494506388902,-0.2347527587264776
1775719615306386000,9.380385986328125,-0.3844470611095428,-1.5915671808987855,-0.4165878739967942
1775719615316398800,9.39039892578125,-0.3339356020122766,-1.625714365172386,-0.5223293451458215
1775719615326412800,9.400412841796875,-0.3181558490782976,-1.762898730072379,-0.5314814966335892
1775719615336426000,9.410426025390626,-0.3663552318409085,-1.983445268791914,-0.6654644351437687
1775719615346440000,9.42043994140625,-0.34672201834917066,-2.036252729871869,-0.9346344272568822
1775719615356454000,9.430453857421876,-0.32233576511144635,-1.999168907624483,-1.2830638340458274
1775719615366467000,9.440467041015625,-0.3397647465571761,-1.987165750619769,-1.494880830603838
1775719615376481000,9.45048095703125,-0.3837468038856983,-1.8744179078400134,-1.516824074603617
1775719615386494000,9.460493896484374,-0.4264218702688813,-1.7112708341658114,-1.3411711550995706
1775719615396508000,9.4705078125,-0.515673248257488,-1.4842477929085491,-0.9589522914335131
1775719615406520800,9.480520751953126,-0.6053209320873022,-1.3539753993541002,-0.3821659644350409
1775719615416534800,9.49053466796875,-0.5387839286014438,-1.3659312100857495,0.1297702892512083
1775719615426548000,9.5005478515625,-0.3223119458444416,-1.4014742326319216,0.47193683625310656
1775719615436562200,9.510562255859375,-0.12711013013124464,-1.4148995313942432,0.4407324274331331
1775719615446574800,9.520574951171875,0.13215236208215356,-1.3843255294322967,0.14114303939789533
1775719615456589000,9.530589111328124,0.2874859855264425,-1.3380325648128986,-0.15471329958885907
1775719615466601700,9.540601806640625,0.27302842110693454,-1.1702116541087626,-0.4513628347799182
1775719615476616000,9.550615966796874,-0.007184504676610231,-0.9977660062134265,-0.706574444167316
1775719615486629000,9.560629150390625,-0.25569690868631006,-0.9911877968668937,-0.8694239961996674
1775719615496643000,9.57064306640625,-0.3177611506722867,-0.922398338279128,-0.8951257159501314
1775719615506656000,9.580656005859375,-0.5444247109673916,-0.9120295044779777,-0.6330310690507293
1775719615516670000,9.590669921875,-0.8456054598473012,-1.0937450850218533,-0.20688596989661454
1775719615526683000,9.600682861328124,-0.9728688808441162,-1.353748020339012,0.08994067542701958
1775719615536696800,9.61069677734375,-0.7702012592948972,-1.5216536867171524,0.14294570490568875
1775719615546710000,9.6207099609375,-0.3972952906362712,-1.4876175616025924,-0.06822305687665939
1775719615556724000,9.630723876953125,-0.073931643781811,-1.5619213996976613,-0.2912695957183838
1775719615566737000,9.64073681640625,0.10158917377516627,-1.5563187573850155,-0.41025399480015035
1775719615576751000,9.650751220703125,0.11440890785977244,-1.5933523107498884,-0.37808980103731155
1775719615586763800,9.660763671875,0.007258154434710741,-1.5729682788908481,-0.2966282001420855
1775719615596778000,9.670778076171874,-0.33049525230005383,-1.569603770893812,-0.031221359954774378
1775719615606792000,9.6807919921875,-0.6584381167035549,-1.6657716502726077,0.4161059356987476
1775719615616804900,9.690804931640624,-0.7726817509990185,-1.7669237478047608,0.7415589560478926
1775719615626818800,9.70081884765625,-0.5870799036063253,-1.9173095395833253,1.0244339406475425
1775719615636832000,9.71083203125,-0.2208079661346972,-1.9784943683862686,1.2613488458439708
1775719615646846000,9.720845947265625,0.1657774221777916,-2.058404940447211,1.2668047731623053
1775719615656859000,9.73085888671875,0.4251319765888154,-2.1826918298512696,1.183064705941081
1775719615666873000,9.740873046875,0.5133336993940174,-2.2221236765295265,1.2042518708765506
1775719615676885800,9.7508857421875,0.3573252454280853,-2.384471708780527,1.3694707823887466
1775719615686900000,9.76089990234375,0.16573650564551354,-2.601862413817644,1.6241656744256614
1775719615696913000,9.770912841796875,-0.02281286644116044,-2.7199609699755904,1.8549489449992775
1775719615706927000,9.780927001953126,-0.24492402412891387,-2.9374212331175804,2.138591406840086
1775719615716940000,9.79093994140625,-0.336236280170083,-3.132646868097782,2.360500173823535
1775719615726954000,9.8009541015625,-0.2509744102090597,-3.200007170665264,2.3510183519899845
1775719615736967000,9.810966796875,-0.10174421820640564,-3.290438552218675,2.2751555940151214
1775719615746980900,9.82098095703125,0.05935425237491727,-3.4226001205205914,2.240807918733358
1775719615756994000,9.830994140625,0.1244661914937198,-3.4375708951592445,2.073894186002016
1775719615767008000,9.841008056640625,-0.10649228951632976,-3.557677868530154,1.866814739359915
1775719615777021000,9.85102099609375,-0.4144949933707714,-3.628780864757299,1.5870295374691485
1775719615787035000,9.861034912109375,-0.6365257792986929,-3.684073128390312,1.3525760539501905
1775719615797047800,9.8710478515625,-0.6608131022065877,-3.768367614623904,1.3911147511810062
1775719615807062000,9.88106201171875,-0.6272627147823572,-3.75500252161622,1.4451619831889866
1775719615817075000,9.891074951171875,-0.6544926670134067,-3.694548929697275,1.2525874472394585
1775719615827089200,9.901089111328124,-0.779997700035572,-3.6118560334414243,1.0260063045307992
1775719615837101800,9.911101806640625,-0.7798245354257524,-3.567336508235335,0.9092562403723597
1775719615847116000,9.921115966796876,-0.6884902136832475,-3.4658827974081037,0.6706333622142672
1775719615857129000,9.93112890625,-0.7394190214097499,-3.244131559073925,0.3443909450531006
1775719615867143000,9.941142822265626,-0.8092709946624934,-2.9102427188128233,0.1431567173078656
1775719615877156000,9.951156005859374,-0.942559082776308,-2.58864637389183,0.1395414494201541
1775719615887169800,9.961169677734375,-1.0013939874522388,-2.2400053701788187,0.10878799923807382
1775719615897183000,9.971182861328124,-0.9686166302271186,-1.8900152899444103,0.11145137322843074
1775719615907197000,9.981197021484375,-0.9236544758200644,-1.5928005220860242,0.25321955878734587
1775719615917209900,9.9912099609375,-0.9162257871240377,-1.4867559763371943,0.44715164682567116
1775719615927223800,10.001223876953125,-0.8683755100600421,-1.3649322621762752,0.5359072041213512
1775719615937238000,10.011238037109376,-0.6667049367241561,-1.2665455377042292,0.5588599174246192
1775719615947251000,10.0212509765625,-0.24141616213843226,-1.169304476135969,0.48844957963675256
1775719615957265000,10.031264892578125,0.08389774200096727,-1.1285288136333227,0.33094694159030913
1775719615967278000,10.041278076171874,0.2859014928139746,-1.1013695885509251,0.0779018625870347
1775719615977292000,10.0512919921875,0.46953474354743957,-0.9638011927694081,-0.21622984456419944
1775719615987305000,10.061304931640626,0.49872152893468735,-0.8037561767637729,-0.3634928281471133
1775719615997319000,10.07131884765625,0.3356448901481926,-0.6149257957786322,-0.33800796601772304
1775719616007331800,10.081331787109375,0.06162555830776691,-0.4203384587019682,-0.19875790075957775
1775719616017345800,10.091345703125,-0.22946210497245192,-0.2595142750173807,-0.1442886439472437
1775719616027359000,10.10135888671875,-0.29820538633093235,-0.1449579215109348,-0.14225363098829985
1775719616037373200,10.111373291015624,-0.17100772404670714,-0.028193828827142713,-0.14421470192819832
1775719616047385900,10.1213857421875,-0.006752396869659423,0.061931263256072996,-0.1438689572304487
1775719616057400000,10.131400146484374,0.11680267112851142,0.07723463084995746,-0.12627835548222063
1775719616067412700,10.141412841796875,0.3291631269134581,0.06861117941141129,-0.18409166202545166
1775719616077427000,10.151427001953126,0.5665140854395926,0.021943536260724067,-0.2410235095590353
1775719616087440100,10.161440185546875,0.8834193499349057,0.08131459363996982,-0.41360242844522
1775719616097454000,10.1714541015625,1.0955863289743661,0.3347159387350082,-0.6589452625080943
1775719616107467300,10.18146728515625,1.1570609345041214,0.7205173370629548,-0.8262935872644186
1775719616117481200,10.191481201171875,1.071033486998081,1.0800655192375181,-0.7212246085494757
1775719616127494100,10.201494140625,0.9208798965401946,1.3589566948980092,-0.3702706517189741
1775719616137508000,10.211508056640625,0.5586614722430706,1.5439070195794105,0.07533084305524826
1775719616147521300,10.221521240234376,0.10742869358360767,1.692837936374545,0.42025311850607394
1775719616157535200,10.23153515625,-0.3203565739929676,1.868924571120739,0.42619741386324167
1775719616167548200,10.241548095703125,-0.556198881521821,1.9889286686390637,0.18959288979023695
1775719616177562000,10.25156201171875,-0.41712767996191974,2.1405641682177783,-0.308076645873487
1775719616187575000,10.261574951171875,0.052284313988685605,2.400372457745671,-0.8398737843275069
1775719616197589200,10.27158935546875,0.6261128140948713,2.5668589049756525,-1.1321414511725305
1775719616207602200,10.281602294921875,0.9530923133589326,2.834327938389778,-1.3673206186175346
1775719616217616400,10.291616455078126,0.9935514572583138,3.08013225248456,-1.3925500446811319
1775719616227629300,10.30162939453125,0.7523183966018259,2.9957284606575962,-0.9307724911317229
1775719616237643300,10.311643310546875,0.39031639153435826,2.6638521292626858,-0.07070844395160675
1775719616247656200,10.32165625,0.11131108797490596,2.1830998261302708,0.6936500806644559
1775719616257670100,10.331670166015625,-0.33484555646404623,1.6172610096037388,0.9169111390396952
1775719616267683300,10.341683349609376,-0.781311559113115,1.0300473966151475,0.5843707907781005
1775719616277697300,10.351697265625,-0.9387117596983909,0.7459452083081006,-0.2908709517896175
1775719616287710200,10.361710205078126,-0.6127367613017559,0.6628302872478962,-1.4299880871936679
1775719616297724200,10.37172412109375,-0.11432093731537461,0.5719885713279247,-2.4383669650971886
1775719616307738400,10.38173828125,0.4068833493232727,0.5038198749870062,-3.110221685799956
1775719616317751300,10.391751220703124,0.9068921415895224,0.5326712909400463,-3.350578255882859
1775719616327765200,10.40176513671875,1.2416479739435016,0.48610067842304705,-3.1023817859545346
1775719616337778200,10.411778076171874,1.2837965322345495,0.4432563929527998,-2.492989074383676
1775719616347792100,10.421792236328125,1.0189695377618073,0.41976913438141344,-1.7249951158747077
1775719616357805300,10.431805419921876,0.7670499556571245,0.492917372700572,-1.0013923800170421
1775719616367819300,10.4418193359375,0.5971440553724765,0.6325216582238674,-0.36314416083991524
1775719616377832200,10.451832275390625,0.41698622566461563,0.6651227820992469,0.005764554876089096
1775719616387846100,10.46184619140625,0.22860315005555748,0.7135030743867159,-0.1162348081126809
1775719616397859000,10.471859130859375,0.18116510705426334,0.7970651546925306,-0.5212739908739924
1775719616407873300,10.481873291015624,0.3933411461830139,0.9387386477053165,-0.9963409418463707
1775719616417886200,10.49188623046875,0.6694887222237884,1.0249240622520446,-1.1365449468284845
1775719616427900400,10.501900390625,0.8837959281623363,1.0494237127363681,-0.9542533199623227
1775719616437913000,10.5119130859375,0.9323258580535649,1.0514356370806694,-0.6066080492883921
1775719616447927300,10.52192724609375,0.8693702201858162,1.099982518106699,-0.16007599566578865
1775719616457940200,10.531940185546874,0.776769385638833,1.1130454132974148,0.2298185171946883
1775719616467954200,10.5419541015625,0.5701993498235941,1.166141628190875,0.49471214716285467
1775719616477967400,10.55196728515625,0.28786314827576276,1.1850310375779867,0.7492071327134966
1775719616487981300,10.561981201171875,0.0048562078595161436,1.1396242081433534,0.9026917672902345
1775719616497994200,10.571994140625,-0.11211875109598039,1.1557757169991731,0.7372118667542934
1775719616508008200,10.58200830078125,-0.1430912508562207,1.1953823357224465,0.31197979079186916
1775719616518021000,10.592021240234375,-0.1425248491451144,1.1687205387681723,-0.06490911002308129
1775719616528035000,10.60203515625,0.011592822638154029,1.1215420234858988,-0.4317193921551108
1775719616538048300,10.61204833984375,0.10913345167487859,1.027125956210494,-0.6162579211652278
1775719616548062200,10.622062255859374,0.13899492145329714,0.8888590567708015,-0.5160536258772015
1775719616558075100,10.6320751953125,0.20727993765026329,0.8508610422879457,-0.27661592420488595
1775719616568089300,10.64208935546875,0.15823489784374833,0.8763193086713552,-0.0295101721227169
1775719616578102000,10.65210205078125,-0.0037063071720302102,0.8625234230309724,0.22412352042347192
1775719616588116200,10.6621162109375,-0.1666260018311441,0.9369611166387796,0.4004617918431759
1775719616598129200,10.672129150390624,-0.26647417715787886,1.0712474220097064,0.4731698851794004
1775719616608143000,10.68214306640625,-0.34463045289739963,1.201836041906476,0.4494476488083601
1775719616618156300,10.69215625,-0.4007569753974676,1.1636544875502586,0.3010188363164663
1775719616628170200,10.702170166015625,-0.47616073755845423,1.200703823006153,0.06338876858800649
1775719616638183200,10.71218310546875,-0.4086531354747712,1.182708147588372,-0.06605214257836342
1775719616648197000,10.722197021484375,-0.19653876340538262,1.0651292313903569,-0.10624679032266139
1775719616658210300,10.732210205078125,0.1507175079509616,0.9494254614144563,-0.0868076380982995
1775719616668224000,10.74222412109375,0.446352751532942,0.9192454272061585,0.007948036395013331
1775719616678237200,10.7522373046875,0.5642635300338268,0.9281196385353803,0.16061404806524515
1775719616688251100,10.762251220703124,0.6419711852230131,0.9455559265047311,0.19210458035022018
1775719616698264000,10.77226416015625,0.6062886080756783,1.0418868874907492,0.1401166189596057
1775719616708278300,10.7822783203125,0.4977006614543497,1.1267670646578072,0.2344914774417877
1775719616718291200,10.792291259765625,0.2849177424736321,1.1804115610837935,0.4647188676983118
1775719616728305200,10.80230517578125,-0.12553367459475995,1.1855512620598077,0.6077423140153289
1775719616738318000,10.812318115234374,-0.6029959962710738,1.2064613636195658,0.5743450713261962
1775719616748332300,10.822332275390625,-0.9135013305962085,1.2136679339975118,0.38597909298241134
1775719616758345200,10.83234521484375,-0.9212579360723495,1.1783248179376125,0.13256021223068237
1775719616768359200,10.842359130859375,-0.7050801139563322,1.0985241359919309,-0.047910336688160894
1775719616778372400,10.852372314453126,-0.33029110803008077,1.0244564447402953,-0.18992489822357891
1775719616788386000,10.862385986328125,-0.05121873058378696,0.9673241061985492,-0.25938100402653214
1775719616798399200,10.872399169921875,0.04139233309626579,0.8094020736962556,-0.18426672633141278
1775719616808413200,10.8824130859375,0.07166179915368556,0.6677782650440931,-0.03693827629685402
1775719616818427400,10.892427490234375,-0.09206073632091283,0.6215455061793327,0.17165858917087315
1775719616828440000,10.902440185546874,-0.3763496793717146,0.5718564693808555,0.5312558711841702
1775719616838453200,10.912453369140625,-0.7154324350140988,0.4330038790076971,0.8160200305312871
1775719616848467200,10.92246728515625,-0.9836749370187521,0.320682152685523,0.9084522305130958
1775719616858480000,10.932480224609375,-1.100279162965715,0.19663842438757417,0.792215376573801
1775719616868494300,10.942494384765626,-0.9514952534258365,0.11610884364545344,0.5081722249776125
1775719616878508000,10.952508056640625,-0.6251144507072866,0.09692366618216038,0.06916442937999963
1775719616888521200,10.962521240234375,-0.286433261603117,0.08220131334662437,-0.2340931257739663
1775719616898535200,10.97253515625,0.10514029038548468,-0.03507072885930538,-0.25173224283903833
1775719616908548000,10.982548095703125,0.4387830469310283,-0.16084581099450587,-0.2281879933834076
1775719616918562000,10.99256201171875,0.6506640486359596,-0.2118359935194254,-0.14281243391484022
1775719616928575200,11.0025751953125,0.7353847974576055,-0.24669337188899515,0.1318710609227419
1775719616938589200,11.012589111328126,0.7044447386622429,-0.24548165801167487,0.38661505279839037
1775719616948602000,11.02260205078125,0.4602437681108713,-0.25590017617344857,0.5721966611206531
1775719616958616300,11.0326162109375,0.18828852919340133,-0.21805647546947002,0.7343857034176587
1775719616968629200,11.042629150390624,0.06121054776608944,-0.2026023012280464,0.8316992457002401
1775719616978643200,11.052643310546875,0.022345687320828436,-0.1808399667531252,0.7638570048347115
1775719616988656400,11.062656494140626,0.038192952533066274,-0.19580021999776362,0.5721326559737324
1775719616998670000,11.072670166015625,0.0767401253312826,-0.22031448352932928,0.33771950446516275
1775719617008683300,11.082683349609376,0.1604199867978692,-0.2185369524627924,0.09751227972507476
1775719617018697200,11.092697265625,0.11980711364150047,-0.15536299566924572,-0.11002835468798876
1775719617028710100,11.102710205078125,0.04300619803369045,-0.15816227099895477,-0.17169862892031668
1775719617038724000,11.11272412109375,-0.013922580759972334,-0.1714624820768833,-0.1495841200068593
1775719617048737300,11.1227373046875,-0.07027341353520751,-0.20512217509448527,-0.1544704307436943
1775719617058751200,11.132751220703126,-0.15105843034312127,-0.21784897019863128,-0.1321384796872735
1775719617068764200,11.14276416015625,-0.21343027697354555,-0.18505436957776544,-0.08045271611362695
1775719617078778400,11.1527783203125,-0.25278058284819127,-0.09230243612229823,-0.11411036330461502
1775719617088791000,11.162791015625,-0.3034323271989822,0.04787994154989719,-0.26447628133893014
1775719617098805200,11.17280517578125,-0.4991647426575422,0.10442892724573612,-0.46289165227115153
1775719617108818000,11.18281787109375,-0.5948316867768764,0.04570844272971153,-0.5630667214646935
1775719617118831900,11.192831787109375,-0.4462053058862686,0.05375847819447517,-0.6300134747952223
1775719617128844800,11.2028447265625,-0.2522463298410177,0.06587269435822964,-0.6617524288833141
1775719617138858800,11.212858642578125,-0.18527298076450824,0.07645838578045368,-0.6615326486527919
1775719617148872000,11.222871826171875,-0.22914660928249359,0.08190145361721515,-0.6708417442679405
1775719617158885600,11.2328857421875,-0.2375724923223257,0.0715595078229904,-0.6547291061177849
1775719617168898800,11.24289892578125,-0.20151450599133966,0.049338908186554904,-0.5542296272754669
1775719617178912800,11.252912841796874,-0.07203925416395068,0.09668927290439605,-0.4006602370247245
1775719617188925700,11.26292578125,-0.012044365797936916,0.1563964303702116,-0.2552496033102274
1775719617198940000,11.27293994140625,0.08010872498154639,0.09029752604067325,-0.2464452423468232
1775719617208952800,11.282952880859375,0.19531711265593765,0.06910802301764488,-0.299719444155693
1775719617218966800,11.292966796875,0.2612655025988817,0.08589023099243641,-0.240188520039618
1775719617228979700,11.302979736328124,0.24277970557659864,0.09243629163503646,-0.1178103868663311
1775719617238994000,11.312993896484375,0.18970862512439488,0.1287070439338684,0.0072290744706988335
1775719617249006800,11.3230068359375,0.15170111216083168,0.11346212852895259,0.10758446866720914
1775719617259020800,11.333020751953125,0.1116273143172264,0.07318623224198818,0.07128332123011351
1775719617269034000,11.343033935546876,0.059040802511572836,0.06639934858083725,-0.0029611878931522367
1775719617279047700,11.353047607421875,0.04671791203320026,0.02054945155382156,-0.016898820091784
1775719617289060900,11.363060791015625,0.08859978221207856,-0.014124971464276314,-0.002076514013111591
1775719617299074800,11.37307470703125,0.08242343166470527,-0.07771043166816234,0.07392886730283499
1775719617309087700,11.383087646484375,0.1283424484051764,-0.07965630503892898,0.11579320182502269
1775719617319101700,11.393101806640624,0.17865633910372852,-0.06515080982446671,0.13569500312507152
1775719617329115000,11.403114990234375,0.24442308886945247,-0.06392097576856613,0.16564239762127397
1775719617339128800,11.41312890625,0.22254589584320783,-0.0599701923161745,0.11197393579781055
1775719617349141800,11.423141845703125,0.16003215652406214,-0.0438490785986185,0.04430763602107763
1775719617359156000,11.433156005859376,0.11003931447342037,-0.0014519523739814758,-0.01243365737646818
1775719617369168600,11.443168701171874,0.12141045718491077,0.0033463878184556957,-0.04010024745911359
1775719617379182800,11.453182861328125,0.06625219519510865,0.011261398726701736,0.01837444560229778
1775719617389196000,11.463196044921874,-0.029938334406912324,-0.034120296266674996,0.04349661189913749
1775719617399209700,11.473209716796875,-0.08442425009310245,-0.056952890321612354,0.12585486937314272
1775719617409223000,11.483222900390626,-0.0345820685595274,-0.036246786901354786,0.19592852255254983
1775719617419236900,11.49323681640625,-0.010428455033898353,-0.049234863290190695,0.17052461670488117
1775719617429249800,11.503249755859375,-0.0355272404551506,-0.0404243648469448,0.08992138620465993
1775719617439263700,11.513263671875,-0.1460351953536272,0.0038899931758642195,0.026805589339137077
1775719617449277000,11.52327685546875,-0.22031550644263623,0.06178805539309978,-0.03509790912717581
1775719617459290600,11.53329052734375,-0.2608515149705112,0.06504267327487469,-0.040459143899381156
1775719617469303800,11.5433037109375,-0.2971884643733501,0.039410219368338585,-0.03607873685806989
1775719617479318000,11.553318115234376,-0.337663098102808,0.03307750921547413,-0.036033144150674344
1775719617489330700,11.56333056640625,-0.3246224147439003,0.021609774261713028,-0.047882864159345624
1775719617499345000,11.573344970703126,-0.28215207715258,0.009061842855811119,-0.008818974010646343
1775719617509357800,11.58335791015625,-0.17178952207416295,-0.04887772041559219,0.0828819890871644
1775719617519371800,11.593371826171875,-0.11149638141393661,-0.10430617764890193,0.16975480137616394
1775719617529385000,11.603385009765624,-0.0832592979669571,-0.11091945830881594,0.2120677564486861
1775719617539399000,11.61339892578125,-0.11911094807088374,-0.14991466713547705,0.20545301448404787
1775719617549411800,11.623411865234376,-0.14698504342436788,-0.1964157215476036,0.13701163868159055
1775719617559425800,11.63342578125,-0.17671017347201703,-0.1659381656974554,0.016228958006203175
1775719617569439000,11.64343896484375,-0.1867173343539238,-0.13516542629301548,0.0000043839141726493836
1775719617579452700,11.65345263671875,-0.20919906914457678,-0.10971125156283378,0.04836567924022674
1775719617589465900,11.6634658203125,-0.27209347834438086,-0.0943780733525753,0.1991436852067709
1775719617599479800,11.673479736328124,-0.38554333191365003,-0.11662030029892921,0.4001590095043182
1775719617609492700,11.68349267578125,-0.506918863915652,-0.07680325369536876,0.5592874951869249
1775719617619507000,11.6935068359375,-0.5776338837385178,0.0010328501790761947,0.5738979120805859
1775719617629520000,11.703519775390625,-0.5358212794035673,0.08247486959099769,0.4489540200725198
1775719617639533800,11.713533935546875,-0.41660044121742246,0.12633446958363057,0.39097061765938995
1775719617649546800,11.723546630859374,-0.28914544317126273,0.23682839595675467,0.37332185598313805
1775719617659561000,11.73356103515625,-0.1920107645869255,0.2848854476392269,0.39225568903386593
1775719617669574000,11.743573974609374,-0.12193112005814909,0.34533319433927534,0.4193605535805225
1775719617679587800,11.753587890625,-0.08365151215493678,0.4179635462641716,0.4166586011454463
1775719617689601000,11.76360107421875,-0.1344932261198759,0.45422377716898915,0.3476139987528324
1775719617699614700,11.77361474609375,-0.21956337290108202,0.48928106202483174,0.29487375769019125
1775719617709628000,11.7836279296875,-0.2686462604999542,0.5771218425631522,0.30826223157346244
1775719617719641900,11.793641845703124,-0.23079086935818194,0.6839023013710975,0.35614304990619416
1775719617729654800,11.80365478515625,-0.07879179716408252,0.7904980512619018,0.38740737221986055
1775719617739668700,11.813668701171874,-0.017689385947585106,0.9823942495584488,0.4072866694271564
1775719617749682000,11.823681884765625,-0.04749897940829396,1.154134379532933,0.39094314513057465
1775719617759696000,11.83369580078125,-0.07560206121206284,1.3194307401955128,0.3179720169439912
1775719617769708800,11.843708740234375,-0.07367489254176617,1.511993877968192,0.2640516261860728
1775719617779723000,11.853722900390625,-0.02945931871831417,1.7086621129721402,0.238452197766304
1775719617789735700,11.863735595703124,0.042460912175849075,1.8662977297484873,0.22492694576084613
1775719617799750000,11.87375,0.06057531860247254,1.9758762948423623,0.28812866734415293
1775719617809762800,11.8837626953125,0.08045892665870487,2.092508870100975,0.3383499113231897
1775719617819776800,11.89377685546875,0.0720177729845047,2.176158044168353,0.42218057943731546
1775719617829790000,11.9037900390625,0.10160575958378612,2.2125059533566236,0.5424319297149777
1775719617839804000,11.913803955078125,0.09074994598329067,2.2618162199705836,0.5916200312539934
1775719617849816800,11.92381689453125,0.1061597696263343,2.2918495391845704,0.5863958668649196
1775719617859830800,11.933830810546874,0.22708149344623088,2.370978020957112,0.5213523168072104
1775719617869843700,11.94384375,0.34446108767986294,2.4747686502993105,0.39000791010707614
1775719617879857700,11.953857666015624,0.4421762695658952,2.5024264725536107,0.22436697379052636
1775719617889870800,11.963870849609375,0.5663380712855607,2.5359499719709158,-0.025990473563969135
1775719617899885000,11.973885009765626,0.60470258099325,2.640689280340075,-0.3119321522578597
1775719617909897700,11.983897705078125,0.5022452460814267,2.673843946444988,-0.5067763867050409
1775719617919912000,11.993911865234375,0.3448592932172119,2.7140374251455066,-0.6440189115330577
1775719617929924600,12.003924560546874,0.13208265784680842,2.7293308558672664,-0.7050006189793347
1775719617939938800,12.013938720703125,-0.07505261063575744,2.6265280685186383,-0.7738666499346494
1775719617949952000,12.023951904296876,-0.24079912621863184,2.380993803536892,-0.8281891917526721
1775719617959966000,12.033966064453125,-0.3625016982179135,2.1184996359258887,-0.8394903379678725
1775719617969979000,12.043978759765626,-0.41589200068712234,1.8592384588867426,-0.8728729676097631
1775719617979992800,12.053992919921875,-0.36675248753018674,1.5942776089012622,-0.970427917432785
1775719617990005800,12.064005859375,-0.2404875029861927,1.3798884237676858,-1.2320686830848455
1775719618000019700,12.074019775390624,0.0034013328760862348,1.1704156522482634,-1.51620331235677
1775719618010033000,12.084032958984375,0.26927695961892606,0.9849012639433145,-1.7498741210654376
1775719618020046800,12.094046875,0.5606184515297412,0.7894254535943269,-1.9224097853317856
1775719618030059800,12.104059814453125,0.7364438049912452,0.6288713190227747,-2.0473545541226863
1775719618040074000,12.114073974609376,0.7766063040316105,0.5575596484810114,-2.1379162840574977
1775719618050086700,12.124086669921875,0.6869722103357314,0.4823188217967748,-2.146794587039947
1775719618060100900,12.134100830078125,0.5754261445611715,0.40787352940440175,-1.9895488463640212
1775719618070113800,12.14411376953125,0.3886602948904037,0.4047860847830772,-1.7797250694498419
1775719618080127700,12.154127685546875,0.17687917336337267,0.4143284046322107,-1.5600228725999592
1775719618090141000,12.164140869140626,0.034366453047469256,0.45982232782840726,-1.3413640473231672
1775719618100155000,12.17415478515625,-0.04409581990130246,0.5045575416117907,-1.0532423942416906
1775719618110168600,12.18416845703125,-0.140340271647647,0.5216974769830703,-0.7702370612606406
1775719618120182500,12.1941826171875,-0.20385785424709318,0.47127837234437464,-0.5880068091928958
1775719618130195700,12.20419580078125,-0.1469311943452805,0.4148883766025305,-0.6144789287939667
1775719618140209700,12.214209716796875,0.039935046960040924,0.4211334084719419,-0.976058324535191
1775719618150222600,12.22422265625,0.2619716050416231,0.5129851782172918,-1.4593661573693155
1775719618160236500,12.234236572265624,0.32673246570043263,0.5707108064770698,-1.5926932623192667
1775719618170249700,12.244249755859375,0.1754196952700615,0.6955769570738076,-1.4594450678244233
1775719618180263400,12.254263427734376,-0.1122025569219142,0.69771747623384,-1.1659341229200362
1775719618190276600,12.264276611328125,-0.37743572104275225,0.6200052910000086,-0.8344345158830284
1775719618200290600,12.27429052734375,-0.5826308883082121,0.563271011865139,-0.5417071225717663
1775719618210303500,12.284303466796874,-0.6671030691962688,0.3492430612593889,-0.29862580370008945
1775719618220317700,12.294317626953125,-0.6277694952607155,0.1681336299151182,-0.14820961678326128
1775719618230330400,12.304330322265624,-0.44779695899188515,0.11424947951436042,-0.1276777008861303
1775719618240344600,12.314344482421875,-0.24358130428306757,-0.019012743505835532,-0.19653642531782387
1775719618250357500,12.324357421875,-0.12956402608938514,-0.11460545334517955,-0.34866350780576466
1775719618260371700,12.334371826171875,0.01649221205227077,-0.12625439008474348,-0.5654693986922502
1775719618270384600,12.344384521484375,0.19685345537774263,-0.08855389724373817,-0.828129862780869
1775719618280398600,12.354398681640625,0.2657476164489984,-0.04646949023008346,-0.9430606025576591
1775719618290411500,12.36441162109375,0.17944646656811236,-0.10685060143470763,-0.8591922327816486
1775719618300425500,12.374425537109374,-0.05113507088832557,-0.1519645854026079,-0.7372516142427921
1775719618310438700,12.384438720703125,-0.2767547481536865,-0.2447217795550823,-0.5721697731137275
1775719618320452600,12.39445263671875,-0.2684802562832832,-0.38724049122035503,-0.36235505628883835
1775719618330465500,12.404465576171875,-0.13599902757294474,-0.5892547634273767,-0.09538783491700888
1775719618340479500,12.4144794921875,0.032519875332713125,-0.7982493960410356,0.13964754014313221
1775719618350492400,12.424492431640624,0.19157931436710057,-0.932277342736721,0.22265286334902046
1775719618360506600,12.434506591796875,0.32962709116339683,-1.0289607704222201,0.12854717719703912
1775719618370519600,12.44451953125,0.5373393558163195,-0.9875666837602853,-0.21444792958348988
1775719618380533800,12.45453369140625,0.5614075560808182,-0.9704477911770343,-0.6395005573257804
1775719618390546700,12.464546630859376,0.5205980643738061,-0.9950444722950458,-0.8461044954106212
1775719618400560600,12.474560546875,0.40069910773038864,-0.9720651632457971,-0.8409776539161801
1775719618410573600,12.484573486328125,0.2548217332869768,-0.9843418764948845,-0.6255719852164388
1775719618420587500,12.49458740234375,0.19481464302651583,-0.9787339734852314,-0.32020927447676656
1775719618430600700,12.5046005859375,0.14260346733927726,-0.9916782107323407,0.012950374726951121
1775719618440614700,12.51461474609375,0.21613632106184957,-1.075338490715623,0.29571546921133995
1775719618450627600,12.524627685546875,0.28159407794363794,-1.1481383539885281,0.3529369473412633
1775719618460641500,12.5346416015625,0.21882336818873882,-1.1855424942314625,0.2846531001880765
1775719618470654500,12.544654541015625,0.10583470239043236,-1.219493863672018,0.1737368567496538
