time,seconds_elapsed,z,y,x
1775751202227487700,0.04548779296875,-0.0709381103515625,-0.998870849609375,0.27099609375
1775751202237501000,0.0555009765625,-0.0614013671875,-0.9908447265625,0.2376556396484375
1775751202247513900,0.065513916015625,-0.062744140625,-0.98382568359375,0.21893310546875
1775751202257527800,0.07552783203125,-0.072357177734375,-0.97613525390625,0.2109832763671875
1775751202267541000,0.085541015625,-0.083984375,-0.9698333740234375,0.2249298095703125
1775751202277554000,0.095553955078125,-0.0812530517578125,-0.9628753662109375,0.2305145263671875
1775751202287568000,0.10556787109375,-0.064117431640625,-0.956390380859375,0.226226806640625
1775751202297581000,0.1155810546875,-0.0595703125,-0.957733154296875,0.235748291015625
1775751202307593700,0.12559375,-0.0675811767578125,-0.9745025634765625,0.2479248046875
1775751202317608000,0.13560791015625,-0.059173583984375,-0.98529052734375,0.2466583251953125
1775751202327620900,0.145620849609375,-0.040618896484375,-0.9932708740234375,0.23736572265625
1775751202337634800,0.155634765625,-0.0418701171875,-0.9915313720703125,0.2509918212890625
1775751202347648000,0.16564794921875,-0.0646209716796875,-0.98626708984375,0.2562103271484375
1775751202357660700,0.17566064453125,-0.11376953125,-0.983154296875,0.24591064453125
1775751202367675000,0.1856748046875,-0.14727783203125,-0.9673309326171875,0.2617340087890625
1775751202377687800,0.195687744140625,-0.141754150390625,-0.9561767578125,0.2721099853515625
1775751202387700700,0.20570068359375,-0.130767822265625,-0.958770751953125,0.2575836181640625
1775751202397715000,0.21571484375,-0.1219024658203125,-0.958221435546875,0.2437744140625
1775751202407727900,0.225727783203125,-0.1375885009765625,-0.946258544921875,0.245208740234375
1775751202417740800,0.23574072265625,-0.14642333984375,-0.9336090087890625,0.2386016845703125
1775751202427754800,0.245754638671875,-0.1534271240234375,-0.930084228515625,0.217376708984375
1775751202437767700,0.255767578125,-0.179718017578125,-0.9390106201171875,0.2021026611328125
1775751202447780900,0.26578076171875,-0.207427978515625,-0.9489898681640625,0.1947174072265625
1775751202457794800,0.275794921875,-0.22100830078125,-0.9461517333984375,0.1841278076171875
1775751202467807700,0.285807861328125,-0.225250244140625,-0.94110107421875,0.1567230224609375
1775751202477821000,0.295821044921875,-0.233367919921875,-0.927642822265625,0.1178131103515625
1775751202487835000,0.3058349609375,-0.2007293701171875,-0.9165191650390625,0.0901947021484375
1775751202497847800,0.315847900390625,-0.1527252197265625,-0.932037353515625,0.1153564453125
1775751202507861000,0.325861083984375,-0.125091552734375,-1.001739501953125,0.2284698486328125
1775751202517875000,0.335875,-0.120361328125,-1.0820770263671875,0.3115081787109375
1775751202527888000,0.345887939453125,-0.1657867431640625,-1.1281890869140625,0.3067169189453125
1775751202537900800,0.35590087890625,-0.1891632080078125,-1.0977325439453125,0.2329559326171875
1775751202547914800,0.365914794921875,-0.14398193359375,-1.041229248046875,0.195343017578125
1775751202557928400,0.375928466796875,-0.1381378173828125,-1.007598876953125,0.204437255859375
1775751202567941400,0.38594140625,-0.1568603515625,-0.9881134033203125,0.18939208984375
1775751202577955600,0.39595556640625,-0.1712493896484375,-0.9730987548828125,0.17388916015625
1775751202587968300,0.40596826171875,-0.1862945556640625,-0.9625396728515625,0.158721923828125
1775751202597981400,0.4159814453125,-0.1975250244140625,-0.9619140625,0.1368865966796875
1775751202607995400,0.425995361328125,-0.1788482666015625,-0.9696197509765625,0.136383056640625
1775751202618008300,0.43600830078125,-0.16143798828125,-0.9842987060546875,0.140625
1775751202628022500,0.4460224609375,-0.165130615234375,-0.9925384521484375,0.132354736328125
1775751202638035500,0.456035400390625,-0.134735107421875,-0.9968414306640625,0.1162567138671875
1775751202648048400,0.46604833984375,-0.1214752197265625,-0.99365234375,0.107421875
1775751202658062300,0.476062255859375,-0.131866455078125,-0.994903564453125,0.08831787109375
1775751202668075300,0.4860751953125,-0.1431427001953125,-1.00567626953125,0.067169189453125
1775751202678088400,0.49608837890625,-0.1239471435546875,-1.0292205810546875,0.079437255859375
1775751202688102400,0.506102294921875,-0.1232147216796875,-1.0508575439453125,0.1075897216796875
1775751202698115300,0.516115234375,-0.107696533203125,-1.049957275390625,0.1222076416015625
1775751202708128500,0.52612841796875,-0.0737457275390625,-1.0390472412109375,0.12054443359375
1775751202718142500,0.536142578125,-0.0736541748046875,-1.0272979736328125,0.1158447265625
1775751202728155400,0.5461552734375,-0.1057891845703125,-1.0056610107421875,0.116790771484375
1775751202738168600,0.55616845703125,-0.19219970703125,-0.949981689453125,0.176544189453125
1775751202748182500,0.5661826171875,-0.2217559814453125,-0.939453125,0.2555084228515625
1775751202758195500,0.576195556640625,-0.205108642578125,-1.072265625,0.1587066650390625
1775751202768208400,0.58620849609375,-0.230682373046875,-1.065185546875,0.1197052001953125
1775751202778222300,0.596222412109375,-0.2364501953125,-1.0231781005859375,0.0896453857421875
1775751202788235500,0.606235595703125,-0.2808837890625,-1.009490966796875,0.0095672607421875
1775751202798248400,0.61624853515625,-0.330963134765625,-0.967071533203125,-0.0177154541015625
1775751202808262400,0.626262451171875,-0.32452392578125,-0.952484130859375,0.035125732421875
1775751202818275300,0.636275390625,-0.281951904296875,-0.995361328125,0.0986328125
1775751202828288300,0.646288330078125,-0.2528076171875,-1.0397796630859375,0.1143341064453125
1775751202838302500,0.656302490234375,-0.2193450927734375,-1.033782958984375,0.1197662353515625
1775751202848315400,0.6663154296875,-0.1847686767578125,-1.000701904296875,0.1380157470703125
1775751202858328300,0.676328369140625,-0.1902923583984375,-0.96478271484375,0.1590118408203125
1775751202868342300,0.68634228515625,-0.1873321533203125,-0.934814453125,0.1834716796875
1775751202878355500,0.69635546875,-0.1927032470703125,-0.93701171875,0.199127197265625
1775751202888368400,0.706368408203125,-0.189605712890625,-0.941375732421875,0.218597412109375
1775751202898382300,0.71638232421875,-0.1871795654296875,-0.9394989013671875,0.2276611328125
1775751202908395500,0.7263955078125,-0.1757659912109375,-0.932891845703125,0.2253570556640625
1775751202918408400,0.736408447265625,-0.1653594970703125,-0.925628662109375,0.21124267578125
1775751202928422400,0.74642236328125,-0.159515380859375,-0.902679443359375,0.191131591796875
1775751202938435300,0.756435302734375,-0.128448486328125,-0.870025634765625,0.1896820068359375
1775751202948449300,0.76644921875,-0.0958709716796875,-0.8556976318359375,0.1873016357421875
1775751202958462500,0.77646240234375,-0.076751708984375,-0.8531036376953125,0.1862335205078125
1775751202968475400,0.786475341796875,-0.05548095703125,-0.8574676513671875,0.184356689453125
1775751202978489300,0.7964892578125,-0.0388031005859375,-0.8576812744140625,0.1704559326171875
1775751202988502500,0.80650244140625,-0.02618408203125,-0.8525390625,0.1712493896484375
1775751202998515500,0.816515380859375,-0.0084686279296875,-0.83746337890625,0.196990966796875
1775751203008529400,0.826529296875,0.024932861328125,-0.82305908203125,0.2462615966796875
1775751203018542600,0.83654248046875,0.0413818359375,-0.8162841796875,0.2868499755859375
1775751203028555500,0.846555419921875,0.0556793212890625,-0.8087921142578125,0.3407135009765625
1775751203038569500,0.856569580078125,0.0786590576171875,-0.800262451171875,0.3950958251953125
1775751203048582400,0.86658251953125,0.0626373291015625,-0.7870025634765625,0.3896942138671875
1775751203058595300,0.87659521484375,0.0542449951171875,-0.7940826416015625,0.3545074462890625
1775751203068609500,0.886609619140625,0.0759735107421875,-0.821807861328125,0.3574371337890625
1775751203078622500,0.89662255859375,0.0382537841796875,-0.830780029296875,0.3419952392578125
1775751203088635400,0.906635498046875,0.02276611328125,-0.81988525390625,0.3220062255859375
1775751203098649600,0.916649658203125,0.039825439453125,-0.8106231689453125,0.31036376953125
1775751203108662300,0.926662353515625,0.0487823486328125,-0.801727294921875,0.2877197265625
1775751203118675500,0.936675537109375,0.0489959716796875,-0.8024139404296875,0.2706451416015625
1775751203128689400,0.946689453125,0.016326904296875,-0.842742919921875,0.2532958984375
1775751203138702300,0.956702392578125,0.0260467529296875,-0.88720703125,0.262939453125
1775751203148715500,0.966715576171875,0.086883544921875,-0.891357421875,0.30340576171875
1775751203158729200,0.976729248046875,0.110626220703125,-0.915496826171875,0.2975311279296875
1775751203168742400,0.986742431640625,0.096099853515625,-0.99298095703125,0.2772216796875
1775751203178755600,0.996755615234375,0.1186676025390625,-1.036163330078125,0.262908935546875
1775751203188769300,1.006769287109375,0.151336669921875,-1.030609130859375,0.2364349365234375
1775751203198782500,1.016782470703125,0.14581298828125,-1.0331878662109375,0.194183349609375
1775751203208795600,1.026795654296875,0.140533447265625,-1.0376739501953125,0.1709442138671875
1775751203218809300,1.036809326171875,0.1593780517578125,-1.0290679931640625,0.1722564697265625
1775751203228822500,1.046822509765625,0.142913818359375,-1.038787841796875,0.1866455078125
1775751203238835500,1.05683544921875,0.077178955078125,-1.0534210205078125,0.2159576416015625
1775751203248849400,1.066849365234375,0.02197265625,-1.042449951171875,0.2312164306640625
1775751203258862600,1.076862548828125,0.03271484375,-1.044036865234375,0.2452239990234375
1775751203268876300,1.086876220703125,0.0320281982421875,-1.0355377197265625,0.2608489990234375
1775751203278889500,1.096889404296875,-0.0592193603515625,-1.0194549560546875,0.272003173828125
1775751203288902400,1.10690234375,-0.1293792724609375,-1.047454833984375,0.325408935546875
1775751203298916400,1.116916259765625,-0.1079559326171875,-1.0244598388671875,0.358917236328125
1775751203308929500,1.126929443359375,-0.06805419921875,-0.9759979248046875,0.33404541015625
1775751203318942500,1.1369423828125,-0.0299530029296875,-0.9520416259765625,0.3152313232421875
1775751203328956400,1.146956298828125,0.00439453125,-0.934783935546875,0.308502197265625
1775751203338969300,1.15696923828125,0.03680419921875,-0.922271728515625,0.3013916015625
1775751203348982300,1.166982177734375,0.0736541748046875,-0.9152984619140625,0.3152923583984375
1775751203358996500,1.17699658203125,0.0803680419921875,-0.894683837890625,0.32989501953125
1775751203369009400,1.187009521484375,0.077484130859375,-0.8681488037109375,0.34375
1775751203379022300,1.197022216796875,0.1018829345703125,-0.8646392822265625,0.390594482421875
1775751203389036500,1.20703662109375,0.1006011962890625,-0.873260498046875,0.44097900390625
1775751203399049500,1.217049560546875,0.084747314453125,-0.882568359375,0.4778289794921875
1775751203409062400,1.2270625,0.0472259521484375,-0.8685302734375,0.4646148681640625
1775751203419076400,1.237076416015625,0.0147552490234375,-0.86053466796875,0.4391326904296875
1775751203429089500,1.247089599609375,-0.001739501953125,-0.86785888671875,0.4155120849609375
1775751203439102500,1.2571025390625,-0.0026092529296875,-0.8847808837890625,0.3962249755859375
1775751203449116400,1.267116455078125,-0.001495361328125,-0.89105224609375,0.3773956298828125
1775751203459129300,1.27712939453125,0.0014190673828125,-0.88726806640625,0.353729248046875
1775751203469142500,1.287142578125,-0.008697509765625,-0.891265869140625,0.34698486328125
1775751203479156500,1.297156494140625,-0.01544189453125,-0.9028472900390625,0.3751220703125
1775751203489169400,1.30716943359375,-0.023101806640625,-0.92120361328125,0.4134063720703125
1775751203499182300,1.317182373046875,-0.025543212890625,-0.9250030517578125,0.4317779541015625
1775751203509196500,1.327196533203125,-0.0351104736328125,-0.909149169921875,0.40399169921875
1775751203519209500,1.33720947265625,-0.0256805419921875,-0.9117431640625,0.3708343505859375
1775751203529222400,1.347222412109375,-0.0222930908203125,-0.9184722900390625,0.3538665771484375
1775751203539236600,1.357236572265625,-0.0082550048828125,-0.921417236328125,0.360107421875
1775751203549249300,1.367249267578125,0.0220184326171875,-0.93231201171875,0.382171630859375
1775751203559262200,1.37726220703125,0.044158935546875,-0.9447479248046875,0.399688720703125
1775751203569276400,1.3872763671875,0.069000244140625,-0.961181640625,0.4078826904296875
1775751203579289000,1.3972890625,0.0852508544921875,-0.98028564453125,0.4087066650390625
1775751203589302300,1.40730224609375,0.0946044921875,-1.0014801025390625,0.4070281982421875
1775751203599316200,1.417316162109375,0.0820159912109375,-1.01361083984375,0.4011383056640625
1775751203609329200,1.4273291015625,0.07257080078125,-1.01873779296875,0.3968963623046875
1775751203619342300,1.43734228515625,0.0703125,-1.022735595703125,0.3960418701171875
1775751203629356000,1.44735595703125,0.059478759765625,-1.0251922607421875,0.3724365234375
1775751203639369200,1.457369140625,0.0531463623046875,-1.0153656005859375,0.333648681640625
1775751203649383400,1.467383544921875,0.0389862060546875,-1.0105743408203125,0.2924652099609375
1775751203659396000,1.47739599609375,0.0333404541015625,-1.01947021484375,0.2723541259765625
1775751203669409300,1.4874091796875,0.0330047607421875,-1.0166778564453125,0.2716064453125
1775751203679423200,1.49742333984375,0.0245361328125,-1.00958251953125,0.2878875732421875
1775751203689436200,1.507436279296875,0.0169219970703125,-1.015777587890625,0.3087005615234375
1775751203699449300,1.517449462890625,0.0287322998046875,-1.0146026611328125,0.3123779296875
1775751203709463000,1.527463134765625,0.0327606201171875,-0.9983673095703125,0.293701171875
1775751203719476200,1.537476318359375,0.017578125,-0.9864044189453125,0.267730712890625
1775751203729489400,1.547489501953125,0.0064239501953125,-0.98211669921875,0.2565155029296875
1775751203739503000,1.557503173828125,-0.0062103271484375,-0.96942138671875,0.2589111328125
1775751203749516300,1.567516357421875,-0.025970458984375,-0.9508209228515625,0.26055908203125
1775751203759529200,1.577529296875,-0.0494384765625,-0.944854736328125,0.26971435546875
1775751203769543200,1.587543212890625,-0.075592041015625,-0.9462127685546875,0.284698486328125
1775751203779556400,1.597556396484375,-0.0920867919921875,-0.94476318359375,0.28985595703125
1775751203789569000,1.607569091796875,-0.10443115234375,-0.9389190673828125,0.283538818359375
1775751203799583200,1.617583251953125,-0.1038970947265625,-0.9332122802734375,0.2743072509765625
1775751203809596400,1.627596435546875,-0.0851287841796875,-0.9373779296875,0.265533447265625
1775751203819609000,1.637609130859375,-0.06365966796875,-0.942840576171875,0.261322021484375
1775751203829623300,1.647623291015625,-0.0377349853515625,-0.942718505859375,0.26239013671875
1775751203839636200,1.65763623046875,-0.0153656005859375,-0.952301025390625,0.273590087890625
1775751203849649200,1.667649169921875,-0.0099639892578125,-0.95770263671875,0.278472900390625
1775751203859663400,1.677663330078125,0.0005035400390625,-0.961517333984375,0.278839111328125
1775751203869676000,1.687676025390625,0.0117645263671875,-0.9676513671875,0.284332275390625
1775751203879690200,1.697690185546875,0.0151519775390625,-0.9611358642578125,0.290374755859375
1775751203889703200,1.707703125,0.0087890625,-0.9498291015625,0.2918701171875
1775751203899716000,1.717716064453125,-0.006988525390625,-0.9458770751953125,0.287445068359375
1775751203909730300,1.727730224609375,-0.016937255859375,-0.9430084228515625,0.2801055908203125
1775751203919743200,1.7377431640625,-0.013397216796875,-0.947113037109375,0.2691192626953125
1775751203929756200,1.747756103515625,-0.0100250244140625,-0.9541778564453125,0.2542724609375
1775751203939770000,1.75777001953125,-0.008056640625,-0.958404541015625,0.238494873046875
1775751203949783300,1.767783203125,-0.000518798828125,-0.9687652587890625,0.21600341796875
1775751203959796200,1.777796142578125,0.0039215087890625,-0.9747467041015625,0.192657470703125
1775751203969810200,1.78781005859375,0.0111083984375,-0.97381591796875,0.188262939453125
1775751203979823000,1.797822998046875,0.0145416259765625,-0.9767303466796875,0.1937255859375
1775751203989836300,1.807836181640625,0.0420989990234375,-0.991973876953125,0.2218170166015625
1775751203999850200,1.817850341796875,0.055938720703125,-1.0256195068359375,0.2678375244140625
1775751204009863200,1.82786328125,0.05419921875,-1.0772552490234375,0.337188720703125
1775751204019876400,1.83787646484375,0.046295166015625,-1.163421630859375,0.4284820556640625
1775751204029890300,1.847890380859375,0.02154541015625,-1.2701568603515625,0.5212860107421875
1775751204039903200,1.8579033203125,-0.000152587890625,-1.361328125,0.6066436767578125
1775751204049916200,1.867916259765625,0.0015106201171875,-1.4677581787109375,0.6750640869140625
1775751204059930400,1.877930419921875,0.0094451904296875,-1.5640106201171875,0.691375732421875
1775751204069943300,1.887943359375,0.027130126953125,-1.6266937255859375,0.636688232421875
1775751204079956200,1.897956298828125,0.05224609375,-1.6605682373046875,0.55908203125
1775751204089970200,1.90797021484375,0.072418212890625,-1.6925506591796875,0.4860382080078125
1775751204099983000,1.917983154296875,0.0595550537109375,-1.698486328125,0.446807861328125
1775751204109997300,1.927997314453125,0.031829833984375,-1.6627197265625,0.442779541015625
1775751204120010200,1.93801025390625,-0.000274658203125,-1.6048583984375,0.4361724853515625
1775751204130023200,1.948023193359375,-0.0116424560546875,-1.5352935791015625,0.4135284423828125
1775751204140037400,1.958037353515625,0.0124053955078125,-1.46600341796875,0.3619842529296875
1775751204150050000,1.968050048828125,0.0478363037109375,-1.41534423828125,0.3351287841796875
1775751204160063200,1.978063232421875,0.092132568359375,-1.3628692626953125,0.3390350341796875
1775751204170077400,1.988077392578125,0.1333770751953125,-1.31573486328125,0.3736724853515625
1775751204180090000,1.998090087890625,0.169708251953125,-1.275299072265625,0.412139892578125
1775751204190103300,2.008103271484375,0.2013092041015625,-1.233612060546875,0.4510345458984375
1775751204200117000,2.018116943359375,0.229736328125,-1.176361083984375,0.4615478515625
1775751204210130200,2.028130126953125,0.253936767578125,-1.102691650390625,0.4561920166015625
1775751204220143400,2.038143310546875,0.253753662109375,-1.059600830078125,0.4746856689453125
1775751204230157000,2.048156982421875,0.242828369140625,-1.0175628662109375,0.4793853759765625
1775751204240170200,2.058170166015625,0.244842529296875,-0.9713592529296875,0.49163818359375
1775751204250183200,2.06818310546875,0.24981689453125,-0.9329833984375,0.4823150634765625
1775751204260197000,2.078197021484375,0.266693115234375,-0.9129638671875,0.42022705078125
1775751204270210300,2.088210205078125,0.2952423095703125,-0.9077911376953125,0.356964111328125
1775751204280223200,2.09822314453125,0.31768798828125,-0.8558197021484375,0.2837066650390625
1775751204290237200,2.1082373046875,0.3801727294921875,-0.786529541015625,0.20635986328125
1775751204300250400,2.11825048828125,0.4250640869140625,-0.7295379638671875,0.206024169921875
1775751204310264000,2.12826416015625,0.367584228515625,-0.6613311767578125,0.2386322021484375
1775751204320277200,2.13827734375,0.3226776123046875,-0.63385009765625,0.340362548828125
1775751204330290400,2.14829052734375,0.258575439453125,-0.6464385986328125,0.4919586181640625
1775751204340304100,2.15830419921875,0.214263916015625,-0.6429595947265625,0.5877685546875
1775751204350317300,2.1683173828125,0.182464599609375,-0.625885009765625,0.621063232421875
1775751204360330000,2.178330078125,0.178741455078125,-0.6096954345703125,0.567138671875
1775751204370344200,2.18834423828125,0.20867919921875,-0.6073455810546875,0.4718017578125
1775751204380357400,2.198357421875,0.2422637939453125,-0.604736328125,0.286346435546875
1775751204390370000,2.2083701171875,0.2454986572265625,-0.61456298828125,0.1355438232421875
1775751204400384300,2.21838427734375,0.2299652099609375,-0.6361236572265625,0.142669677734375
1775751204410397200,2.228397216796875,0.233489990234375,-0.6500091552734375,0.240386962890625
1775751204420410000,2.23841015625,0.21221923828125,-0.6477813720703125,0.3456268310546875
1775751204430424300,2.24842431640625,0.168701171875,-0.6590118408203125,0.422332763671875
1775751204440437200,2.258437255859375,0.12591552734375,-0.667144775390625,0.45587158203125
1775751204450450200,2.2684501953125,0.0864105224609375,-0.6260986328125,0.4070587158203125
1775751204460464000,2.278464111328125,0.0774078369140625,-0.6149139404296875,0.219970703125
1775751204470477000,2.28847705078125,0.0667266845703125,-0.6450347900390625,0.0486297607421875
1775751204480490200,2.298490234375,0.0312652587890625,-0.6462860107421875,-0.0109710693359375
1775751204490504200,2.308504150390625,0.022308349609375,-0.674163818359375,0.023681640625
1775751204500517000,2.31851708984375,0.013214111328125,-0.718841552734375,0.09136962890625
1775751204510530300,2.3285302734375,-0.0031280517578125,-0.7619476318359375,0.157989501953125
1775751204520544300,2.338544189453125,0.02069091796875,-0.7930908203125,0.2328948974609375
1775751204530557200,2.34855712890625,0.04119873046875,-0.815765380859375,0.3326873779296875
1775751204540571100,2.358571044921875,0.020751953125,-0.8688201904296875,0.44525146484375
1775751204550584300,2.368584228515625,-0.0418853759765625,-0.8759613037109375,0.4534454345703125
1775751204560597500,2.378597412109375,-0.056610107421875,-0.8452606201171875,0.3445892333984375
1775751204570611200,2.388611083984375,-0.03802490234375,-0.8282623291015625,0.1314239501953125
1775751204580624400,2.398624267578125,0.04827880859375,-0.8556976318359375,-0.0182037353515625
1775751204590637600,2.408637451171875,0.1541290283203125,-0.881988525390625,-0.043914794921875
1775751204600651300,2.4186513671875,0.2423095703125,-0.8720550537109375,-0.0195465087890625
1775751204610664400,2.42866455078125,0.2919769287109375,-0.8984832763671875,0.0742034912109375
1775751204620677000,2.438677001953125,0.2877349853515625,-0.8949432373046875,0.1453399658203125
1775751204630691300,2.44869140625,0.325653076171875,-0.840850830078125,0.1909637451171875
1775751204640704500,2.45870458984375,0.322357177734375,-0.81500244140625,0.244720458984375
1775751204650717200,2.46871728515625,0.2599639892578125,-0.7717742919921875,0.2511749267578125
1775751204660731400,2.4787314453125,0.1800994873046875,-0.7251129150390625,0.226165771484375
1775751204670744300,2.488744384765625,0.123779296875,-0.6699371337890625,0.1407470703125
1775751204680757200,2.49875732421875,0.10040283203125,-0.6431427001953125,0.088043212890625
1775751204690771500,2.508771484375,0.0948028564453125,-0.6075286865234375,0.0454559326171875
1775751204700784400,2.518784423828125,0.1592559814453125,-0.5948638916015625,0.037841796875
1775751204710797300,2.52879736328125,0.18572998046875,-0.58807373046875,0.078155517578125
1775751204720811300,2.538811279296875,0.16339111328125,-0.5546722412109375,0.0843505859375
1775751204730824200,2.54882421875,0.101043701171875,-0.5160980224609375,0.0781402587890625
1775751204740838400,2.55883837890625,0.00506591796875,-0.4785614013671875,0.12078857421875
1775751204750851300,2.568851318359375,-0.1214447021484375,-0.481414794921875,0.1797637939453125
1775751204760864300,2.5788642578125,-0.22882080078125,-0.5225677490234375,0.17364501953125
1775751204770878200,2.588878173828125,-0.2333221435546875,-0.5214996337890625,0.0865936279296875
1775751204780891400,2.598891357421875,-0.1331939697265625,-0.4694366455078125,-0.031280517578125
1775751204790904300,2.608904296875,-0.0233917236328125,-0.4652557373046875,-0.1013641357421875
1775751204800918300,2.618918212890625,0.0873260498046875,-0.4659576416015625,-0.1385955810546875
1775751204810931500,2.628931396484375,0.195526123046875,-0.4534912109375,-0.103729248046875
1775751204820944400,2.6389443359375,0.2317352294921875,-0.4580841064453125,-0.0415802001953125
1775751204830958300,2.648958251953125,0.234832763671875,-0.4535064697265625,0.0221099853515625
1775751204840971300,2.65897119140625,0.2051544189453125,-0.430084228515625,0.1298980712890625
1775751204850984400,2.668984375,0.11614990234375,-0.4006500244140625,0.2255096435546875
1775751204860998400,2.678998291015625,0.0225067138671875,-0.39813232421875,0.285003662109375
1775751204871011300,2.68901123046875,-0.0378875732421875,-0.42205810546875,0.2936248779296875
1775751204881024300,2.699024169921875,-0.006561279296875,-0.4571990966796875,0.302093505859375
1775751204891038500,2.70903857421875,0.0916900634765625,-0.4954833984375,0.355072021484375
1775751204901051400,2.719051513671875,0.1714324951171875,-0.5573272705078125,0.44952392578125
1775751204911064300,2.729064208984375,0.2377166748046875,-0.6320648193359375,0.495025634765625
1775751204921078500,2.73907861328125,0.2964630126953125,-0.6770782470703125,0.5006561279296875
1775751204931091200,2.74909130859375,0.3099517822265625,-0.705657958984375,0.498779296875
1775751204941105400,2.75910546875,0.2773895263671875,-0.74237060546875,0.5159912109375
1775751204951118300,2.769118408203125,0.206634521484375,-0.77899169921875,0.516632080078125
1775751204961131300,2.77913134765625,0.1643218994140625,-0.7929840087890625,0.531890869140625
1775751204971145500,2.7891455078125,0.13116455078125,-0.8344268798828125,0.5984039306640625
1775751204981158100,2.799158203125,0.1026763916015625,-0.8475341796875,0.6300506591796875
1775751204991171300,2.80917138671875,0.1225433349609375,-0.8729095458984375,0.606109619140625
1775751205001185500,2.819185546875,0.143524169921875,-0.8830413818359375,0.5429840087890625
1775751205011198200,2.8291982421875,0.1941680908203125,-0.88861083984375,0.527679443359375
1775751205021211400,2.83921142578125,0.21588134765625,-0.9515380859375,0.5736846923828125
1775751205031225300,2.849225341796875,0.22845458984375,-0.960205078125,0.5842742919921875
1775751205041238300,2.85923828125,0.2511749267578125,-0.965789794921875,0.5745086669921875
1775751205051251500,2.86925146484375,0.2288665771484375,-0.9757537841796875,0.5372161865234375
1775751205061265200,2.87926513671875,0.1953887939453125,-1.0103607177734375,0.509674072265625
1775751205071278300,2.8892783203125,0.191650390625,-1.020294189453125,0.4334259033203125
1775751205081291500,2.89929150390625,0.228973388671875,-1.01953125,0.3844146728515625
1775751205091305200,2.90930517578125,0.218017578125,-1.099090576171875,0.408050537109375
1775751205101318400,2.919318359375,0.2216339111328125,-1.0924835205078125,0.3797149658203125
1775751205111332400,2.929332275390625,0.2842254638671875,-1.0696563720703125,0.3739471435546875
1775751205121345300,2.93934521484375,0.3605804443359375,-1.053955078125,0.4046478271484375
1775751205131358500,2.9493583984375,0.409332275390625,-0.985931396484375,0.448974609375
1775751205141372400,2.959372314453125,0.4092254638671875,-0.93798828125,0.46893310546875
1775751205151385300,2.96938525390625,0.3996429443359375,-0.88543701171875,0.4260406494140625
1775751205161398500,2.9793984375,0.40875244140625,-0.887054443359375,0.381927490234375
1775751205171412200,2.989412109375,0.4000244140625,-0.9779815673828125,0.4261322021484375
1775751205181425400,2.99942529296875,0.3817291259765625,-1.0908355712890625,0.5142059326171875
1775751205191438300,3.009438232421875,0.3680877685546875,-1.092010498046875,0.5604248046875
1775751205201452300,3.019452392578125,0.3826751708984375,-1.0426177978515625,0.5529632568359375
1775751205211465500,3.029465576171875,0.3697052001953125,-0.997161865234375,0.470489501953125
1775751205221478400,3.039478515625,0.2908935546875,-0.9565582275390625,0.3479766845703125
1775751205231492400,3.049492431640625,0.21392822265625,-0.917877197265625,0.2788848876953125
1775751205241505300,3.05950537109375,0.17578125,-0.901458740234375,0.282623291015625
1775751205251519500,3.06951953125,0.163726806640625,-0.96435546875,0.370880126953125
1775751205261532400,3.079532470703125,0.1627960205078125,-1.037994384765625,0.47882080078125
1775751205271545300,3.08954541015625,0.1667022705078125,-1.036773681640625,0.55810546875
1775751205281559300,3.099559326171875,0.1390228271484375,-1.04315185546875,0.5880126953125
1775751205291572200,3.109572265625,0.1042022705078125,-1.028472900390625,0.538299560546875
1775751205301585400,3.11958544921875,0.0834503173828125,-0.991424560546875,0.4170379638671875
1775751205311599400,3.129599365234375,0.09356689453125,-0.94317626953125,0.305511474609375
1775751205321612300,3.1396123046875,0.1335601806640625,-0.9245452880859375,0.2623138427734375
1775751205331625500,3.14962548828125,0.190277099609375,-0.933837890625,0.2827301025390625
1775751205341639200,3.15963916015625,0.247314453125,-0.90521240234375,0.3207855224609375
1775751205351652400,3.16965234375,0.2959442138671875,-0.9058837890625,0.396331787109375
1775751205361665300,3.179665283203125,0.2898712158203125,-0.9519195556640625,0.4635009765625
1775751205371679200,3.18967919921875,0.2463836669921875,-0.9676513671875,0.5037689208984375
1775751205381692400,3.1996923828125,0.1734619140625,-0.988494873046875,0.5182342529296875
1775751205391706000,3.2097060546875,0.10296630859375,-1.0219573974609375,0.5053253173828125
1775751205401719300,3.21971923828125,0.0619049072265625,-0.978851318359375,0.44146728515625
1775751205411732500,3.229732421875,0.0772247314453125,-0.9477081298828125,0.335540771484375
1775751205421746200,3.23974609375,0.119049072265625,-0.966156005859375,0.2985687255859375
1775751205431759400,3.24975927734375,0.1814422607421875,-0.953094482421875,0.320037841796875
1775751205441772500,3.2597724609375,0.263275146484375,-0.96136474609375,0.3573455810546875
1775751205451786200,3.2697861328125,0.3238525390625,-0.9814453125,0.3624114990234375
1775751205461799400,3.27979931640625,0.340789794921875,-1.016510009765625,0.3530120849609375
1775751205471812400,3.289812255859375,0.3249359130859375,-1.0859222412109375,0.3389892578125
1775751205481826300,3.299826416015625,0.322479248046875,-1.084075927734375,0.2927093505859375
1775751205491839500,3.309839599609375,0.3329925537109375,-1.053802490234375,0.2408905029296875
1775751205501852200,3.31985205078125,0.3071441650390625,-1.025726318359375,0.2179718017578125
1775751205511866400,3.329866455078125,0.2618560791015625,-0.97613525390625,0.2307586669921875
1775751205521879600,3.339879638671875,0.2128448486328125,-0.9391021728515625,0.270538330078125
1775751205531893200,3.349893310546875,0.15740966796875,-0.880279541015625,0.27447509765625
1775751205541906400,3.359906494140625,0.112335205078125,-0.856109619140625,0.2885894775390625
1775751205551919000,3.369919189453125,0.0660400390625,-0.8341064453125,0.3163299560546875
1775751205561933300,3.379933349609375,0.0630645751953125,-0.8163909912109375,0.337799072265625
1775751205571946200,3.3899462890625,0.0932769775390625,-0.8195648193359375,0.361328125
1775751205581959200,3.399959228515625,0.1469879150390625,-0.807342529296875,0.4038848876953125
1775751205591973000,3.40997314453125,0.192169189453125,-0.8085784912109375,0.418182373046875
1775751205601986000,3.419986083984375,0.227691650390625,-0.775146484375,0.4288177490234375
1775751205611999200,3.429999267578125,0.24676513671875,-0.77655029296875,0.4824676513671875
1775751205622013200,3.44001318359375,0.2320098876953125,-0.832275390625,0.526397705078125
1775751205632026000,3.450026123046875,0.21588134765625,-0.8921356201171875,0.5694732666015625
1775751205642039000,3.4600390625,0.2215728759765625,-1.0020599365234375,0.6198272705078125
1775751205652053000,3.470052978515625,0.2188873291015625,-1.07830810546875,0.6523895263671875
1775751205662066200,3.480066162109375,0.19775390625,-1.132415771484375,0.65570068359375
1775751205672080400,3.490080322265625,0.182281494140625,-1.2208404541015625,0.6652069091796875
1775751205682093000,3.500093017578125,0.1901397705078125,-1.26666259765625,0.6768341064453125
1775751205692106200,3.510106201171875,0.22088623046875,-1.2967987060546875,0.66265869140625
1775751205702120200,3.5201201171875,0.2306060791015625,-1.31964111328125,0.639434814453125
1775751205712133000,3.530133056640625,0.22918701171875,-1.3267059326171875,0.589263916015625
1775751205722146300,3.540146240234375,0.241973876953125,-1.3165130615234375,0.5130462646484375
1775751205732160000,3.550159912109375,0.24920654296875,-1.26934814453125,0.43994140625
1775751205742173200,3.560173095703125,0.2129058837890625,-1.217071533203125,0.3703460693359375
1775751205752186000,3.57018603515625,0.1590118408203125,-1.1421051025390625,0.27642822265625
1775751205762200000,3.580199951171875,0.1508026123046875,-1.083282470703125,0.2443084716796875
1775751205772213200,3.590213134765625,0.1642303466796875,-1.045166015625,0.2759246826171875
1775751205782227200,3.600227294921875,0.1782073974609375,-1.0117645263671875,0.314697265625
1775751205792240000,3.610240234375,0.20843505859375,-0.971893310546875,0.3541412353515625
1775751205802253300,3.62025341796875,0.2247161865234375,-0.935089111328125,0.3758544921875
1775751205812267000,3.63026708984375,0.2224273681640625,-0.8984222412109375,0.36492919921875
1775751205822280200,3.6402802734375,0.2253875732421875,-0.877471923828125,0.3373870849609375
1775751205832293400,3.65029345703125,0.223876953125,-0.8579864501953125,0.316558837890625
1775751205842307000,3.66030712890625,0.2236175537109375,-0.82501220703125,0.291107177734375
1775751205852320300,3.6703203125,0.2179107666015625,-0.81243896484375,0.2774658203125
1775751205862333200,3.680333251953125,0.212677001953125,-0.8134918212890625,0.283935546875
1775751205872347100,3.69034716796875,0.229705810546875,-0.81597900390625,0.2946929931640625
1775751205882360300,3.7003603515625,0.2405853271484375,-0.8252716064453125,0.3104248046875
1775751205892373000,3.710373046875,0.25152587890625,-0.8253173828125,0.3247528076171875
1775751205902387200,3.72038720703125,0.2543182373046875,-0.8476409912109375,0.352020263671875
1775751205912400100,3.730400146484375,0.2738494873046875,-0.874420166015625,0.3662261962890625
1775751205922414000,3.7404140625,0.2919158935546875,-0.871978759765625,0.3592529296875
1775751205932427300,3.75042724609375,0.260589599609375,-0.87799072265625,0.330230712890625
1775751205942440200,3.760440185546875,0.240325927734375,-0.8798828125,0.29119873046875
1775751205952454100,3.7704541015625,0.2230072021484375,-0.8772430419921875,0.274505615234375
1775751205962467000,3.780467041015625,0.202392578125,-0.909576416015625,0.284942626953125
1775751205972480300,3.790480224609375,0.1968231201171875,-0.9308929443359375,0.2905426025390625
1775751205982494200,3.800494140625,0.219268798828125,-0.9406585693359375,0.2912445068359375
1775751205992507100,3.810507080078125,0.2391510009765625,-0.95233154296875,0.30291748046875
1775751206002520000,3.82052001953125,0.265228271484375,-0.9472198486328125,0.312347412109375
1775751206012534000,3.830533935546875,0.2860870361328125,-0.9431915283203125,0.3209381103515625
1775751206022547200,3.840547119140625,0.3043060302734375,-0.94384765625,0.3216705322265625
1775751206032561200,3.85056103515625,0.31134033203125,-0.938751220703125,0.33074951171875
1775751206042574000,3.860573974609375,0.3032379150390625,-0.9309234619140625,0.335784912109375
1775751206052587300,3.870587158203125,0.2810516357421875,-0.9361114501953125,0.3395538330078125
1775751206062601200,3.880601318359375,0.2447967529296875,-0.9298553466796875,0.335693359375
1775751206072614100,3.8906142578125,0.2093353271484375,-0.919708251953125,0.317779541015625
1775751206082627300,3.90062744140625,0.179962158203125,-0.923370361328125,0.2897796630859375
1775751206092641000,3.91064111328125,0.1640625,-0.925262451171875,0.2676544189453125
1775751206102654200,3.920654296875,0.161590576171875,-0.9271697998046875,0.269134521484375
1775751206112668200,3.930668212890625,0.1700592041015625,-0.936737060546875,0.2779998779296875
1775751206122681000,3.94068115234375,0.1883697509765625,-0.9344482421875,0.2847900390625
1775751206132694300,3.9506943359375,0.224090576171875,-0.92498779296875,0.300018310546875
1775751206142708000,3.9607080078125,0.246551513671875,-0.90753173828125,0.3031158447265625
1775751206152721200,3.97072119140625,0.2506256103515625,-0.89276123046875,0.2950286865234375
1775751206162734300,3.980734375,0.2444305419921875,-0.89312744140625,0.276763916015625
1775751206172748000,3.990748046875,0.2444305419921875,-0.9033050537109375,0.2853851318359375
1775751206182761200,4.00076123046875,0.256622314453125,-0.908203125,0.30206298828125
1775751206192774400,4.0107744140625,0.264862060546875,-0.907562255859375,0.31341552734375
1775751206202788000,4.0207880859375,0.273834228515625,-0.9026641845703125,0.3260040283203125
1775751206212801300,4.03080126953125,0.270721435546875,-0.8933258056640625,0.324554443359375
1775751206222815200,4.040815185546875,0.25634765625,-0.8818511962890625,0.3252105712890625
1775751206232828200,4.050828125,0.2295379638671875,-0.88946533203125,0.3324737548828125
1775751206242841300,4.06084130859375,0.2090301513671875,-0.9043426513671875,0.340118408203125
1775751206252855000,4.07085498046875,0.2146148681640625,-0.914337158203125,0.3640899658203125
1775751206262868200,4.0808681640625,0.23712158203125,-0.9228973388671875,0.378662109375
1775751206272881200,4.090881103515625,0.2595367431640625,-0.9404144287109375,0.381134033203125
1775751206282895000,4.10089501953125,0.2664031982421875,-0.9517059326171875,0.3922271728515625
1775751206292908300,4.110908203125,0.259979248046875,-0.9537811279296875,0.4039764404296875
1775751206302921200,4.120921142578125,0.240203857421875,-0.95208740234375,0.4123382568359375
1775751206312935200,4.13093505859375,0.216156005859375,-0.9536590576171875,0.4207305908203125
1775751206322948000,4.140947998046875,0.200836181640625,-0.9561614990234375,0.41998291015625
1775751206332962300,4.15096240234375,0.1832427978515625,-0.9531097412109375,0.4062347412109375
1775751206342975200,4.160975341796875,0.1881256103515625,-0.9416351318359375,0.3749847412109375
1775751206352988200,4.17098828125,0.2121734619140625,-0.9322357177734375,0.3532867431640625
1775751206363002000,4.181002197265625,0.23419189453125,-0.9320526123046875,0.350189208984375
1775751206373015000,4.19101513671875,0.266845703125,-0.9282073974609375,0.3677520751953125
1775751206383028200,4.2010283203125,0.2982330322265625,-0.9298095703125,0.38330078125
1775751206393042200,4.211042236328125,0.32806396484375,-0.934051513671875,0.3813934326171875
1775751206403055000,4.22105517578125,0.3346710205078125,-0.917083740234375,0.36700439453125
1775751206413068300,4.231068359375,0.3094329833984375,-0.903839111328125,0.3420562744140625
1775751206423082200,4.241082275390625,0.271209716796875,-0.8892822265625,0.3059844970703125
1775751206433095200,4.25109521484375,0.2368621826171875,-0.8773345947265625,0.2886505126953125
1775751206443109400,4.261109375,0.2015533447265625,-0.8677215576171875,0.287109375
1775751206453122000,4.2711220703125,0.1524810791015625,-0.867401123046875,0.2830047607421875
1775751206463135200,4.28113525390625,0.0970916748046875,-0.86724853515625,0.2407989501953125
1775751206473149200,4.291149169921875,0.0443267822265625,-0.8806610107421875,0.2088165283203125
1775751206483162000,4.301162109375,0.013916015625,-0.8949127197265625,0.192352294921875
1775751206493175300,4.31117529296875,0.0160369873046875,-0.9081268310546875,0.1904296875
1775751206503189000,4.32118896484375,0.0293121337890625,-0.913421630859375,0.2181396484375
1775751206513202200,4.3312021484375,0.0511322021484375,-0.908935546875,0.22308349609375
1775751206523216100,4.341216064453125,0.064727783203125,-0.922119140625,0.2284393310546875
1775751206533229000,4.35122900390625,0.059326171875,-0.940093994140625,0.228912353515625
1775751206543242200,4.3612421875,0.0614166259765625,-0.9504852294921875,0.2178497314453125
1775751206553256200,4.371256103515625,0.078948974609375,-0.9620208740234375,0.2100677490234375
1775751206563269400,4.381269287109375,0.0860443115234375,-0.973052978515625,0.2054290771484375
1775751206573282300,4.3912822265625,0.087432861328125,-0.98876953125,0.2003021240234375
1775751206583296300,4.401296142578125,0.0789947509765625,-0.99755859375,0.174774169921875
1775751206593309400,4.411309326171875,0.06646728515625,-1.0000152587890625,0.1427001953125
1775751206603323100,4.4213232421875,0.0581512451171875,-1.0051422119140625,0.13555908203125
1775751206613336300,4.43133642578125,0.060211181640625,-1.013458251953125,0.1656951904296875
1775751206623349200,4.441349365234375,0.0738677978515625,-1.0106353759765625,0.20074462890625
1775751206633363200,4.45136328125,0.080535888671875,-1.001922607421875,0.2323150634765625
1775751206643376400,4.46137646484375,0.06732177734375,-1.0023651123046875,0.2490234375
1775751206653389300,4.471389404296875,0.05194091796875,-0.9954071044921875,0.2398223876953125
1775751206663403300,4.4814033203125,0.0435791015625,-0.984039306640625,0.239471435546875
1775751206673416400,4.49141650390625,0.0320892333984375,-0.9772186279296875,0.2561798095703125
1775751206683430100,4.50143017578125,0.02764892578125,-0.9715423583984375,0.2729339599609375
1775751206693443300,4.511443359375,0.0391998291015625,-0.9556427001953125,0.284759521484375
1775751206703456500,4.52145654296875,0.0579986572265625,-0.9414520263671875,0.2810821533203125
1775751206713470200,4.53147021484375,0.07220458984375,-0.9428863525390625,0.279754638671875
1775751206723483400,4.5414833984375,0.0850067138671875,-0.936126708984375,0.280609130859375
1775751206733496000,4.55149609375,0.09869384765625,-0.9360809326171875,0.2860870361328125
1775751206743510300,4.56151025390625,0.1009368896484375,-0.94671630859375,0.3052825927734375
1775751206753523500,4.5715234375,0.093048095703125,-0.94268798828125,0.3173675537109375
1775751206763537400,4.581537353515625,0.0935516357421875,-0.9381561279296875,0.317291259765625
1775751206773550300,4.59155029296875,0.116546630859375,-0.9390106201171875,0.3206634521484375
1775751206783563300,4.601563232421875,0.1402435302734375,-0.9391021728515625,0.3169097900390625
1775751206793577200,4.6115771484375,0.1513824462890625,-0.939483642578125,0.3117218017578125
1775751206803590400,4.62159033203125,0.152923583984375,-0.945648193359375,0.3084564208984375
1775751206813603300,4.631603271484375,0.1458282470703125,-0.9542083740234375,0.302459716796875
1775751206823617300,4.6416171875,0.14910888671875,-0.945404052734375,0.2899932861328125
1775751206833630200,4.651630126953125,0.16082763671875,-0.9380950927734375,0.28448486328125
1775751206843643100,4.66164306640625,0.170745849609375,-0.936614990234375,0.2962799072265625
1775751206853657300,4.6716572265625,0.1789093017578125,-0.9335174560546875,0.3112335205078125
1775751206863670300,4.681670166015625,0.1717987060546875,-0.9313812255859375,0.3175201416015625
1775751206873684500,4.6916845703125,0.15716552734375,-0.9274749755859375,0.3167877197265625
1775751206883697200,4.701697265625,0.14459228515625,-0.9241790771484375,0.3234710693359375
1775751206893710300,4.71171044921875,0.14019775390625,-0.9265899658203125,0.3408203125
1775751206903724300,4.721724365234375,0.1482696533203125,-0.9286956787109375,0.351287841796875
1775751206913737200,4.7317373046875,0.1598663330078125,-0.9293975830078125,0.3455810546875
1775751206923750400,4.74175048828125,0.169097900390625,-0.9317474365234375,0.3276214599609375
1775751206933764000,4.75176416015625,0.177947998046875,-0.9335784912109375,0.3189849853515625
1775751206943777300,4.76177734375,0.1790771484375,-0.939697265625,0.3094482421875
1775751206953791500,4.77179150390625,0.1749420166015625,-0.9337921142578125,0.3045654296875
1775751206963804200,4.78180419921875,0.17083740234375,-0.930084228515625,0.305450439453125
1775751206973817300,4.7918173828125,0.1656341552734375,-0.929107666015625,0.3013763427734375
1775751206983831300,4.801831298828125,0.1591949462890625,-0.927337646484375,0.300994873046875
1775751206993844200,4.81184423828125,0.1580657958984375,-0.9243621826171875,0.3173065185546875
1775751207003857400,4.821857421875,0.161529541015625,-0.9149169921875,0.3363189697265625
1775751207013871000,4.83187109375,0.15625,-0.9057769775390625,0.3499908447265625
1775751207023884300,4.84188427734375,0.145355224609375,-0.902374267578125,0.359161376953125
1775751207033898200,4.851898193359375,0.1500091552734375,-0.9004058837890625,0.363861083984375
1775751207043911200,4.8619111328125,0.17510986328125,-0.9029388427734375,0.3724517822265625
1775751207053924400,4.87192431640625,0.19647216796875,-0.905364990234375,0.3670501708984375
1775751207063938300,4.881938232421875,0.2128143310546875,-0.9013824462890625,0.3543701171875
1775751207073951200,4.891951171875,0.222869873046875,-0.8995208740234375,0.350616455078125
1775751207083964400,4.90196435546875,0.221649169921875,-0.900634765625,0.3571014404296875
1775751207093978400,4.911978271484375,0.203887939453125,-0.90020751953125,0.35589599609375
1775751207103991300,4.9219912109375,0.1823272705078125,-0.8974761962890625,0.3540496826171875
1775751207114005200,4.932005126953125,0.1621551513671875,-0.90240478515625,0.346832275390625
1775751207124018200,4.94201806640625,0.148895263671875,-0.9050445556640625,0.333587646484375
1775751207134031400,4.95203125,0.1539459228515625,-0.9041748046875,0.3293304443359375
1775751207144045300,4.96204541015625,0.1683807373046875,-0.9113616943359375,0.329742431640625
1775751207154058200,4.972058349609375,0.1862945556640625,-0.920379638671875,0.337677001953125
1775751207164071400,4.982071533203125,0.194305419921875,-0.92376708984375,0.34423828125
1775751207174085400,4.99208544921875,0.1926422119140625,-0.9267120361328125,0.3500518798828125
1775751207184098300,5.002098388671875,0.1812591552734375,-0.9297637939453125,0.356781005859375
1775751207194112300,5.0121123046875,0.16510009765625,-0.925262451171875,0.350067138671875
1775751207204125400,5.02212548828125,0.1528167724609375,-0.9160308837890625,0.3314361572265625
1775751207214138400,5.032138427734375,0.1490325927734375,-0.9161376953125,0.3271026611328125
1775751207224152300,5.04215234375,0.1520233154296875,-0.9111785888671875,0.3223724365234375
1775751207234165200,5.052165283203125,0.1580047607421875,-0.914703369140625,0.3220367431640625
1775751207244178200,5.06217822265625,0.1695098876953125,-0.925323486328125,0.3315277099609375
1775751207254192400,5.0721923828125,0.1776275634765625,-0.929901123046875,0.334686279296875
1775751207264205300,5.082205322265625,0.17340087890625,-0.932708740234375,0.3394317626953125
1775751207274219300,5.09221923828125,0.16748046875,-0.93359375,0.3376617431640625
1775751207284232400,5.102232421875,0.154388427734375,-0.92901611328125,0.3218994140625
1775751207294245000,5.1122451171875,0.1423797607421875,-0.9302215576171875,0.3152313232421875
1775751207304259300,5.12225927734375,0.1349639892578125,-0.9351959228515625,0.31390380859375
1775751207314272500,5.1322724609375,0.13287353515625,-0.9419097900390625,0.3121337890625
1775751207324285200,5.14228515625,0.1364593505859375,-0.9490814208984375,0.3138580322265625
1775751207334299400,5.15229931640625,0.15130615234375,-0.9514007568359375,0.31488037109375
1775751207344312000,5.16231201171875,0.1625823974609375,-0.958221435546875,0.309814453125
1775751207354326300,5.172326171875,0.15936279296875,-0.962249755859375,0.312774658203125
1775751207364339500,5.18233935546875,0.15478515625,-0.9651031494140625,0.31494140625
1775751207374352100,5.19235205078125,0.1557769775390625,-0.9777679443359375,0.316253662109375
1775751207384366300,5.202366455078125,0.1487579345703125,-0.9887542724609375,0.3121795654296875
1775751207394379300,5.212379150390625,0.1554107666015625,-0.998870849609375,0.3097991943359375
1775751207404393200,5.222393310546875,0.1798553466796875,-1.0084991455078125,0.3225555419921875
1775751207414406400,5.232406494140625,0.201202392578125,-1.026336669921875,0.350341796875
1775751207424419300,5.24241943359375,0.206787109375,-1.05352783203125,0.3829803466796875
1775751207434433300,5.252433349609375,0.2024993896484375,-1.0794830322265625,0.397796630859375
1775751207444446200,5.2624462890625,0.1922454833984375,-1.123382568359375,0.40484619140625
1775751207454459100,5.272459228515625,0.1741943359375,-1.16424560546875,0.4071502685546875
1775751207464473300,5.282473388671875,0.177032470703125,-1.1971282958984375,0.419036865234375
1775751207474486300,5.292486328125,0.1901397705078125,-1.2397918701171875,0.442840576171875
1775751207484500500,5.30250048828125,0.20843505859375,-1.270263671875,0.458251953125
1775751207494513200,5.31251318359375,0.2192535400390625,-1.288818359375,0.4471588134765625
1775751207504526300,5.3225263671875,0.21881103515625,-1.291717529296875,0.416656494140625
1775751207514540300,5.332540283203125,0.2173309326171875,-1.296234130859375,0.4072723388671875
1775751207524553200,5.34255322265625,0.216644287109375,-1.300750732421875,0.4008026123046875
1775751207534566400,5.35256640625,0.2298126220703125,-1.30145263671875,0.4009552001953125
1775751207544580000,5.362580078125,0.25335693359375,-1.3027496337890625,0.4167327880859375
1775751207554592500,5.372592529296875,0.2953033447265625,-1.2957763671875,0.4259796142578125
1775751207564606700,5.382606689453125,0.3346710205078125,-1.283050537109375,0.446075439453125
1775751207574619600,5.39261962890625,0.3680877685546875,-1.2635650634765625,0.468017578125
1775751207584632600,5.402632568359375,0.391387939453125,-1.2322845458984375,0.4849090576171875
1775751207594646800,5.412646728515625,0.3981475830078125,-1.205322265625,0.495819091796875
1775751207604659500,5.422659423828125,0.40447998046875,-1.1909942626953125,0.5112152099609375
1775751207614673700,5.432673583984375,0.4061431884765625,-1.169158935546875,0.5153656005859375
1775751207624686600,5.4426865234375,0.408721923828125,-1.1394195556640625,0.4720916748046875
1775751207634699500,5.452699462890625,0.3899688720703125,-1.1142578125,0.396820068359375
1775751207644713700,5.462713623046875,0.3554229736328125,-1.0948486328125,0.345794677734375
1775751207654726400,5.472726318359375,0.334075927734375,-1.082489013671875,0.3367767333984375
1775751207664739600,5.482739501953125,0.32427978515625,-1.05810546875,0.33514404296875
1775751207674753800,5.49275390625,0.3198699951171875,-1.0353851318359375,0.35052490234375
1775751207684766500,5.502766357421875,0.325439453125,-1.0087890625,0.380645751953125
1775751207694780700,5.51278076171875,0.3505401611328125,-0.9705047607421875,0.4073638916015625
1775751207704793600,5.522793701171875,0.363861083984375,-0.9463043212890625,0.4425811767578125
1775751207714806500,5.532806640625,0.3673858642578125,-0.933013916015625,0.4837646484375
1775751207724820700,5.54282080078125,0.363922119140625,-0.9136962890625,0.4988861083984375
1775751207734833400,5.55283349609375,0.364532470703125,-0.878082275390625,0.473297119140625
1775751207744846600,5.5628466796875,0.3684539794921875,-0.8453826904296875,0.4169158935546875
1775751207754860500,5.572860595703125,0.3438873291015625,-0.827880859375,0.3688507080078125
1775751207764873500,5.58287353515625,0.333587646484375,-0.787261962890625,0.328765869140625
1775751207774887700,5.5928876953125,0.333099365234375,-0.7486419677734375,0.29815673828125
1775751207784900600,5.602900634765625,0.3190155029296875,-0.7197418212890625,0.3044281005859375
1775751207794913500,5.61291357421875,0.31072998046875,-0.714813232421875,0.3463897705078125
1775751207804927500,5.622927490234375,0.293731689453125,-0.706298828125,0.39556884765625
1775751207814940700,5.632940673828125,0.2636566162109375,-0.7147064208984375,0.4609222412109375
1775751207824954600,5.64295458984375,0.2351531982421875,-0.7219390869140625,0.503936767578125
1775751207834967600,5.652967529296875,0.2423858642578125,-0.7137603759765625,0.5202789306640625
1775751207844980500,5.66298046875,0.2454376220703125,-0.7115325927734375,0.50885009765625
1775751207854994400,5.672994384765625,0.2282257080078125,-0.68817138671875,0.44085693359375
1775751207865007600,5.683007568359375,0.2160797119140625,-0.698883056640625,0.3990936279296875
1775751207875020500,5.6930205078125,0.1911773681640625,-0.6988525390625,0.380218505859375
1775751207885034500,5.703034423828125,0.1737518310546875,-0.68768310546875,0.358551025390625
1775751207895047700,5.713047607421875,0.152587890625,-0.69287109375,0.31719970703125
1775751207905061400,5.723061279296875,0.1516571044921875,-0.684814453125,0.2948760986328125
1775751207915074600,5.733074462890625,0.1600341796875,-0.660308837890625,0.28369140625
1775751207925087700,5.743087646484375,0.17498779296875,-0.6279296875,0.268035888671875
1775751207935101400,5.753101318359375,0.178802490234375,-0.620758056640625,0.3019256591796875
1775751207945114600,5.763114501953125,0.159332275390625,-0.62628173828125,0.36126708984375
1775751207955127600,5.77312744140625,0.149627685546875,-0.600982666015625,0.365814208984375
1775751207965141500,5.7831416015625,0.151641845703125,-0.5553436279296875,0.3466644287109375
1775751207975154700,5.79315478515625,0.1403350830078125,-0.507904052734375,0.2949981689453125
1775751207985168600,5.803168701171875,0.1178436279296875,-0.4674530029296875,0.2100830078125
1775751207995181600,5.813181640625,0.05877685546875,-0.43878173828125,0.10125732421875
1775751208005194800,5.82319482421875,-0.0104827880859375,-0.4241790771484375,-0.01995849609375
1775751208015208400,5.83320849609375,-0.043914794921875,-0.42431640625,-0.07293701171875
1775751208025221600,5.8432216796875,-0.0428466796875,-0.4352874755859375,-0.07574462890625
1775751208035235600,5.853235595703125,-0.02825927734375,-0.4476470947265625,-0.087188720703125
1775751208045248500,5.86324853515625,-0.00238037109375,-0.444793701171875,-0.082916259765625
1775751208055261700,5.87326171875,0.016937255859375,-0.446624755859375,-0.07574462890625
1775751208065275600,5.883275634765625,0.0369873046875,-0.4437255859375,-0.0718994140625
1775751208075288600,5.89328857421875,0.064453125,-0.4474029541015625,-0.0738525390625
1775751208085301800,5.9033017578125,0.093536376953125,-0.456085205078125,-0.06927490234375
1775751208095315700,5.913315673828125,0.115386962890625,-0.458099365234375,-0.0472259521484375
1775751208105328600,5.92332861328125,0.1536102294921875,-0.46710205078125,-0.022430419921875
1775751208115342600,5.933342529296875,0.1822509765625,-0.47552490234375,0.0198822021484375
1775751208125355500,5.94335546875,0.1917877197265625,-0.4966278076171875,0.0643463134765625
1775751208135368700,5.95336865234375,0.188995361328125,-0.5272216796875,0.0977630615234375
1775751208145382700,5.963382568359375,0.1676177978515625,-0.564666748046875,0.1354827880859375
1775751208155395600,5.9733955078125,0.1121826171875,-0.6190643310546875,0.1972808837890625
1775751208165408500,5.983408447265625,0.0445404052734375,-0.672332763671875,0.256195068359375
1775751208175422700,5.993422607421875,0.0063018798828125,-0.721221923828125,0.280548095703125
1775751208185435600,6.003435546875,0.00433349609375,-0.763702392578125,0.2748260498046875
1775751208195449600,6.01344970703125,0.0329132080078125,-0.7978057861328125,0.275390625
1775751208205462800,6.023462890625,0.0767669677734375,-0.817413330078125,0.27252197265625
1775751208215475500,6.033475341796875,0.13262939453125,-0.8388519287109375,0.254302978515625
1775751208225489700,6.04348974609375,0.1821746826171875,-0.870880126953125,0.24005126953125
1775751208235502600,6.053502685546875,0.2051239013671875,-0.9028167724609375,0.2545623779296875
1775751208245515500,6.063515625,0.222808837890625,-0.94537353515625,0.3143768310546875
1775751208255529700,6.07352978515625,0.2155914306640625,-0.99774169921875,0.4034576416015625
1775751208265542400,6.08354248046875,0.1691131591796875,-1.04107666015625,0.47418212890625
1775751208275556600,6.093556640625,0.1537017822265625,-1.0565948486328125,0.48150634765625
1775751208285569800,6.10356982421875,0.1473846435546875,-1.058074951171875,0.459503173828125
1775751208295582500,6.11358251953125,0.1557464599609375,-1.0507659912109375,0.4090728759765625
1775751208305596700,6.1235966796875,0.2052154541015625,-1.0284271240234375,0.349365234375
1775751208315609600,6.133609619140625,0.2701416015625,-0.9994659423828125,0.300201416015625
1775751208325623600,6.14362353515625,0.3119964599609375,-0.973968505859375,0.2615966796875
1775751208335636700,6.15363671875,0.341339111328125,-0.992919921875,0.270721435546875
1775751208345649400,6.1636494140625,0.34075927734375,-1.0343475341796875,0.2906951904296875
1775751208355663600,6.17366357421875,0.3283538818359375,-1.0288848876953125,0.2796173095703125
1775751208365676500,6.183676513671875,0.313934326171875,-1.01727294921875,0.283599853515625
1775751208375690800,6.193690673828125,0.300750732421875,-1.009246826171875,0.285186767578125
1775751208385703700,6.20370361328125,0.2898712158203125,-0.98455810546875,0.2895355224609375
1775751208395716600,6.213716552734375,0.27880859375,-1.0023345947265625,0.3015594482421875
1775751208405730600,6.22373046875,0.287689208984375,-1.0369110107421875,0.2796478271484375
1775751208415743500,6.233743408203125,0.3236541748046875,-1.021270751953125,0.24847412109375
1775751208425756700,6.243756591796875,0.36328125,-1.0084228515625,0.2566070556640625
1775751208435770600,6.2537705078125,0.378509521484375,-1.014434814453125,0.2702178955078125
1775751208445783600,6.263783447265625,0.4202880859375,-1.0043792724609375,0.2696990966796875
1775751208455797800,6.2737978515625,0.456756591796875,-0.9908599853515625,0.2831573486328125
1775751208465810400,6.283810546875,0.45660400390625,-0.9962921142578125,0.3132781982421875
1775751208475823600,6.29382373046875,0.4183807373046875,-1.0251007080078125,0.3527984619140625
1775751208485837800,6.303837890625,0.3662872314453125,-1.01629638671875,0.3694305419921875
1775751208495850500,6.3138505859375,0.3109130859375,-1.00531005859375,0.3640899658203125
1775751208505863700,6.32386376953125,0.260101318359375,-0.987548828125,0.347198486328125
1775751208515877400,6.33387744140625,0.2380828857421875,-0.95269775390625,0.3156585693359375
1775751208525890600,6.343890625,0.24700927734375,-0.944854736328125,0.30194091796875
1775751208535904800,6.35390478515625,0.2566070556640625,-0.9425048828125,0.298065185546875
1775751208545917400,6.36391748046875,0.2626800537109375,-0.9993743896484375,0.32489013671875
1775751208555931600,6.373931640625,0.2471771240234375,-1.0402374267578125,0.335968017578125
1775751208565945300,6.3839453125,0.2636871337890625,-1.0046539306640625,0.31787109375
1775751208575958500,6.39395849609375,0.289276123046875,-1.0048370361328125,0.3054351806640625
1775751208585972500,6.403972412109375,0.3027496337890625,-0.999908447265625,0.3154449462890625
1775751208595985400,6.4139853515625,0.3157501220703125,-0.9489898681640625,0.3204498291015625
1775751208605998600,6.42399853515625,0.33001708984375,-0.9034881591796875,0.309478759765625
1775751208616012500,6.434012451171875,0.3365325927734375,-0.874298095703125,0.2980499267578125
1775751208626025500,6.444025390625,0.3402099609375,-0.879486083984375,0.3083648681640625
1775751208636039400,6.454039306640625,0.3338623046875,-0.887359619140625,0.3201751708984375
1775751208646052400,6.46405224609375,0.3282623291015625,-0.8995208740234375,0.3322906494140625
1775751208656065500,6.4740654296875,0.3313446044921875,-0.9548797607421875,0.3405303955078125
1775751208666079500,6.48407958984375,0.3461761474609375,-0.9575042724609375,0.30133056640625
1775751208676092400,6.494092529296875,0.353363037109375,-0.96417236328125,0.282867431640625
1775751208686105600,6.504105712890625,0.3456268310546875,-0.958770751953125,0.2618408203125
1775751208696119600,6.51411962890625,0.3498382568359375,-0.91632080078125,0.243194580078125
1775751208706132500,6.524132568359375,0.3692474365234375,-0.8890228271484375,0.2350311279296875
1775751208716146400,6.534146484375,0.37646484375,-0.9051361083984375,0.2553863525390625
1775751208726159600,6.54415966796875,0.3606414794921875,-0.929046630859375,0.2780914306640625
1775751208736172500,6.554172607421875,0.356781005859375,-0.9242706298828125,0.278167724609375
1775751208746186500,6.5641865234375,0.352325439453125,-0.932098388671875,0.2701263427734375
1775751208756199400,6.574199462890625,0.351043701171875,-0.8967437744140625,0.2507171630859375
1775751208766213400,6.58421337890625,0.363525390625,-0.8631591796875,0.2457122802734375
1775751208776226600,6.5942265625,0.3691253662109375,-0.8624267578125,0.2611541748046875
1775751208786239500,6.604239501953125,0.3718414306640625,-0.862701416015625,0.2823944091796875
1775751208796253400,6.61425341796875,0.36474609375,-0.8938140869140625,0.310699462890625
1775751208806266600,6.6242666015625,0.349212646484375,-0.9035491943359375,0.2964630126953125
1775751208816280300,6.6342802734375,0.349822998046875,-0.913299560546875,0.3038330078125
1775751208826293500,6.64429345703125,0.332733154296875,-0.93792724609375,0.3464508056640625
1775751208836306700,6.654306640625,0.324798583984375,-0.9410552978515625,0.389129638671875
1775751208846320400,6.6643203125,0.3035736083984375,-0.968902587890625,0.442962646484375
1775751208856333600,6.67433349609375,0.2603607177734375,-1.009368896484375,0.4903717041015625
1775751208866346200,6.68434619140625,0.2210540771484375,-1.053680419921875,0.5169677734375
1775751208876360400,6.6943603515625,0.18310546875,-1.0974273681640625,0.52197265625
1775751208886373600,6.70437353515625,0.1524658203125,-1.1267852783203125,0.50628662109375
1775751208896387600,6.7143876953125,0.142608642578125,-1.147918701171875,0.4804534912109375
1775751208906400500,6.724400390625,0.136688232421875,-1.1563568115234375,0.4338836669921875
1775751208916413400,6.734413330078125,0.1289520263671875,-1.147918701171875,0.383270263671875
1775751208926427400,6.744427490234375,0.11322021484375,-1.1450042724609375,0.3663177490234375
1775751208936440600,6.754440673828125,0.108978271484375,-1.14996337890625,0.36944580078125
1775751208946454500,6.76445458984375,0.101715087890625,-1.1356201171875,0.3741302490234375
1775751208956467500,6.774467529296875,0.0980987548828125,-1.128173828125,0.375518798828125
1775751208966480400,6.78448046875,0.0952301025390625,-1.1121063232421875,0.36407470703125
1775751208976494600,6.79449462890625,0.094879150390625,-1.0713348388671875,0.338623046875
1775751208986507500,6.804507568359375,0.101226806640625,-1.0364227294921875,0.3083038330078125
1775751208996520400,6.8145205078125,0.10406494140625,-1.014739990234375,0.275787353515625
1775751209006534700,6.82453466796875,0.10821533203125,-0.983795166015625,0.2446136474609375
1775751209016547300,6.83454736328125,0.112060546875,-0.966552734375,0.2231903076171875
1775751209026561500,6.8445615234375,0.1114654541015625,-0.9512939453125,0.20819091796875
1775751209036574500,6.854574462890625,0.1068878173828125,-0.9248504638671875,0.206817626953125
1775751209046587400,6.86458740234375,0.1005096435546875,-0.8961029052734375,0.2083282470703125
1775751209056601600,6.8746015625,0.10137939453125,-0.857696533203125,0.2027435302734375
1775751209066614300,6.8846142578125,0.107879638671875,-0.8482818603515625,0.2122802734375
1775751209076628500,6.89462841796875,0.116424560546875,-0.864105224609375,0.225250244140625
1775751209086641700,6.9046416015625,0.130859375,-0.8665771484375,0.2238311767578125
1775751209096654300,6.914654296875,0.15777587890625,-0.8708343505859375,0.2120819091796875
1775751209106668500,6.92466845703125,0.173431396484375,-0.886871337890625,0.2003326416015625
1775751209116681500,6.934681396484375,0.1856842041015625,-0.8814849853515625,0.1837005615234375
1775751209126695400,6.9446953125,0.2119598388671875,-0.8793792724609375,0.1661376953125
1775751209136708600,6.95470849609375,0.230743408203125,-0.892333984375,0.158477783203125
1775751209146721300,6.96472119140625,0.2381744384765625,-0.914642333984375,0.169403076171875
1775751209156735500,6.974735595703125,0.241302490234375,-0.9376983642578125,0.176055908203125
1775751209166748400,6.98474853515625,0.2364654541015625,-0.9427337646484375,0.17742919921875
1775751209176761300,6.99476123046875,0.22796630859375,-0.965087890625,0.199554443359375
1775751209186775600,7.004775634765625,0.225738525390625,-0.9727935791015625,0.217864990234375
1775751209196788500,7.01478857421875,0.2173004150390625,-0.981689453125,0.232208251953125
1775751209206802400,7.024802490234375,0.1994781494140625,-0.9990692138671875,0.2410430908203125
1775751209216815400,7.0348154296875,0.1845245361328125,-0.999267578125,0.24127197265625
1775751209226828500,7.04482861328125,0.1674652099609375,-1.0055084228515625,0.2426300048828125
1775751209236842500,7.054842529296875,0.153076171875,-1.00262451171875,0.23516845703125
1775751209246855400,7.06485546875,0.1548004150390625,-0.992645263671875,0.208740234375
1775751209256869600,7.07486962890625,0.146728515625,-0.9917144775390625,0.196624755859375
1775751209266882300,7.08488232421875,0.1438446044921875,-0.9998626708984375,0.2103271484375
1775751209276895500,7.0948955078125,0.137481689453125,-0.9957122802734375,0.2207183837890625
1775751209286909700,7.10490966796875,0.136322021484375,-1.0016021728515625,0.227783203125
1775751209296922400,7.11492236328125,0.1281890869140625,-1.00726318359375,0.229034423828125
1775751209306936600,7.1249365234375,0.1311187744140625,-0.9934844970703125,0.221649169921875
1775751209316949200,7.13494921875,0.1342315673828125,-0.9835052490234375,0.22711181640625
1775751209326962400,7.14496240234375,0.1328277587890625,-0.9717864990234375,0.243438720703125
1775751209336976600,7.1549765625,0.121124267578125,-0.9656982421875,0.2598876953125
1775751209346989300,7.1649892578125,0.106048583984375,-0.9527740478515625,0.2559356689453125
1775751209357003500,7.17500341796875,0.098968505859375,-0.94268798828125,0.2410736083984375
1775751209367016400,7.185016357421875,0.0963592529296875,-0.942962646484375,0.2303466796875
1775751209377029400,7.195029296875,0.102142333984375,-0.9362030029296875,0.211578369140625
1775751209387043600,7.205043701171875,0.1227264404296875,-0.9165496826171875,0.1985931396484375
1775751209397056500,7.215056396484375,0.1382904052734375,-0.9189910888671875,0.2180938720703125
1775751209407069400,7.2250693359375,0.1459503173828125,-0.9294586181640625,0.238616943359375
1775751209417083400,7.23508349609375,0.1479644775390625,-0.94464111328125,0.250579833984375
1775751209427096300,7.245096435546875,0.143646240234375,-0.946441650390625,0.24493408203125
1775751209437110500,7.255110595703125,0.1360321044921875,-0.9539794921875,0.233154296875
1775751209447123500,7.26512353515625,0.1419830322265625,-0.96502685546875,0.218353271484375
1775751209457136400,7.275136474609375,0.1683349609375,-0.9523162841796875,0.203277587890625
1775751209467150300,7.285150390625,0.188995361328125,-0.956939697265625,0.20123291015625
1775751209477163500,7.29516357421875,0.19580078125,-0.969207763671875,0.2047882080078125
1775751209487177500,7.305177490234375,0.2087554931640625,-0.9740753173828125,0.21142578125
1775751209497190400,7.3151904296875,0.21307373046875,-0.9948272705078125,0.234527587890625
1775751209507203600,7.32520361328125,0.2063751220703125,-1.0028839111328125,0.2543792724609375
1775751209517217300,7.33521728515625,0.2037811279296875,-1.01495361328125,0.2730712890625
1775751209527230500,7.34523046875,0.1923675537109375,-1.0400848388671875,0.2916717529296875
1775751209537244700,7.35524462890625,0.181732177734375,-1.05487060546875,0.2985687255859375
1775751209547257300,7.36525732421875,0.1742401123046875,-1.0721282958984375,0.2928619384765625
1775751209557270800,7.375270751953125,0.1738128662109375,-1.08917236328125,0.2773284912109375
1775751209567284500,7.385284423828125,0.1758270263671875,-1.1195831298828125,0.2820587158203125
1775751209577297700,7.395297607421875,0.1713714599609375,-1.166229248046875,0.3042144775390625
1775751209587311900,7.405311767578125,0.1715850830078125,-1.213165283203125,0.3256378173828125
1775751209597324500,7.415324462890625,0.1716766357421875,-1.273529052734375,0.3542633056640625
1775751209607337700,7.425337646484375,0.1646575927734375,-1.3372802734375,0.38629150390625
1775751209617351700,7.4353515625,0.1595916748046875,-1.3878326416015625,0.4066619873046875
1775751209627364600,7.445364501953125,0.1564483642578125,-1.411407470703125,0.405914306640625
1775751209637378800,7.45537890625,0.1483154296875,-1.4179840087890625,0.3968505859375
1775751209647391700,7.465391845703125,0.146453857421875,-1.40374755859375,0.3924407958984375
1775751209657404700,7.47540478515625,0.153839111328125,-1.3832550048828125,0.41925048828125
1775751209667418600,7.485418701171875,0.17724609375,-1.3703460693359375,0.4711151123046875
1775751209677431600,7.495431640625,0.1983795166015625,-1.33123779296875,0.5068206787109375
1775751209687445800,7.50544580078125,0.221588134765625,-1.2818756103515625,0.519775390625
1775751209697458700,7.515458740234375,0.2461395263671875,-1.2398529052734375,0.507843017578125
1775751209707471600,7.5254716796875,0.2752227783203125,-1.1817474365234375,0.452392578125
1775751209717485600,7.535485595703125,0.3187255859375,-1.1231536865234375,0.379852294921875
1775751209727498800,7.545498779296875,0.3551788330078125,-1.0855865478515625,0.3422088623046875
1775751209737511700,7.55551171875,0.3803558349609375,-1.0460968017578125,0.326629638671875
1775751209747525600,7.565525634765625,0.3874969482421875,-1.01904296875,0.3202972412109375
1775751209757538800,7.575538818359375,0.36895751953125,-1.0113983154296875,0.3240966796875
1775751209767552500,7.585552490234375,0.332794189453125,-0.9951934814453125,0.34149169921875
1775751209777565700,7.595565673828125,0.3176727294921875,-0.9792938232421875,0.3733978271484375
1775751209787578600,7.60557861328125,0.3282928466796875,-0.9518280029296875,0.4058837890625
1775751209797592600,7.615592529296875,0.3341217041015625,-0.9305267333984375,0.443450927734375
1775751209807605800,7.625605712890625,0.3409271240234375,-0.9156951904296875,0.4759979248046875
1775751209817619500,7.635619384765625,0.3385467529296875,-0.9058837890625,0.488494873046875
1775751209827632600,7.645632568359375,0.3199462890625,-0.90106201171875,0.4741668701171875
1775751209837645800,7.655645751953125,0.3168792724609375,-0.89111328125,0.4206390380859375
1775751209847659500,7.665659423828125,0.32733154296875,-0.8645172119140625,0.342132568359375
1775751209857672700,7.675672607421875,0.3368072509765625,-0.8382415771484375,0.2863311767578125
1775751209867686700,7.685686767578125,0.3500213623046875,-0.834808349609375,0.245147705078125
1775751209877699600,7.695699462890625,0.343536376953125,-0.819244384765625,0.2474822998046875
1775751209887712800,7.705712646484375,0.3182373046875,-0.7950286865234375,0.3004302978515625
1775751209897726700,7.715726806640625,0.28173828125,-0.78668212890625,0.3686981201171875
1775751209907739600,7.72573974609375,0.251007080078125,-0.8039093017578125,0.4466552734375
1775751209917753600,7.735753662109375,0.2252349853515625,-0.8171539306640625,0.4928741455078125
1775751209927766500,7.7457666015625,0.1966400146484375,-0.804046630859375,0.5024871826171875
1775751209937779700,7.75577978515625,0.183441162109375,-0.7967376708984375,0.499969482421875
1775751209947793700,7.765793701171875,0.1951904296875,-0.7857513427734375,0.4929962158203125
1775751209957806600,7.775806640625,0.200592041015625,-0.7628631591796875,0.427520751953125
1775751209967819800,7.78581982421875,0.222503662109375,-0.748687744140625,0.2836151123046875
1775751209977833700,7.795833740234375,0.244842529296875,-0.7531890869140625,0.1957550048828125
1775751209987846700,7.8058466796875,0.2470245361328125,-0.7396087646484375,0.1872100830078125
1775751209997860600,7.815860595703125,0.2436981201171875,-0.75,0.228179931640625
1775751210007873800,7.825873779296875,0.241943359375,-0.76678466796875,0.2977447509765625
1775751210017886700,7.83588671875,0.2519683837890625,-0.7764434814453125,0.3531494140625
1775751210027900700,7.845900634765625,0.27288818359375,-0.7975921630859375,0.397613525390625
1775751210037913600,7.85591357421875,0.303314208984375,-0.809173583984375,0.4184112548828125
1775751210047927600,7.865927490234375,0.322906494140625,-0.80126953125,0.4217681884765625
1775751210057940700,7.875940673828125,0.3262786865234375,-0.805572509765625,0.420440673828125
1775751210067953700,7.88595361328125,0.323822021484375,-0.79315185546875,0.3607330322265625
1775751210077967600,7.895967529296875,0.32391357421875,-0.774200439453125,0.2964630126953125
1775751210087980800,7.905980712890625,0.305816650390625,-0.7918243408203125,0.240814208984375
1775751210097994500,7.915994384765625,0.3119049072265625,-0.808746337890625,0.2225494384765625
1775751210108007700,7.926007568359375,0.350494384765625,-0.81195068359375,0.2566680908203125
1775751210118020900,7.936020751953125,0.3764495849609375,-0.80780029296875,0.3073577880859375
1775751210128034600,7.94603466796875,0.3994140625,-0.7904815673828125,0.3649749755859375
1775751210138047700,7.9560478515625,0.398529052734375,-0.7724151611328125,0.429290771484375
1775751210148061700,7.966061767578125,0.3505706787109375,-0.743743896484375,0.4548492431640625
1775751210158074600,7.97607470703125,0.3164520263671875,-0.701812744140625,0.4415740966796875
1775751210168087800,7.986087890625,0.3225555419921875,-0.6727142333984375,0.45623779296875
1775751210178101800,7.996101806640625,0.3115386962890625,-0.624725341796875,0.4676971435546875
1775751210188114700,8.00611474609375,0.3234100341796875,-0.573577880859375,0.4192657470703125
1775751210198128600,8.016128662109375,0.3394012451171875,-0.5483245849609375,0.3720703125
1775751210208141600,8.0261416015625,0.3295440673828125,-0.519683837890625,0.3361053466796875
1775751210218154800,8.03615478515625,0.3065185546875,-0.5128326416015625,0.2981719970703125
1775751210228168700,8.046168701171876,0.278564453125,-0.518402099609375,0.242919921875
1775751210238181600,8.056181640625,0.2584686279296875,-0.499603271484375,0.18389892578125
1775751210248195600,8.066195556640626,0.2051239013671875,-0.481414794921875,0.12237548828125
1775751210258208800,8.076208740234375,0.1329803466796875,-0.476837158203125,0.067657470703125
1775751210268221700,8.0862216796875,0.0618896484375,-0.485443115234375,0.01422119140625
1775751210278235600,8.096235595703124,0.0062255859375,-0.488311767578125,-0.043182373046875
1775751210288248800,8.106248779296875,-0.0224456787109375,-0.481597900390625,-0.0941009521484375
1775751210298261800,8.11626171875,-0.015167236328125,-0.473602294921875,-0.10540771484375
1775751210308275700,8.126275634765625,0.0184783935546875,-0.4806365966796875,-0.0784454345703125
1775751210318288600,8.13628857421875,0.0700225830078125,-0.49346923828125,-0.050445556640625
1775751210328302600,8.146302490234374,0.095367431640625,-0.5004119873046875,-0.014373779296875
1775751210338315800,8.156315673828125,0.085968017578125,-0.4975128173828125,0.0074615478515625
1775751210348328700,8.16632861328125,0.0880889892578125,-0.5030364990234375,0.024932861328125
1775751210358342700,8.1763427734375,0.086456298828125,-0.5199127197265625,0.064849853515625
1775751210368355800,8.18635595703125,0.0854644775390625,-0.54852294921875,0.1219024658203125
1775751210378369500,8.19636962890625,0.0914764404296875,-0.5657958984375,0.1841583251953125
1775751210388382700,8.2063828125,0.1084442138671875,-0.5888214111328125,0.2180938720703125
1775751210398396000,8.21639599609375,0.129486083984375,-0.6178436279296875,0.20458984375
1775751210408409600,8.22640966796875,0.1590576171875,-0.6274566650390625,0.168701171875
1775751210418422800,8.2364228515625,0.217926025390625,-0.6570281982421875,0.143829345703125
1775751210428436700,8.246436767578125,0.2908477783203125,-0.688812255859375,0.1396636962890625
1775751210438449700,8.25644970703125,0.331390380859375,-0.7071380615234375,0.1682281494140625
1775751210448462800,8.266462890625,0.333984375,-0.7306976318359375,0.219024658203125
1775751210458476800,8.276476806640625,0.3137969970703125,-0.720855712890625,0.2231597900390625
1775751210468489700,8.28648974609375,0.2910614013671875,-0.7176055908203125,0.252227783203125
1775751210478503700,8.296503662109375,0.255279541015625,-0.7800445556640625,0.3308563232421875
1775751210488516600,8.3065166015625,0.1954803466796875,-0.8275604248046875,0.384307861328125
1775751210498529800,8.31652978515625,0.16485595703125,-0.8602447509765625,0.446380615234375
1775751210508543700,8.326543701171875,0.14324951171875,-0.9052276611328125,0.5163421630859375
1775751210518556700,8.336556640625,0.1552581787109375,-0.9068603515625,0.5246124267578125
1775751210528570600,8.346570556640625,0.224029541015625,-0.8893280029296875,0.500457763671875
1775751210538583800,8.356583740234376,0.3425750732421875,-0.8917694091796875,0.490142822265625
1775751210548596700,8.3665966796875,0.447052001953125,-0.9340057373046875,0.4991912841796875
1775751210558610200,8.376610107421875,0.5009765625,-0.959075927734375,0.49212646484375
1775751210568623400,8.386623291015624,0.5290985107421875,-0.9532012939453125,0.4995574951171875
1775751210578637300,8.39663720703125,0.52801513671875,-0.958953857421875,0.517547607421875
1775751210588650200,8.406650146484376,0.502105712890625,-0.942108154296875,0.5063323974609375
1775751210598663400,8.416663330078125,0.4654083251953125,-0.921112060546875,0.4892730712890625
1775751210608677400,8.426677490234376,0.4157257080078125,-0.916473388671875,0.4764862060546875
1775751210618690300,8.436690185546874,0.38568115234375,-0.9068603515625,0.468902587890625
1775751210628703200,8.446703125,0.362945556640625,-0.9254608154296875,0.4820404052734375
1775751210638717400,8.456717529296874,0.3476409912109375,-0.9393463134765625,0.4661712646484375
1775751210648730400,8.46673046875,0.346221923828125,-0.9371185302734375,0.42205810546875
1775751210658744300,8.476744384765626,0.3467559814453125,-0.953948974609375,0.3751373291015625
1775751210668757200,8.48675732421875,0.3538055419921875,-0.9536895751953125,0.3132781982421875
1775751210678770200,8.496770263671875,0.3488922119140625,-0.9438629150390625,0.2771759033203125
1775751210688784400,8.506784423828124,0.328582763671875,-0.947113037109375,0.2777862548828125
1775751210698797300,8.51679736328125,0.3332672119140625,-0.951446533203125,0.2841033935546875
1775751210708811300,8.526811279296876,0.3215484619140625,-0.978302001953125,0.305908203125
1775751210718824400,8.536824462890625,0.292572021484375,-1.00433349609375,0.332305908203125
1775751210728837400,8.54683740234375,0.2816925048828125,-1.020172119140625,0.342041015625
1775751210738851300,8.556851318359374,0.2797393798828125,-1.033233642578125,0.3619537353515625
1775751210748864500,8.566864501953125,0.2909088134765625,-1.021636962890625,0.3864898681640625
1775751210758878200,8.576878173828124,0.29705810546875,-1.018890380859375,0.382293701171875
1775751210768891400,8.586891357421875,0.3065948486328125,-0.9951019287109375,0.3367462158203125
1775751210778904300,8.596904296875,0.31817626953125,-0.958953857421875,0.2783203125
1775751210788918300,8.606918212890625,0.3245697021484375,-0.943572998046875,0.23883056640625
1775751210798931500,8.616931396484375,0.32244873046875,-0.9620361328125,0.238677978515625
1775751210808945400,8.6269453125,0.318511962890625,-1.0174560546875,0.268341064453125
1775751210818958300,8.636958251953125,0.3231201171875,-1.0148162841796875,0.2859039306640625
1775751210828971300,8.64697119140625,0.33673095703125,-0.9946441650390625,0.2984771728515625
1775751210838985200,8.656985107421875,0.3249664306640625,-0.9981231689453125,0.300018310546875
1775751210848998400,8.666998291015625,0.31451416015625,-0.9738006591796875,0.281005859375
1775751210859012400,8.677012451171874,0.3325042724609375,-0.93084716796875,0.2711029052734375
1775751210869025300,8.687025390625,0.3535919189453125,-0.9001617431640625,0.264190673828125
1775751210879038200,8.6970380859375,0.38372802734375,-0.8888702392578125,0.2771759033203125
1775751210889052400,8.707052490234375,0.4205169677734375,-0.8878173828125,0.2769012451171875
1775751210899065300,8.7170654296875,0.4615478515625,-0.8689422607421875,0.2509307861328125
1775751210909079300,8.727079345703125,0.486297607421875,-0.8805084228515625,0.2446136474609375
1775751210919092500,8.737092529296875,0.4808807373046875,-0.8698577880859375,0.2462310791015625
1775751210929105400,8.74710546875,0.477142333984375,-0.842132568359375,0.2655181884765625
1775751210939119400,8.757119384765625,0.474151611328125,-0.832763671875,0.2875518798828125
1775751210949132300,8.76713232421875,0.4775543212890625,-0.8158721923828125,0.2971954345703125
1775751210959146200,8.777146240234375,0.463775634765625,-0.8367462158203125,0.3284149169921875
1775751210969159400,8.787159423828125,0.4402313232421875,-0.85076904296875,0.3632354736328125
1775751210979172400,8.79717236328125,0.4431915283203125,-0.8672332763671875,0.400726318359375
1775751210989186300,8.807186279296875,0.4212188720703125,-0.90264892578125,0.421112060546875
1775751210999199500,8.817199462890626,0.4188995361328125,-0.9208831787109375,0.408599853515625
1775751211009213200,8.827213134765625,0.426239013671875,-0.9643402099609375,0.3957977294921875
1775751211019226400,8.837226318359376,0.419830322265625,-1.0126190185546875,0.3766326904296875
1775751211029239300,8.8472392578125,0.402313232421875,-1.0323028564453125,0.366058349609375
1775751211039253200,8.857253173828125,0.380889892578125,-1.0633392333984375,0.3808441162109375
1775751211049266400,8.867266357421874,0.360382080078125,-1.0979766845703125,0.4179840087890625
1775751211059280400,8.8772802734375,0.342041015625,-1.1194000244140625,0.46368408203125
1775751211069293300,8.887293212890626,0.32781982421875,-1.140960693359375,0.512847900390625
1775751211079306200,8.89730615234375,0.3008270263671875,-1.1635894775390625,0.550445556640625
1775751211089320400,8.907320556640625,0.274810791015625,-1.1848602294921875,0.5654296875
1775751211099333400,8.91733349609375,0.2515716552734375,-1.1976776123046875,0.5541534423828125
1775751211109347300,8.927347412109375,0.222869873046875,-1.18511962890625,0.5285186767578125
1775751211119360300,8.9373603515625,0.199554443359375,-1.175323486328125,0.5040740966796875
1775751211129373200,8.947373291015625,0.1789093017578125,-1.1521759033203125,0.4439849853515625
1775751211139387400,8.957387451171876,0.1668548583984375,-1.1286468505859375,0.3764801025390625
1775751211149400300,8.967400390625,0.1496734619140625,-1.1042327880859375,0.336578369140625
1775751211159414300,8.977414306640625,0.138641357421875,-1.0732879638671875,0.3199920654296875
1775751211169427500,8.987427490234374,0.13787841796875,-1.0480194091796875,0.3192596435546875
1775751211179440400,8.9974404296875,0.1375579833984375,-1.0133056640625,0.31451416015625
1775751211189454300,9.007454345703126,0.148223876953125,-0.9772796630859375,0.308349609375
1775751211199467500,9.017467529296875,0.1609649658203125,-0.961029052734375,0.3200225830078125
1775751211209480200,9.027480224609375,0.1641845703125,-0.9358367919921875,0.3209686279296875
1775751211219494400,9.037494384765624,0.1733551025390625,-0.8961181640625,0.287872314453125
1775751211229507300,9.04750732421875,0.2022857666015625,-0.8710174560546875,0.2366790771484375
1775751211239521300,9.057521240234376,0.217254638671875,-0.8567962646484375,0.204071044921875
1775751211249534500,9.067534423828125,0.21405029296875,-0.8463592529296875,0.2140045166015625
1775751211259547100,9.077547119140625,0.208770751953125,-0.845794677734375,0.2394561767578125
1775751211269561300,9.087561279296875,0.2203826904296875,-0.8379058837890625,0.2530364990234375
1775751211279574300,9.09757421875,0.227813720703125,-0.8346099853515625,0.26800537109375
1775751211289588200,9.107588134765624,0.2215423583984375,-0.84906005859375,0.2922515869140625
1775751211299601400,9.117601318359375,0.2078857421875,-0.8572540283203125,0.30096435546875
1775751211309614300,9.1276142578125,0.19500732421875,-0.849609375,0.283721923828125
1775751211319628300,9.137628173828125,0.200592041015625,-0.85687255859375,0.2616119384765625
1775751211329641200,9.14764111328125,0.2003326416015625,-0.8643951416015625,0.2647857666015625
1775751211339655400,9.157655517578124,0.1973724365234375,-0.879119873046875,0.287750244140625
1775751211349668400,9.16766845703125,0.18084716796875,-0.8895111083984375,0.301055908203125
1775751211359681300,9.177681396484376,0.1698455810546875,-0.8919830322265625,0.2929534912109375
1775751211369695200,9.1876953125,0.173583984375,-0.911224365234375,0.29248046875
1775751211379708400,9.19770849609375,0.18402099609375,-0.9190521240234375,0.2922515869140625
1775751211389722400,9.207722412109375,0.1968231201171875,-0.936248779296875,0.3007965087890625
1775751211399735300,9.2177353515625,0.20758056640625,-0.9466094970703125,0.29290771484375
1775751211409748200,9.227748291015626,0.235992431640625,-0.942626953125,0.2812042236328125
1775751211419762400,9.237762451171875,0.2455291748046875,-0.954803466796875,0.2808837890625
1775751211429775400,9.247775390625,0.2457427978515625,-0.9560394287109375,0.282806396484375
1775751211439789300,9.257789306640625,0.251983642578125,-0.9589996337890625,0.28564453125
1775751211449802500,9.267802490234375,0.244171142578125,-0.9740753173828125,0.286773681640625
1775751211459815200,9.277815185546874,0.220458984375,-0.986083984375,0.278289794921875
1775751211469829400,9.287829345703125,0.2105560302734375,-0.98944091796875,0.264678955078125
1775751211479842300,9.29784228515625,0.203704833984375,-0.9923248291015625,0.257476806640625
1775751211489856300,9.307856201171875,0.2046966552734375,-0.999908447265625,0.259063720703125
1775751211499869400,9.317869384765626,0.198272705078125,-0.995086669921875,0.2630615234375
1775751211509882000,9.327882080078124,0.194488525390625,-0.982818603515625,0.2687225341796875
1775751211519896300,9.337896240234375,0.1986846923828125,-0.9656219482421875,0.27239990234375
1775751211529909200,9.3479091796875,0.192169189453125,-0.96435546875,0.299346923828125
1775751211539923200,9.357923095703125,0.1828765869140625,-0.9658966064453125,0.332000732421875
1775751211549936400,9.367936279296876,0.17425537109375,-0.978546142578125,0.3649444580078125
1775751211559948800,9.37794873046875,0.1657867431640625,-0.994659423828125,0.378875732421875
1775751211569962800,9.387962646484375,0.1501922607421875,-1.003631591796875,0.3745574951171875
1775751211579976000,9.397975830078124,0.1404876708984375,-1.0176239013671875,0.3501434326171875
1775751211589990000,9.407989990234375,0.135772705078125,-1.03070068359375,0.3314971923828125
1775751211600002800,9.4180029296875,0.1414031982421875,-1.05169677734375,0.3286590576171875
1775751211610015700,9.428015625,0.163330078125,-1.0860443115234375,0.3364715576171875
1775751211620029700,9.43802978515625,0.185516357421875,-1.127227783203125,0.34796142578125
1775751211630043000,9.44804296875,0.1995849609375,-1.180938720703125,0.3558502197265625
1775751211640056800,9.458056884765625,0.2099151611328125,-1.24273681640625,0.3690948486328125
1775751211650069800,9.46806982421875,0.207244873046875,-1.2960052490234375,0.38958740234375
1775751211660083000,9.4780830078125,0.2116851806640625,-1.33038330078125,0.399505615234375
1775751211670097000,9.488096923828126,0.21734619140625,-1.347686767578125,0.3797607421875
1775751211680109800,9.49810986328125,0.22882080078125,-1.3503570556640625,0.338287353515625
1775751211690123800,9.508123779296875,0.2513580322265625,-1.3401336669921875,0.2982330322265625
1775751211700137000,9.518136962890624,0.273681640625,-1.3199005126953125,0.2826080322265625
1775751211710150000,9.52814990234375,0.29632568359375,-1.2938690185546875,0.285491943359375
1775751211720163800,9.538163818359376,0.31878662109375,-1.2686309814453125,0.3015594482421875
1775751211730176800,9.5481767578125,0.316162109375,-1.23284912109375,0.329833984375
1775751211740190700,9.558190673828125,0.2958831787109375,-1.1956634521484375,0.361480712890625
1775751211750204000,9.568203857421874,0.2776641845703125,-1.161376953125,0.4064483642578125
1775751211760216800,9.578216796875,0.259307861328125,-1.1269683837890625,0.4482421875
1775751211770230800,9.588230712890624,0.2437286376953125,-1.100433349609375,0.489990234375
1775751211780244000,9.598243896484375,0.2233734130859375,-1.0829010009765625,0.528167724609375
1775751211790257700,9.608257568359376,0.2171478271484375,-1.07257080078125,0.552581787109375
1775751211800270800,9.618270751953125,0.216400146484375,-1.0472412109375,0.4983062744140625
1775751211810283800,9.62828369140625,0.2389068603515625,-1.017852783203125,0.3901519775390625
1775751211820297700,9.638297607421874,0.255035400390625,-0.9978485107421875,0.29833984375
1775751211830311000,9.648310791015625,0.2639617919921875,-0.97235107421875,0.22442626953125
1775751211840324900,9.658324951171876,0.2662811279296875,-0.955047607421875,0.18017578125
1775751211850337800,9.668337890625,0.271942138671875,-0.9450836181640625,0.1532135009765625
1775751211860350700,9.678350830078125,0.2797393798828125,-0.9369354248046875,0.1549835205078125
1775751211870365000,9.688364990234374,0.2830352783203125,-0.930511474609375,0.1791839599609375
1775751211880377900,9.6983779296875,0.2963409423828125,-0.9072418212890625,0.211029052734375
1775751211890391800,9.708391845703124,0.3078460693359375,-0.8697967529296875,0.236572265625
1775751211900404700,9.71840478515625,0.31005859375,-0.845611572265625,0.2662811279296875
1775751211910418000,9.72841796875,0.3134613037109375,-0.8319854736328125,0.2819061279296875
1775751211920431900,9.738431884765625,0.315338134765625,-0.810577392578125,0.2678680419921875
1775751211930444800,9.74844482421875,0.322021484375,-0.8023681640625,0.2557373046875
1775751211940457700,9.758457763671874,0.3209686279296875,-0.8106842041015625,0.2637176513671875
1775751211950472000,9.768471923828125,0.3280487060546875,-0.81243896484375,0.280059814453125
1775751211960484900,9.77848486328125,0.3390045166015625,-0.794891357421875,0.2922210693359375
1775751211970498800,9.788498779296875,0.361114501953125,-0.787841796875,0.2994537353515625
1775751211980512000,9.798511962890625,0.37554931640625,-0.791168212890625,0.3185272216796875
1775751211990525700,9.808525634765624,0.3849029541015625,-0.79705810546875,0.34521484375
1775751212000539000,9.818538818359375,0.3912200927734375,-0.8092498779296875,0.3699951171875
1775751212010551800,9.8285517578125,0.39166259765625,-0.8079376220703125,0.3834991455078125
1775751212020565800,9.838565673828125,0.378692626953125,-0.7974395751953125,0.398529052734375
1775751212030579000,9.848578857421876,0.37469482421875,-0.7922515869140625,0.3909149169921875
1775751212040591600,9.858591552734374,0.3589324951171875,-0.79656982421875,0.3714752197265625
1775751212050605800,9.868605712890625,0.3228607177734375,-0.7966156005859375,0.3451385498046875
1775751212060618800,9.87861865234375,0.2886199951171875,-0.7888641357421875,0.3275146484375
1775751212070632700,9.8886328125,0.262237548828125,-0.77294921875,0.3134918212890625
1775751212080646000,9.89864599609375,0.2482452392578125,-0.7698211669921875,0.3206787109375
1775751212090658800,9.908658935546875,0.2335968017578125,-0.7866973876953125,0.341766357421875
1775751212100672800,9.9186728515625,0.225189208984375,-0.77691650390625,0.34271240234375
1775751212110686000,9.92868603515625,0.2120208740234375,-0.766845703125,0.3323822021484375
1775751212120700000,9.938699951171875,0.1905975341796875,-0.7956085205078125,0.3321685791015625
1775751212130712800,9.948712890625,0.1661376953125,-0.812255859375,0.3188934326171875
1775751212140725800,9.958725830078125,0.1701202392578125,-0.8197479248046875,0.3043365478515625
1775751212150740000,9.968739990234376,0.1829681396484375,-0.8267822265625,0.3034210205078125
1775751212160753000,9.9787529296875,0.1883697509765625,-0.83306884765625,0.3134307861328125
1775751212170766800,9.988766845703125,0.193572998046875,-0.853271484375,0.3436431884765625
1775751212180779800,9.99877978515625,0.194915771484375,-0.8617706298828125,0.3638458251953125
1775751212190792700,10.008792724609375,0.1921539306640625,-0.8489837646484375,0.36492919921875
1775751212200807000,10.018806884765626,0.20367431640625,-0.83709716796875,0.36407470703125
1775751212210819800,10.02881982421875,0.224639892578125,-0.8355255126953125,0.382568359375
1775751212220833800,10.038833740234375,0.22235107421875,-0.833740234375,0.3955230712890625
1775751212230847000,10.048846923828124,0.2118377685546875,-0.820648193359375,0.406768798828125
1775751212240859600,10.058859619140625,0.192626953125,-0.8074798583984375,0.3903350830078125
1775751212250873900,10.068873779296876,0.180206298828125,-0.800689697265625,0.3638153076171875
1775751212260886800,10.07888671875,0.165985107421875,-0.8219451904296875,0.37322998046875
1775751212270900700,10.088900634765626,0.1533966064453125,-0.8302154541015625,0.3687896728515625
1775751212280914000,10.098913818359375,0.1539306640625,-0.814178466796875,0.3315277099609375
1775751212290926600,10.108926513671875,0.1650390625,-0.7978515625,0.2883148193359375
1775751212300940800,10.11894091796875,0.16510009765625,-0.77398681640625,0.24591064453125
1775751212310953700,10.12895361328125,0.1722259521484375,-0.7613525390625,0.2145538330078125
1775751212320968000,10.138968017578126,0.1712493896484375,-0.7457427978515625,0.1886444091796875
1775751212330980900,10.14898095703125,0.160308837890625,-0.7054290771484375,0.1604461669921875
1775751212340993800,10.158993896484375,0.1651458740234375,-0.673980712890625,0.133087158203125
1775751212351007700,10.1690078125,0.1505584716796875,-0.641143798828125,0.098419189453125
1775751212361021000,10.17902099609375,0.13018798828125,-0.6139984130859375,0.0595245361328125
1775751212371035000,10.189034912109374,0.106597900390625,-0.59930419921875,0.012908935546875
1775751212381047800,10.1990478515625,0.074493408203125,-0.577972412109375,-0.040313720703125
1775751212391060700,10.209060791015625,0.0464935302734375,-0.5469818115234375,-0.0848846435546875
1775751212401075000,10.219074951171875,0.0214691162109375,-0.5238037109375,-0.109588623046875
1775751212411088000,10.229087890625,0.0059967041015625,-0.5100555419921875,-0.1072235107421875
1775751212421101800,10.239101806640624,-0.0016021728515625,-0.510009765625,-0.068939208984375
1775751212431115000,10.249114990234375,-0.029876708984375,-0.515380859375,-0.0158233642578125
1775751212441127700,10.259127685546876,-0.0709686279296875,-0.5071868896484375,0.0317535400390625
1775751212451142000,10.269141845703125,-0.081329345703125,-0.5191497802734375,0.0907440185546875
1775751212461154800,10.27915478515625,-0.094757080078125,-0.537567138671875,0.1397247314453125
1775751212471168800,10.289168701171874,-0.106292724609375,-0.5612335205078125,0.1798248291015625
1775751212481182000,10.299181884765625,-0.1013946533203125,-0.5982513427734375,0.21337890625
1775751212491194600,10.309194580078126,-0.0844268798828125,-0.6260986328125,0.2243804931640625
1775751212501208800,10.319208740234375,-0.0403900146484375,-0.6516876220703125,0.23736572265625
1775751212511221800,10.3292216796875,0.0014190673828125,-0.677459716796875,0.250152587890625
1775751212521235700,10.339235595703125,0.0479888916015625,-0.714080810546875,0.2837982177734375
1775751212531249000,10.349248779296875,0.0752105712890625,-0.747772216796875,0.3166046142578125
1775751212541261800,10.35926171875,0.0994110107421875,-0.7675933837890625,0.3303070068359375
1775751212551275800,10.36927587890625,0.1171417236328125,-0.7862701416015625,0.339019775390625
1775751212561289000,10.3792890625,0.1293792724609375,-0.7960662841796875,0.3321533203125
1775751212571301600,10.389301513671874,0.1490478515625,-0.819671630859375,0.3528594970703125
1775751212581315800,10.39931591796875,0.14453125,-0.87615966796875,0.3941802978515625
1775751212591328500,10.40932861328125,0.1367034912109375,-0.892486572265625,0.395355224609375
1775751212601342700,10.4193427734375,0.13787841796875,-0.9044189453125,0.402984619140625
1775751212611356000,10.42935595703125,0.1464691162109375,-0.9357757568359375,0.409637451171875
1775751212621368600,10.43936865234375,0.17877197265625,-0.947418212890625,0.408966064453125
1775751212631382800,10.4493828125,0.21856689453125,-0.9477691650390625,0.4254608154296875
1775751212641395700,10.459395751953124,0.2324981689453125,-0.965118408203125,0.4385833740234375
1775751212651409700,10.46940966796875,0.2451171875,-0.975860595703125,0.449127197265625
1775751212661422800,10.4794228515625,0.2543182373046875,-0.9702301025390625,0.440155029296875
1775751212671435800,10.489435791015625,0.2517547607421875,-0.941253662109375,0.419158935546875
1775751212681449700,10.49944970703125,0.2471771240234375,-0.9208526611328125,0.40911865234375
1775751212691462700,10.509462646484375,0.2553253173828125,-0.8893890380859375,0.3973388671875
1775751212701476900,10.519476806640625,0.259368896484375,-0.85748291015625,0.39178466796875
1775751212711489800,10.52948974609375,0.2504730224609375,-0.8513336181640625,0.4216156005859375
1775751212721502700,10.539502685546875,0.2447357177734375,-0.855865478515625,0.4630126953125
1775751212731517000,10.549516845703126,0.277557373046875,-0.84771728515625,0.4833526611328125
1775751212741529600,10.559529541015625,0.3327484130859375,-0.8642120361328125,0.5026397705078125
1775751212751543800,10.569543701171876,0.374725341796875,-0.8898773193359375,0.5056304931640625
1775751212761556700,10.579556640625,0.3939056396484375,-0.915252685546875,0.480743408203125
1775751212771569700,10.589569580078125,0.4011077880859375,-0.9265594482421875,0.452789306640625
1775751212781584000,10.599583984375,0.4039459228515625,-0.9087371826171875,0.4269256591796875
1775751212791596500,10.609596435546875,0.4085845947265625,-0.896636962890625,0.410400390625
1775751212801610800,10.61961083984375,0.41876220703125,-0.907562255859375,0.39276123046875
1775751212811624000,10.6296240234375,0.4184722900390625,-0.925506591796875,0.3951873779296875
1775751212821636600,10.63963671875,0.412994384765625,-0.94268798828125,0.407012939453125
1775751212831650800,10.64965087890625,0.406219482421875,-0.9746856689453125,0.4322967529296875
1775751212841663700,10.659663818359375,0.3825531005859375,-1.0358734130859375,0.4666290283203125
1775751212851677700,10.669677734375,0.3621368408203125,-1.0475616455078125,0.4579010009765625
1775751212861691000,10.67969091796875,0.375396728515625,-1.0209197998046875,0.4272003173828125
1775751212871703600,10.68970361328125,0.3718414306640625,-1.0091552734375,0.3976898193359375
1775751212881717800,10.6997177734375,0.3570404052734375,-0.9997711181640625,0.377655029296875
1775751212891730700,10.709730712890625,0.3395233154296875,-0.9670867919921875,0.3718719482421875
1775751212901744600,10.71974462890625,0.3494720458984375,-0.9341583251953125,0.3551483154296875
1775751212911757800,10.7297578125,0.380523681640625,-0.9303741455078125,0.3428955078125
1775751212921770800,10.739770751953126,0.4100189208984375,-0.9744110107421875,0.3486328125
1775751212931784700,10.74978466796875,0.4386138916015625,-1.006317138671875,0.344390869140625
1775751212941797600,10.759797607421875,0.4518280029296875,-1.020050048828125,0.33203125
1775751212951811800,10.769811767578124,0.454498291015625,-0.9857025146484375,0.328155517578125
1775751212961824800,10.77982470703125,0.4489593505859375,-0.9391632080078125,0.34844970703125
1775751212971837700,10.789837646484376,0.42388916015625,-0.9284210205078125,0.400390625
1775751212981852000,10.799851806640625,0.387054443359375,-0.9187774658203125,0.4315032958984375
1775751212991864600,10.809864501953125,0.350860595703125,-0.8975067138671875,0.43548583984375
1775751213001878800,10.819878662109375,0.3096923828125,-0.93975830078125,0.447113037109375
1775751213011891700,10.8298916015625,0.268341064453125,-0.994537353515625,0.413360595703125
1775751213021904600,10.839904541015626,0.2482147216796875,-1.0061798095703125,0.340240478515625
1775751213031918800,10.8499189453125,0.25128173828125,-1.0505218505859375,0.288543701171875
1775751213041931500,10.859931640625,0.275482177734375,-1.0466156005859375,0.214263916015625
1775751213051944700,10.86994482421875,0.31060791015625,-0.9870147705078125,0.1411285400390625
1775751213061959000,10.879958984375,0.31829833984375,-0.9723663330078125,0.1253814697265625
1775751213071971600,10.8899716796875,0.2978057861328125,-0.9607696533203125,0.1372833251953125
1775751213081985800,10.89998583984375,0.26416015625,-0.925506591796875,0.17413330078125
1775751213091998700,10.909998779296876,0.2273406982421875,-0.89404296875,0.2352142333984375
1775751213102012700,10.9200126953125,0.1980438232421875,-0.8945770263671875,0.3018798828125
1775751213112025900,10.93002587890625,0.1748199462890625,-0.922637939453125,0.3637237548828125
1775751213122038500,10.94003857421875,0.1845550537109375,-0.929351806640625,0.3705596923828125
1775751213132052700,10.950052734375,0.204132080078125,-0.9493865966796875,0.349212646484375
1775751213142065700,10.960065673828124,0.232757568359375,-0.962371826171875,0.2815093994140625
1775751213152078600,10.97007861328125,0.2637481689453125,-0.965789794921875,0.177886962890625
1775751213162092800,10.9800927734375,0.2940216064453125,-0.9763641357421875,0.111663818359375
1775751213172105700,10.990105712890625,0.300689697265625,-0.9713287353515625,0.0987701416015625
1775751213182119700,11.00011962890625,0.294586181640625,-0.9871063232421875,0.1198883056640625
1775751213192132600,11.010132568359374,0.2675323486328125,-1.0206756591796875,0.178009033203125
1775751213202145800,11.020145751953125,0.20989990234375,-1.0733489990234375,0.2209930419921875
1775751213212159700,11.03015966796875,0.1814422607421875,-1.1224517822265625,0.2233428955078125
1775751213222172700,11.040172607421875,0.144744873046875,-1.1350250244140625,0.22662353515625
1775751213232187000,11.050186767578126,0.1212615966796875,-1.1627197265625,0.23956298828125
1775751213242199600,11.060199462890624,0.1019744873046875,-1.168060302734375,0.23968505859375
1775751213252212700,11.070212646484375,0.092529296875,-1.1502838134765625,0.221710205078125
1775751213262227000,11.08022705078125,0.0918121337890625,-1.1580657958984375,0.2234954833984375
1775751213272239600,11.090239501953125,0.0926055908203125,-1.1736602783203125,0.2403564453125
1775751213282253800,11.10025390625,0.0882110595703125,-1.18157958984375,0.2503814697265625
1775751213292266500,11.1102666015625,0.085693359375,-1.1832427978515625,0.2491607666015625
1775751213302279700,11.12027978515625,0.0746917724609375,-1.1733551025390625,0.2567596435546875
1775751213312294000,11.1302939453125,0.0634918212890625,-1.138580322265625,0.27056884765625
1775751213322306600,11.140306640625,0.055755615234375,-1.1027069091796875,0.2939453125
1775751213332320800,11.15032080078125,0.053497314453125,-1.0702362060546875,0.31689453125
1775751213342333700,11.160333740234375,0.04681396484375,-1.0321502685546875,0.3327789306640625
1775751213352346600,11.1703466796875,0.0311737060546875,-1.00762939453125,0.3473358154296875
1775751213362360800,11.18036083984375,0.0149993896484375,-0.99310302734375,0.3560791015625
1775751213372373800,11.190373779296875,0.00775146484375,-0.97003173828125,0.343536376953125
1775751213382387700,11.2003876953125,0.00726318359375,-0.95660400390625,0.3288116455078125
1775751213392400600,11.210400634765625,0.028228759765625,-0.947265625,0.3042755126953125
1775751213402413600,11.22041357421875,0.0586090087890625,-0.9353485107421875,0.2639617919921875
1775751213412427800,11.230427734375,0.076019287109375,-0.923614501953125,0.2441253662109375
1775751213422440700,11.240440673828125,0.0865020751953125,-0.9091339111328125,0.2255859375
1775751213432455000,11.250454833984374,0.10107421875,-0.897064208984375,0.1973724365234375
1775751213442467600,11.260467529296875,0.1133575439453125,-0.90533447265625,0.1894989013671875
1775751213452480800,11.270480712890626,0.1034393310546875,-0.91302490234375,0.210418701171875
1775751213462494700,11.28049462890625,0.105804443359375,-0.917572021484375,0.22723388671875
1775751213472507600,11.290507568359375,0.122344970703125,-0.9180145263671875,0.22869873046875
1775751213482521900,11.30052197265625,0.124420166015625,-0.9222564697265625,0.2205657958984375
1775751213492534500,11.310534423828125,0.1223602294921875,-0.926788330078125,0.2039031982421875
1775751213502547700,11.320547607421876,0.1330718994140625,-0.9298553466796875,0.178192138671875
1775751213512562000,11.33056201171875,0.15545654296875,-0.9297943115234375,0.1652984619140625
1775751213522574600,11.34057470703125,0.173309326171875,-0.933502197265625,0.170684814453125
1775751213532588800,11.3505888671875,0.181915283203125,-0.946990966796875,0.1900634765625
1775751213542601700,11.360601806640625,0.1860504150390625,-0.9517822265625,0.197418212890625
1775751213552614700,11.37061474609375,0.1978302001953125,-0.9519195556640625,0.199462890625
1775751213562628900,11.38062890625,0.1983489990234375,-0.9585418701171875,0.20159912109375
1775751213572642000,11.39064208984375,0.1919403076171875,-0.96209716796875,0.201416015625
1775751213582655000,11.400655029296875,0.19573974609375,-0.96380615234375,0.200592041015625
1775751213592669000,11.4106689453125,0.2015380859375,-0.961517333984375,0.198822021484375
1775751213602682000,11.42068212890625,0.19683837890625,-0.963470458984375,0.194915771484375
1775751213612696000,11.430696044921875,0.198272705078125,-0.9719696044921875,0.1960296630859375
1775751213622709000,11.440708984375,0.20135498046875,-0.9725494384765625,0.2089996337890625
1775751213632722200,11.45072216796875,0.209625244140625,-0.978240966796875,0.234039306640625
1775751213642735900,11.46073583984375,0.2083282470703125,-0.98944091796875,0.256256103515625
1775751213652749000,11.4707490234375,0.1970367431640625,-0.9926605224609375,0.26959228515625
1775751213662763000,11.480762939453125,0.1844329833984375,-0.9955291748046875,0.2803497314453125
1775751213672776000,11.49077587890625,0.1705474853515625,-0.9941253662109375,0.2696533203125
1775751213682789000,11.5007890625,0.1642913818359375,-0.98724365234375,0.2449188232421875
1775751213692803000,11.510802978515626,0.158782958984375,-0.981201171875,0.2260284423828125
1775751213702816000,11.52081591796875,0.16046142578125,-0.9792633056640625,0.207366943359375
1775751213712830000,11.530829833984376,0.166961669921875,-0.971221923828125,0.2113037109375
1775751213722843100,11.540843017578124,0.173309326171875,-0.9637298583984375,0.22955322265625
1775751213732856000,11.55085595703125,0.17413330078125,-0.959503173828125,0.256439208984375
1775751213742870000,11.5608701171875,0.1649627685546875,-0.9563140869140625,0.272552490234375
1775751213752883000,11.570883056640625,0.1590728759765625,-0.9414215087890625,0.277740478515625
1775751213762897000,11.58089697265625,0.14642333984375,-0.921875,0.2752838134765625
1775751213772910000,11.59091015625,0.1400299072265625,-0.90777587890625,0.2749786376953125
1775751213782923000,11.600923095703125,0.1285858154296875,-0.890289306640625,0.2672271728515625
1775751213792937000,11.61093701171875,0.13409423828125,-0.87432861328125,0.261199951171875
1775751213802950100,11.6209501953125,0.12896728515625,-0.870147705078125,0.2533416748046875
1775751213812963800,11.6309638671875,0.1178436279296875,-0.867095947265625,0.2585906982421875
1775751213822977000,11.64097705078125,0.118316650390625,-0.87506103515625,0.2713623046875
1775751213832990200,11.650990234375,0.1160888671875,-0.8931732177734375,0.2788848876953125
1775751213843004000,11.66100390625,0.121826171875,-0.903839111328125,0.27313232421875
1775751213853017000,11.67101708984375,0.1287994384765625,-0.922149658203125,0.251373291015625
1775751213863031000,11.681031005859374,0.1453399658203125,-0.94384765625,0.223541259765625
1775751213873044000,11.6910439453125,0.15435791015625,-0.9638519287109375,0.2016754150390625
1775751213883057200,11.70105712890625,0.159820556640625,-0.97271728515625,0.1815338134765625
1775751213893070800,11.71107080078125,0.1675872802734375,-0.9787445068359375,0.16448974609375
1775751213903084000,11.721083984375,0.167266845703125,-0.9975433349609375,0.1720123291015625
1775751213913098000,11.731097900390624,0.152435302734375,-1.0227813720703125,0.1889190673828125
1775751213923111000,11.74111083984375,0.140777587890625,-1.04644775390625,0.2124481201171875
1775751213933124000,11.7511240234375,0.1352996826171875,-1.087066650390625,0.2424163818359375
1775751213943138000,11.761137939453125,0.1270599365234375,-1.1183013916015625,0.265625
1775751213953151000,11.77115087890625,0.1331634521484375,-1.1549835205078125,0.2826080322265625
1775751213963164200,11.7811640625,0.1445770263671875,-1.2082672119140625,0.291595458984375
1775751213973178000,11.79117822265625,0.171966552734375,-1.2623291015625,0.2844696044921875
1775751213983191000,11.80119091796875,0.1942138671875,-1.328857421875,0.286468505859375
1775751213993205000,11.811205078125,0.2160797119140625,-1.405792236328125,0.293548583984375
1775751214003218000,11.821218017578126,0.237579345703125,-1.453460693359375,0.279052734375
1775751214013231000,11.831231201171875,0.2694244384765625,-1.47021484375,0.2608642578125
1775751214023245000,11.8412451171875,0.2955474853515625,-1.4679107666015625,0.2464447021484375
1775751214033258000,11.851258056640624,0.3039398193359375,-1.4380035400390625,0.236724853515625
1775751214043272000,11.86127197265625,0.2907562255859375,-1.3990020751953125,0.2404022216796875
1775751214053285000,11.87128515625,0.274658203125,-1.356689453125,0.260345458984375
1775751214063298000,11.881298095703125,0.2666473388671875,-1.3064727783203125,0.284393310546875
1775751214073312000,11.89131201171875,0.260589599609375,-1.273681640625,0.3231048583984375
1775751214083325200,11.9013251953125,0.2611236572265625,-1.236602783203125,0.367767333984375
1775751214093339000,11.9113388671875,0.2782440185546875,-1.18707275390625,0.3990631103515625
1775751214103352000,11.92135205078125,0.2901458740234375,-1.1325836181640625,0.42510986328125
1775751214113365000,11.931364990234375,0.2977752685546875,-1.09210205078125,0.4526824951171875
1775751214123379000,11.94137890625,0.293487548828125,-1.062103271484375,0.47802734375
1775751214133392100,11.95139208984375,0.27252197265625,-1.0243682861328125,0.5105133056640625
1775751214143406000,11.961406005859375,0.2511749267578125,-0.9998931884765625,0.54327392578125
1775751214153419000,11.9714189453125,0.23675537109375,-0.97747802734375,0.5500030517578125
1775751214163432200,11.98143212890625,0.220977783203125,-0.9457855224609375,0.517303466796875
1775751214173446000,11.99144580078125,0.2158203125,-0.9360504150390625,0.479827880859375
1775751214183459000,12.001458984375,0.2199554443359375,-0.921966552734375,0.4510345458984375
1775751214193473000,12.01147314453125,0.209442138671875,-0.9093780517578125,0.44085693359375
1775751214203486000,12.02148583984375,0.2054290771484375,-0.89801025390625,0.4346466064453125
1775751214213499100,12.0314990234375,0.210418701171875,-0.8925933837890625,0.4324798583984375
1775751214223513000,12.04151318359375,0.2268829345703125,-0.8791351318359375,0.4135284423828125
1775751214233526000,12.051526123046875,0.256317138671875,-0.85992431640625,0.4012603759765625
1775751214243540000,12.0615400390625,0.2681427001953125,-0.8682098388671875,0.4180450439453125
1775751214253553200,12.07155322265625,0.26873779296875,-0.8598175048828125,0.425384521484375
1775751214263566000,12.081566162109375,0.27374267578125,-0.8412628173828125,0.4278106689453125
1775751214273580000,12.091580078125,0.2752685546875,-0.826446533203125,0.4221649169921875
1775751214283593000,12.101593017578125,0.2685089111328125,-0.8000946044921875,0.3949432373046875
1775751214293606100,12.111606201171876,0.2513885498046875,-0.8003692626953125,0.381866455078125
1775751214303620000,12.1216201171875,0.2168426513671875,-0.802703857421875,0.364776611328125
1775751214313633000,12.131633056640625,0.1983795166015625,-0.7916717529296875,0.3618316650390625
1775751214323647000,12.14164697265625,0.2089080810546875,-0.8027496337890625,0.38360595703125
1775751214333660200,12.15166015625,0.212158203125,-0.821014404296875,0.41583251953125
1775751214343673900,12.161673828125,0.1905517578125,-0.8106231689453125,0.433441162109375
1775751214353687000,12.17168701171875,0.1765594482421875,-0.7900848388671875,0.4471893310546875
1775751214363700200,12.1817001953125,0.1766510009765625,-0.777618408203125,0.4553070068359375
1775751214373714000,12.1917138671875,0.180389404296875,-0.7707366943359375,0.4527587890625
1775751214383727000,12.20172705078125,0.2048492431640625,-0.785003662109375,0.45587158203125
1775751214393740000,12.211739990234374,0.2157745361328125,-0.7885284423828125,0.422119140625
1775751214403754000,12.22175390625,0.21826171875,-0.7841339111328125,0.33050537109375
1775751214413767200,12.23176708984375,0.2180938720703125,-0.7891082763671875,0.2372589111328125
1775751214423781000,12.241781005859375,0.1959381103515625,-0.7908477783203125,0.191436767578125
1775751214433794000,12.2517939453125,0.1567840576171875,-0.8000030517578125,0.200103759765625
1775751214443807200,12.26180712890625,0.1405029296875,-0.80731201171875,0.22198486328125
1775751214453821000,12.271821044921875,0.1393890380859375,-0.800445556640625,0.25152587890625
1775751214463834000,12.281834228515624,0.133514404296875,-0.8116302490234375,0.2943115234375
1775751214473848000,12.29184814453125,0.13470458984375,-0.819610595703125,0.3369293212890625
1775751214483861000,12.301861083984376,0.13226318359375,-0.8127593994140625,0.3768310546875
1775751214493874200,12.311874267578125,0.14569091796875,-0.823944091796875,0.4190216064453125
1775751214503888100,12.32188818359375,0.1770172119140625,-0.8233489990234375,0.4303741455078125
1775751214513901000,12.331901123046874,0.2094268798828125,-0.8069000244140625,0.41876220703125
1775751214523915000,12.3419150390625,0.2398529052734375,-0.7958221435546875,0.3697509765625
1775751214533928200,12.35192822265625,0.2783203125,-0.7837371826171875,0.2791900634765625
1775751214543941000,12.361941162109375,0.29864501953125,-0.789398193359375,0.23004150390625
1775751214553955000,12.371955078125,0.28546142578125,-0.8081207275390625,0.2170562744140625
1775751214563967700,12.3819677734375,0.272125244140625,-0.8050384521484375,0.2268218994140625
1775751214573981700,12.391981689453125,0.2483978271484375,-0.7844696044921875,0.2531280517578125
1775751214583995000,12.401994873046876,0.2183837890625,-0.7703094482421875,0.283477783203125
1775751214594007800,12.4120078125,0.1895294189453125,-0.7612152099609375,0.3155364990234375
1775751214604021800,12.422021728515626,0.1685028076171875,-0.7442779541015625,0.33575439453125
1775751214614035000,12.432034912109375,0.1541290283203125,-0.7031097412109375,0.354339599609375
1775751214624047900,12.4420478515625,0.1522064208984375,-0.65789794921875,0.348907470703125
1775751214634061800,12.452061767578124,0.1715087890625,-0.6157379150390625,0.2869110107421875
1775751214644075000,12.462074951171875,0.1980133056640625,-0.5533905029296875,0.1609649658203125
1775751214654088700,12.472088623046876,0.2412567138671875,-0.5214996337890625,0.0519256591796875
1775751214664102000,12.482101806640625,0.255767822265625,-0.524322509765625,0.0226898193359375
1775751214674114800,12.49211474609375,0.236480712890625,-0.512054443359375,0.026885986328125
1775751214684128800,12.502128662109374,0.215484619140625,-0.5016021728515625,0.0339202880859375
1775751214694142000,12.512141845703125,0.175201416015625,-0.5017852783203125,0.052520751953125
1775751214704156000,12.522156005859374,0.12628173828125,-0.5042724609375,0.0522308349609375
1775751214714168800,12.5321689453125,0.0694732666015625,-0.510772705078125,0.0285491943359375
1775751214724182000,12.54218212890625,0.0261993408203125,-0.513397216796875,-0.0002899169921875
1775751214734195700,12.55219580078125,0.001617431640625,-0.506011962890625,-0.0155792236328125
1775751214744209000,12.562208984375,0.0049285888671875,-0.5136260986328125,-0.008697509765625
1775751214754222800,12.572222900390624,0.0351104736328125,-0.5370941162109375,-0.011932373046875
1775751214764235800,12.58223583984375,0.0740814208984375,-0.5704193115234375,-0.004302978515625
1775751214774249000,12.5922490234375,0.0951690673828125,-0.6198272705078125,0.0361785888671875
1775751214784263000,12.602262939453125,0.1168212890625,-0.6591796875,0.09039306640625
1775751214794275800,12.61227587890625,0.145904541015625,-0.6922760009765625,0.146514892578125
1775751214804289800,12.622289794921874,0.1738433837890625,-0.7220458984375,0.1757659912109375
1775751214814303000,12.632302978515625,0.2093658447265625,-0.7429351806640625,0.185302734375
1775751214824316000,12.64231591796875,0.2464599609375,-0.7508544921875,0.1785888671875
1775751214834329900,12.652329833984375,0.2917633056640625,-0.7483367919921875,0.15777587890625
1775751214844342800,12.6623427734375,0.33868408203125,-0.752593994140625,0.1434478759765625
1775751214854356700,12.672356689453125,0.374114990234375,-0.773223876953125,0.1454315185546875
1775751214864370000,12.682369873046875,0.3863983154296875,-0.790618896484375,0.16278076171875
1775751214874382800,12.6923828125,0.35943603515625,-0.81341552734375,0.2115936279296875
1775751214884396800,12.702396728515625,0.290130615234375,-0.857513427734375,0.291534423828125
1775751214894410000,12.712409912109376,0.2178955078125,-0.8859405517578125,0.36053466796875
1775751214904422700,12.722422607421874,0.1505126953125,-0.8944091796875,0.3933868408203125
1775751214914436900,12.732436767578125,0.11541748046875,-0.8999176025390625,0.3982086181640625
1775751214924450000,12.742449951171874,0.100860595703125,-0.890350341796875,0.3724822998046875
1775751214934463700,12.752463623046875,0.1105804443359375,-0.8823699951171875,0.32763671875
1775751214944477000,12.762476806640626,0.1481170654296875,-0.8916015625,0.29339599609375
1775751214954489600,12.772489501953125,0.210113525390625,-0.893035888671875,0.27288818359375
1775751214964503800,12.78250390625,0.258636474609375,-0.89044189453125,0.289215087890625
1775751214974517000,12.79251708984375,0.27996826171875,-0.91082763671875,0.34136962890625
1775751214984530700,12.80253076171875,0.2762298583984375,-0.9462127685546875,0.3828277587890625
1775751214994543900,12.8125439453125,0.2922821044921875,-0.9416046142578125,0.404754638671875
1775751215004556800,12.822556884765625,0.3194122314453125,-0.9526519775390625,0.4193878173828125
1775751215014570800,12.83257080078125,0.3105316162109375,-0.9716033935546875,0.4293670654296875
1775751215024584000,12.842583984375,0.301788330078125,-0.9521331787109375,0.4193878173828125
1775751215034598000,12.852597900390625,0.3198089599609375,-0.9307403564453125,0.3941497802734375
1775751215044610800,12.86261083984375,0.3310089111328125,-0.9230804443359375,0.37225341796875
1775751215054623700,12.872623779296875,0.3260955810546875,-0.924041748046875,0.3575897216796875
1775751215064638000,12.882637939453126,0.3287353515625,-0.942962646484375,0.3535003662109375
1775751215074651000,12.89265087890625,0.3333587646484375,-0.9512786865234375,0.36163330078125
1775751215084664800,12.902664794921876,0.31292724609375,-0.97821044921875,0.38299560546875
1775751215094677800,12.912677734375,0.2806549072265625,-0.9993133544921875,0.3966522216796875
1775751215104690700,12.922690673828125,0.264617919921875,-0.9763946533203125,0.38262939453125
1775751215114705000,12.932704833984374,0.2706298828125,-0.963409423828125,0.3651123046875
1775751215124717800,12.9427177734375,0.279510498046875,-0.970123291015625,0.348419189453125
1775751215134731800,12.952731689453126,0.288848876953125,-0.96087646484375,0.34210205078125
1775751215144745000,12.962744873046875,0.307647705078125,-0.9441680908203125,0.336334228515625
1775751215154757600,12.972757568359375,0.3335113525390625,-0.9606475830078125,0.3281402587890625
1775751215164771800,12.982771728515624,0.3462982177734375,-1.011871337890625,0.328277587890625
1775751215174785000,12.992784912109375,0.35205078125,-1.0338897705078125,0.33660888671875
1775751215184797700,13.002797607421876,0.3559417724609375,-1.0259857177734375,0.3533782958984375
1775751215194812000,13.01281201171875,0.3629302978515625,-1.0178680419921875,0.3692626953125
1775751215204824600,13.022824462890625,0.37158203125,-1.0002899169921875,0.3921661376953125
1775751215214838800,13.0328388671875,0.359832763671875,-0.981170654296875,0.425079345703125
1775751215224852000,13.04285205078125,0.3308563232421875,-0.978973388671875,0.459228515625
