time,seconds_elapsed,z,y,x
1775751202238752800,0.056752685546875,-0.04535510763525963,-0.978064775466919,0.08956299722194672
1775751202248766000,0.066765869140625,-0.11031466722488403,-0.9474093317985535,0.07455017417669296
1775751202258779600,0.076779541015625,-0.19505353271961212,-0.9465067982673645,0.06414440274238586
1775751202268792800,0.086792724609375,-0.2408577799797058,-0.9742396473884583,0.07425635308027267
1775751202278805800,0.0968056640625,-0.2120213359594345,-1.0145468711853027,0.1045500785112381
1775751202288819700,0.10681982421875,-0.1951209306716919,-1.0643105506896973,0.13940668106079102
1775751202298833000,0.1168330078125,-0.15996694564819336,-1.1347006559371948,0.1378796249628067
1775751202308845800,0.126845703125,-0.10024631023406982,-1.1977064609527588,0.08863815665245056
1775751202318859800,0.13685986328125,-0.061393722891807556,-1.1665494441986084,0.012616357766091824
1775751202328873000,0.146873046875,0.024827975779771805,-1.0513874292373657,-0.06378234922885895
1775751202338886700,0.15688671875,0.05498747527599335,-0.8721740245819092,-0.13196434080600739
1775751202348899800,0.16689990234375,0.013617143966257572,-0.7596766352653503,-0.13693901896476746
1775751202358913000,0.1769130859375,-0.040551554411649704,-0.7894587516784668,-0.10416696220636368
1775751202368926700,0.1869267578125,-0.05037170648574829,-0.8345049023628235,-0.08012782037258148
1775751202378940000,0.19693994140625,-0.022945143282413483,-0.8423444032669067,-0.050720926374197006
1775751202388952800,0.206952880859375,-0.006990679074078798,-0.797122061252594,-0.01620609313249588
1775751202398966800,0.216966796875,0.0021066791377961636,-0.7678414583206177,-0.0036554138641804457
1775751202408980000,0.22697998046875,0.045025650411844254,-0.793451189994812,-0.03563544899225235
1775751202418992600,0.23699267578125,0.08332882821559906,-0.8135862946510315,-0.07055827975273132
1775751202429006800,0.2470068359375,0.0679193064570427,-0.8367347121238708,-0.08167212456464767
1775751202439020000,0.25702001953125,0.018836189061403275,-0.8859919905662537,-0.06111517921090126
1775751202449032700,0.26703271484375,-0.033301908522844315,-0.9253084659576416,-0.008676513098180294
1775751202459047000,0.277046875,-0.06614987552165985,-0.9173312783241272,0.0582742914557457
1775751202469059800,0.287059814453125,-0.09384647756814957,-0.8989365100860596,0.13082784414291382
1775751202479072800,0.29707275390625,-0.1553916186094284,-0.9019694328308105,0.17662501335144043
1775751202489087000,0.3070869140625,-0.21069027483463287,-0.8664286732673645,0.16577944159507751
1775751202499099600,0.317099609375,-0.24419257044792175,-0.9106661677360535,0.09407863020896912
1775751202509112800,0.32711279296875,-0.19375337660312653,-1.0099592208862305,-0.0018098184373229742
1775751202519126800,0.337126708984375,-0.07612474262714386,-1.060528039932251,-0.07768647372722626
1775751202529139700,0.3471396484375,0.046026989817619324,-1.0004268884658813,-0.07134135067462921
1775751202539153000,0.35715283203125,0.11998484283685684,-0.7424443364143372,-0.02493550255894661
1775751202549166800,0.367166748046875,0.15360373258590698,-0.30837535858154297,0.013267390429973602
1775751202559180500,0.3771806640625,0.15517500042915344,0.10708443075418472,0.0502091608941555
1775751202569193500,0.387193359375,0.13423722982406616,0.4135149419307709,0.10425695776939392
1775751202579207400,0.39720751953125,0.10918143391609192,0.5400634407997131,0.1745438575744629
1775751202589220600,0.407220703125,0.0807892307639122,0.5006891489028931,0.25291287899017334
1775751202599233300,0.4172333984375,0.03830781579017639,0.33921369910240173,0.3085516393184662
1775751202609247500,0.42724755859375,-0.004451109562069178,0.15486155450344086,0.32731592655181885
1775751202619260400,0.437260498046875,-0.023979268968105316,-0.06009230017662048,0.29596012830734253
1775751202629274400,0.4472744140625,-0.039031438529491425,-0.2524597942829132,0.23640213906764984
1775751202639287600,0.45728759765625,-0.06511177867650986,-0.36463823914527893,0.1609364151954651
1775751202649300200,0.46730029296875,-0.12071804702281952,-0.4223954975605011,0.07674159109592438
1775751202659314400,0.477314453125,-0.1956183910369873,-0.4319213628768921,-0.006203093100339174
1775751202669327600,0.48732763671875,-0.29323387145996094,-0.4022262394428253,-0.0536426305770874
1775751202679340300,0.49734033203125,-0.35285165905952454,-0.28924325108528137,-0.09272824972867966
1775751202689354500,0.5073544921875,-0.3446379005908966,-0.1937662810087204,-0.13656708598136902
1775751202699367400,0.517367431640625,-0.303815633058548,-0.09335765242576599,-0.2055344432592392
1775751202709380400,0.52738037109375,-0.2686561644077301,0.07040783017873764,-0.32578718662261963
1775751202719394600,0.53739453125,-0.21118833124637604,0.24358120560646057,-0.47622328996658325
1775751202729407200,0.5474072265625,-0.1029885858297348,0.32130056619644165,-0.607063889503479
1775751202739420400,0.55742041015625,0.40892529487609863,-0.15097562968730927,-0.47768858075141907
1775751202749434400,0.567434326171875,0.6736008524894714,-0.24942919611930847,-0.3519335389137268
1775751202759447300,0.577447265625,0.5463712811470032,-0.1248885914683342,-0.32538050413131714
1775751202769460500,0.58746044921875,0.20632591843605042,0.09976469725370407,-0.29532164335250854
1775751202779474400,0.597474365234375,-0.06904840469360352,0.2149304300546646,-0.21576903760433197
1775751202789487400,0.6074873046875,-0.2472708821296692,0.13031913340091705,-0.07359565049409866
1775751202799500500,0.61750048828125,-0.3955354392528534,-0.030183181166648865,0.0985923558473587
1775751202809514500,0.627514404296875,-0.49393555521965027,-0.10351714491844177,0.2616391181945801
1775751202819527400,0.63752734375,-0.5130605101585388,-0.0950339064002037,0.36260780692100525
1775751202829540600,0.64754052734375,-0.4600537419319153,-0.012116184458136559,0.3672604262828827
1775751202839554600,0.657554443359375,-0.3827648162841797,0.1611482799053192,0.3377307653427124
1775751202849567500,0.6675673828125,-0.2855605483055115,0.2642228305339813,0.33877453207969666
1775751202859580400,0.677580322265625,-0.212655708193779,0.2541225254535675,0.40474051237106323
1775751202869594400,0.687594482421875,-0.12876851856708527,0.16557952761650085,0.4951769709587097
1775751202879607600,0.697607666015625,0.0019151929300278425,0.05652041733264923,0.5864490866661072
1775751202889620500,0.707620361328125,0.12031804770231247,-0.06899617612361908,0.6986402273178101
1775751202899634400,0.717634521484375,0.1757621169090271,-0.21542635560035706,0.8211365938186646
1775751202909647400,0.7276474609375,0.18303623795509338,-0.36040282249450684,0.9398313164710999
1775751202919660300,0.737660400390625,0.1840575635433197,-0.5193290710449219,1.04600191116333
1775751202929674500,0.747674560546875,0.18021251261234283,-0.6410616040229797,1.1195935010910034
1775751202939687400,0.7576875,0.14446917176246643,-0.6669096946716309,1.1430295705795288
1775751202949701600,0.76770166015625,0.09547233581542969,-0.6840106248855591,1.1283392906188965
1775751202959714300,0.77771435546875,0.04745208099484444,-0.7040554285049438,1.0923229455947876
1775751202969727500,0.7877275390625,-0.013415826484560966,-0.7146157026290894,1.0496433973312378
1775751202979741400,0.797741455078125,-0.09835921227931976,-0.7182802557945251,1.0057058334350586
1775751202989754400,0.80775439453125,-0.198122039437294,-0.7147058248519897,0.9676430225372314
1775751202999767600,0.817767578125,-0.29590266942977905,-0.6706206202507019,0.9302072525024414
1775751203009781200,0.82778125,-0.3456994891166687,-0.6014018058776855,0.8601831197738647
1775751203019794400,0.83779443359375,-0.34121206402778625,-0.5772796869277954,0.7641889452934265
1775751203029807400,0.847807373046875,-0.3092663586139679,-0.5644550919532776,0.6477511525154114
1775751203039821300,0.8578212890625,-0.24792127311229706,-0.540651261806488,0.5301520824432373
1775751203049834500,0.86783447265625,-0.19080471992492676,-0.5289779901504517,0.4326249659061432
1775751203059847400,0.877847412109375,-0.14546972513198853,-0.38548341393470764,0.3741360902786255
1775751203069861400,0.887861328125,-0.10739986598491669,-0.21447297930717468,0.3499768078327179
1775751203079874600,0.89787451171875,-0.10425733029842377,-0.12223919481039047,0.3469051122665405
1775751203089887500,0.907887451171875,-0.12944388389587402,-0.03903290256857872,0.3578689694404602
1775751203099901400,0.9179013671875,-0.1904395967721939,0.044105928391218185,0.38449549674987793
1775751203109914600,0.92791455078125,-0.27948108315467834,0.12216754257678986,0.4174465239048004
1775751203119927300,0.93792724609375,-0.37401342391967773,0.1359560638666153,0.44575488567352295
1775751203129941500,0.94794140625,-0.4220898449420929,0.0805756077170372,0.4648687541484833
1775751203139954400,0.957954345703125,-0.4142724275588989,0.07094774395227432,0.46727225184440613
1775751203149967400,0.96796728515625,-0.37077879905700684,0.11655037105083466,0.4331988990306854
1775751203159981600,0.977981689453125,-0.24748297035694122,0.07090379297733307,0.35556161403656006
1775751203169994200,0.987994140625,-0.1009259894490242,-0.026366235688328743,0.24005606770515442
1775751203180007400,0.99800732421875,-0.0016036627348512411,0.02841951511800289,0.08209146559238434
1775751203190021600,1.008021728515625,0.044554855674505234,0.18052825331687927,-0.09018182009458542
1775751203200034300,1.018034423828125,0.05482586845755577,0.39713725447654724,-0.27000829577445984
1775751203210047500,1.028047607421875,0.08509396016597748,0.6818591952323914,-0.4490396976470947
1775751203220061400,1.0380615234375,0.17739832401275635,0.9935925602912903,-0.6098664402961731
1775751203230074400,1.048074462890625,0.3353922367095947,1.142765760421753,-0.7260883450508118
1775751203240087600,1.058087646484375,0.42283955216407776,1.0655587911605835,-0.7839676141738892
1775751203250101200,1.068101318359375,0.31713488698005676,0.8974679708480835,-0.7429900169372559
1775751203260114400,1.078114501953125,0.04894205927848816,0.8066030740737915,-0.5661822557449341
1775751203270128400,1.08812841796875,-0.2967820167541504,0.5942394137382507,-0.3292499780654907
1775751203280141300,1.098141357421875,-0.4462748169898987,0.08021817356348038,-0.12525875866413116
1775751203290154500,1.108154541015625,-0.3926158547401428,-0.5114018321037292,0.05879221111536026
1775751203300168400,1.11816845703125,-0.357032835483551,-0.91511470079422,0.26059722900390625
1775751203310181400,1.128181396484375,-0.3752270042896271,-1.1319278478622437,0.4046432375907898
1775751203320194600,1.138194580078125,-0.3896371126174927,-1.1857128143310547,0.4496120512485504
1775751203330208500,1.14820849609375,-0.4083527624607086,-1.1080342531204224,0.4397989809513092
1775751203340221400,1.158221435546875,-0.42422813177108765,-0.8652945756912231,0.39128389954566956
1775751203350234600,1.168234619140625,-0.4092733561992645,-0.5699452757835388,0.3184659779071808
1775751203360248300,1.178248291015625,-0.3972931206226349,-0.3435342609882355,0.24026918411254883
1775751203370261500,1.188261474609375,-0.4150519073009491,-0.18559139966964722,0.16279593110084534
1775751203380274400,1.1982744140625,-0.41170698404312134,-0.12064728885889053,0.04606771841645241
1775751203390288400,1.208288330078125,-0.35823872685432434,-0.16658249497413635,-0.09080854803323746
1775751203400301600,1.218301513671875,-0.280855268239975,-0.27604666352272034,-0.20001520216464996
1775751203410314200,1.228314208984375,-0.2042640596628189,-0.38323676586151123,-0.24117057025432587
1775751203420328400,1.238328369140625,-0.15389196574687958,-0.4067724347114563,-0.22220459580421448
1775751203430341400,1.24834130859375,-0.13884910941123962,-0.359781414270401,-0.19679929316043854
1775751203440354300,1.258354248046875,-0.13449856638908386,-0.2809712886810303,-0.18958185613155365
1775751203450368500,1.268368408203125,-0.14534728229045868,-0.17372635006904602,-0.17995211482048035
1775751203460381400,1.27838134765625,-0.18582627177238464,-0.06613225489854813,-0.15965989232063293
1775751203470394400,1.288394287109375,-0.22663697600364685,0.0168762244284153,-0.12809310853481293
1775751203480408300,1.298408203125,-0.22943276166915894,0.05472373589873314,-0.08441860228776932
1775751203490421500,1.30842138671875,-0.20770063996315002,-0.0014478788943961263,-0.04395921900868416
1775751203500434400,1.318434326171875,-0.16210439801216125,-0.160573348402977,-0.007443017326295376
1775751203510448400,1.328448486328125,-0.13955962657928467,-0.3223366439342499,0.04114607721567154
1775751203520461300,1.33846142578125,-0.13922247290611267,-0.4298756420612335,0.1012331172823906
1775751203530474500,1.348474609375,-0.1337989717721939,-0.5103766322135925,0.168420672416687
1775751203540488400,1.358488525390625,-0.09542840719223022,-0.5147820115089417,0.20459359884262085
1775751203550501000,1.368501220703125,-0.01956481672823429,-0.45265674591064453,0.2166903167963028
1775751203560514300,1.378514404296875,0.06609895825386047,-0.3454306721687317,0.2016943246126175
1775751203570528300,1.3885283203125,0.1706533432006836,-0.24504704773426056,0.16081446409225464
1775751203580541200,1.398541259765625,0.2656986117362976,-0.14133930206298828,0.0986991599202156
1775751203590554000,1.40855419921875,0.35016611218452454,-0.06719031929969788,0.04059816151857376
1775751203600568300,1.418568359375,0.41587400436401367,-0.021521635353565216,0.00206381781026721
1775751203610581200,1.428581298828125,0.44676271080970764,0.0013828459195792675,-0.016638251021504402
1775751203620594200,1.43859423828125,0.47848841547966003,-0.06633840501308441,-0.05198052525520325
1775751203630608400,1.4486083984375,0.4872611463069916,-0.1378418356180191,-0.06881163269281387
1775751203640621300,1.458621337890625,0.44017964601516724,-0.18851646780967712,-0.05176793038845062
1775751203650635300,1.46863525390625,0.35176798701286316,-0.22317062318325043,-0.026232143864035606
1775751203660648200,1.478648193359375,0.2587030231952667,-0.22318392992019653,-0.004190492443740368
1775751203670661000,1.4886611328125,0.18616974353790283,-0.2037058025598526,0.010423002764582634
1775751203680675300,1.49867529296875,0.1517752856016159,-0.17003785073757172,0.023387271910905838
1775751203690688300,1.508688232421875,0.14486278593540192,-0.15017051994800568,0.02219042181968689
1775751203700701200,1.518701171875,0.14458128809928894,-0.11393102258443832,-0.01909150369465351
1775751203710715400,1.52871533203125,0.12299130856990814,-0.09051810950040817,-0.07749329507350922
1775751203720728000,1.53872802734375,0.07799187302589417,-0.062014028429985046,-0.12583686411380768
1775751203730741200,1.5487412109375,0.03146297484636307,-0.034499991685152054,-0.175135537981987
1775751203740755200,1.558755126953125,0.0055312407203018665,-0.0229855515062809,-0.21819645166397095
1775751203750768000,1.56876806640625,-0.013755131512880325,-0.005475764162838459,-0.23525850474834442
1775751203760781300,1.57878125,-0.023034650832414627,0.01860879920423031,-0.21335452795028687
1775751203770795000,1.588794921875,-0.02566581964492798,0.03808317333459854,-0.16086943447589874
1775751203780808200,1.59880810546875,-0.019152525812387466,0.027388449758291245,-0.08350487053394318
1775751203790821400,1.6088212890625,-0.012468014843761921,-0.00043931452091783285,0.01480789203196764
1775751203800835000,1.6188349609375,-0.010573974810540676,-0.045310117304325104,0.10371086746454239
1775751203810848300,1.62884814453125,-0.010650929994881153,-0.07124889642000198,0.16918398439884186
1775751203820861400,1.638861328125,-0.013538062572479248,-0.08777301013469696,0.2098853439092636
1775751203830875100,1.648875244140625,-0.01918341964483261,-0.08513437211513519,0.21780942380428314
1775751203840888300,1.658888427734375,-0.0028904653154313564,-0.09411987662315369,0.19720961153507233
1775751203850901200,1.6689013671875,0.016212379559874535,-0.0877891480922699,0.16929054260253906
1775751203860915200,1.678915283203125,0.02756303735077381,-0.0675312802195549,0.1383802890777588
1775751203870928400,1.688928466796875,0.0596032589673996,-0.03899332135915756,0.09138290584087372
1775751203880942000,1.698942138671875,0.10439363121986389,-0.010211208835244179,0.0444585345685482
1775751203890955300,1.708955322265625,0.14055560529232025,0.0017159990966320038,0.029724132269620895
1775751203900968200,1.71896826171875,0.1708381474018097,-0.008646893315017223,0.039049189537763596
1775751203910982100,1.728982177734375,0.1887734830379486,-0.036884039640426636,0.06263243407011032
1775751203920995300,1.738995361328125,0.20011988282203674,-0.0677705779671669,0.08314383029937744
1775751203931008300,1.74900830078125,0.20308957993984222,-0.1255131959915161,0.10255302488803864
1775751203941022200,1.759022216796875,0.18555186688899994,-0.2029115855693817,0.12082444131374359
1775751203951035100,1.76903515625,0.1406901329755783,-0.2572197914123535,0.13884970545768738
1775751203961048000,1.779048095703125,0.08175305277109146,-0.2716330885887146,0.15721699595451355
1775751203971062300,1.789062255859375,0.03149229288101196,-0.2524005174636841,0.1677706390619278
1775751203981075200,1.7990751953125,-0.03026907704770565,-0.2103382796049118,0.1644238531589508
1775751203991088000,1.809088134765625,-0.07721931487321854,-0.1516217440366745,0.1206757053732872
1775751204001102300,1.819102294921875,-0.08636008203029633,-0.10211411118507385,0.0595974437892437
1775751204011115300,1.829115234375,-0.07409648597240448,-0.06618499755859375,0.024242214858531952
1775751204021128200,1.839128173828125,-0.0617508664727211,-0.07808107137680054,0.021018458530306816
1775751204031142100,1.84914208984375,-0.006907081697136164,-0.19496536254882812,0.07066890597343445
1775751204041155300,1.8591552734375,0.0682917982339859,-0.36839601397514343,0.16179348528385162
1775751204051168300,1.869168212890625,0.18887092173099518,-0.5399818420410156,0.25863149762153625
1775751204061182200,1.87918212890625,0.2668219208717346,-0.633204996585846,0.32988622784614563
1775751204071195100,1.889195068359375,0.28200650215148926,-0.5412373542785645,0.40033653378486633
1775751204081208300,1.899208251953125,0.22620925307273865,-0.27146026492118835,0.48124709725379944
1775751204091222300,1.90922216796875,0.0998811423778534,0.02843571826815605,0.5606907606124878
1775751204101235200,1.919235107421875,-0.028902936726808548,0.21374192833900452,0.6842917799949646
1775751204111249200,1.929249267578125,-0.15098217129707336,0.19296540319919586,0.8557708859443665
1775751204121262300,1.939262451171875,-0.2619806230068207,0.03232220560312271,1.0763064622879028
1775751204131275300,1.949275146484375,-0.3896898329257965,-0.21166417002677917,1.3278796672821045
1775751204141289200,1.959289306640625,-0.5632078051567078,-0.4663065969944,1.5410451889038086
1775751204151302400,1.969302490234375,-0.7330663800239563,-0.6711856722831726,1.6697460412979126
1775751204161315300,1.9793154296875,-0.8491421341896057,-0.7593507170677185,1.7332816123962402
1775751204171329300,1.989329345703125,-0.898565411567688,-0.7631979584693909,1.7217730283737183
1775751204181342200,1.99934228515625,-0.869948148727417,-0.7125856876373291,1.6436926126480103
1775751204191355100,2.009355224609375,-0.7867693305015564,-0.6225438714027405,1.519728660583496
1775751204201369300,2.019369384765625,-0.696315348148346,-0.4971659481525421,1.3549208641052246
1775751204211382300,2.02938232421875,-0.6007571220397949,-0.3385922610759735,1.1730190515518188
1775751204221395200,2.039395263671875,-0.485655277967453,-0.14327549934387207,1.0148121118545532
1775751204231409400,2.049409423828125,-0.35718998312950134,0.09448038041591644,0.9096196889877319
1775751204241422000,2.059422119140625,-0.20910997688770294,0.2714990973472595,0.858880877494812
1775751204251435300,2.069435302734375,-0.14676746726036072,0.2570272982120514,0.8250597715377808
1775751204261449200,2.07944921875,-0.21702592074871063,0.04799150675535202,0.7718151807785034
1775751204271462100,2.089462158203125,-0.35466960072517395,-0.23492920398712158,0.720195472240448
1775751204281475300,2.099475341796875,-0.5540407299995422,-0.47162431478500366,0.6691157817840576
1775751204291489000,2.109489013671875,-0.7646396160125732,-0.4574034810066223,0.5286265015602112
1775751204301502200,2.119502197265625,-0.8997873067855835,-0.3270460069179535,0.32428959012031555
1775751204311516200,2.12951611328125,-0.9682433009147644,-0.09442697465419769,0.18304048478603363
1775751204321529000,2.139529052734375,-0.8898148536682129,0.13649679720401764,0.08271415531635284
1775751204331542300,2.149542236328125,-0.667928159236908,0.2561263144016266,-0.008386791683733463
1775751204341556200,2.15955615234375,-0.36558374762535095,0.31771352887153625,-0.054457347840070724
1775751204351569200,2.169569091796875,-0.06221935898065567,0.15717117488384247,-0.05778324976563454
1775751204361582300,2.179582275390625,0.16347528994083405,-0.0938008576631546,-0.04163304343819618
1775751204371596300,2.18959619140625,0.27603572607040405,-0.3460986912250519,-0.07654473185539246
1775751204381609200,2.199609130859375,0.17105203866958618,-0.41390594840049744,-0.15782146155834198
1775751204391622400,2.209622314453125,-0.02421235665678978,-0.3330930769443512,-0.2443699687719345
1775751204401636000,2.219635986328125,-0.1010967493057251,-0.1365501880645752,-0.32976263761520386
1775751204411649300,2.229649169921875,-0.014855565503239632,-0.006545908283442259,-0.41713470220565796
1775751204421662200,2.239662109375,0.14474686980247498,-0.017484841868281364,-0.5092278718948364
1775751204431676200,2.24967626953125,0.3556769788265228,-0.027015842497348785,-0.5320690870285034
1775751204441689300,2.259689453125,0.6211219429969788,-0.044753558933734894,-0.4807036519050598
1775751204451702000,2.269701904296875,0.796088695526123,-0.17110241949558258,-0.409039705991745
1775751204461716200,2.27971630859375,0.7152532339096069,-0.2470294088125229,-0.38177400827407837
1775751204471729200,2.289729248046875,0.4985038936138153,-0.3235502541065216,-0.37719956040382385
1775751204481742000,2.2997421875,0.27458611130714417,-0.4134489893913269,-0.34149110317230225
1775751204491756300,2.30975634765625,0.1363195776939392,-0.5173560976982117,-0.3133351802825928
1775751204501769200,2.319769287109375,0.0544513538479805,-0.5771291851997375,-0.2731552720069885
1775751204511782100,2.3297822265625,0.03673071041703224,-0.4214898347854614,-0.20935896039009094
1775751204521796400,2.33979638671875,0.11702821403741837,-0.09864894300699234,-0.18989232182502747
1775751204531809300,2.349809326171875,0.3223581314086914,0.24972949922084808,-0.18099696934223175
1775751204541823200,2.3598232421875,0.6145591139793396,0.46558642387390137,-0.11054303497076035
1775751204551836200,2.369836181640625,0.8888292908668518,0.4611612856388092,0.05037880688905716
1775751204561849300,2.379849365234375,1.0066254138946533,0.08062699437141418,0.31933489441871643
1775751204571863300,2.38986328125,0.8178430199623108,-0.5730523467063904,0.5434922575950623
1775751204581876200,2.399876220703125,0.5091373324394226,-1.0689393281936646,0.6362520456314087
1775751204591889400,2.409889404296875,0.24786876142024994,-1.2332683801651,0.58295077085495
1775751204601903400,2.4199033203125,0.07627570629119873,-1.009578824043274,0.42993593215942383
1775751204611916300,2.429916259765625,0.014882612973451614,-0.6075019240379333,0.25968948006629944
1775751204621929500,2.439929443359375,0.002092514419928193,-0.14917589724063873,0.07083752006292343
1775751204631943400,2.449943359375,0.058106500655412674,0.36227115988731384,-0.16131620109081268
1775751204641956400,2.459956298828125,0.13873930275440216,0.8285900950431824,-0.35189762711524963
1775751204651969500,2.469969482421875,0.19244706630706787,1.1916179656982422,-0.42081692814826965
1775751204661983200,2.479983154296875,0.19645830988883972,1.2235453128814697,-0.3726390302181244
1775751204671996400,2.489996337890625,0.10251499712467194,0.9712781310081482,-0.23676075041294098
1775751204682009300,2.50000927734375,-0.03616885095834732,0.3702569901943207,-0.09314659237861633
1775751204692023300,2.510023193359375,-0.20856912434101105,-0.22486448287963867,-0.04891476035118103
1775751204702036500,2.520036376953125,-0.3193368911743164,-0.5523885488510132,-0.14641228318214417
1775751204712049200,2.530049072265625,-0.34812864661216736,-0.6038727760314941,-0.3369096517562866
1775751204722063400,2.5400634765625,-0.36184656620025635,-0.3974394202232361,-0.5418122410774231
1775751204732076300,2.550076171875,-0.3487457036972046,-0.06411589682102203,-0.6770622134208679
1775751204742090500,2.560090576171875,-0.2372114360332489,0.21399694681167603,-0.6322805881500244
1775751204752103400,2.570103515625,-0.09291734546422958,0.25154364109039307,-0.37560757994651794
1775751204762116400,2.580116455078125,-0.03786075860261917,-0.015179919078946114,0.019911784678697586
1775751204772130300,2.59013037109375,-0.10771097242832184,-0.39118972420692444,0.35506343841552734
1775751204782143200,2.600143310546875,-0.267466276884079,-0.619441568851471,0.5721750259399414
1775751204792156400,2.610156494140625,-0.48551419377326965,-0.6434145569801331,0.6385866403579712
1775751204802170400,2.62017041015625,-0.6946737766265869,-0.31267043948173523,0.5367079377174377
1775751204812183300,2.630183349609375,-0.8009480237960815,0.1998128443956375,0.30840450525283813
1775751204822196200,2.6401962890625,-0.8467347025871277,0.7611398100852966,0.035863783210515976
1775751204832210200,2.650210205078125,-0.8287761211395264,1.3020325899124146,-0.1811419129371643
1775751204842223400,2.660223388671875,-0.7428241968154907,1.6386194229125977,-0.2908364534378052
1775751204852236300,2.670236328125,-0.6453070044517517,1.7333143949508667,-0.21677406132221222
1775751204862250200,2.680250244140625,-0.6132462620735168,1.4848036766052246,0.016769181936979294
1775751204872263400,2.690263427734375,-0.6574172377586365,1.0822492837905884,0.27625375986099243
1775751204882276400,2.7002763671875,-0.73232501745224,0.7933538556098938,0.43302232027053833
1775751204892290300,2.710290283203125,-0.7319654822349548,0.6572521924972534,0.47763124108314514
1775751204902303500,2.720303466796875,-0.6745429635047913,0.4821227192878723,0.41596096754074097
1775751204912316400,2.73031640625,-0.6352895498275757,0.35366731882095337,0.2115490585565567
1775751204922330400,2.740330322265625,-0.6179526448249817,0.4274754822254181,-0.05512285232543945
1775751204932343300,2.75034326171875,-0.5988007187843323,0.6238305568695068,-0.28125667572021484
1775751204942357200,2.760357177734375,-0.5978864431381226,0.7897092700004578,-0.407589316368103
1775751204952370400,2.770370361328125,-0.6164250373840332,0.8716018795967102,-0.453573077917099
1775751204962383400,2.78038330078125,-0.6022453308105469,0.9243617653846741,-0.4065999686717987
1775751204972397300,2.790397216796875,-0.5152451992034912,0.7980385422706604,-0.3124549984931946
1775751204982410500,2.800410400390625,-0.4127129912376404,0.5595383644104004,-0.18849654495716095
1775751204992423200,2.810423095703125,-0.3594824969768524,0.3138444423675537,-0.09401047974824905
1775751205002437400,2.820437255859375,-0.3397732377052307,0.23307928442955017,-0.043813351541757584
1775751205012450600,2.830450439453125,-0.29960897564888,0.2674833834171295,-0.035379525274038315
1775751205022463200,2.840463134765625,-0.1943454146385193,0.2777397334575653,-0.08475293219089508
1775751205032477400,2.8504775390625,-0.059827305376529694,0.28789564967155457,-0.14574453234672546
1775751205042490400,2.860490478515625,0.07688713073730469,0.25167718529701233,-0.19304734468460083
1775751205052503300,2.87050341796875,0.2154330313205719,0.16775910556316376,-0.17447951436042786
1775751205062517500,2.880517578125,0.36115214228630066,0.1046065092086792,-0.09960126876831055
1775751205072530200,2.8905302734375,0.43287983536720276,0.1796754002571106,-0.011141910217702389
1775751205082543400,2.90054345703125,0.436712384223938,0.3264712393283844,0.09327051043510437
1775751205092557300,2.910557373046875,0.3897855877876282,0.3535991311073303,0.2466888725757599
1775751205102570200,2.9205703125,0.2896217107772827,0.2521473467350006,0.45051735639572144
1775751205112584400,2.93058447265625,0.16708095371723175,0.003958174493163824,0.5563293099403381
1775751205122597400,2.940597412109375,0.10225668549537659,-0.22979892790317535,0.5169142484664917
1775751205132610300,2.9506103515625,0.13915343582630157,-0.2917017936706543,0.4099135994911194
1775751205142624300,2.960624267578125,0.24198020994663239,-0.23529256880283356,0.31076332926750183
1775751205152637200,2.97063720703125,0.2848362922668457,-0.08548121154308319,0.21153102815151215
1775751205162650400,2.980650390625,0.27086856961250305,0.13378429412841797,0.1494455635547638
1775751205172664300,2.990664306640625,0.223062664270401,0.3146306574344635,0.1347845196723938
1775751205182677200,3.00067724609375,0.19156065583229065,0.285866916179657,0.1176806315779686
1775751205192690400,3.0106904296875,0.20027455687522888,0.08084188401699066,0.058653052896261215
1775751205202704400,3.020704345703125,0.21752943098545074,-0.15121318399906158,-0.0945729911327362
1775751205212717300,3.03071728515625,0.1658657044172287,-0.35028910636901855,-0.24160586297512054
1775751205222730500,3.04073046875,0.08111193776130676,-0.4292587637901306,-0.3181757628917694
1775751205232744400,3.050744384765625,0.022643832489848137,-0.3216366767883301,-0.32506003975868225
1775751205242757400,3.06075732421875,-0.002276430372148752,-0.10830310732126236,-0.2817056179046631
1775751205252771300,3.070771240234375,-0.006265832111239433,0.03536083176732063,-0.2446926236152649
1775751205262784300,3.0807841796875,0.040592219680547714,0.10403256863355637,-0.2448425590991974
1775751205272797400,3.09079736328125,0.15135543048381805,0.09193140268325806,-0.24048958718776703
1775751205282811400,3.100811279296875,0.27927476167678833,-0.068173848092556,-0.20695054531097412
1775751205292824300,3.11082421875,0.36257612705230713,-0.3219892680644989,-0.14003564417362213
1775751205302837200,3.120837158203125,0.362320214509964,-0.5049023628234863,-0.06336243450641632
1775751205312851500,3.1308515625,0.31898924708366394,-0.5069404244422913,-0.011495307087898254
1775751205322864400,3.140864501953125,0.2828826308250427,-0.34879767894744873,0.008290381170809269
1775751205332877300,3.150877197265625,0.24488647282123566,-0.17325365543365479,-0.031561627984046936
1775751205342891500,3.1608916015625,0.2219420075416565,-0.04247993230819702,-0.14273075759410858
1775751205352904200,3.170904296875,0.25340116024017334,0.08944694697856903,-0.2905327379703522
1775751205362917400,3.18091748046875,0.299870103597641,0.2456989884376526,-0.4031754434108734
1775751205372931300,3.190931396484375,0.3845362365245819,0.34976115822792053,-0.42944300174713135
1775751205382944300,3.2009443359375,0.45541495084762573,0.40667983889579773,-0.3081898093223572
1775751205392958500,3.21095849609375,0.5094044804573059,0.3494541049003601,-0.10011816769838333
1775751205402971400,3.220971435546875,0.4928816556930542,0.27129459381103516,0.14062786102294922
1775751205412984300,3.230984375,0.4094597399234772,0.2501769959926605,0.3653574287891388
1775751205422998500,3.24099853515625,0.3455366790294647,0.212112158536911,0.5173525810241699
1775751205433011200,3.25101123046875,0.36798974871635437,0.12141812592744827,0.5697295665740967
1775751205443024400,3.2610244140625,0.4101409316062927,-0.07317106425762177,0.5169251561164856
1775751205453038300,3.271038330078125,0.4209909439086914,-0.29895514249801636,0.39323878288269043
1775751205463051300,3.28105126953125,0.4212665855884552,-0.402955025434494,0.2878681421279907
1775751205473064400,3.291064453125,0.3976864516735077,-0.4393995404243469,0.17970134317874908
1775751205483078100,3.301078125,0.3226771950721741,-0.3767244219779968,0.013724364340305328
1775751205493091300,3.31109130859375,0.21188031136989594,-0.1497059017419815,-0.1791137009859085
1775751205503104500,3.3211044921875,0.09715799242258072,0.14369668066501617,-0.35820409655570984
1775751205513118200,3.3311181640625,0.01397201418876648,0.3956913352012634,-0.4858076572418213
1775751205523131400,3.34113134765625,-0.04841040447354317,0.47854334115982056,-0.5684279799461365
1775751205533145300,3.351145263671875,-0.13691572844982147,0.40571630001068115,-0.5834193229675293
1775751205543158300,3.361158203125,-0.21016570925712585,0.24909821152687073,-0.5214739441871643
1775751205553171200,3.371171142578125,-0.24428695440292358,0.1065155491232872,-0.42413973808288574
1775751205563185200,3.38118505859375,-0.2585007846355438,0.08007754385471344,-0.3405569791793823
1775751205573198000,3.391197998046875,-0.28573185205459595,0.09794384986162186,-0.3105534315109253
1775751205583211300,3.401211181640625,-0.3126577138900757,0.09960965067148209,-0.3556343615055084
1775751205593225200,3.41122509765625,-0.3863290250301361,0.12308384478092194,-0.4316679835319519
1775751205603238100,3.421238037109375,-0.4214593172073364,0.16218596696853638,-0.5474435687065125
1775751205613251300,3.431251220703125,-0.38595113158226013,0.24070791900157928,-0.6371161341667175
1775751205623265300,3.441265380859375,-0.3318506181240082,0.31201112270355225,-0.657335102558136
1775751205633278200,3.4512783203125,-0.2763013243675232,0.34138280153274536,-0.6407129168510437
1775751205643291100,3.461291015625,-0.21666114032268524,0.32200032472610474,-0.6132503747940063
1775751205653305300,3.471305419921875,-0.15293066203594208,0.2883072793483734,-0.5448567271232605
1775751205663318300,3.481318359375,-0.09616139531135559,0.2970874309539795,-0.412880003452301
1775751205673332200,3.491332275390625,-0.008213894441723824,0.25094127655029297,-0.2623567283153534
1775751205683345200,3.50134521484375,0.09211696684360504,0.14749637246131897,-0.13126075267791748
1775751205693358000,3.511358154296875,0.18870608508586884,0.057073529809713364,-0.04216869920492172
1775751205703372300,3.521372314453125,0.2695619761943817,0.034304022789001465,0.03098236955702305
1775751205713385200,3.53138525390625,0.31958359479904175,0.13309243321418762,0.08423089981079102
1775751205723398100,3.541398193359375,0.32150453329086304,0.31843432784080505,0.08524396270513535
1775751205733412400,3.551412353515625,0.28156355023384094,0.46403446793556213,0.06891745328903198
1775751205743425000,3.561425048828125,0.14782412350177765,0.5126296877861023,0.11495951563119888
1775751205753438200,3.571438232421875,0.04475843906402588,0.5047356486320496,0.21002133190631866
1775751205763452400,3.581452392578125,-0.05014756694436073,0.5196239948272705,0.30038559436798096
1775751205773465000,3.591465087890625,-0.08242643624544144,0.4747009873390198,0.37125077843666077
1775751205783479300,3.601479248046875,-0.06450255960226059,0.4024377167224884,0.4067040979862213
1775751205793492000,3.611491943359375,0.014559552073478699,0.33688250184059143,0.4016062319278717
1775751205803505200,3.621505126953125,0.04730871319770813,0.2867375910282135,0.3956447243690491
1775751205813519400,3.631519287109375,0.122768834233284,0.24564051628112793,0.3726368248462677
1775751205823532000,3.641531982421875,0.11727793514728546,0.26890110969543457,0.3379526138305664
1775751205833545200,3.651545166015625,0.15551288425922394,0.28316354751586914,0.2877592146396637
1775751205843559200,3.66155908203125,0.10321185737848282,0.28645652532577515,0.24375900626182556
1775751205853572000,3.671572021484375,0.08990911394357681,0.22832226753234863,0.2213728427886963
1775751205863585300,3.681585205078125,0.02437271550297737,0.20032045245170593,0.2096722424030304
1775751205873599200,3.69159912109375,0.02840370498597622,0.16663260757923126,0.18362386524677277
1775751205883612200,3.701612060546875,0.0016732909716665745,0.1829114407300949,0.14586611092090607
1775751205893625300,3.711625244140625,0.04278877377510071,0.21043477952480316,0.11574337631464005
1775751205903639000,3.72163916015625,0.09349402785301208,0.18542450666427612,0.08021228760480881
1775751205913652200,3.73165234375,0.1536138355731964,0.15237528085708618,0.007327303756028414
1775751205923666200,3.741666259765625,0.19626383483409882,0.12591305375099182,-0.05996758118271828
1775751205933679000,3.75167919921875,0.20685625076293945,0.15177272260189056,-0.09201795607805252
1775751205943692300,3.7616923828125,0.1845911592245102,0.19960150122642517,-0.09668593853712082
1775751205953706200,3.771706298828125,0.1538238674402237,0.1821346879005432,-0.06580308824777603
1775751205963719200,3.78171923828125,0.14313527941703796,0.09905657917261124,-0.005389807280153036
1775751205973732400,3.791732421875,0.13413885235786438,0.04924454912543297,0.058630988001823425
1775751205983746300,3.801746337890625,0.12851721048355103,0.03917589783668518,0.09156014770269394
1775751205993759200,3.81175927734375,0.12079489231109619,0.061772704124450684,0.08962418138980865
1775751206003772200,3.821772216796875,0.11828938871622086,0.09291917830705643,0.05520256236195564
1775751206013786000,3.8317861328125,0.09840170294046402,0.1081460639834404,-0.0029720617458224297
1775751206023799300,3.84179931640625,0.07276664674282074,0.11966583132743835,-0.07257670909166336
1775751206033813200,3.851813232421875,0.06225856393575668,0.1322115659713745,-0.14601831138134003
1775751206043826200,3.861826171875,0.06925015896558762,0.14742620289325714,-0.21136829257011414
1775751206053839000,3.871839111328125,0.0916430875658989,0.15106745064258575,-0.2488299459218979
1775751206063853300,3.881853271484375,0.11028734594583511,0.1309715062379837,-0.24693644046783447
1775751206073866200,3.8918662109375,0.1090841218829155,0.09169366210699081,-0.20310884714126587
1775751206083879200,3.901879150390625,0.07284489274024963,0.06310782581567764,-0.1232566237449646
1775751206093893400,3.911893310546875,0.037534862756729126,0.009381972253322601,-0.05426585674285889
1775751206103906000,3.921906005859375,0.017541982233524323,0.003587199840694666,0.016874635592103004
1775751206113920300,3.931920166015625,0.0034605013206601143,0.020849458873271942,0.08445485681295395
1775751206123933200,3.94193310546875,0.00022209761664271355,0.023940589278936386,0.11521250754594803
1775751206133946000,3.951946044921875,0.005472218617796898,0.03892645984888077,0.0999634638428688
1775751206143960300,3.961960205078125,0.016657762229442596,0.02756860852241516,0.049006275832653046
1775751206153973000,3.971972900390625,0.004107404034584761,0.05157969892024994,0.006759731564670801
1775751206163986200,3.981986083984375,-0.02601880580186844,0.08559571951627731,-0.009618708863854408
1775751206174000400,3.99200048828125,-0.04918990284204483,0.08924781531095505,-0.03647932782769203
1775751206184013000,4.002012939453125,-0.06521893292665482,0.06398187577724457,-0.08004198223352432
1775751206194026200,4.012026123046875,-0.07135538011789322,0.04139234870672226,-0.13173867762088776
1775751206204040200,4.022040283203125,-0.06682001799345016,0.0444595105946064,-0.19708412885665894
1775751206214053000,4.03205322265625,-0.07889561355113983,0.061935894191265106,-0.2601756453514099
1775751206224067300,4.0420673828125,-0.08470530062913895,0.07575610280036926,-0.2898637652397156
1775751206234080000,4.052080078125,-0.10874377936124802,0.06814642250537872,-0.27035629749298096
1775751206244093200,4.06209326171875,-0.1397767961025238,0.025910554453730583,-0.22138822078704834
1775751206254107100,4.072107177734375,-0.14912506937980652,-0.045742906630039215,-0.20929652452468872
1775751206264120000,4.0821201171875,-0.1556151956319809,-0.04897678270936012,-0.2311011552810669
1775751206274133200,4.09213330078125,-0.1591670662164688,-0.004983802326023579,-0.2730816900730133
1775751206284147200,4.102147216796875,-0.14835062623023987,0.039784204214811325,-0.33285021781921387
1775751206294160100,4.11216015625,-0.12797529995441437,0.09692087024450302,-0.36986833810806274
1775751206304173300,4.12217333984375,-0.09783311933279037,0.13976234197616577,-0.3709826171398163
1775751206314187300,4.132187255859375,-0.05516792833805084,0.1318962424993515,-0.33450859785079956
1775751206324200200,4.1422001953125,-0.03084554336965084,0.04019802063703537,-0.2619558274745941
1775751206334214100,4.152214111328125,-0.02371945045888424,-0.10627403110265732,-0.17632344365119934
1775751206344227000,4.16222705078125,-0.031828511506319046,-0.1610688418149948,-0.10428892821073532
1775751206354240300,4.172240234375,-0.05012793093919754,-0.14360946416854858,-0.05909600853919983
1775751206364254200,4.182254150390625,-0.06111879646778107,-0.07204180955886841,-0.03528974577784538
1775751206374267100,4.19226708984375,-0.05226559564471245,-0.023558668792247772,-0.05169776827096939
1775751206384280300,4.2022802734375,-0.032035160809755325,-0.037111759185791016,-0.12174902856349945
1775751206394294300,4.212294189453125,-0.007377472706139088,-0.04961675405502319,-0.24401386082172394
1775751206404307200,4.22230712890625,0.014578958041965961,-0.05861397460103035,-0.3855307698249817
1775751206414320000,4.232320068359375,0.020226124674081802,-0.053724322468042374,-0.5063411593437195
1775751206424334300,4.242334228515625,0.009686400182545185,-0.009456992149353027,-0.5898927450180054
1775751206434347300,4.25234716796875,0.004803243558853865,0.06765305995941162,-0.6564474105834961
1775751206444361200,4.262361328125,0.030568260699510574,0.13963563740253448,-0.6818444132804871
1775751206454374100,4.2723740234375,0.05793651565909386,0.17328909039497375,-0.6470527648925781
1775751206464387000,4.282386962890625,0.03911648690700531,0.16757340729236603,-0.5397872924804688
1775751206474401300,4.2924013671875,-0.002362239407375455,0.04892189800739288,-0.4049204885959625
1775751206484414200,4.302414306640625,-0.06166018173098564,-0.07744669169187546,-0.2780890464782715
1775751206494427100,4.31242724609375,-0.09117576479911804,-0.1343051791191101,-0.1637851446866989
1775751206504441300,4.32244140625,-0.08487606048583984,-0.18571937084197998,-0.10617457330226898
1775751206514454000,4.3324541015625,-0.057669494301080704,-0.2104494422674179,-0.0973815843462944
1775751206524468200,4.34246826171875,-0.006895000115036964,-0.1884128600358963,-0.09493228048086166
1775751206534481400,4.3524814453125,0.04936591535806656,-0.13259199261665344,-0.08566917479038239
1775751206544494000,4.362494140625,0.09998515248298645,-0.03161770850419998,-0.08274795114994049
1775751206554508300,4.37250830078125,0.13456125557422638,0.09418125450611115,-0.09707609564065933
1775751206564521200,4.382521240234375,0.15453842282295227,0.17612938582897186,-0.11472273617982864
1775751206574534400,4.392534423828125,0.14438216388225555,0.1907971203327179,-0.13041889667510986
1775751206584548400,4.40254833984375,0.09195384383201599,0.12109047174453735,-0.13187219202518463
1775751206594561300,4.412561279296875,-0.0017180022550746799,0.006586349103599787,-0.11871490627527237
1775751206604575500,4.422575439453125,-0.07989669591188431,-0.07762493193149567,-0.1008424311876297
1775751206614588200,4.432588134765625,-0.10886476188898087,-0.10124079138040543,-0.09904357045888901
1775751206624601300,4.442601318359375,-0.0936322808265686,-0.06148618832230568,-0.11724521219730377
1775751206634615300,4.452615234375,-0.04837370663881302,0.0012881665024906397,-0.14535976946353912
1775751206644628200,4.462628173828125,-0.010505419224500656,0.06374222785234451,-0.15694531798362732
1775751206654641400,4.472641357421875,0.0014572716318070889,0.16236983239650726,-0.13976678252220154
1775751206664655000,4.482655029296875,0.013411668129265308,0.2340160608291626,-0.10841233283281326
1775751206674668300,4.492668212890625,0.028011081740260124,0.26219168305397034,-0.04539961367845535
1775751206684682500,4.5026826171875,0.0338125117123127,0.23703278601169586,0.026692157611250877
1775751206694695200,4.512695068359375,0.0413154736161232,0.16599822044372559,0.08039116859436035
1775751206704708400,4.522708251953125,0.01719202846288681,0.07947506010532379,0.1271011382341385
1775751206714722300,4.532722412109375,-0.005891742184758186,-0.014355422928929329,0.1498054563999176
1775751206724735200,4.5427353515625,-0.03178326040506363,-0.04849208891391754,0.16049563884735107
1775751206734748400,4.55274853515625,-0.037588123232126236,-0.017170216888189316,0.16277985274791718
1775751206744762400,4.562762451171875,-0.016876451671123505,0.025151673704385757,0.17227135598659515
1775751206754775300,4.572775390625,0.0018159702885895967,0.03225012123584747,0.1971699595451355
1775751206764789200,4.582789306640625,0.010754870250821114,0.016667431220412254,0.22328118979930878
1775751206774802200,4.59280224609375,0.011327173560857773,0.014500271528959274,0.22597967088222504
1775751206784815400,4.6028154296875,0.01750091277062893,0.010499938391149044,0.20427995920181274
1775751206794829300,4.612829345703125,0.015039902180433273,-0.002286080503836274,0.18337829411029816
1775751206804842200,4.62284228515625,0.0013991910964250565,-0.0408656969666481,0.17029765248298645
1775751206814855400,4.63285546875,-0.017775041982531548,-0.08977512270212173,0.1635502129793167
1775751206824869400,4.642869384765625,-0.050319138914346695,-0.10325151681900024,0.15791736543178558
1775751206834882300,4.65288232421875,-0.0811319425702095,-0.08951573073863983,0.13063164055347443
1775751206844895500,4.6628955078125,-0.09211588650941849,-0.040337804704904556,0.09851763397455215
1775751206854909400,4.672909423828125,-0.08668754249811172,0.006108651868999004,0.06519318372011185
1775751206864922400,4.68292236328125,-0.07857955247163773,0.032077133655548096,0.04998014494776726
1775751206874936300,4.692936279296875,-0.08349388837814331,0.03777838870882988,0.06794842332601547
1775751206884949200,4.70294921875,-0.07634170353412628,0.021641496568918228,0.10338044911623001
1775751206894962400,4.71296240234375,-0.05412532761693001,0.00010140123777091503,0.13868798315525055
1775751206904976400,4.722976318359375,-0.03488478809595108,-0.015514576807618141,0.16239731013774872
1775751206914989300,4.7329892578125,-0.02492375485599041,-0.04120264947414398,0.16697166860103607
1775751206925002200,4.743002197265625,-0.02589634247124195,-0.05616961419582367,0.15707962214946747
1775751206935016400,4.753016357421875,-0.03460356593132019,-0.056558724492788315,0.13131281733512878
1775751206945029400,4.763029296875,-0.051360175013542175,-0.05137648060917854,0.1087007150053978
1775751206955043300,4.773043212890625,-0.07004596292972565,-0.02741476707160473,0.08515028655529022
1775751206965056500,4.783056396484375,-0.08034414052963257,0.012608815915882587,0.06172671914100647
1775751206975069200,4.793069091796875,-0.09794364869594574,0.05731861665844917,0.05172352120280266
1775751206985083400,4.80308349609375,-0.11636100709438324,0.0926947146654129,0.055611468851566315
1775751206995096300,4.813096435546875,-0.11911896616220474,0.11213620007038116,0.056465111672878265
1775751207005109200,4.823109130859375,-0.11002453416585922,0.10712653398513794,0.05511089414358139
1775751207015123500,4.83312353515625,-0.09575297683477402,0.0680890902876854,0.07727321237325668
1775751207025136000,4.84313623046875,-0.08053700625896454,-0.009394515305757523,0.12111710011959076
1775751207035150300,4.853150390625,-0.06297098100185394,-0.08738349378108978,0.15461884438991547
1775751207045163500,4.86316357421875,-0.02997041679918766,-0.13071925938129425,0.15207020938396454
1775751207055176200,4.87317626953125,-0.007160495966672897,-0.14426109194755554,0.12443488836288452
1775751207065190400,4.8831904296875,0.005707099102437496,-0.1020856723189354,0.08241260796785355
1775751207075203300,4.893203369140625,0.0208261851221323,-0.0384877547621727,0.024744225665926933
1775751207085216300,4.90321630859375,0.02798795886337757,0.0056067355908453465,-0.02034335769712925
1775751207095230500,4.91323046875,0.033372823148965836,0.013494396582245827,-0.0411795936524868
1775751207105243100,4.9232431640625,0.034871917217969894,-0.00983143225312233,-0.03254322707653046
1775751207115257300,4.93325732421875,0.024023551493883133,-0.04804633557796478,0.0000444948673248291
1775751207125270300,4.943270263671875,0.005556127056479454,-0.07570938766002655,0.041475560516119
1775751207135283200,4.953283203125,-0.010102194733917713,-0.09506204724311829,0.06280507892370224
1775751207145297400,4.96329736328125,-0.021660074591636658,-0.08537113666534424,0.058755479753017426
1775751207155310300,4.973310302734375,-0.02379143238067627,-0.06323820352554321,0.025344789028167725
1775751207165323300,4.9833232421875,-0.017575614154338837,-0.024675896391272545,-0.02108156494796276
1775751207175337200,4.993337158203125,-0.008745904080569744,0.023703087121248245,-0.055588144809007645
1775751207185350400,5.003350341796875,0.007069011218845844,0.06111197546124458,-0.07443320006132126
1775751207195364400,5.0133642578125,0.0005474828649312258,0.0663674846291542,-0.07576805353164673
1775751207205377300,5.023377197265625,-0.01622537150979042,0.05791673809289932,-0.05574507638812065
1775751207215390200,5.03339013671875,-0.029285531491041183,0.039178818464279175,-0.03478163853287697
1775751207225404200,5.043404052734375,-0.04491349309682846,0.004116439260542393,-0.013837475329637527
1775751207235417300,5.053417236328125,-0.043458618223667145,-0.03352498635649681,-0.015576592646539211
1775751207245430300,5.06343017578125,-0.029420029371976852,-0.03645339980721474,-0.036634739488363266
1775751207255444200,5.0734443359375,-0.00775599479675293,-0.01856476068496704,-0.06273914128541946
1775751207265457400,5.08345751953125,0.024898353964090347,0.014099708758294582,-0.08324255794286728
1775751207275471000,5.09347119140625,0.04863540455698967,0.04355523735284805,-0.09450504183769226
1775751207285484300,5.103484375,0.054256539791822433,0.06045139580965042,-0.08698400855064392
1775751207295497500,5.11349755859375,0.052628520876169205,0.05397016182541847,-0.062379080802202225
1775751207305511200,5.12351123046875,0.04985137656331062,0.023709991946816444,-0.036928314715623856
1775751207315524400,5.1335244140625,0.04560470953583717,-0.00706402026116848,-0.0070038773119449615
1775751207325537300,5.143537353515625,0.04933100566267967,-0.0345691479742527,0.019858628511428833
1775751207335551200,5.15355126953125,0.04990836977958679,-0.0397270992398262,0.022696711122989655
1775751207345564400,5.163564453125,0.052943043410778046,-0.02436625026166439,0.018719812855124474
1775751207355578400,5.173578369140625,0.05785604566335678,-0.020823877304792404,0.030532287433743477
1775751207365591300,5.18359130859375,0.057125274091959,-0.033646196126937866,0.05041491612792015
1775751207375604500,5.1936044921875,0.05242668092250824,-0.06189219653606415,0.06918693333864212
1775751207385618200,5.2036181640625,0.03803842142224312,-0.07875266671180725,0.10276726633310318
1775751207395631400,5.21363134765625,0.017082802951335907,-0.08036558330059052,0.127214252948761
1775751207405645300,5.223645263671875,-0.0002714204601943493,-0.07756207138299942,0.12208181619644165
1775751207415658200,5.233658203125,-0.0037684431299567223,-0.07328792661428452,0.10979641228914261
1775751207425671400,5.24367138671875,0.009702091105282307,-0.08662264049053192,0.10197683423757553
1775751207435685400,5.253685302734375,0.023968923836946487,-0.10759718716144562,0.11925022304058075
1775751207445698300,5.2636982421875,0.023234957829117775,-0.13691486418247223,0.17404475808143616
1775751207455711500,5.27371142578125,0.006704460829496384,-0.16706542670726776,0.25607287883758545
1775751207465725400,5.283725341796875,0.00004762341268360615,-0.16283339262008667,0.347227543592453
1775751207475738400,5.29373828125,0.012679212726652622,-0.16780106723308563,0.4298740327358246
1775751207485752300,5.30375244140625,0.02978123351931572,-0.18704481422901154,0.4929153323173523
1775751207495765200,5.31376513671875,0.024257076904177666,-0.18957631289958954,0.5540663599967957
1775751207505778400,5.3237783203125,-0.007967439480125904,-0.15923625230789185,0.6327510476112366
1775751207515792400,5.33379248046875,-0.044865790754556656,-0.1358002871274948,0.7191979289054871
1775751207525805300,5.343805419921875,-0.0850670114159584,-0.11963356286287308,0.8202371597290039
1775751207535818200,5.353818359375,-0.12669304013252258,-0.10720808058977127,0.9245660901069641
1775751207545832400,5.36383251953125,-0.1591860055923462,-0.10733857750892639,0.991383969783783
1775751207555844600,5.3738447265625,-0.181166410446167,-0.09599576145410538,1.0146623849868774
1775751207565858600,5.383858642578125,-0.19220761954784393,-0.0979236289858818,0.9917232990264893
1775751207575871700,5.393871826171875,-0.17883768677711487,-0.08724530041217804,0.9241694211959839
1775751207585884700,5.403884765625,-0.14228206872940063,-0.052153363823890686,0.8351607322692871
1775751207595898600,5.413898681640625,-0.10343591123819351,0.006548255681991577,0.75728440284729
1775751207605911600,5.42391162109375,-0.048941511660814285,0.05609157308936119,0.6757160425186157
1775751207615925500,5.433925537109375,0.0030886612366884947,0.05797838047146797,0.5712130069732666
1775751207625938700,5.443938720703125,-0.012236232869327068,0.023800969123840332,0.4701377749443054
1775751207635951600,5.45395166015625,-0.11833441257476807,-0.04924558103084564,0.3981413245201111
1775751207645965600,5.463965576171875,-0.24889294803142548,-0.09793961048126221,0.35873985290527344
1775751207655978800,5.473978759765625,-0.33889105916023254,-0.08799293637275696,0.3242948353290558
1775751207665991400,5.483991455078125,-0.4009493589401245,-0.0019581892993301153,0.29870396852493286
1775751207676005600,5.494005615234375,-0.41625136137008667,0.0896197035908699,0.2842889130115509
1775751207686018800,5.504018798828125,-0.4022423326969147,0.12815643846988678,0.26459458470344543
1775751207696032500,5.514032470703125,-0.36007222533226013,0.12319387495517731,0.2145387828350067
1775751207706045700,5.524045654296875,-0.28406456112861633,0.12913192808628082,0.1692647784948349
1775751207716058400,5.534058349609375,-0.18430200219154358,0.12431395053863525,0.1312294453382492
1775751207726072600,5.544072509765625,-0.07493850588798523,0.10707184672355652,0.0734739899635315
1775751207736085800,5.554085693359375,-0.03212684020400047,0.061375923454761505,0.012436375953257084
1775751207746098400,5.564098388671875,-0.07550440728664398,-0.03624118119478226,-0.05079212784767151
1775751207756112600,5.574112548828125,-0.15218593180179596,-0.15331339836120605,-0.10317299515008926
1775751207766125600,5.58412548828125,-0.24946534633636475,-0.17218029499053955,-0.1532188504934311
1775751207776139500,5.594139404296875,-0.33226993680000305,-0.14425042271614075,-0.2240297794342041
1775751207786152700,5.604152587890625,-0.3757540285587311,-0.058041762560606,-0.2996678352355957
1775751207796165600,5.61416552734375,-0.36845478415489197,0.047242652624845505,-0.37178030610084534
1775751207806179600,5.6241796875,-0.30843377113342285,0.1406783163547516,-0.4257335662841797
1775751207816192500,5.634192626953125,-0.18845976889133453,0.2098981738090515,-0.4305744171142578
1775751207826206700,5.644206787109375,-0.04489966481924057,0.26795294880867004,-0.40292122960090637
1775751207836219600,5.6542197265625,0.10515428334474564,0.2804754972457886,-0.3889177441596985
1775751207846232600,5.664232666015625,0.21726804971694946,0.16987763345241547,-0.38063639402389526
1775751207856246800,5.674246826171875,0.24611090123653412,0.026249438524246216,-0.3515574634075165
1775751207866259500,5.684259521484375,0.2333173304796219,-0.11295798420906067,-0.3136462867259979
1775751207876272600,5.694272705078125,0.20949266850948334,-0.2354074865579605,-0.2661990821361542
1775751207886286600,5.70428662109375,0.1666908711194992,-0.38378047943115234,-0.20410694181919098
1775751207896299500,5.714299560546875,0.07090629637241364,-0.49693143367767334,-0.11926427483558655
1775751207906313700,5.724313720703125,-0.01729920133948326,-0.5097681879997253,-0.056549493223428726
1775751207916326400,5.734326416015625,-0.08947459608316422,-0.4075762629508972,-0.042641669511795044
1775751207926339600,5.744339599609375,-0.1323397010564804,-0.17873238027095795,-0.049013376235961914
1775751207936353800,5.754353759765625,-0.09578066319227219,-0.011281915940344334,-0.06872142851352692
1775751207946366500,5.764366455078125,0.01404597144573927,0.08885534107685089,-0.09474769979715347
1775751207956379600,5.774379638671875,0.1585719883441925,0.21246106922626495,-0.12542040646076202
1775751207966393600,5.7843935546875,0.325077086687088,0.283568799495697,-0.1832789182662964
1775751207976406500,5.794406494140625,0.45267418026924133,0.27820706367492676,-0.2586621046066284
1775751207986420700,5.804420654296875,0.5362657308578491,0.23620180785655975,-0.30718809366226196
1775751207996433400,5.814433349609375,0.5059728026390076,-0.0037541454657912254,-0.2923687994480133
1775751208006446600,5.824446533203125,0.38591429591178894,-0.3152158856391907,-0.20682673156261444
1775751208016460500,5.83446044921875,0.2857307493686676,-0.541519820690155,-0.08264852315187454
1775751208026473500,5.844473388671875,0.2370329648256302,-0.615860104560852,0.012288110330700874
1775751208036487700,5.85448779296875,0.21315640211105347,-0.5001488327980042,0.07109005749225616
1775751208046500600,5.86450048828125,0.2008288949728012,-0.2769109904766083,0.11285001784563065
1775751208056513500,5.874513427734375,0.1904979646205902,-0.07029230147600174,0.13393692672252655
1775751208066527500,5.884527587890625,0.17073704302310944,0.03043724037706852,0.14025261998176575
1775751208076540700,5.894540771484375,0.12513357400894165,0.04980491101741791,0.1094089224934578
1775751208086553600,5.9045537109375,0.07762225717306137,0.019474970176815987,0.0985243171453476
1775751208096567600,5.914567626953125,0.015233749523758888,-0.05872129648923874,0.08200584352016449
1775751208106580500,5.92458056640625,-0.029130786657333374,-0.11442583799362183,0.015725089237093925
1775751208116594400,5.934594482421875,-0.03926733136177063,-0.12593071162700653,-0.0975225642323494
1775751208126607600,5.944607666015625,-0.02754063345491886,-0.0799991711974144,-0.24048425257205963
1775751208136620500,5.95462060546875,-0.0019090217538177967,0.04642952233552933,-0.3840670883655548
1775751208146634500,5.964634521484375,0.02365519478917122,0.234765887260437,-0.44555333256721497
1775751208156647700,5.974647705078125,0.06922105699777603,0.3905404210090637,-0.38272637128829956
1775751208166660600,5.98466064453125,0.1280851811170578,0.46063855290412903,-0.2268904596567154
1775751208176674600,5.994674560546875,0.1738196462392807,0.4040960967540741,-0.026509983465075493
1775751208186687700,6.004687744140625,0.1676621437072754,0.2202168107032776,0.16362880170345306
1775751208196701400,6.014701416015625,0.15962472558021545,-0.007721517235040665,0.2975398004055023
1775751208206714600,6.024714599609375,0.14805009961128235,-0.17822881042957306,0.3577514588832855
1775751208216727600,6.0347275390625,0.10775540769100189,-0.21596835553646088,0.3458192050457001
1775751208226741500,6.044741455078125,0.04391118139028549,-0.13097889721393585,0.2744542062282562
1775751208236754700,6.054754638671875,0.0058804163709282875,-0.00422730902209878,0.19523797929286957
1775751208246767600,6.064767578125,0.012700239196419716,0.1521255373954773,0.11784598976373672
1775751208256781600,6.074781494140625,0.09730778634548187,0.2561091184616089,0.08946985751390457
1775751208266794800,6.084794677734375,0.22286012768745422,0.28050127625465393,0.13889439404010773
1775751208276808400,6.094808349609375,0.3220352530479431,0.2201804220676422,0.23649774491786957
1775751208286821600,6.104821533203125,0.40657463669776917,0.08390380442142487,0.35257720947265625
1775751208296834800,6.114834716796875,0.4602311849594116,-0.025743290781974792,0.452590674161911
1775751208306848500,6.1248486328125,0.4914335608482361,-0.03999439999461174,0.46787160634994507
1775751208316861700,6.13486181640625,0.5004677772521973,-0.0014570243656635284,0.402531236410141
1775751208326875600,6.144875732421875,0.47105371952056885,0.04222733899950981,0.31949150562286377
1775751208336888600,6.154888671875,0.43566006422042847,0.07720693945884705,0.23036222159862518
1775751208346901800,6.16490185546875,0.3886302411556244,0.09269508719444275,0.15641343593597412
1775751208356915700,6.174915771484375,0.34606945514678955,0.14348763227462769,0.10817644000053406
1775751208366928600,6.1849287109375,0.317158967256546,0.19757616519927979,0.07610452175140381
1775751208376942600,6.194942626953125,0.301591694355011,0.25754398107528687,0.07607253640890121
1775751208386955500,6.20495556640625,0.29188448190689087,0.24094291031360626,0.13191768527030945
1775751208396968700,6.21496875,0.26493412256240845,0.11637378484010696,0.21491216123104095
1775751208406982700,6.224982666015625,0.1843508630990982,-0.05400115251541138,0.27417734265327454
1775751208416995600,6.23499560546875,0.09888205677270889,-0.14582255482673645,0.2894103229045868
1775751208427008500,6.245008544921875,0.05573618412017822,-0.17252767086029053,0.2601988911628723
1775751208437022700,6.255022705078125,0.02150866948068142,-0.15406690537929535,0.20109744369983673
1775751208447035600,6.26503564453125,-0.01820412091910839,-0.07209374755620956,0.09776332974433899
1775751208457049600,6.275049560546875,-0.05327161028981209,0.015494236722588539,-0.05880625545978546
1775751208467062800,6.285062744140625,-0.07573537528514862,0.11883607506752014,-0.2146666944026947
1775751208477075500,6.295075439453125,-0.06940022855997086,0.22090770304203033,-0.3299262225627899
1775751208487089700,6.305089599609375,-0.049044087529182434,0.3113529086112976,-0.37750279903411865
1775751208497102600,6.3151025390625,-0.043940942734479904,0.35942766070365906,-0.36068496108055115
1775751208507115500,6.325115478515625,-0.04864807799458504,0.35324060916900635,-0.2891620397567749
1775751208517129700,6.335129638671875,-0.06558813154697418,0.3449360430240631,-0.19593098759651184
1775751208527142400,6.345142333984375,-0.06490050256252289,0.32733628153800964,-0.13044758141040802
1775751208537156600,6.355156494140625,-0.06872215867042542,0.32065269351005554,-0.07157517224550247
1775751208547169800,6.365169677734375,-0.08927936851978302,0.21585145592689514,-0.00969662331044674
1775751208557183500,6.37518359375,-0.12236356735229492,0.06836666911840439,0.03049035556614399
1775751208567197400,6.385197509765625,-0.17040513455867767,-0.012305802665650845,0.051395103335380554
1775751208577210400,6.39521044921875,-0.22099082171916962,-0.007084062322974205,0.037629589438438416
1775751208587224600,6.405224609375,-0.2228555679321289,0.08369430899620056,-0.0070673078298568726
1775751208597237500,6.415237548828125,-0.17813226580619812,0.2619224488735199,-0.05870101600885391
1775751208607250400,6.42525048828125,-0.13681598007678986,0.45207828283309937,-0.11185744404792786
1775751208617264400,6.435264404296875,-0.11225125938653946,0.5671279430389404,-0.14253132045269012
1775751208627277300,6.44527734375,-0.09942840784788132,0.5579320192337036,-0.15221405029296875
1775751208637291500,6.45529150390625,-0.08427076786756516,0.41803282499313354,-0.14855441451072693
1775751208647304400,6.465304443359375,-0.043052759021520615,0.23698556423187256,-0.13473208248615265
1775751208657317400,6.4753173828125,-0.016009151935577393,0.10238028317689896,-0.13059987127780914
1775751208667331600,6.48533154296875,-0.01397263165563345,0.059763576835393906,-0.15013763308525085
1775751208677344500,6.495344482421875,-0.020155921578407288,0.08091451227664948,-0.17901846766471863
1775751208687357400,6.505357421875,-0.041508082300424576,0.15146617591381073,-0.20134268701076508
1775751208697371400,6.515371337890625,-0.0682433620095253,0.25160908699035645,-0.23826676607131958
1775751208707384600,6.525384521484375,-0.09437482804059982,0.3451478183269501,-0.29437610507011414
1775751208717398500,6.5353984375,-0.0926104336977005,0.3810328543186188,-0.345335990190506
1775751208727411500,6.545411376953125,-0.07669911533594131,0.3537839353084564,-0.3624364137649536
1775751208737424400,6.55542431640625,-0.08178898692131042,0.2921827733516693,-0.3685590624809265
1775751208747438300,6.565438232421875,-0.1103721559047699,0.1950855255126953,-0.3810277283191681
1775751208757451500,6.575451416015625,-0.15277822315692902,0.12202323973178864,-0.40117374062538147
1775751208767465500,6.585465576171875,-0.18106552958488464,0.0789862871170044,-0.44903820753097534
1775751208777478400,6.595478515625,-0.17602786421775818,0.04915255680680275,-0.5240855813026428
1775751208787491600,6.60549169921875,-0.14828677475452423,0.05168629065155983,-0.5926377177238464
1775751208797505300,6.61550537109375,-0.12581795454025269,0.021434644237160683,-0.6517961621284485
1775751208807518500,6.6255185546875,-0.1576898694038391,-0.005011609755456448,-0.6984408497810364
1775751208817532400,6.635532470703125,-0.18231958150863647,-0.03523904085159302,-0.7439714670181274
1775751208827545300,6.64554541015625,-0.17597806453704834,-0.06763958930969238,-0.8108442425727844
1775751208837558500,6.65555859375,-0.12622351944446564,-0.05981782078742981,-0.8715634942054749
1775751208847572500,6.665572509765625,-0.039485424757003784,-0.05866946652531624,-0.9178910255432129
1775751208857585400,6.67558544921875,0.07556392252445221,-0.08356713503599167,-0.9278374910354614
1775751208867598600,6.6855986328125,0.19828557968139648,-0.1170521229505539,-0.8837760090827942
1775751208877612300,6.6956123046875,0.2901635766029358,-0.15969738364219666,-0.7983513474464417
1775751208887625500,6.70562548828125,0.36235493421554565,-0.1666620820760727,-0.6936158537864685
1775751208897639400,6.715639404296875,0.40573355555534363,-0.11726609617471695,-0.5861850380897522
1775751208907652400,6.72565234375,0.39145714044570923,-0.034572821110486984,-0.48732930421829224
1775751208917665500,6.73566552734375,0.3364759087562561,0.05391336977481842,-0.3820990324020386
1775751208927679500,6.745679443359375,0.28615203499794006,0.12616519629955292,-0.27158504724502563
1775751208937692400,6.7556923828125,0.2524838149547577,0.15534727275371552,-0.17138953506946564
1775751208947706400,6.765706298828125,0.24571645259857178,0.14183971285820007,-0.08782832324504852
1775751208957719600,6.775719482421875,0.24803873896598816,0.11305520683526993,-0.01890917494893074
1775751208967732500,6.785732421875,0.24800622463226318,0.06949388235807419,0.03627178817987442
1775751208977746400,6.795746337890625,0.23376017808914185,0.050071798264980316,0.07034356892108917
1775751208987759400,6.80575927734375,0.1946665644645691,0.027804577723145485,0.08515660464763641
1775751208997772500,6.8157724609375,0.15013639628887177,0.02501424215734005,0.07205779105424881
1775751209007786500,6.825786376953125,0.1058909073472023,0.0658721923828125,0.05048219859600067
1775751209017799400,6.83579931640625,0.06626249104738235,0.1532314568758011,0.022513005882501602
1775751209027813400,6.8458134765625,0.03148507699370384,0.259724885225296,0.005503128748387098
1775751209037826600,6.85582666015625,0.012759064324200153,0.3409680128097534,0.0064206356182694435
1775751209047839500,6.865839599609375,0.0031146928668022156,0.36607229709625244,0.026190612465143204
1775751209057853400,6.875853515625,-0.005343248136341572,0.3298841416835785,0.06585805863142014
1775751209067866600,6.88586669921875,0.006125654559582472,0.23006008565425873,0.10488534718751907
1775751209077880300,6.89588037109375,0.03454802185297012,0.13056117296218872,0.13852231204509735
1775751209087893500,6.9058935546875,0.06667399406433105,0.09681785851716995,0.16365057229995728
1775751209097906700,6.91590673828125,0.09436075389385223,0.10682015866041183,0.16037407517433167
1775751209107920400,6.92592041015625,0.10811278223991394,0.11007906496524811,0.15329380333423615
1775751209117933600,6.93593359375,0.1054549366235733,0.11848078668117523,0.14002254605293274
1775751209127947500,6.945947509765625,0.09259479492902756,0.11142580956220627,0.09636373817920685
1775751209137960400,6.95596044921875,0.06968392431735992,0.1133221834897995,0.04234454408288002
1775751209147973600,6.9659736328125,0.05189374089241028,0.12032043933868408,-0.01036047749221325
1775751209157987300,6.9759873046875,0.03424307703971863,0.10308738797903061,-0.05752084404230118
1775751209168000500,6.98600048828125,0.015980446711182594,0.08095651865005493,-0.0927179828286171
1775751209178013400,6.996013427734375,0.02118106745183468,0.06059718132019043,-0.12455527484416962
1775751209188027400,7.00602734375,0.036685727536678314,0.050966665148735046,-0.15621785819530487
1775751209198040600,7.01604052734375,0.06603162735700607,0.04316253215074539,-0.18019962310791016
1775751209208054500,7.026054443359375,0.0914299264550209,0.0436464324593544,-0.18194159865379333
1775751209218067500,7.0360673828125,0.10106869041919708,0.031540948897600174,-0.16907575726509094
1775751209228080400,7.046080322265625,0.11165822297334671,0.015404856763780117,-0.14401035010814667
1775751209238094600,7.056094482421875,0.0997917503118515,0.011510029435157776,-0.12364476919174194
1775751209248107500,7.066107421875,0.058819547295570374,0.005385557189583778,-0.1105356216430664
1775751209258121500,7.07612158203125,0.01748460717499256,0.003890272229909897,-0.1014578714966774
1775751209268134400,7.086134521484375,0.0008204102050513029,-0.03008340857923031,-0.08643098175525665
1775751209278147600,7.096147705078125,-0.01523231528699398,-0.10862920433282852,-0.08182042092084885
1775751209288161500,7.10616162109375,-0.018310928717255592,-0.1668538898229599,-0.07868748158216476
1775751209298174500,7.116174560546875,-0.028466640040278435,-0.16103807091712952,-0.065363809466362
1775751209308188400,7.1261884765625,-0.03144378960132599,-0.07828512787818909,-0.058652106672525406
1775751209318201600,7.13620166015625,-0.025338230654597282,0.008174457587301731,-0.06651247292757034
1775751209328214500,7.146214599609375,-0.002512010745704174,0.0688449963927269,-0.07301804423332214
1775751209338228500,7.156228515625,0.03117988631129265,0.076856829226017,-0.06474193185567856
1775751209348241700,7.16624169921875,0.04395826533436775,0.049385786056518555,-0.04141983389854431
1775751209358255400,7.17625537109375,0.03226759284734726,0.009685725905001163,-0.0065599768422544
1775751209368268500,7.1862685546875,0.009657622314989567,-0.022814959287643433,0.02778814174234867
1775751209378281500,7.196281494140625,-0.03196658939123154,-0.042107537388801575,0.047143612056970596
1775751209388295400,7.20629541015625,-0.06734482198953629,-0.045731835067272186,0.05028853937983513
1775751209398308600,7.21630859375,-0.06566647440195084,-0.049098849296569824,0.037454426288604736
1775751209408321300,7.2263212890625,-0.04016537964344025,-0.03666907921433449,0.01870976760983467
1775751209418335500,7.23633544921875,-0.0075139678083360195,-0.023508144542574883,0.007685248740017414
1775751209428348400,7.246348388671875,0.02242821827530861,-0.02018025889992714,0.02014617994427681
1775751209438362400,7.2563623046875,0.03564280644059181,-0.04093169420957565,0.0570308156311512
1775751209448375600,7.26637548828125,0.016285888850688934,-0.08560249209403992,0.08675968647003174
1775751209458388500,7.276388427734375,-0.010539287701249123,-0.10592615604400635,0.08321038633584976
1775751209468402400,7.28640234375,-0.05075701326131821,-0.09682560712099075,0.0762195885181427
1775751209478415600,7.29641552734375,-0.09574315696954727,-0.0954684168100357,0.05685310810804367
1775751209488429600,7.3064296875,-0.13642586767673492,-0.0899367704987526,0.027261128649115562
1775751209498442500,7.3164423828125,-0.1520327776670456,-0.1023237407207489,-0.007409331388771534
1775751209508455400,7.326455322265625,-0.14875470101833344,-0.08501718938350677,-0.04278729483485222
1775751209518469600,7.3364697265625,-0.11981389671564102,-0.03576846048235893,-0.07553710043430328
1775751209528482600,7.346482666015625,-0.08897235989570618,-0.006895000115036964,-0.0882563591003418
1775751209538496500,7.35649658203125,-0.0698404535651207,-0.054109953343868256,-0.07896807789802551
1775751209548509400,7.366509521484375,-0.0798744484782219,-0.14877067506313324,-0.06728719174861908
1775751209558522600,7.376522705078125,-0.11121105402708054,-0.20704354345798492,-0.04034817963838577
1775751209568536800,7.386536865234375,-0.14020195603370667,-0.23794765770435333,-0.011783645488321781
1775751209578549500,7.396549560546875,-0.1509172022342682,-0.2582434415817261,0.02351001836359501
1775751209588563700,7.406563720703125,-0.16368092596530914,-0.25753262639045715,0.06986580044031143
1775751209598577000,7.416576904296875,-0.17431382834911346,-0.265819787979126,0.12051258236169815
1775751209608589600,7.426589599609375,-0.17067062854766846,-0.2707540988922119,0.18570064008235931
1775751209618603800,7.436603759765625,-0.17172156274318695,-0.24081018567085266,0.26175305247306824
1775751209628616400,7.446616455078125,-0.1954364776611328,-0.17821763455867767,0.35653549432754517
1775751209638630700,7.456630615234375,-0.2515205144882202,-0.07793241739273071,0.4760408103466034
1775751209648643800,7.466643798828125,-0.3076668679714203,0.009391294792294502,0.6225695610046387
1775751209658656500,7.476656494140625,-0.3374173045158386,0.06316093355417252,0.7600265741348267
1775751209668670700,7.486670654296875,-0.31723374128341675,0.09563897550106049,0.8776597380638123
1775751209678683600,7.49668359375,-0.28035858273506165,0.12631143629550934,0.9814884066581726
1775751209688697600,7.506697509765625,-0.2427148073911667,0.15217100083827972,1.0668400526046753
1775751209698710800,7.516710693359375,-0.2434663325548172,0.16466589272022247,1.1244893074035645
1775751209708723700,7.5267236328125,-0.3106650710105896,0.17775027453899384,1.1486178636550903
1775751209718737700,7.536737548828125,-0.4470125436782837,0.21063266694545746,1.1281739473342896
1775751209728750600,7.54675048828125,-0.6099948287010193,0.23984035849571228,1.0587245225906372
1775751209738763500,7.556763427734375,-0.7694361209869385,0.24736854434013367,0.9485738277435303
1775751209748777700,7.56677783203125,-0.9055034518241882,0.23984724283218384,0.8333750367164612
1775751209758790700,7.576790771484375,-1.0198547840118408,0.22419899702072144,0.738447904586792
1775751209768804900,7.586804931640625,-1.0884077548980713,0.25798624753952026,0.6758779883384705
1775751209778817500,7.596817626953125,-1.090659737586975,0.3812802731990814,0.6015263795852661
1775751209788830700,7.606830810546875,-1.026354432106018,0.5288164615631104,0.5078813433647156
1775751209798844700,7.6168447265625,-0.9087429046630859,0.6010158658027649,0.41683369874954224
1775751209808857600,7.626857666015625,-0.767078161239624,0.5955654382705688,0.33594897389411926
1775751209818871800,7.636871826171875,-0.6188860535621643,0.4971160590648651,0.2755282521247864
1775751209828884500,7.646884521484375,-0.49204176664352417,0.3859921991825104,0.23901019990444183
1775751209838897700,7.656897705078125,-0.4339291751384735,0.29752352833747864,0.19836993515491486
1775751209848912000,7.666911865234375,-0.4496716558933258,0.20504073798656464,0.1439375877380371
1775751209858924500,7.676924560546875,-0.5130117535591125,0.10552860051393509,0.061569299548864365
1775751209868938800,7.686938720703125,-0.6094157695770264,0.0715101808309555,-0.04220370203256607
1775751209878951700,7.69695166015625,-0.6730296611785889,0.1383446753025055,-0.13091124594211578
1775751209888964600,7.706964599609375,-0.6661940813064575,0.23995785415172577,-0.18629726767539978
1775751209898978800,7.716978759765625,-0.5887799859046936,0.27377116680145264,-0.2175745815038681
1775751209908991500,7.726991455078125,-0.4399426281452179,0.23939800262451172,-0.21989792585372925
1775751209919005700,7.737005615234375,-0.25831180810928345,0.17874053120613098,-0.20208266377449036
1775751209929018600,7.7470185546875,-0.07632789015769958,0.15849943459033966,-0.14397993683815002
1775751209939031600,7.757031494140625,0.11621541529893875,0.2170124053955078,-0.07870253920555115
1775751209949045800,7.767045654296875,0.30688923597335815,0.3298742175102234,-0.032603222876787186
1775751209959058700,7.77705859375,0.3877295255661011,0.3356398344039917,0.007518437225371599
1775751209969071600,7.787071533203125,0.2791018486022949,0.25883346796035767,0.034737806767225266
1775751209979085600,7.79708544921875,0.11004731059074402,0.13998614251613617,0.045741576701402664
1775751209989098800,7.8070986328125,-0.012527870014309883,0.09799900650978088,0.0707332119345665
1775751209999112700,7.81711279296875,-0.056778453290462494,0.05875210836529732,0.10785499215126038
1775751210009125600,7.827125732421875,-0.03842421621084213,-0.0015490512596443295,0.15203683078289032
1775751210019138600,7.837138671875,0.030368443578481674,-0.009273405186831951,0.18867990374565125
1775751210029152500,7.847152587890625,0.12832403182983398,0.02525181509554386,0.1884801685810089
1775751210039165700,7.857165771484375,0.2320144772529602,0.12040741741657257,0.14842456579208374
1775751210049180000,7.867179931640625,0.3440837264060974,0.2523220181465149,0.09340233355760574
1775751210059192600,7.877192626953125,0.4215385913848877,0.3078289031982422,0.05482218414545059
1775751210069205800,7.887205810546875,0.41022706031799316,0.2755926549434662,0.0605064332485199
1775751210079219500,7.897219482421875,0.3135242462158203,0.15294021368026733,0.09690070897340775
1775751210089232600,7.907232666015625,0.11270084232091904,0.0014904951676726341,0.15970630943775177
1775751210099246800,7.917246826171875,-0.10474379360675812,-0.10454075038433075,0.19219006597995758
1775751210109259500,7.927259521484375,-0.2723410427570343,-0.13523581624031067,0.1652119755744934
1775751210119272700,7.937272705078125,-0.39191198348999023,-0.056349799036979675,0.08971339464187622
1775751210129286700,7.94728662109375,-0.4478796422481537,0.13655148446559906,-0.014557617716491222
1775751210139299600,7.957299560546875,-0.4631771147251129,0.38516151905059814,-0.07312352955341339
1775751210149313800,7.967313720703125,-0.4946673810482025,0.528990626335144,-0.06740918755531311
1775751210159326700,7.97732666015625,-0.5182443857192993,0.5827465653419495,-0.016212092712521553
1775751210169339600,7.987339599609375,-0.48420199751853943,0.44452905654907227,0.0335749052464962
1775751210179353600,7.997353515625,-0.42553436756134033,0.06986279785633087,0.03555748239159584
1775751210189366500,8.007366455078126,-0.38662317395210266,-0.3449362516403198,-0.013300074264407158
1775751210199380700,8.017380615234375,-0.3299441933631897,-0.6646286249160767,-0.09600110352039337
1775751210209393700,8.0273935546875,-0.2453821748495102,-0.792675793170929,-0.16067969799041748
1775751210219406600,8.037406494140624,-0.15071509778499603,-0.7626251578330994,-0.2283826768398285
1775751210229420500,8.047420654296875,-0.07331458479166031,-0.6196808218955994,-0.32980862259864807
1775751210239433700,8.057433837890626,0.0018020027782768011,-0.43318355083465576,-0.4465906620025635
1775751210249447700,8.06744775390625,0.067794069647789,-0.2773739695549011,-0.5313713550567627
1775751210259460600,8.077460693359376,0.11590808629989624,-0.1735614687204361,-0.5433921813964844
1775751210269473800,8.087473876953124,0.12861880660057068,-0.12334118783473969,-0.47918736934661865
1775751210279487500,8.097487548828125,0.08727217465639114,-0.09910982102155685,-0.3426700532436371
1775751210289500700,8.107500732421874,0.01081841066479683,-0.06614920496940613,-0.1690966635942459
1775751210299513600,8.117513671875,-0.046350374817848206,-0.033798664808273315,-0.018939213827252388
1775751210309527600,8.127527587890626,-0.07700096070766449,-0.01513949315994978,0.03931610286235809
1775751210319540700,8.137540771484375,-0.08428653329610825,0.06965416669845581,0.03363007679581642
1775751210329554700,8.1475546875,-0.059976931661367416,0.168324813246727,0.026090405881404877
1775751210339567600,8.157567626953124,-0.04251728951931,0.2486988604068756,0.027769122272729874
1775751210349580800,8.167580810546875,-0.037136372178792953,0.3124583959579468,0.047871191054582596
1775751210359594500,8.177594482421876,-0.02860247902572155,0.3310258686542511,0.09488563984632492
1775751210369607700,8.187607666015625,0.016774857416749,0.32302412390708923,0.15173453092575073
1775751210379621600,8.19762158203125,0.10400880128145218,0.2561570107936859,0.22506576776504517
1775751210389634600,8.207634521484374,0.18100212514400482,0.1451559066772461,0.3037680387496948
1775751210399647700,8.217647705078125,0.21845953166484833,0.011147651821374893,0.37574276328086853
1775751210409661700,8.22766162109375,0.20556770265102386,-0.06575644761323929,0.4080685079097748
1775751210419674600,8.237674560546875,0.15578575432300568,-0.04994210600852966,0.3582771420478821
1775751210429688600,8.2476884765625,0.08607670664787292,0.024005087092518806,0.2274499088525772
1775751210439701800,8.25770166015625,0.043966278433799744,0.1185867190361023,0.06487137824296951
1775751210449714700,8.267714599609375,0.004983722232282162,0.14612221717834473,-0.10679278522729874
1775751210459728600,8.277728759765624,-0.047768484801054,0.17752408981323242,-0.23155060410499573
1775751210469741600,8.287741455078125,-0.07185810804367065,0.27805817127227783,-0.3086280822753906
1775751210479755500,8.297755615234376,-0.06856483966112137,0.40519028902053833,-0.3148422837257385
1775751210489768700,8.307768798828125,-0.0627405047416687,0.5458264350891113,-0.2214345782995224
1775751210499781600,8.31778173828125,-0.023783769458532333,0.5961229801177979,-0.0243064071983099
1775751210509795600,8.327795654296875,0.03760528936982155,0.4579871892929077,0.2420019805431366
1775751210519808800,8.337808837890625,0.08439329266548157,0.17303578555583954,0.5057995319366455
1775751210529822500,8.347822509765624,0.12002905458211899,-0.13536731898784637,0.6589578986167908
1775751210539835600,8.357835693359375,0.15784534811973572,-0.27509939670562744,0.6490785479545593
1775751210549848800,8.367848876953126,0.17174412310123444,-0.2606661319732666,0.5227083563804626
1775751210559862300,8.3778623046875,0.1804191619157791,-0.1421828269958496,0.3361097574234009
1775751210569875200,8.387875244140625,0.21152913570404053,0.0344390794634819,0.13661609590053558
1775751210579889400,8.397889404296874,0.251580148935318,0.15375317633152008,-0.053342461585998535
1775751210589902300,8.40790234375,0.2744649350643158,0.23703821003437042,-0.19366230070590973
1775751210599915300,8.417915283203126,0.29456809163093567,0.2760344445705414,-0.25819191336631775
1775751210609929200,8.42792919921875,0.3087347745895386,0.26205337047576904,-0.26448655128479004
1775751210619942100,8.437942138671875,0.343747615814209,0.2049715667963028,-0.23955278098583221
1775751210629955300,8.447955322265624,0.398215115070343,0.0938466414809227,-0.20268291234970093
1775751210639969300,8.45796923828125,0.4437490403652191,-0.01841016113758087,-0.16726958751678467
1775751210649982200,8.467982177734376,0.4620833098888397,-0.08161816000938416,-0.1492897868156433
1775751210659996200,8.47799609375,0.44169288873672485,-0.12961509823799133,-0.1635466068983078
1775751210670009300,8.48800927734375,0.3760422468185425,-0.10205165296792984,-0.1908261775970459
1775751210680022300,8.498022216796874,0.3221403658390045,-0.01910928077995777,-0.21195931732654572
1775751210690036200,8.5080361328125,0.3028886318206787,0.09548148512840271,-0.22436831891536713
1775751210700049400,8.51804931640625,0.29138505458831787,0.20157000422477722,-0.24999016523361206
1775751210710063000,8.52806298828125,0.30049386620521545,0.22909563779830933,-0.2493656575679779
1775751210720076300,8.538076171875,0.29834869503974915,0.19537204504013062,-0.20140327513217926
1775751210730089200,8.548089111328125,0.2835196554660797,0.09142246842384338,-0.15137872099876404
1775751210740103200,8.558103271484375,0.29302534461021423,-0.024299494922161102,-0.10468491911888123
1775751210750116400,8.568116455078124,0.31711578369140625,-0.11285652220249176,-0.07789884507656097
1775751210760130300,8.57813037109375,0.3495602011680603,-0.14278139173984528,-0.07898172736167908
1775751210770143200,8.588143310546876,0.35602128505706787,-0.08611146360635757,-0.08374239504337311
1775751210780156400,8.598156494140625,0.3404923975467682,0.02088838443160057,-0.09500519931316376
1775751210790170000,8.608170166015626,0.30424413084983826,0.14246515929698944,-0.08539624512195587
1775751210800183300,8.618183349609374,0.2401333600282669,0.23953130841255188,-0.06455514580011368
1775751210810197200,8.628197265625,0.16803492605686188,0.23840078711509705,-0.050586603581905365
1775751210820210200,8.638210205078124,0.10601579397916794,0.2186567634344101,-0.04410626366734505
1775751210830223400,8.648223388671875,0.06236285716295242,0.18890179693698883,-0.04592227190732956
1775751210840237300,8.6582373046875,0.015394275076687336,0.135574072599411,-0.025454087182879448
1775751210850250200,8.668250244140625,-0.023168830201029778,0.1064918264746666,0.005118736065924168
1775751210860264200,8.67826416015625,-0.041964635252952576,0.1004808247089386,0.010628163814544678
1775751210870277400,8.68827734375,-0.030124220997095108,0.12404101341962814,-0.0007248917827382684
1775751210880290300,8.698290283203125,0.0076684062369167805,0.1941775381565094,-0.030014043673872948
1775751210890304300,8.70830419921875,0.03628353774547577,0.28003597259521484,-0.09621995687484741
1775751210900317200,8.718317138671875,0.0038693815004080534,0.338964581489563,-0.18445046246051788
1775751210910331100,8.7283310546875,-0.0731780007481575,0.3067469894886017,-0.2959631383419037
1775751210920344300,8.73834423828125,-0.14998111128807068,0.2420206516981125,-0.3810056447982788
1775751210930357200,8.748357177734375,-0.18951652944087982,0.145990788936615,-0.4568364918231964
1775751210940371200,8.75837109375,-0.1932215541601181,0.05342131480574608,-0.5465397238731384
1775751210950384400,8.76838427734375,-0.18746539950370789,0.04999862238764763,-0.6132015585899353
1775751210960398000,8.778398193359376,-0.1608143299818039,0.04274531826376915,-0.6399579644203186
1775751210970411300,8.788411376953125,-0.11576509475708008,0.057755161076784134,-0.6346614360809326
1775751210980424400,8.798424560546875,-0.06423316895961761,0.034752968698740005,-0.6126030087471008
1775751210990438100,8.808438232421874,-0.02545860782265663,-0.068696990609169,-0.5772162079811096
1775751211000451300,8.818451416015625,-0.007666328921914101,-0.12749479711055756,-0.5491542816162109
1775751211010465300,8.82846533203125,-0.011920728720724583,-0.1008344292640686,-0.5386656522750854
1775751211020478200,8.838478271484375,-0.050989583134651184,-0.02161654643714428,-0.5343586802482605
1775751211030491400,8.848491455078126,-0.09676691889762878,0.07372196018695831,-0.5295713543891907
1775751211040505300,8.85850537109375,-0.1288585215806961,0.16614651679992676,-0.5162032246589661
1775751211050518300,8.868518310546875,-0.12431997060775757,0.2379211038351059,-0.4984961450099945
1775751211060532200,8.8785322265625,-0.06854300200939178,0.256791353225708,-0.4905052185058594
1775751211070545200,8.888545166015625,0.010873787105083466,0.22072792053222656,-0.48643749952316284
1775751211080558300,8.898558349609376,0.10726051777601242,0.12930350005626678,-0.48791468143463135
1775751211090572300,8.908572265625,0.20365256071090698,0.04571513086557388,-0.4766921103000641
1775751211100585200,8.918585205078125,0.27798542380332947,-0.03264373168349266,-0.4489937126636505
1775751211110599200,8.92859912109375,0.33814969658851624,-0.0947185531258583,-0.40863507986068726
1775751211120612400,8.9386123046875,0.381324827671051,-0.12933959066867828,-0.3586138188838959
1775751211130625300,8.948625244140626,0.35821282863616943,-0.1523815244436264,-0.30266374349594116
1775751211140639200,8.95863916015625,0.28518497943878174,-0.1292210966348648,-0.2349807173013687
1775751211150652400,8.96865234375,0.21169637143611908,-0.07456184923648834,-0.15506671369075775
1775751211160666000,8.978666015625,0.15284107625484467,-0.006515089422464371,-0.06914941221475601
1775751211170679300,8.98867919921875,0.12053719907999039,0.02448037639260292,-0.004896927624940872
1775751211180692200,8.998692138671874,0.0950818806886673,0.03092147782444954,0.04962577670812607
1775751211190706200,9.0087060546875,0.07831995189189911,0.036005184054374695,0.09381907433271408
1775751211200719400,9.01871923828125,0.09069699794054031,0.026587489992380142,0.11798226833343506
1775751211210732300,9.028732177734375,0.11824393272399902,-0.002787709468975663,0.13263444602489471
1775751211220746200,9.038746337890625,0.10437315702438354,-0.03886532410979271,0.12082197517156601
1775751211230759400,9.048759521484374,0.03620688617229462,-0.047500357031822205,0.06323350965976715
1775751211240773000,9.058773193359375,-0.04385761916637421,-0.00018244143575429916,0.00441387202590704
1775751211250786300,9.068786376953126,-0.08794092386960983,0.06392011046409607,-0.040584497153759
1775751211260799500,9.078799560546875,-0.10092918574810028,0.1205492839217186,-0.08612580597400665
1775751211270813200,9.088813232421876,-0.09852860867977142,0.1416279375553131,-0.13447575271129608
1775751211280826400,9.098826416015624,-0.07203835994005203,0.10102483630180359,-0.19330109655857086
1775751211290840300,9.10884033203125,-0.027710312977433205,0.0716128796339035,-0.23313425481319427
1775751211300853200,9.118853271484374,0.013873309828341007,0.04367930814623833,-0.24868933856487274
1775751211310866400,9.128866455078125,0.015483190305531025,0.05225122347474098,-0.24737267196178436
1775751211320880400,9.13888037109375,0.002574839163571596,0.0691208764910698,-0.24418896436691284
1775751211330893300,9.148893310546875,0.0007894560694694519,0.07824699580669403,-0.23754598200321198
1775751211340907300,9.1589072265625,0.02658855728805065,0.07014918327331543,-0.22256921231746674
1775751211350920200,9.168920166015624,0.0579342320561409,0.054772622883319855,-0.18303804099559784
1775751211360933400,9.178933349609375,0.07872338593006134,0.07044874131679535,-0.12600146234035492
1775751211370947300,9.188947265625,0.10220234841108322,0.07459981739521027,-0.08364494889974594
1775751211380960300,9.198960205078125,0.1310039609670639,0.08218938112258911,-0.05548369511961937
1775751211390974200,9.20897412109375,0.1601056456565857,0.08042076975107193,-0.04087812080979347
1775751211400987400,9.2189873046875,0.16869910061359406,0.08293376863002777,-0.04615488275885582
1775751211411000300,9.229000244140625,0.1636611968278885,0.08003278821706772,-0.08204524219036102
1775751211421014300,9.23901416015625,0.15624429285526276,0.02740364521741867,-0.1303141564130783
1775751211431027500,9.24902734375,0.14846572279930115,-0.00480862008407712,-0.1792641282081604
1775751211441041200,9.259041259765626,0.14920395612716675,0.0043074823915958405,-0.22333969175815582
1775751211451054300,9.269054443359375,0.16102705895900726,0.023280641064047813,-0.25100141763687134
1775751211461067300,9.2790673828125,0.1628907173871994,0.06075819954276085,-0.2468128502368927
1775751211471081200,9.289081298828124,0.15093925595283508,0.09797295182943344,-0.22831293940544128
1775751211481094400,9.299094482421875,0.12543103098869324,0.12415710091590881,-0.2102590799331665
1775751211491108400,9.3091083984375,0.07719399034976959,0.13150370121002197,-0.19174054265022278
1775751211501121300,9.319121337890625,0.023366684094071388,0.10952527076005936,-0.17895099520683289
1775751211511134500,9.329134521484375,-0.03917312994599342,0.09369038045406342,-0.17204540967941284
1775751211521148200,9.339148193359375,-0.09522810578346252,0.08697671443223953,-0.17735493183135986
1775751211531161300,9.349161376953125,-0.12879246473312378,0.09971781075000763,-0.1852184534072876
1775751211541175300,9.35917529296875,-0.11988130211830139,0.11848549544811249,-0.19168421626091003
1775751211551188200,9.369188232421875,-0.07524379342794418,0.149528369307518,-0.20016798377037048
1775751211561201000,9.379200927734376,-0.02420217916369438,0.1669105440378189,-0.19156037271022797
1775751211571214800,9.38921484375,0.007106225937604904,0.1480283886194229,-0.16942109167575836
1775751211581227800,9.399227783203125,0.00772356241941452,0.11932545900344849,-0.13368292152881622
1775751211591241700,9.40924169921875,-0.012121781706809998,0.07214649021625519,-0.08649170398712158
1775751211601254700,9.419254638671875,-0.03318024054169655,0.017924020066857338,-0.047189999371767044
1775751211611267800,9.429267822265626,-0.03883040323853493,-0.016504526138305664,-0.01768830418586731
1775751211621281800,9.43928173828125,-0.03927595540881157,-0.06450804322957993,0.0077075292356312275
1775751211631294700,9.449294677734375,-0.04283047839999199,-0.08364152908325195,0.044625066220760345
1775751211641308700,9.45930859375,-0.026990221813321114,-0.07165396213531494,0.099855437874794
1775751211651321900,9.46932177734375,0.00136152608320117,-0.07698081433773041,0.1823335438966751
1775751211661334800,9.479334716796876,0.022798912599682808,-0.10300661623477936,0.27565258741378784
1775751211671348700,9.4893486328125,0.006324064917862415,-0.14242033660411835,0.38382089138031006
1775751211681362000,9.49936181640625,-0.06989346444606781,-0.1930636614561081,0.48543232679367065
1775751211691375600,9.509375732421875,-0.17851634323596954,-0.23469233512878418,0.5776469111442566
1775751211701388800,9.519388916015625,-0.29067671298980713,-0.2605077922344208,0.6337467432022095
1775751211711401700,9.529401611328124,-0.39170798659324646,-0.24520151317119598,0.6450694799423218
1775751211721415700,9.539415771484375,-0.4748010039329529,-0.19282548129558563,0.6191464066505432
1775751211731428900,9.549428955078126,-0.5294791460037231,-0.1082911491394043,0.585458517074585
1775751211741442800,9.55944287109375,-0.5452793836593628,0.0036511814687401056,0.5650439858436584
1775751211751455700,9.569455810546875,-0.516184389591217,0.11839347332715988,0.5481986999511719
1775751211761469000,9.579468994140624,-0.43343570828437805,0.22202929854393005,0.5452898144721985
1775751211771482600,9.589482666015625,-0.3069469928741455,0.2749793231487274,0.5623502731323242
1775751211781495800,9.599495849609376,-0.15406163036823273,0.2424091398715973,0.5995832681655884
1775751211791509800,9.609509765625,0.010089484043419361,0.1156005933880806,0.6242987513542175
1775751211801522700,9.619522705078126,0.10364372283220291,-0.03533436357975006,0.6252878904342651
1775751211811536000,9.629535888671874,0.12588459253311157,-0.1596435308456421,0.6097919940948486
1775751211821549800,9.6395498046875,0.09471486508846283,-0.2441110908985138,0.5721011757850647
1775751211831562800,9.649562744140624,0.036083247512578964,-0.2550910413265228,0.5233820676803589
1775751211841576700,9.65957666015625,-0.026287125423550606,-0.18924768269062042,0.4826323091983795
1775751211851590000,9.66958984375,-0.10379309952259064,-0.05944840610027313,0.4529135525226593
1775751211861602800,9.679602783203125,-0.17116180062294006,0.0659821406006813,0.41470766067504883
1775751211871616800,9.68961669921875,-0.2026696652173996,0.16387034952640533,0.3747977912425995
1775751211881629700,9.699629638671874,-0.21221652626991272,0.22959251701831818,0.3317450284957886
1775751211891643600,9.7096435546875,-0.19974680244922638,0.24109789729118347,0.30034634470939636
1775751211901656800,9.71965673828125,-0.1743040680885315,0.17856056988239288,0.2727981209754944
1775751211911669800,9.729669677734375,-0.16590818762779236,0.050760265439748764,0.2517000436782837
1775751211921683700,9.73968359375,-0.19057254493236542,-0.09357991069555283,0.2391655147075653
1775751211931697000,9.74969677734375,-0.23502042889595032,-0.20480576157569885,0.2260712832212448
1775751211941709800,9.759709716796875,-0.2724151611328125,-0.2488984912633896,0.21741551160812378
1775751211951723800,9.769723876953124,-0.2920469343662262,-0.24329572916030884,0.20418092608451843
1775751211961737000,9.779737060546875,-0.3139670491218567,-0.2340567708015442,0.1672612577676773
1775751211971750700,9.789750732421876,-0.337146133184433,-0.18819820880889893,0.11492481082677841
1775751211981763800,9.799763916015625,-0.3322726786136627,-0.12783052027225494,0.04770614951848984
1775751211991777800,9.80977783203125,-0.3121700882911682,-0.04795512557029724,-0.01848006062209606
1775751212001790700,9.819790771484374,-0.2777446508407593,0.0011874688789248466,-0.10153082013130188
1775751212011804000,9.829803955078125,-0.24467992782592773,-0.0028136642649769783,-0.19248361885547638
1775751212021817900,9.83981787109375,-0.19527429342269897,-0.05642516911029816,-0.2843906879425049
1775751212031830800,9.849830810546875,-0.16470971703529358,-0.12898804247379303,-0.3755379319190979
1775751212041844000,9.859843994140626,-0.1603517234325409,-0.1912078708410263,-0.4471459686756134
1775751212051857700,9.869857666015625,-0.17392799258232117,-0.1987379640340805,-0.4691346287727356
1775751212061870800,9.879870849609375,-0.19514678418636322,-0.16956208646297455,-0.45796796679496765
1775751212071884800,9.889884765625,-0.22056692838668823,-0.13944385945796967,-0.4308527410030365
1775751212081897700,9.899897705078125,-0.218824103474617,-0.12492923438549042,-0.41367974877357483
1775751212091911000,9.909910888671876,-0.18224158883094788,-0.13033224642276764,-0.40931880474090576
1775751212101924900,9.9199248046875,-0.1328631490468979,-0.12097842991352081,-0.40669751167297363
1775751212111937800,9.929937744140625,-0.08403383195400238,-0.13353949785232544,-0.3938900828361511
1775751212121951700,9.93995166015625,-0.04861319065093994,-0.2003193497657776,-0.3547365665435791
1775751212131965000,9.94996484375,-0.03826335072517395,-0.2828693687915802,-0.306707501411438
1775751212141977900,9.959977783203126,-0.0406963936984539,-0.2828315496444702,-0.264430969953537
1775751212151991800,9.96999169921875,-0.03436659276485443,-0.2534025311470032,-0.23867419362068176
1775751212162004700,9.980004638671875,-0.004406847059726715,-0.22129350900650024,-0.2191201001405716
1775751212172018700,9.990018798828125,0.029411036521196365,-0.20380719006061554,-0.20016957819461823
1775751212182032000,10.000031982421875,0.06677887588739395,-0.207594633102417,-0.184977725148201
1775751212192044800,10.010044921875,0.08371791243553162,-0.22282445430755615,-0.15801002085208893
1775751212202058800,10.020058837890625,0.08104891330003738,-0.22646823525428772,-0.15007862448692322
1775751212212072000,10.030072021484376,0.0966329351067543,-0.2735459804534912,-0.19373928010463715
1775751212222085600,10.040085693359375,0.143199622631073,-0.33074599504470825,-0.2590257525444031
1775751212232098800,10.050098876953125,0.21653082966804504,-0.30521532893180847,-0.30099451541900635
1775751212242112000,10.060112060546874,0.25958189368247986,-0.2032768428325653,-0.3099172115325928
1775751212252125700,10.070125732421875,0.2742985188961029,-0.05947493389248848,-0.2777281105518341
1775751212262139000,10.080138916015626,0.28955817222595215,0.03170659765601158,-0.2233448475599289
1775751212272152800,10.09015283203125,0.30007871985435486,0.032269325107336044,-0.17081399261951447
1775751212282165800,10.100165771484376,0.2839449942111969,-0.024346061050891876,-0.13909399509429932
1775751212292179000,10.110178955078124,0.2588995695114136,-0.07226139307022095,-0.11349382996559143
1775751212302192600,10.120192626953125,0.216764435172081,-0.06717284023761749,-0.10940571129322052
1775751212312205800,10.130205810546874,0.18236277997493744,0.012556342408061028,-0.11269444972276688
1775751212322219800,10.1402197265625,0.1515323966741562,0.04002242162823677,-0.11974652111530304
1775751212332232700,10.150232666015626,0.1123645007610321,0.005018098745495081,-0.1500556915998459
1775751212342246000,10.160245849609375,0.09338973462581635,-0.051410555839538574,-0.21140986680984497
1775751212352259800,10.170259765625,0.08672012388706207,-0.1097167432308197,-0.2849962115287781
1775751212362272800,10.180272705078124,0.0732589066028595,-0.12612853944301605,-0.3396309018135071
1775751212372286700,10.19028662109375,0.031143678352236748,-0.1013994812965393,-0.37236088514328003
1775751212382300000,10.2002998046875,-0.03988740220665932,-0.051783010363578796,-0.379707932472229
1775751212392312800,10.210312744140625,-0.1304474025964737,0.020425669848918915,-0.35576876997947693
1775751212402326800,10.220326904296876,-0.23445577919483185,0.11262483894824982,-0.3316948413848877
1775751212412339700,10.230339599609374,-0.34051990509033203,0.2230546921491623,-0.3191276490688324
1775751212422353700,10.240353759765625,-0.40563660860061646,0.33297649025917053,-0.30537283420562744
1775751212432366800,10.250366943359374,-0.42894166707992554,0.3836444318294525,-0.2648376524448395
1775751212442379800,10.2603798828125,-0.44001534581184387,0.3816041350364685,-0.17843042314052582
1775751212452393700,10.270393798828126,-0.4158271849155426,0.3731427490711212,-0.09089550375938416
1775751212462407000,10.280406982421875,-0.3677244186401367,0.32035425305366516,0.005752141587436199
1775751212472420600,10.290420654296875,-0.3183688521385193,0.18901196122169495,0.15313972532749176
1775751212482433800,10.300433837890624,-0.2855384051799774,-0.057446323335170746,0.3078824281692505
1775751212492447000,10.310447021484375,-0.2772200107574463,-0.3010590076446533,0.42945414781570435
1775751212502460700,10.320460693359376,-0.2753715515136719,-0.4194829761981964,0.5101374983787537
1775751212512473900,10.330473876953125,-0.26408135890960693,-0.4060680866241455,0.5379824042320251
1775751212522487800,10.34048779296875,-0.21984171867370605,-0.324603408575058,0.5080808401107788
1775751212532500700,10.350500732421875,-0.154225692152977,-0.23239731788635254,0.4234692454338074
1775751212542514000,10.360513916015625,-0.07204798609018326,-0.08090752363204956,0.3134635090827942
1775751212552528000,10.37052783203125,0.01832931488752365,0.11674989014863968,0.231533482670784
1775751212562540800,10.380540771484375,0.07053366303443909,0.34063971042633057,0.17638953030109406
1775751212572553700,10.3905537109375,0.11229071021080017,0.5092973709106445,0.1574503630399704
1775751212582567700,10.400567626953125,0.12911470234394073,0.5558662414550781,0.1733873188495636
1775751212592580900,10.410580810546875,0.10369483381509781,0.5102965831756592,0.21376723051071167
1775751212602594600,10.420594482421874,0.06528480350971222,0.3759605884552002,0.2825521230697632
1775751212612607700,10.430607666015625,0.0032493951730430126,0.18579809367656708,0.34337738156318665
1775751212622621000,10.440620849609376,-0.02514519728720188,0.06162145361304283,0.35861894488334656
1775751212632634600,10.450634521484375,-0.01445660088211298,0.05634200572967529,0.35891029238700867
1775751212642647800,10.460647705078125,0.011133716441690922,0.1353551745414734,0.332803875207901
1775751212652661800,10.470661865234375,0.053672388195991516,0.24750807881355286,0.2953183054924011
1775751212662674700,10.4806748046875,0.055651649832725525,0.3443412482738495,0.2509615123271942
1775751212672687900,10.49068798828125,0.02560453675687313,0.40134382247924805,0.23281365633010864
1775751212682701800,10.500701904296875,-0.014619322493672371,0.4018707871437073,0.22690854966640472
1775751212692714800,10.51071484375,-0.06301268935203552,0.3818504810333252,0.21974758803844452
1775751212702728700,10.520728759765625,-0.0966542512178421,0.3530171513557434,0.22364157438278198
1775751212712741600,10.53074169921875,-0.08630574494600296,0.3011758029460907,0.278824120759964
1775751212722754800,10.5407548828125,-0.03209229186177254,0.1729794591665268,0.3697965145111084
1775751212732768800,10.550768798828125,0.025396034121513367,0.024869095534086227,0.41309815645217896
1775751212742781700,10.56078173828125,0.09930778294801712,-0.05631013959646225,0.3727891147136688
1775751212752795600,10.570795654296875,0.16741520166397095,-0.026303503662347794,0.2831551134586334
1775751212762808800,10.580808837890626,0.1915905624628067,0.067228764295578,0.202963188290596
1775751212772821800,10.59082177734375,0.1904829442501068,0.14193494617938995,0.1385815292596817
1775751212782835700,10.600835693359375,0.20265498757362366,0.16828274726867676,0.07332081347703934
1775751212792849000,10.610848876953124,0.21386849880218506,0.19270366430282593,0.021939648315310478
1775751212802862600,10.620862548828125,0.2159162014722824,0.21477408707141876,-0.023928772658109665
1775751212812875800,10.630875732421876,0.23962126672267914,0.24436606466770172,-0.04875263199210167
1775751212822888700,10.640888671875,0.27208808064460754,0.2807537019252777,-0.06866331398487091
1775751212832902700,10.650902587890625,0.30006512999534607,0.26331743597984314,-0.09889072179794312
1775751212842915800,10.660915771484374,0.3199179768562317,0.14994004368782043,-0.11726482212543488
1775751212852929800,10.6709296875,0.31703856587409973,0.05883278325200081,-0.13336096704006195
1775751212862942700,10.680942626953126,0.314712792634964,0.05192658677697182,-0.1733948290348053
1775751212872956000,10.690955810546875,0.30015650391578674,0.10152769833803177,-0.2036866843700409
1775751212882969600,10.700969482421876,0.2995053231716156,0.17765666544437408,-0.19335561990737915
1775751212892982800,10.710982666015624,0.329135924577713,0.23872961103916168,-0.15879471600055695
1775751212902996700,10.720996826171875,0.36302974820137024,0.2546291947364807,-0.11469361186027527
1775751212913009700,10.731009765625,0.37863215804100037,0.17428430914878845,-0.1064351499080658
1775751212923022800,10.74102294921875,0.36228111386299133,0.054888658225536346,-0.1391896903514862
1775751212933036800,10.751036865234376,0.291544109582901,-0.04685288295149803,-0.2001046985387802
1775751212943049700,10.7610498046875,0.19999605417251587,-0.10366196185350418,-0.3143305480480194
1775751212953063700,10.771063720703125,0.12718097865581512,-0.025693926960229874,-0.4445229172706604
1775751212963076900,10.781076904296874,0.10308945178985596,0.11971913278102875,-0.5650101900100708
1775751212973089800,10.79108984375,0.1636819690465927,0.21733596920967102,-0.665562093257904
1775751212983103700,10.801103759765626,0.2593483626842499,0.25900164246559143,-0.7202454805374146
1775751212993116700,10.81111669921875,0.399020791053772,0.24454522132873535,-0.7142885327339172
1775751213003130600,10.821130615234376,0.58172208070755,0.17517702281475067,-0.6591188311576843
1775751213013143800,10.831143798828125,0.7341342568397522,0.11649293452501297,-0.5438151955604553
1775751213023156700,10.84115673828125,0.7966967225074768,0.05445689335465431,-0.4072813391685486
1775751213033170700,10.851170654296874,0.771952748298645,-0.07223393768072128,-0.3322816789150238
1775751213043183900,10.861183837890625,0.6527411341667175,-0.16214731335639954,-0.3297482132911682
1775751213053196500,10.871196533203126,0.4913107454776764,-0.14984296262264252,-0.3623479902744293
1775751213063210800,10.881210693359375,0.3164406716823578,-0.09860289841890335,-0.41243186593055725
1775751213073224000,10.891223876953125,0.14413201808929443,-0.04695861041545868,-0.43535158038139343
1775751213083237600,10.901237548828124,0.025875652208924294,0.007905106991529465,-0.4201904535293579
1775751213093250800,10.911250732421875,-0.007245549000799656,0.06646748632192612,-0.36446434259414673
1775751213103264800,10.9212646484375,0.07072140276432037,0.12574127316474915,-0.28606557846069336
1775751213113277700,10.931277587890625,0.24344950914382935,0.22454935312271118,-0.19868940114974976
1775751213123291000,10.941290771484375,0.42154791951179504,0.34772342443466187,-0.12094704806804657
1775751213133304800,10.951304931640625,0.5532870292663574,0.4117141366004944,-0.08424922078847885
1775751213143317800,10.96131787109375,0.5797402262687683,0.3867402970790863,-0.08654479682445526
1775751213153330700,10.97133056640625,0.4775046408176422,0.31476330757141113,-0.11958956718444824
1775751213163344600,10.9813447265625,0.3219139873981476,0.2177366465330124,-0.21379943192005157
1775751213173357800,10.99135791015625,0.16905201971530914,0.14393511414527893,-0.33682388067245483
1775751213183371800,11.001371826171875,0.03846950829029083,0.15666620433330536,-0.45390257239341736
1775751213193384700,11.011384765625,-0.0036795404739677906,0.12422222644090652,-0.5541764497756958
1775751213203397600,11.021397705078124,0.01049829088151455,0.2014038860797882,-0.601503312587738
1775751213213411800,11.031411865234375,0.021541887894272804,0.27028441429138184,-0.601056694984436
1775751213223424800,11.0414248046875,0.024352852255105972,0.24356482923030853,-0.5851959586143494
1775751213233438700,11.051438720703125,0.02843334712088108,0.16204360127449036,-0.548165500164032
1775751213243452000,11.061451904296876,-0.0001649823971092701,0.044600024819374084,-0.49521708488464355
1775751213253464600,11.071464599609374,-0.05256374180316925,-0.08127374947071075,-0.43653860688209534
1775751213263478800,11.081478759765625,-0.10054536908864975,-0.20860572159290314,-0.3885270357131958
1775751213273491700,11.09149169921875,-0.13020658493041992,-0.3187980055809021,-0.3635774850845337
1775751213283505700,11.101505615234375,-0.15013422071933746,-0.34451824426651,-0.35239481925964355
1775751213293518800,11.111518798828126,-0.16208861768245697,-0.2662777900695801,-0.3428998589515686
1775751213303531500,11.121531494140624,-0.1669338047504425,-0.14417141675949097,-0.32388782501220703
1775751213313545700,11.131545654296875,-0.15780794620513916,-0.02339121699333191,-0.2911381423473358
1775751213323559000,11.141558837890624,-0.13621918857097626,0.06528166681528091,-0.2598026990890503
1775751213333572600,11.151572509765625,-0.1151762306690216,0.11258845776319504,-0.2301095426082611
1775751213343585800,11.161585693359376,-0.0964403972029686,0.11041697859764099,-0.18363800644874573
1775751213353598700,11.1715986328125,-0.054354991763830185,0.04877598583698273,-0.11421871930360794
1775751213363612700,11.18161279296875,-0.005535257048904896,-0.027281764894723892,-0.027225764468312263
1775751213373625900,11.1916259765625,0.04320352524518967,-0.09759566932916641,0.06168577820062637
1775751213383639800,11.201639892578125,0.09007890522480011,-0.13662879168987274,0.13431596755981445
1775751213393652700,11.21165283203125,0.1062440276145935,-0.12283336371183395,0.1734149008989334
1775751213403665700,11.221665771484375,0.10446176677942276,-0.0783640444278717,0.17883451282978058
1775751213413679900,11.231679931640626,0.09137073159217834,-0.010659831576049328,0.1707230657339096
1775751213423692800,11.24169287109375,0.06551841646432877,0.060134101659059525,0.1504899114370346
1775751213433706800,11.251706787109375,0.018015341833233833,0.16111531853675842,0.13229385018348694
1775751213443719700,11.2617197265625,-0.013342863880097866,0.21461564302444458,0.11740368604660034
1775751213453732600,11.271732666015625,-0.00648016482591629,0.20128172636032104,0.11747266352176666
1775751213463746800,11.281746826171876,0.014218494296073914,0.17303617298603058,0.12132501602172852
1775751213473759700,11.291759765625,0.03903809189796448,0.14761817455291748,0.11864294856786728
1775751213483773700,11.301773681640626,0.0612427294254303,0.12243301421403885,0.12606999278068542
1775751213493787000,11.311786865234374,0.06215832382440567,0.10898645222187042,0.14588843286037445
1775751213503799600,11.321799560546875,0.03449177369475365,0.09614964574575424,0.15898793935775757
1775751213513813800,11.331813720703124,0.007939526811242104,0.07904735952615738,0.1477632373571396
1775751213523827000,11.341826904296875,-0.00959841813892126,0.06370844691991806,0.12938162684440613
1775751213533840600,11.351840576171876,-0.0047141811810433865,0.049735646694898605,0.11589059978723526
1775751213543853800,11.361853759765625,0.013362521305680275,0.046821508556604385,0.09923991560935974
1775751213553866800,11.37186669921875,0.027931610122323036,0.0601639449596405,0.08389052003622055
1775751213563881200,11.381881103515624,0.04221014678478241,0.059338632971048355,0.07271137088537216
1775751213573894100,11.39189404296875,0.052963532507419586,0.05564477667212486,0.06753432005643845
1775751213583907000,11.401906982421876,0.04928169399499893,0.048634082078933716,0.0607159286737442
1775751213593921000,11.411921142578125,0.028253106400370598,0.019274862483143806,0.049474991858005524
1775751213603934000,11.421933837890625,0.0001199045218527317,-0.01780230551958084,0.044320814311504364
1775751213613948200,11.4319482421875,-0.035078030079603195,-0.04150337725877762,0.03877078741788864
1775751213623961000,11.441961181640625,-0.05186811089515686,-0.05814447999000549,0.029562100768089294
1775751213633974000,11.45197412109375,-0.03715920448303223,-0.07257695496082306,0.009444581344723701
1775751213643988200,11.46198828125,-0.01083151064813137,-0.0966394916176796,-0.006573989987373352
1775751213654001000,11.4720009765625,0.03596928343176842,-0.12384820729494095,-0.016867106780409813
1775751213664015000,11.48201513671875,0.08543803542852402,-0.14137576520442963,-0.015160481445491314
1775751213674028000,11.492028076171875,0.10849462449550629,-0.14375795423984528,-0.0003469147486612201
1775751213684041000,11.502041015625,0.10666825622320175,-0.1511022001504898,0.018843796104192734
1775751213694055200,11.51205517578125,0.07226341217756271,-0.1810862123966217,0.03801935911178589
1775751213704067800,11.52206787109375,0.02058340609073639,-0.1955622434616089,0.05456262454390526
1775751213714082000,11.53208203125,-0.021500131115317345,-0.1971399039030075,0.046595510095357895
1775751213724095200,11.54209521484375,-0.03307231888175011,-0.1763366311788559,0.018251921981573105
1775751213734108000,11.55210791015625,-0.017587902024388313,-0.14190888404846191,-0.014216539449989796
1775751213744122000,11.5621220703125,0.003173574572429061,-0.08871044218540192,-0.03690369427204132
1775751213754135000,11.572135009765624,0.02547461912035942,-0.0500144436955452,-0.0633920282125473
1775751213764149000,11.58214892578125,0.04790934920310974,-0.006536311469972134,-0.08423155546188354
1775751213774162200,11.592162109375,0.06137695163488388,0.03298419713973999,-0.0924396812915802
1775751213784175000,11.602175048828125,0.06276258826255798,0.04226170852780342,-0.09957864880561829
1775751213794189000,11.61218896484375,0.05343513563275337,0.0383274219930172,-0.11005499213933945
1775751213804202000,11.622201904296874,0.04513084515929222,0.016543008387088776,-0.10904131829738617
1775751213814216200,11.63221630859375,0.0514364093542099,0.0025036230217665434,-0.09873967617750168
1775751213824229000,11.64222900390625,0.07799743115901947,-0.0032610357739031315,-0.08300478011369705
1775751213834242000,11.652241943359375,0.11927376687526703,-0.009700825437903404,-0.06474161893129349
1775751213844256300,11.66225634765625,0.16830207407474518,-0.012911960482597351,-0.04913462698459625
1775751213854269000,11.67226904296875,0.197100430727005,-0.00034077512100338936,-0.040540870279073715
1775751213864283100,11.682283203125,0.19441837072372437,0.016154766082763672,-0.04495249316096306
1775751213874296000,11.692296142578124,0.17179295420646667,0.007576456293463707,-0.05670741945505142
1775751213884309000,11.70230908203125,0.12549500167369843,-0.029243115335702896,-0.0766310915350914
1775751213894323200,11.7123232421875,0.06777124106884003,-0.06751247495412827,-0.09623142331838608
1775751213904336000,11.7223359375,0.02098558470606804,-0.113554947078228,-0.09359157085418701
1775751213914350000,11.73235009765625,-0.0058673350140452385,-0.15892189741134644,-0.06119341775774956
1775751213924363300,11.74236328125,-0.01130414754152298,-0.20125320553779602,-0.002922631334513426
1775751213934376000,11.7523759765625,0.007011743262410164,-0.28313982486724854,0.07596738636493683
1775751213944390100,11.76239013671875,0.027169732376933098,-0.4001575708389282,0.1757623553276062
1775751213954403000,11.772403076171875,0.04709737002849579,-0.54737389087677,0.28374525904655457
1775751213964416000,11.782416015625,0.05632248893380165,-0.675995409488678,0.38811978697776794
1775751213974430200,11.79243017578125,0.0350896380841732,-0.7452748417854309,0.48551157116889954
1775751213984443000,11.80244287109375,-0.0030174865387380123,-0.8021802306175232,0.5646166801452637
1775751213994457000,11.81245703125,-0.04972746968269348,-0.8277095556259155,0.6307451128959656
1775751214004470000,11.822469970703125,-0.12403742223978043,-0.7895098328590393,0.6919452548027039
1775751214014483000,11.83248291015625,-0.23013189435005188,-0.6873160600662231,0.7177488803863525
1775751214024497200,11.8424970703125,-0.35185644030570984,-0.5378841757774353,0.7177007794380188
1775751214034510000,11.852510009765625,-0.4820283055305481,-0.4019272029399872,0.727925717830658
1775751214044524000,11.86252392578125,-0.623115062713623,-0.3592641055583954,0.7593349814414978
1775751214054537000,11.872536865234375,-0.7647705078125,-0.39625275135040283,0.7999207377433777
1775751214064550100,11.882550048828126,-0.8870412707328796,-0.4662664532661438,0.831356942653656
1775751214074564000,11.892564208984375,-0.9593314528465271,-0.4971120059490204,0.8618871569633484
1775751214084577000,11.902576904296875,-1.0006024837493896,-0.48334789276123047,0.8571265339851379
1775751214094591200,11.91259130859375,-1.0102500915527344,-0.43768587708473206,0.8065392374992371
1775751214104604000,11.92260400390625,-1.007070779800415,-0.3801150321960449,0.7223881483078003
1775751214114617000,11.9326171875,-0.9890400767326355,-0.3080855906009674,0.6173538565635681
1775751214124631000,11.942631103515625,-0.9373708367347717,-0.229407399892807,0.5212352275848389
1775751214134644000,11.95264404296875,-0.8516673445701599,-0.18024571239948273,0.45200157165527344
1775751214144658200,11.962658203125,-0.7421197891235352,-0.14584827423095703,0.3883332312107086
1775751214154670800,11.9726708984375,-0.6355667114257812,-0.11503603309392929,0.3473495841026306
1775751214164684000,11.98268408203125,-0.5676652193069458,-0.06922595947980881,0.33207404613494873
1775751214174698200,11.9926982421875,-0.5357922315597534,-0.005919955670833588,0.31252002716064453
1775751214184711000,12.0027109375,-0.5161588191986084,0.053571417927742004,0.3034217655658722
1775751214194725000,12.01272509765625,-0.4982818365097046,0.05492670089006424,0.30825087428092957
1775751214204738000,12.022738037109375,-0.48180168867111206,0.010457746684551239,0.31653788685798645
1775751214214751000,12.0327509765625,-0.46759530901908875,-0.08211826533079147,0.3141128122806549
1775751214224765200,12.04276513671875,-0.4682219624519348,-0.16688987612724304,0.2869262099266052
1775751214234778000,12.052778076171874,-0.45342862606048584,-0.18650992214679718,0.22761468589305878
1775751214244792000,12.0627919921875,-0.40513190627098083,-0.14193859696388245,0.15756630897521973
1775751214254805000,12.072804931640626,-0.34539881348609924,-0.0673849955201149,0.08618320524692535
1775751214264818000,12.08281787109375,-0.27404549717903137,0.013490047305822372,-0.0038654387462884188
1775751214274832100,12.09283203125,-0.20699776709079742,0.09850374609231949,-0.10683762282133102
1775751214284845000,12.102844970703124,-0.17218732833862305,0.21219183504581451,-0.20198699831962585
1775751214294858000,12.11285791015625,-0.14908280968666077,0.3069345951080322,-0.2690317928791046
1775751214304872000,12.122871826171876,-0.14604148268699646,0.3468150496482849,-0.26513150334358215
1775751214314885000,12.132885009765625,-0.16064944863319397,0.2909643054008484,-0.23871348798274994
1775751214324899000,12.142899169921876,-0.15309807658195496,0.17421889305114746,-0.24860414862632751
1775751214334912000,12.152912109375,-0.11545535922050476,0.07266990840435028,-0.2540212869644165
1775751214344926200,12.16292626953125,-0.058185942471027374,0.01477678120136261,-0.24430100619792938
1775751214354939000,12.17293896484375,0.033218540251255035,0.04987617954611778,-0.21314096450805664
1775751214364952000,12.1829521484375,0.1498018503189087,0.09081076085567474,-0.16843554377555847
1775751214374966300,12.19296630859375,0.28277188539505005,0.11189580708742142,-0.15239399671554565
1775751214384979000,12.20297900390625,0.41635605692863464,0.1290832906961441,-0.17580001056194305
1775751214394992000,12.2129921875,0.5003651976585388,0.11652541160583496,-0.2139306217432022
1775751214405006000,12.223006103515624,0.4662669003009796,0.09373993426561356,-0.24509866535663605
1775751214415019000,12.23301904296875,0.3397994935512543,0.05216037109494209,-0.2647134065628052
1775751214425033200,12.243033203125,0.1901240199804306,-0.02328093722462654,-0.24121850728988647
1775751214435046000,12.2530458984375,0.07179497182369232,-0.1295224130153656,-0.1767263263463974
1775751214445059000,12.26305908203125,-0.02188095450401306,-0.16778266429901123,-0.09032708406448364
1775751214455073000,12.273072998046874,-0.06801595538854599,-0.15869276225566864,-0.01649228110909462
1775751214465086000,12.2830859375,-0.054949648678302765,-0.08553339540958405,0.04326701909303665
