time,seconds_elapsed,z,y,x
1775751202241257000,0.059257080078125,-0.05344484746456146,-0.9675373435020447,0.08618814498186111
1775751202251270000,0.069269775390625,-0.12901444733142853,-0.9430645108222961,0.06890317052602768
1775751202261283800,0.079283935546875,-0.2116275578737259,-0.948833167552948,0.06359575688838959
1775751202271296800,0.089296875,-0.237095907330513,-0.9826427698135376,0.07795152068138123
1775751202281310000,0.09931005859375,-0.20071019232273102,-1.0199872255325317,0.11346238106489182
1775751202291324000,0.109323974609375,-0.18876539170742035,-1.077941656112671,0.14219336211681366
1775751202301336800,0.1193369140625,-0.14274249970912933,-1.1519575119018555,0.1274610161781311
1775751202311349800,0.129349853515625,-0.08863985538482666,-1.1988669633865356,0.07057510316371918
1775751202321364000,0.139364013671875,-0.04290379211306572,-1.1375519037246704,-0.008932774886488914
1775751202331377000,0.149376953125,0.043482497334480286,-1.0077416896820068,-0.08539053052663803
1775751202341390800,0.159390869140625,0.05167065188288689,-0.8313459157943726,-0.1396431177854538
1775751202351404000,0.169404052734375,0.0010663296561688185,-0.7525309920310974,-0.13189038634300232
1775751202361416700,0.179416748046875,-0.04604312404990196,-0.8050272464752197,-0.09664398431777954
1775751202371431000,0.189430908203125,-0.042213767766952515,-0.8366219401359558,-0.07594297081232071
1775751202381443800,0.19944384765625,-0.01411448698490858,-0.8326959013938904,-0.042085666209459305
1775751202391456800,0.209456787109375,-0.0043867588974535465,-0.782956063747406,-0.011096326634287834
1775751202401471000,0.219470947265625,0.011387676931917667,-0.7682244777679443,-0.008832373656332493
1775751202411483600,0.229483642578125,0.06018264591693878,-0.7999603152275085,-0.04731957986950874
1775751202421496800,0.239496826171875,0.08530424535274506,-0.8144612312316895,-0.07675709575414658
1775751202431511000,0.249510986328125,0.05981619656085968,-0.8467259407043457,-0.08131376653909683
1775751202441523700,0.259523681640625,0.007457117084413767,-0.8967443704605103,-0.0511300303041935
1775751202451537000,0.269536865234375,-0.04074050486087799,-0.926116943359375,0.007060306146740913
1775751202461550800,0.27955078125,-0.07030212879180908,-0.9094303846359253,0.0743594542145729
1775751202471563800,0.289563720703125,-0.10427367687225342,-0.8969830274581909,0.1440269500017166
1775751202481577000,0.299576904296875,-0.16653677821159363,-0.8905892968177795,0.17910078167915344
1775751202491590700,0.309590576171875,-0.22075395286083221,-0.8655944466590881,0.15047578513622284
1775751202501603800,0.319603759765625,-0.2376285344362259,-0.9300176501274109,0.06969892233610153
1775751202511617000,0.329616943359375,-0.16630882024765015,-1.029375433921814,-0.027455592527985573
1775751202521630700,0.339630615234375,-0.03921690955758095,-1.0532983541488647,-0.0851612314581871
1775751202531644000,0.349643798828125,0.07108642905950546,-0.9586684703826904,-0.06209160014986992
1775751202541656800,0.35965673828125,0.13663721084594727,-0.641221821308136,-0.013880928047001362
1775751202551670800,0.3696708984375,0.15863145887851715,-0.19720254838466644,0.02008662559092045
1775751202561684500,0.3796845703125,0.15256796777248383,0.20039887726306915,0.0615384615957737
1775751202571697400,0.389697509765625,0.12953269481658936,0.46598580479621887,0.11809521168470383
1775751202581711600,0.399711669921875,0.10400229692459106,0.5456835627555847,0.19346347451210022
1775751202591724300,0.409724365234375,0.07413122057914734,0.4720892310142517,0.2691134810447693
1775751202601737500,0.419737548828125,0.029224464669823647,0.293487012386322,0.31663280725479126
1775751202611751400,0.42975146484375,-0.008490956388413906,0.10944100469350815,0.32422947883605957
1775751202621764400,0.439764404296875,-0.02455807290971279,-0.11294439435005188,0.28079119324684143
1775751202631778600,0.449778564453125,-0.040472593158483505,-0.2849632799625397,0.21799518167972565
1775751202641791200,0.459791259765625,-0.07402548938989639,-0.38048848509788513,0.14124181866645813
1775751202651804400,0.469804443359375,-0.13481959700584412,-0.4239587187767029,0.05252818763256073
1775751202661818600,0.479818603515625,-0.21810996532440186,-0.43015962839126587,-0.021741515025496483
1775751202671831300,0.489831298828125,-0.3107333779335022,-0.37567561864852905,-0.06480509787797928
1775751202681844500,0.499844482421875,-0.35332369804382324,-0.26028645038604736,-0.1035386398434639
1775751202691858400,0.5098583984375,-0.33355745673179626,-0.17272409796714783,-0.14825071394443512
1775751202701871400,0.519871337890625,-0.2925413250923157,-0.054256048053503036,-0.23411503434181213
1775751202711884500,0.529884521484375,-0.2547380030155182,0.1193586215376854,-0.3635838031768799
1775751202721898200,0.539898193359375,-0.19142454862594604,0.2816506028175354,-0.5138707756996155
1775751202731911400,0.549911376953125,-0.014339790679514408,0.25471192598342896,-0.6099182367324829
1775751202741924600,0.559924560546875,0.5131008625030518,-0.19854557514190674,-0.43699970841407776
1775751202751938300,0.569938232421875,0.6789678335189819,-0.23310436308383942,-0.3425094187259674
1775751202761951500,0.579951416015625,0.4691765308380127,-0.0711444839835167,-0.32048267126083374
1775751202771964400,0.58996435546875,0.12911377847194672,0.1495910882949829,-0.2817475199699402
1775751202781978400,0.599978271484375,-0.11844675242900848,0.21208456158638,-0.1864098161458969
1775751202791991600,0.609991455078125,-0.28427618741989136,0.09057623893022537,-0.03388392925262451
1775751202802004200,0.620004150390625,-0.4248751103878021,-0.057606037706136703,0.14213716983795166
1775751202812018400,0.630018310546875,-0.5047297477722168,-0.10741833597421646,0.2951967716217041
1775751202822031600,0.640031494140625,-0.5013206005096436,-0.07705830037593842,0.3709104359149933
1775751202832044300,0.650044189453125,-0.4400293231010437,0.02478151209652424,0.35951128602027893
1775751202842058500,0.66005859375,-0.35568833351135254,0.20513930916786194,0.32983168959617615
1775751202852071400,0.670071533203125,-0.26190856099128723,0.2717984914779663,0.35049596428871155
1775751202862084400,0.68008447265625,-0.19372498989105225,0.23889859020709991,0.4259675443172455
1775751202872098600,0.6900986328125,-0.09615395963191986,0.14150945842266083,0.5165472626686096
1775751202882111200,0.700111328125,0.037040840834379196,0.027896346524357796,0.6124634146690369
1775751202892124400,0.71012451171875,0.14315955340862274,-0.10260200500488281,0.7279050350189209
1775751202902138400,0.720138427734375,0.18224596977233887,-0.2517528831958771,0.8509774208068848
1775751202912151300,0.7301513671875,0.18408940732479095,-0.3958005905151367,0.9664414525032043
1775751202922164500,0.74016455078125,0.1899009644985199,-0.55560302734375,1.0674322843551636
1775751202932178400,0.750178466796875,0.17625918984413147,-0.6524720788002014,1.128920078277588
1775751202942191400,0.76019140625,0.13383875787258148,-0.6686568856239319,1.140357255935669
1775751202952205300,0.770205322265625,0.08566989749670029,-0.6872873306274414,1.1205649375915527
1775751202962218500,0.780218505859375,0.03777347877621651,-0.7049344778060913,1.0807344913482666
1775751202972231400,0.7902314453125,-0.030967503786087036,-0.7156885862350464,1.0386003255844116
1775751202982245400,0.800245361328125,-0.1215227022767067,-0.7168518304824829,0.9935710430145264
1775751202992258300,0.81025830078125,-0.2236674427986145,-0.7083787322044373,0.959602952003479
1775751203002271500,0.820271484375,-0.3127903938293457,-0.6523290276527405,0.9142760038375854
1775751203012285400,0.830285400390625,-0.34475311636924744,-0.5883969664573669,0.8369031548500061
1775751203022298400,0.84029833984375,-0.33296915888786316,-0.5731700658798218,0.7375169396400452
1775751203032311600,0.8503115234375,-0.29409927129745483,-0.5531066060066223,0.6161686778068542
1775751203042325500,0.860325439453125,-0.2292073518037796,-0.5415793657302856,0.5013629794120789
1775751203052338400,0.87033837890625,-0.17641311883926392,-0.5076184868812561,0.4128094017505646
1775751203062351400,0.880351318359375,-0.13260358572006226,-0.33358728885650635,0.36356064677238464
1775751203072365600,0.890365478515625,-0.10131170600652695,-0.18470433354377747,0.3463137447834015
1775751203082378500,0.90037841796875,-0.10554107278585434,-0.10108640044927597,0.3470469117164612
1775751203092391400,0.910391357421875,-0.13877199590206146,-0.014622618444263935,0.36317846179008484
1775751203102405600,0.920405517578125,-0.20826078951358795,0.06822645664215088,0.3914306163787842
1775751203112418300,0.930418212890625,-0.3012072443962097,0.13721111416816711,0.42361438274383545
1775751203122431500,0.940431396484375,-0.38829606771469116,0.12696699798107147,0.45050111413002014
1775751203132445400,0.950445556640625,-0.422037273645401,0.07046191394329071,0.46504756808280945
1775751203142458400,0.960458251953125,-0.40727829933166504,0.08395295590162277,0.4605385661125183
1775751203152471600,0.970471435546875,-0.34587857127189636,0.11795300245285034,0.41654130816459656
1775751203162485200,0.9804853515625,-0.20625463128089905,0.04499730095267296,0.3294426202774048
1775751203172498400,0.99049853515625,-0.06737478077411652,-0.026881149038672447,0.20310917496681213
1775751203182511400,1.000511474609375,0.017141170799732208,0.061344582587480545,0.040159668773412704
1775751203192525300,1.010525390625,0.05174015834927559,0.23051948845386505,-0.13687555491924286
1775751203202538500,1.02053857421875,0.06172088906168938,0.4641530215740204,-0.31748688220977783
1775751203212551400,1.030551513671875,0.10265873372554779,0.7666364312171936,-0.49287253618240356
1775751203222565400,1.0405654296875,0.21707665920257568,1.0558419227600098,-0.646003007888794
1775751203232578600,1.05057861328125,0.37268489599227905,1.1419984102249146,-0.7486881017684937
1775751203242591500,1.060591552734375,0.418789267539978,1.023324966430664,-0.7869164347648621
1775751203252605400,1.07060546875,0.26458239555358887,0.8708869814872742,-0.7113271355628967
1775751203262618600,1.08061865234375,-0.03365090489387512,0.7806776762008667,-0.5101847052574158
1775751203272632300,1.09063232421875,-0.3580268621444702,0.4996958374977112,-0.27456605434417725
1775751203282645500,1.1006455078125,-0.43926364183425903,-0.07577918469905853,-0.08163440972566605
1775751203292658400,1.110658447265625,-0.3749275505542755,-0.6311377286911011,0.10865217447280884
1775751203302672400,1.12067236328125,-0.35561883449554443,-0.9848105907440186,0.3060150444507599
1775751203312685600,1.130685546875,-0.3765068054199219,-1.1562918424606323,0.422002911567688
1775751203322698200,1.1406982421875,-0.38917118310928345,-1.1770780086517334,0.45021137595176697
1775751203332712400,1.15071240234375,-0.4129018187522888,-1.0599071979522705,0.43186646699905396
1775751203342725600,1.1607255859375,-0.4208524227142334,-0.784990131855011,0.37423643469810486
1775751203352738300,1.17073828125,-0.4019394516944885,-0.5030876398086548,0.2960633635520935
1775751203362752500,1.18075244140625,-0.39670127630233765,-0.29878297448158264,0.22046712040901184
1775751203372765400,1.190765380859375,-0.4182529151439667,-0.1537855714559555,0.13667502999305725
1775751203382778400,1.2007783203125,-0.4002331495285034,-0.1253264993429184,0.01152509544044733
1775751203392792600,1.21079248046875,-0.3359724283218384,-0.18730783462524414,-0.12419438362121582
1775751203402805200,1.22080517578125,-0.2582477927207947,-0.3051822781562805,-0.21858294308185577
1775751203412818400,1.230818359375,-0.18491339683532715,-0.39526984095573425,-0.2406988888978958
1775751203422832400,1.240832275390625,-0.145923912525177,-0.3968205749988556,-0.21764470636844635
1775751203432845300,1.25084521484375,-0.13541029393672943,-0.3415386974811554,-0.1942158192396164
1775751203442858500,1.2608583984375,-0.13074523210525513,-0.25558677315711975,-0.18912838399410248
1775751203452872400,1.27087255859375,-0.15081320703029633,-0.14210174977779388,-0.17695240676403046
1775751203462885400,1.280885498046875,-0.19464538991451263,-0.04242309182882309,-0.1545160710811615
1775751203472898600,1.290898681640625,-0.22782890498638153,0.03579021990299225,-0.11753328889608383
1775751203482912500,1.30091259765625,-0.22444455325603485,0.05139341577887535,-0.07420898228883743
1775751203492925400,1.310925537109375,-0.19396547973155975,-0.029954170808196068,-0.03566158935427666
1775751203502938600,1.320938720703125,-0.14986859261989594,-0.2056993693113327,0.0016295883106067777
1775751203512952300,1.330952392578125,-0.1362992525100708,-0.350980669260025,0.05445844680070877
1775751203522965500,1.340965576171875,-0.13762524724006653,-0.45068541169166565,0.11740226298570633
1775751203532978400,1.350978515625,-0.12597151100635529,-0.5171717405319214,0.18004220724105835
1775751203542992400,1.360992431640625,-0.07718879729509354,-0.5010732412338257,0.20764267444610596
1775751203553005300,1.37100537109375,0.00387276872061193,-0.42757663130760193,0.213411346077919
1775751203563018200,1.381018310546875,0.09466445446014404,-0.3168165683746338,0.19361314177513123
1775751203573032200,1.3910322265625,0.19757752120494843,-0.21690887212753296,0.14497503638267517
1775751203583045000,1.401045166015625,0.2912326455116272,-0.11693141609430313,0.08100350946187973
1775751203593058000,1.41105810546875,0.37312138080596924,-0.053302101790905,0.02731391228735447
1775751203603072300,1.421072265625,0.42731937766075134,-0.01011069118976593,-0.003963582683354616
1775751203613085200,1.431085205078125,0.4563089609146118,-0.005932724103331566,-0.024205204099416733
1775751203623098000,1.44109814453125,0.48744529485702515,-0.08618175983428955,-0.060690511018037796
1775751203633112300,1.4511123046875,0.4821205735206604,-0.1481308788061142,-0.06929837912321091
1775751203643125200,1.461125244140625,0.4226255416870117,-0.19696126878261566,-0.047029558569192886
1775751203653139200,1.47113916015625,0.33030226826667786,-0.22347116470336914,-0.021141504868865013
1775751203663152000,1.481152099609375,0.24176868796348572,-0.21838746964931488,-0.002231462625786662
1775751203673165300,1.491165283203125,0.17626211047172546,-0.1923537254333496,0.013748835772275925
1775751203683179300,1.50117919921875,0.15088404715061188,-0.16433967649936676,0.026204705238342285
1775751203693192200,1.511192138671875,0.14844273030757904,-0.1399509757757187,0.014278005808591843
1775751203703205000,1.521205078125,0.14418567717075348,-0.10525904595851898,-0.03482935205101967
1775751203713219000,1.531218994140625,0.1161753386259079,-0.08266185969114304,-0.09021138399839401
1775751203723232300,1.541232177734375,0.06707623600959778,-0.053223274648189545,-0.13832804560661316
1775751203733245200,1.5512451171875,0.024957280606031418,-0.028620991855859756,-0.18812623620033264
1775751203743259100,1.561259033203125,0.0011491540353745222,-0.018033862113952637,-0.22645284235477448
1775751203753272300,1.571272216796875,-0.01372113823890686,0.002159823663532734,-0.2356090545654297
1775751203763285200,1.58128515625,-0.021705295890569687,0.02629338949918747,-0.20428761839866638
1775751203773299200,1.59129931640625,-0.021833127364516258,0.038835812360048294,-0.1450440138578415
1775751203783312400,1.6013125,-0.015305186621844769,0.02526913769543171,-0.06107240915298462
1775751203793325300,1.6113251953125,-0.009428389370441437,-0.009207080118358135,0.039261650294065475
1775751203803339300,1.62133935546875,-0.008045143447816372,-0.04989165812730789,0.1212603822350502
1775751203813352200,1.631352294921875,-0.007770837750285864,-0.07474454492330551,0.1808965504169464
1775751203823365000,1.641365234375,-0.015058577992022038,-0.087699756026268,0.21535572409629822
1775751203833379300,1.65137939453125,-0.01263829693198204,-0.08392445743083954,0.21415729820728302
1775751203843392300,1.661392333984375,0.004634166602045298,-0.09350597858428955,0.1896785944700241
1775751203853405200,1.6714052734375,0.0221463143825531,-0.08082267642021179,0.1617705225944519
1775751203863419400,1.68141943359375,0.03771914914250374,-0.05847396329045296,0.12534087896347046
1775751203873432000,1.69143212890625,0.072439044713974,-0.029171200469136238,0.0768580287694931
1775751203883446300,1.7014462890625,0.11827897280454636,-0.0013936321483924985,0.03796708956360817
1775751203893459200,1.711459228515625,0.1505809873342514,0.003153448924422264,0.029209284111857414
1775751203903472000,1.72147216796875,0.1786951720714569,-0.012742160819470882,0.042450256645679474
1775751203913486300,1.731486328125,0.19448186457157135,-0.041478466242551804,0.06810715049505234
1775751203923499000,1.7414990234375,0.20500534772872925,-0.07670675963163376,0.08617749810218811
1775751203933512200,1.75151220703125,0.20440293848514557,-0.14303411543369293,0.10589899867773056
1775751203943526100,1.761526123046875,0.18057216703891754,-0.21724337339401245,0.12424392253160477
1775751203953539000,1.7715390625,0.1283119022846222,-0.2626936733722687,0.14246366918087006
1775751203963552300,1.78155224609375,0.07053621858358383,-0.2661224901676178,0.15944638848304749
1775751203973566200,1.791566162109375,0.020356670022010803,-0.24285845458507538,0.1685895472764969
1775751203983579100,1.8015791015625,-0.04423936456441879,-0.1911925971508026,0.15584951639175415
1775751203993592300,1.81159228515625,-0.07967618852853775,-0.13861380517482758,0.10409604012966156
1775751204003606300,1.821606201171875,-0.0828208476305008,-0.08707498013973236,0.04716138541698456
1775751204013619200,1.831619140625,-0.07026084512472153,-0.06130224093794823,0.019645607098937035
1775751204023632400,1.84163232421875,-0.04995211213827133,-0.09448442608118057,0.025060879066586494
1775751204033646000,1.85164599609375,0.011409514583647251,-0.23459546267986298,0.09034960716962814
1775751204043659300,1.8616591796875,0.09871592372655869,-0.410166472196579,0.18721222877502441
1775751204053672200,1.871672119140625,0.218232199549675,-0.5733790993690491,0.27713334560394287
1775751204063686100,1.88168603515625,0.27861592173576355,-0.6252585649490356,0.34524473547935486
1775751204073699300,1.89169921875,0.2788121998310089,-0.48421114683151245,0.4193679690361023
1775751204083712300,1.901712158203125,0.202056422829628,-0.19080750644207,0.49950888752937317
1775751204093726200,1.911726318359375,0.06986802816390991,0.0921938419342041,0.5856221914291382
1775751204103739100,1.9217392578125,-0.05787155404686928,0.2295714020729065,0.7227683067321777
1775751204113753300,1.93175341796875,-0.1767694503068924,0.16446244716644287,0.9054020643234253
1775751204123766300,1.941766357421875,-0.2880688011646271,-0.022409968078136444,1.13654363155365
1775751204133779200,1.951779296875,-0.4256881773471832,-0.27381768822669983,1.3874454498291016
1775751204143793200,1.961793212890625,-0.6085360050201416,-0.5244139432907104,1.5802420377731323
1775751204153806300,1.971806396484375,-0.7645144462585449,-0.7010249495506287,1.6907535791397095
1775751204163819300,1.9818193359375,-0.8649925589561462,-0.7656340599060059,1.736646294593811
1775751204173833200,1.991833251953125,-0.8959468007087708,-0.7515602707862854,1.7068625688552856
1775751204183846100,2.00184619140625,-0.8502985835075378,-0.6905752420425415,1.6156442165374756
1775751204193859300,2.011859375,-0.7605905532836914,-0.5949552655220032,1.4803657531738281
1775751204203873300,2.021873291015625,-0.6715839505195618,-0.4563845694065094,1.3084627389907837
1775751204213886200,2.03188623046875,-0.5699431300163269,-0.2924864590167999,1.1285775899887085
1775751204223899100,2.041899169921875,-0.451034277677536,-0.0842304602265358,0.9805862903594971
1775751204233913000,2.0519130859375,-0.31679099798202515,0.15339887142181396,0.8912521600723267
1775751204243926300,2.06192626953125,-0.17890796065330505,0.2897418141365051,0.8514213562011719
1775751204253939200,2.071939208984375,-0.1517122983932495,0.22015820443630219,0.8131040930747986
1775751204263953200,2.081953125,-0.24631762504577637,-0.01561011839658022,0.7559981942176819
1775751204273966300,2.09196630859375,-0.39440298080444336,-0.3071727156639099,0.7109420299530029
1775751204283979300,2.101979248046875,-0.6107286214828491,-0.488094300031662,0.6410204768180847
1775751204293993200,2.1119931640625,-0.8001720309257507,-0.42573586106300354,0.4787308871746063
1775751204304006400,2.12200634765625,-0.9241962432861328,-0.27946600317955017,0.2788097858428955
1775751204314020000,2.13202001953125,-0.9621161818504333,-0.02141634188592434,0.15696191787719727
1775751204324033300,2.142033203125,-0.8425061702728271,0.17112568020820618,0.05552610754966736
1775751204334046200,2.152046142578125,-0.5950269103050232,0.29057565331459045,-0.024660605937242508
1775751204344060200,2.16206005859375,-0.28282371163368225,0.293338418006897,-0.06235205754637718
1775751204354073300,2.1720732421875,0.005372394807636738,0.1038702055811882,-0.05347414314746857
1775751204364086300,2.182086181640625,0.20803841948509216,-0.16175082325935364,-0.04495202749967575
1775751204374100200,2.192100341796875,0.27305495738983154,-0.3837369978427887,-0.09758301824331284
1775751204384113400,2.202113525390625,0.12257678061723709,-0.4004976153373718,-0.179133802652359
1775751204394126000,2.2121259765625,-0.05771176517009735,-0.289902925491333,-0.2678562104701996
1775751204404140300,2.222140380859375,-0.08978607505559921,-0.08787553012371063,-0.3505050241947174
1775751204414153200,2.2321533203125,0.023154322057962418,0.00119575927965343,-0.4441731870174408
1775751204424166100,2.242166259765625,0.19317477941513062,-0.02129516936838627,-0.5236616134643555
1775751204434180400,2.252180419921875,0.4226854741573334,-0.01984827220439911,-0.5263849496841431
1775751204444193000,2.262193115234375,0.6864364147186279,-0.06505516916513443,-0.46167469024658203
1775751204454206200,2.272206298828125,0.8003094792366028,-0.19696766138076782,-0.3987380564212799
1775751204464220200,2.28222021484375,0.6717997193336487,-0.2611173391342163,-0.38337987661361694
1775751204474233000,2.292233154296875,0.4410010874271393,-0.3419498801231384,-0.37142813205718994
1775751204484246300,2.302246337890625,0.2337845265865326,-0.43705615401268005,-0.3336397409439087
1775751204494260200,2.31226025390625,0.11279498785734177,-0.5393508076667786,-0.30748483538627625
1775751204504273200,2.322273193359375,0.04466387256979942,-0.5600960850715637,-0.2591029405593872
1775751204514286300,2.332286376953125,0.05137477442622185,-0.3492421507835388,-0.20067770779132843
1775751204524300300,2.34230029296875,0.16022056341171265,-0.005595301277935505,-0.19168208539485931
1775751204534313200,2.352313232421875,0.3940458297729492,0.32905617356300354,-0.17121276259422302
1775751204544327200,2.3623271484375,0.6929225325584412,0.4840225875377655,-0.08133374154567719
1775751204554340400,2.37234033203125,0.9451252222061157,0.4130956828594208,0.1104213148355484
1775751204564353300,2.382353271484375,0.9870558977127075,-0.0723293274641037,0.383297324180603
1775751204574367200,2.3923671875,0.7433124780654907,-0.7200796008110046,0.5796407461166382
1775751204584380400,2.40238037109375,0.43947136402130127,-1.1466964483261108,0.6340842843055725
1775751204594393300,2.412393310546875,0.19572316110134125,-1.2059173583984375,0.5493131875991821
1775751204604407300,2.4224072265625,0.05366083234548569,-0.9125062823295593,0.38492903113365173
1775751204614420500,2.43242041015625,0.01125345379114151,-0.5004396438598633,0.21386700868606567
1775751204624433200,2.44243310546875,0.011234811507165432,-0.020977986976504326,0.014062289148569107
1775751204634447400,2.452447265625,0.08359236270189285,0.48644688725471497,-0.21891076862812042
1775751204644460500,2.46246044921875,0.1549443155527115,0.9407225251197815,-0.38434553146362305
1775751204654473200,2.47247314453125,0.206237331032753,1.2319204807281494,-0.4188467860221863
1775751204664487400,2.4824873046875,0.18070320785045624,1.192801594734192,-0.3468993604183197
1775751204674500400,2.492500244140625,0.07505906373262405,0.8522490859031677,-0.19680307805538177
1775751204684513300,2.50251318359375,-0.0757107362151146,0.20136134326457977,-0.07100014388561249
1775751204694527500,2.512527587890625,-0.24300013482570648,-0.33013877272605896,-0.06280346214771271
1775751204704540200,2.5225400390625,-0.330253541469574,-0.5920928716659546,-0.19047273695468903
1775751204714553300,2.53255322265625,-0.34915879368782043,-0.5702533721923828,-0.3916894793510437
1775751204724567300,2.5425673828125,-0.36060798168182373,-0.320387065410614,-0.5875729322433472
1775751204734580200,2.552580322265625,-0.3273453712463379,0.023745276033878326,-0.6871756911277771
1775751204744594400,2.562594482421875,-0.19570718705654144,0.25210040807724,-0.5885817408561707
1775751204754607400,2.572607421875,-0.06420108675956726,0.21236498653888702,-0.28466475009918213
1775751204764620300,2.582620361328125,-0.04069096967577934,-0.10939013957977295,0.11344000697135925
1775751204774634200,2.59263427734375,-0.14053288102149963,-0.46196070313453674,0.4206681251525879
1775751204784647400,2.6026474609375,-0.31574782729148865,-0.6512749791145325,0.6017361879348755
1775751204794660400,2.612660400390625,-0.5422459840774536,-0.5894350409507751,0.626954197883606
1775751204804674300,2.62267431640625,-0.728863000869751,-0.1914013922214508,0.48805221915245056
1775751204814687200,2.632687255859375,-0.8134247064590454,0.338545560836792,0.23916012048721313
1775751204824700400,2.642700439453125,-0.8477520942687988,0.9050542712211609,-0.02496819943189621
1775751204834714400,2.65271435546875,-0.808967649936676,1.411562204360962,-0.22174836695194244
1775751204844727300,2.662727294921875,-0.7144659161567688,1.69234299659729,-0.2946196496486664
1775751204854740500,2.672740478515625,-0.6268311738967896,1.7018563747406006,-0.17024123668670654
1775751204864754400,2.68275439453125,-0.6169018149375916,1.388927698135376,0.08159898966550827
1775751204874767400,2.692767333984375,-0.6736679077148438,0.9932448267936707,0.3289579153060913
1775751204884780300,2.7027802734375,-0.7403984665870667,0.7573103308677673,0.45056983828544617
1775751204894794500,2.71279443359375,-0.7177530527114868,0.6213005781173706,0.4744831621646881
1775751204904807400,2.722807373046875,-0.6610826253890991,0.4388551115989685,0.37573421001434326
1775751204914820400,2.7328203125,-0.6274839043617249,0.3528728485107422,0.14498674869537354
1775751204924834300,2.742834228515625,-0.6094843745231628,0.4700319468975067,-0.1191844493150711
1775751204934847200,2.75284716796875,-0.5941213965415955,0.6809753179550171,-0.3223569989204407
1775751204944861400,2.762861328125,-0.6003199219703674,0.8115181922912598,-0.42809274792671204
1775751204954874400,2.772874267578125,-0.61387699842453,0.8943006992340088,-0.4512270987033844
1775751204964887300,2.78288720703125,-0.5842040777206421,0.913263738155365,-0.3874174952507019
1775751204974901500,2.792901611328125,-0.4862500727176666,0.7437995672225952,-0.2825795114040375
1775751204984914200,2.8029140625,-0.391333669424057,0.5000114440917969,-0.16035425662994385
1775751204994927400,2.81292724609375,-0.3493417501449585,0.2732352614402771,-0.08006900548934937
1775751205004941600,2.822941650390625,-0.33236703276634216,0.24365366995334625,-0.03666560351848602
1775751205014954200,2.832954345703125,-0.27580973505973816,0.27271515130996704,-0.044498227536678314
1775751205024967400,2.842967529296875,-0.15900163352489471,0.28315049409866333,-0.1003393903374672
1775751205034981400,2.8529814453125,-0.02514529973268509,0.28941476345062256,-0.16020378470420837
1775751205044994300,2.862994384765625,0.1125345304608345,0.23331661522388458,-0.19932295382022858
1775751205055007500,2.873007568359375,0.2544642388820648,0.1509285271167755,-0.15818510949611664
1775751205065021200,2.883021240234375,0.3914468586444855,0.10527689009904861,-0.08002372831106186
1775751205075034400,2.893034423828125,0.44122880697250366,0.2233627736568451,0.013706491328775883
1775751205085047300,2.90304736328125,0.433884859085083,0.3440215587615967,0.12074825912714005
1775751205095061200,2.913061279296875,0.37223589420318604,0.34734997153282166,0.29682207107543945
1775751205105074400,2.923074462890625,0.2611919045448303,0.19976717233657837,0.48987674713134766
1775751205115088400,2.93308837890625,0.14620088040828705,-0.06177841126918793,0.557772696018219
1775751205125101300,2.943101318359375,0.10292744636535645,-0.26104703545570374,0.4903617203235626
1775751205135114500,2.953114501953125,0.16687287390232086,-0.2829965353012085,0.3814983665943146
1775751205145128200,2.963128173828125,0.26464229822158813,-0.20575502514839172,0.2842807173728943
1775751205155141400,2.973141357421875,0.28799450397491455,-0.030674556270241737,0.18850040435791016
1775751205165154600,2.983154541015625,0.26333868503570557,0.19168688356876373,0.1417030692100525
1775751205175168300,2.993168212890625,0.21082648634910583,0.33254680037498474,0.13019528985023499
1775751205185181400,3.003181396484375,0.191575825214386,0.2484433650970459,0.10849025845527649
1775751205195194400,3.0131943359375,0.20912285149097443,0.022960709407925606,0.028113659471273422
1775751205205208300,3.023208251953125,0.215687558054924,-0.2077750265598297,-0.1381181925535202
1775751205215221500,3.033221435546875,0.14902383089065552,-0.38325923681259155,-0.26880669593811035
1775751205225234200,3.043234130859375,0.0646708682179451,-0.41512927412986755,-0.327443391084671
1775751205235248400,3.053248291015625,0.019344136118888855,-0.2717873156070709,-0.31861820816993713
1775751205245261300,3.06326123046875,-0.003254116512835026,-0.058398328721523285,-0.26923438906669617
1775751205255275300,3.073275146484375,0.0020671456586569548,0.05726595222949982,-0.24344834685325623
1775751205265288400,3.083288330078125,0.06584079563617706,0.11641209572553635,-0.2434731125831604
1775751205275301400,3.09330126953125,0.18652912974357605,0.06626717001199722,-0.2365262508392334
1775751205285315300,3.1033154296875,0.30848753452301025,-0.12866103649139404,-0.1947188824415207
1775751205295328300,3.113328369140625,0.3714350759983063,-0.37527135014533997,-0.11954450607299805
1775751205305341200,3.123341064453125,0.3556446433067322,-0.5246001482009888,-0.05085945129394531
1775751205315355400,3.13335546875,0.3125307261943817,-0.4747084677219391,-0.0032032502349466085
1775751205325368300,3.143368408203125,0.2744145095348358,-0.29593977332115173,0.004026167094707489
1775751205335381200,3.15338134765625,0.23866529762744904,-0.1380755752325058,-0.055041681975126266
1775751205345395200,3.163395263671875,0.22910775244235992,-0.008510664105415344,-0.17999213933944702
1775751205355408400,3.173408447265625,0.26676619052886963,0.12945786118507385,-0.3260044753551483
1775751205365421300,3.18342138671875,0.32047975063323975,0.2806290090084076,-0.4212217926979065
1775751205375435300,3.193435302734375,0.4075632393360138,0.37124624848365784,-0.413638174533844
1775751205385448400,3.203448486328125,0.4744943380355835,0.40623167157173157,-0.2624529302120209
1775751205395462400,3.21346240234375,0.517708420753479,0.32795628905296326,-0.042494997382164
1775751205405475300,3.223475341796875,0.47677481174468994,0.264613538980484,0.19892242550849915
1775751205415488300,3.23348828125,0.3917997181415558,0.24513252079486847,0.4113558530807495
1775751205425502200,3.243502197265625,0.3444324731826782,0.19801507890224457,0.539299726486206
1775751205435515400,3.253515380859375,0.3828304708003998,0.08457720279693604,0.5653347373008728
1775751205445528300,3.2635283203125,0.4170225262641907,-0.13355033099651337,0.48845410346984863
1775751205455542300,3.273542236328125,0.42354699969291687,-0.33494657278060913,0.36173850297927856
1775751205465555500,3.283555419921875,0.4229528605937958,-0.41446322202682495,0.2623828947544098
1775751205475568400,3.293568359375,0.38786622881889343,-0.4375600218772888,0.1430993676185608
1775751205485582300,3.303582275390625,0.29932039976119995,-0.330811470746994,-0.034752655774354935
1775751205495595500,3.313595458984375,0.18587665259838104,-0.07678718864917755,-0.22959324717521667
1775751205505608400,3.3236083984375,0.07465533167123795,0.21835310757160187,-0.3965657353401184
1775751205515622400,3.333622314453125,0.0003962783666793257,0.4374087452888489,-0.5129693150520325
1775751205525635300,3.34363525390625,-0.06673535704612732,0.47229644656181335,-0.5814231634140015
1775751205535649300,3.353649169921875,-0.15502792596817017,0.37727004289627075,-0.5752105712890625
1775751205545662500,3.363662353515625,-0.22075501084327698,0.2056751251220703,-0.5000484585762024
1775751205555675400,3.37367529296875,-0.24390746653079987,0.09347029775381088,-0.4010568857192993
1775751205565689000,3.383689208984375,-0.2619687616825104,0.08375588059425354,-0.3283997178077698
1775751205575702300,3.393702392578125,-0.28692418336868286,0.10360042750835419,-0.31606343388557434
1775751205585715200,3.403715087890625,-0.32599860429763794,0.10276658833026886,-0.3725501298904419
1775751205595729200,3.413729248046875,-0.4007423520088196,0.13563239574432373,-0.4577409327030182
1775751205605742300,3.423742431640625,-0.413894921541214,0.1778126060962677,-0.5769360065460205
1775751205615755000,3.433755126953125,-0.36934980750083923,0.26531982421875,-0.6488344669342041
1775751205625769200,3.443769287109375,-0.31512999534606934,0.326519250869751,-0.6576066613197327
1775751205635782100,3.4537822265625,-0.2598169147968292,0.34197890758514404,-0.6361583471298218
1775751205645795000,3.463795166015625,-0.197794571518898,0.31575581431388855,-0.6019431352615356
1775751205655809300,3.473809326171875,-0.13517619669437408,0.28929972648620605,-0.5184844136238098
1775751205665822200,3.483822265625,-0.07644443958997726,0.2952769100666046,-0.37781280279159546
1775751205675836200,3.493836181640625,0.020130302757024765,0.23130832612514496,-0.22612208127975464
1775751205685849000,3.50384912109375,0.11697881668806076,0.12303084880113602,-0.10647610574960709
1775751205695862300,3.5138623046875,0.21434931457042694,0.04386013373732567,-0.02491573616862297
1775751205705876200,3.523876220703125,0.2880658805370331,0.047816257923841476,0.047088947147130966
1775751205715889200,3.53388916015625,0.3290311396121979,0.17727944254875183,0.08783424645662308
1775751205725902000,3.543902099609375,0.31622427701950073,0.36561524868011475,0.07814806699752808
1775751205735916000,3.553916015625,0.2620771527290344,0.4834761321544647,0.07309418171644211
1775751205745929200,3.56392919921875,0.21630993485450745,0.4908733069896698,0.1419728547334671
1775751205755942100,3.573942138671875,0.027752535417675972,0.508815586566925,0.23644235730171204
1775751205765956000,3.5839560546875,-0.05901884660124779,0.5162670612335205,0.31979185342788696
1775751205775969300,3.59396923828125,-0.0795946940779686,0.45891910791397095,0.38173404335975647
1775751205785983000,3.60398291015625,-0.034753985702991486,0.38651150465011597,0.40437865257263184
1775751205795996200,3.61399609375,-0.02539483830332756,0.33737272024154663,0.396788626909256
1775751205806009300,3.62400927734375,0.11890428513288498,0.2599077522754669,0.3914141058921814
1775751205816023000,3.63402294921875,0.0783776268362999,0.2621069848537445,0.3610079884529114
1775751205826036200,3.6440361328125,0.17897188663482666,0.26662904024124146,0.3259701132774353
1775751205836049200,3.654049072265625,0.10041981190443039,0.299466609954834,0.271332710981369
1775751205846063000,3.66406298828125,0.15004488825798035,0.2659003734588623,0.23706474900245667
1775751205856076300,3.674076171875,0.029561353847384453,0.22908112406730652,0.21513734757900238
1775751205866089200,3.684089111328125,0.07361003756523132,0.181937575340271,0.20487192273139954
1775751205876103200,3.694103271484375,-0.021587584167718887,0.17946456372737885,0.17176802456378937
1775751205886116400,3.704116455078125,0.049074336886405945,0.17987868189811707,0.1361975222826004
1775751205896129000,3.71412890625,0.05302566662430763,0.21282385289669037,0.10763964056968689
1775751205906143200,3.724143310546875,0.11069082468748093,0.17666611075401306,0.06499018520116806
1775751205916156400,3.734156494140625,0.16821511089801788,0.14787814021110535,-0.014897456392645836
1775751205926170000,3.744170166015625,0.20483143627643585,0.1272687464952469,-0.07340656965970993
1775751205936183300,3.754183349609375,0.2068202942609787,0.16817329823970795,-0.09752868860960007
1775751205946196000,3.764196044921875,0.1787969172000885,0.20452651381492615,-0.09293846040964127
1775751205956210200,3.774210205078125,0.15084144473075867,0.16607525944709778,-0.054062701761722565
1775751205966223400,3.784223388671875,0.1443191021680832,0.08201604336500168,0.009367136284708977
1775751205976236000,3.794236083984375,0.1342286467552185,0.04614539071917534,0.06875696033239365
1775751205986250200,3.804250244140625,0.13141635060310364,0.041840922087430954,0.09273792803287506
1775751205996263200,3.81426318359375,0.12005237489938736,0.07216980308294296,0.08319741487503052
1775751206006276000,3.824276123046875,0.1185157299041748,0.09735531359910965,0.039082955569028854
1775751206016290300,3.834290283203125,0.0936652421951294,0.11344320327043533,-0.02117878757417202
1775751206026303200,3.84430322265625,0.07062356919050217,0.12455631047487259,-0.09144336730241776
1775751206036317200,3.854317138671875,0.06527141481637955,0.13818317651748657,-0.16586460173130035
1775751206046330000,3.864330078125,0.0766335278749466,0.15170909464359283,-0.22509703040122986
1775751206056343000,3.874343017578125,0.10066349059343338,0.1507365107536316,-0.2536866068840027
1775751206066357200,3.884357177734375,0.11480940878391266,0.1238018348813057,-0.2404613345861435
1775751206076370200,3.8943701171875,0.10565932095050812,0.08621557801961899,-0.18653126060962677
1775751206086383000,3.904383056640625,0.0657808780670166,0.052379053086042404,-0.10471336543560028
1775751206096397000,3.91439697265625,0.03387035056948662,0.004000600427389145,-0.03827149048447609
1775751206106410200,3.92441015625,0.01619015447795391,0.011887552216649055,0.03423413634300232
1775751206116424200,3.934424072265625,0.005299157928675413,0.02161075361073017,0.0953555479645729
1775751206126437000,3.94443701171875,0.002805906580761075,0.031325165182352066,0.11510182172060013
1775751206136450300,3.9544501953125,0.010572749190032482,0.039511457085609436,0.08923453837633133
1775751206146464000,3.964464111328125,0.021098094061017036,0.029563218355178833,0.035225629806518555
1775751206156477200,3.974477294921875,0.0010418286547064781,0.06495343148708344,0.001116130850277841
1775751206166490000,3.984489990234375,-0.02997014857828617,0.09151820093393326,-0.015497732907533646
1775751206176504000,3.994504150390625,-0.049792323261499405,0.0878686010837555,-0.04747164621949196
1775751206186517200,4.004517333984375,-0.06595718115568161,0.05808807164430618,-0.09341037273406982
1775751206196530200,4.0145302734375,-0.0686192736029625,0.04285638779401779,-0.14879080653190613
1775751206206544100,4.024544189453125,-0.06638301908969879,0.04934704303741455,-0.2152998000383377
1775751206216557300,4.034557373046875,-0.07907457649707794,0.0705665796995163,-0.2720235288143158
1775751206226571000,4.044571044921875,-0.08407626301050186,0.07877098023891449,-0.29200735688209534
1775751206236584200,4.054584228515625,-0.11453244090080261,0.06297656893730164,-0.25886964797973633
1775751206246597400,4.064597412109375,-0.14214302599430084,0.011247594840824604,-0.2148451954126358
1775751206256611000,4.074611083984375,-0.1483151614665985,-0.05151565372943878,-0.21303744614124298
1775751206266624300,4.084624267578125,-0.15367797017097473,-0.037104759365320206,-0.23922456800937653
1775751206276637200,4.09463720703125,-0.15616536140441895,0.006770288106054068,-0.2872413694858551
1775751206286651100,4.104651123046875,-0.14097470045089722,0.053273074328899384,-0.3472367823123932
1775751206296664300,4.114664306640625,-0.1209740936756134,0.11386797577142715,-0.373921662569046
1775751206306677000,4.124677001953125,-0.08425309509038925,0.14295262098312378,-0.36599743366241455
1775751206316691200,4.134691162109375,-0.04526761174201965,0.12253470718860626,-0.31938570737838745
1775751206326704400,4.144704345703125,-0.0241940189152956,0.0027473168447613716,-0.24044643342494965
1775751206336718000,4.154718017578125,-0.022721823304891586,-0.12808792293071747,-0.15781040489673615
1775751206346731300,4.164731201171875,-0.03308657929301262,-0.16048741340637207,-0.09319252520799637
1775751206356744200,4.174744140625,-0.051362790167331696,-0.1293710321187973,-0.050390735268592834
1775751206366758100,4.184758056640625,-0.058327220380306244,-0.049861300736665726,-0.03538035973906517
1775751206376771300,4.194771240234375,-0.044744301587343216,-0.022004900500178337,-0.06492626667022705
1775751206386784000,4.204783935546875,-0.023981498554348946,-0.040166862308979034,-0.14924514293670654
1775751206396798200,4.214798095703125,-0.00014274542627390474,-0.04830548167228699,-0.2806215286254883
1775751206406811100,4.22481103515625,0.021893847733736038,-0.057383131235837936,-0.4213946461677551
1775751206416824000,4.234823974609375,0.020498350262641907,-0.04469875991344452,-0.5316247344017029
1775751206426838300,4.24483837890625,0.010644122026860714,0.008918926119804382,-0.6090244650840759
1775751206436851200,4.254851318359375,0.009369799867272377,0.0908002108335495,-0.6685405373573303
1775751206446865200,4.264865234375,0.044141896069049835,0.15149551630020142,-0.6811202168464661
1775751206456878000,4.274878173828125,0.06120290234684944,0.1811109334230423,-0.6273515224456787
1775751206466891300,4.284891357421875,0.032653551548719406,0.1490509957075119,-0.507624626159668
1775751206476905200,4.2949052734375,-0.015185876749455929,0.013068930245935917,-0.37235066294670105
1775751206486918100,4.304918212890625,-0.07058975100517273,-0.09424128383398056,-0.24836640059947968
1775751206496931000,4.31493115234375,-0.08850456774234772,-0.143663689494133,-0.14317180216312408
1775751206506945000,4.324945068359375,-0.07897470891475677,-0.1952400654554367,-0.10070210695266724
1775751206516958200,4.334958251953125,-0.04417172074317932,-0.2061544954776764,-0.09884694963693619
1775751206526972400,4.344972412109375,0.008841694332659245,-0.17759369313716888,-0.09246548265218735
1775751206536985000,4.354985107421875,0.0663507953286171,-0.11014141887426376,-0.08368823677301407
1775751206546998300,4.364998291015625,0.11329939216375351,0.004084223881363869,-0.08724702149629593
1775751206557012200,4.37501220703125,0.14490099251270294,0.11982333660125732,-0.10156950354576111
1775751206567025400,4.385025390625,0.1581992208957672,0.19045382738113403,-0.12002920359373093
1775751206577038300,4.395038330078125,0.13821274042129517,0.1827479749917984,-0.13288481533527374
1775751206587052300,4.40505224609375,0.07419753074645996,0.09552466124296188,-0.1315779983997345
1775751206597065200,4.415065185546875,-0.024208666756749153,-0.01582024246454239,-0.11468183994293213
1775751206607079200,4.4250791015625,-0.09248652309179306,-0.08914931863546371,-0.09942858666181564
1775751206617092400,4.43509228515625,-0.10603109747171402,-0.09539443254470825,-0.10375755280256271
1775751206627105300,4.445105224609375,-0.08039204776287079,-0.042750660330057144,-0.12497548758983612
1775751206637119200,4.455119140625,-0.03231213241815567,0.015745939686894417,-0.15117247402668
1775751206647132400,4.46513232421875,-0.0017132115317508578,0.08959832787513733,-0.15544870495796204
1775751206657145300,4.475145263671875,0.006037918850779533,0.18541193008422852,-0.1351386457681656
1775751206667159300,4.4851591796875,0.021102888509631157,0.2471032589673996,-0.09807942807674408
1775751206677172500,4.49517236328125,0.032229576259851456,0.2649754583835602,-0.028006333857774734
1775751206687186200,4.505186279296875,0.039870716631412506,0.22276756167411804,0.040957819670438766
1775751206697199400,4.515199462890625,0.041787128895521164,0.14815963804721832,0.0906505435705185
1775751206707212300,4.52521240234375,0.0132699990645051,0.05648244917392731,0.13407763838768005
1775751206717226200,4.535226318359375,-0.009423862211406231,-0.030437801033258438,0.1528015285730362
1775751206727239400,4.545239501953125,-0.033900707960128784,-0.04277915507555008,0.16066531836986542
1775751206737252400,4.55525244140625,-0.030470557510852814,-0.0022394522093236446,0.16058515012264252
1775751206747266300,4.565266357421875,-0.008143413811922073,0.032944101840257645,0.1764828860759735
1775751206757279500,4.575279541015625,0.007721835747361183,0.030643396079540253,0.20480480790138245
1775751206767293200,4.585293212890625,0.014167750254273415,0.017775002866983414,0.22547785937786102
1775751206777306400,4.595306396484375,0.015281218104064465,0.01595473103225231,0.22032864391803741
1775751206787319300,4.6053193359375,0.020796624943614006,0.0106531772762537,0.19874265789985657
1775751206797333200,4.615333251953125,0.015469237230718136,-0.007233412005007267,0.17728263139724731
1775751206807346400,4.625346435546875,0.0012218583142384887,-0.052562009543180466,0.1661977618932724
1775751206817359000,4.635359130859375,-0.021563615649938583,-0.09575582295656204,0.16134122014045715
1775751206827373300,4.645373291015625,-0.0571700781583786,-0.10019930452108383,0.15025900304317474
1775751206837386500,4.655386474609375,-0.08243708312511444,-0.07933343946933746,0.12089259922504425
1775751206847399200,4.665399169921875,-0.09051711857318878,-0.0238970760256052,0.08988434821367264
1775751206857413400,4.675413330078125,-0.08289248496294022,0.016284963116049767,0.057919491082429886
1775751206867426300,4.68542626953125,-0.07694245129823685,0.03753405809402466,0.05162830650806427
1775751206877440300,4.695440185546875,-0.08035236597061157,0.03935406357049942,0.07406916469335556
1775751206887453400,4.705453369140625,-0.07063502073287964,0.01727965474128723,0.11092305183410645
1775751206897466400,4.71546630859375,-0.04549531266093254,-0.0008351673022843897,0.14534227550029755
1775751206907480300,4.725480224609375,-0.02658766880631447,-0.01834332011640072,0.16453808546066284
1775751206917493200,4.7354931640625,-0.020441891625523567,-0.04669347032904625,0.16467629373073578
1775751206927506200,4.745506103515625,-0.02611842006444931,-0.054857656359672546,0.15103772282600403
1775751206937520400,4.755520263671875,-0.03623150661587715,-0.05434473231434822,0.12449372559785843
1775751206947533300,4.765533203125,-0.05537324398756027,-0.04525775834918022,0.10157269984483719
1775751206957547300,4.77554736328125,-0.07014846056699753,-0.01727752387523651,0.07912944257259369
1775751206967560200,4.785560302734375,-0.08120644092559814,0.026554912328720093,0.05769019573926926
1775751206977573400,4.795573486328125,-0.10099532455205917,0.06964192539453506,0.051178500056266785
1775751206987587300,4.80558740234375,-0.11829841136932373,0.09995376318693161,0.05378653109073639
1775751206997600300,4.815600341796875,-0.11560036242008209,0.11548158526420593,0.05311621353030205
1775751207007613400,4.825613525390625,-0.10416075587272644,0.10320521146059036,0.056051552295684814
1775751207017627100,4.835627197265625,-0.08953787386417389,0.053153231739997864,0.08649014681577682
1775751207027640300,4.845640380859375,-0.07532431185245514,-0.03002074919641018,0.1306738555431366
1775751207037654300,4.855654296875,-0.05366482585668564,-0.0979478657245636,0.15484283864498138
1775751207047667200,4.865667236328125,-0.019222430884838104,-0.13651417195796967,0.14615747332572937
1775751207057680400,4.875680419921875,-0.0003225088003091514,-0.13605716824531555,0.11434601992368698
1775751207067694000,4.885694091796875,0.01170352753251791,-0.08619027584791183,0.06698409467935562
1775751207077707300,4.895707275390625,0.026433471590280533,-0.0223870649933815,0.010683536529541016
1775751207087720400,4.905720458984375,0.032049812376499176,0.013038836419582367,-0.028373850509524345
1775751207097734100,4.915734130859375,0.03696281090378761,0.011374893598258495,-0.04328116029500961
1775751207107747300,4.925747314453125,0.034992337226867676,-0.017072459682822227,-0.028243355453014374
1775751207117761300,4.93576123046875,0.02101234160363674,-0.055635832250118256,0.007930627092719078
1775751207127774200,4.945774169921875,0.0038064562249928713,-0.08002106845378876,0.0476444847881794
1775751207137787400,4.955787353515625,-0.011593006551265717,-0.09506286680698395,0.06216989830136299
1775751207147801300,4.96580126953125,-0.021864285692572594,-0.07834833115339279,0.05180726945400238
1775751207157814300,4.975814208984375,-0.020194750279188156,-0.05131378769874573,0.012268650345504284
1775751207167827500,4.985827392578125,-0.013546701520681381,-0.011749067343771458,-0.031557392328977585
1775751207177841200,4.995841064453125,-0.002088717184960842,0.03803686425089836,-0.06361892074346542
1775751207187854300,5.005854248046875,0.011313640512526035,0.06590285152196884,-0.07922584563493729
1775751207197868300,5.015868408203125,-0.003195793367922306,0.06749062985181808,-0.07126006484031677
1775751207207881200,5.025881103515625,-0.017310280352830887,0.0552976094186306,-0.052432313561439514
1775751207217894400,5.035894287109375,-0.03238057717680931,0.03345596045255661,-0.0290585495531559
1775751207227908400,5.045908447265625,-0.04375706613063812,-0.0059841228649020195,-0.013546168804168701
1775751207237921300,5.05592138671875,-0.03742939606308937,-0.03586425632238388,-0.020064255222678185
1775751207247934500,5.0659345703125,-0.02334633469581604,-0.03214861452579498,-0.04316424950957298
1775751207257948400,5.075948486328125,0.0024881914723664522,-0.007743673399090767,-0.06811647117137909
1775751207267961300,5.08596142578125,0.03410390764474869,0.02510162442922592,-0.08966942876577377
1775751207277975300,5.095975341796875,0.053458698093891144,0.05058940872550011,-0.09602586179971695
1775751207287988200,5.10598828125,0.055691223591566086,0.06461414694786072,-0.08313670009374619
1775751207298001400,5.11600146484375,0.05362594500184059,0.047811731696128845,-0.057981010526418686
1775751207308015400,5.126015380859375,0.05231247469782829,0.018061025068163872,-0.030596258118748665
1775751207318028300,5.1360283203125,0.04849403351545334,-0.013981861993670464,0.0008237157016992569
1775751207328041200,5.146041259765625,0.05393034219741821,-0.034751057624816895,0.0204504132270813
1775751207338055400,5.156055419921875,0.05367521196603775,-0.03393719345331192,0.020779579877853394
1775751207348068400,5.166068359375,0.055575642734766006,-0.01907782070338726,0.01847567968070507
1775751207358082300,5.176082275390625,0.06239866465330124,-0.020532438531517982,0.03449832275509834
1775751207368095500,5.186095458984375,0.05848754569888115,-0.03741714730858803,0.05291274935007095
1775751207378108200,5.196108154296875,0.05375217646360397,-0.06579206138849258,0.07479407638311386
1775751207388122400,5.206122314453125,0.03555027022957802,-0.07849480956792831,0.10909559577703476
1775751207398135300,5.21613525390625,0.015733955428004265,-0.07967006415128708,0.1275763362646103
1775751207408149200,5.226149169921875,-0.0011779161868616939,-0.07310669869184494,0.11733248829841614
1775751207418162400,5.236162353515625,0.0004623247659765184,-0.07326222956180573,0.10487128794193268
1775751207428175000,5.246175048828125,0.014880412258207798,-0.09011897444725037,0.101363904774189
1775751207438189300,5.256189208984375,0.027169834822416306,-0.11166954040527344,0.128681018948555
1775751207448202500,5.266202392578125,0.022279739379882812,-0.14469753205776215,0.19202376902103424
1775751207458215200,5.276215087890625,0.004858404863625765,-0.1660744547843933,0.2778119146823883
1775751207468229400,5.2862294921875,0.005000883713364601,-0.16128262877464294,0.36723846197128296
1775751207478242300,5.2962421875,0.019355321303009987,-0.17126256227493286,0.4471205174922943
1775751207488256300,5.30625634765625,0.03374890983104706,-0.1895555555820465,0.5053766369819641
1775751207498269400,5.31626953125,0.02112286165356636,-0.17932075262069702,0.5716528296470642
1775751207508282400,5.326282470703125,-0.014120345935225487,-0.15085555613040924,0.651614785194397
1775751207518296300,5.33629638671875,-0.05261234566569328,-0.1309305876493454,0.7421258091926575
1775751207528309200,5.346309326171875,-0.09423861652612686,-0.1119379848241806,0.8444305658340454
1775751207538322200,5.356322265625,-0.13312876224517822,-0.10532668977975845,0.9458743929862976
1775751207548336400,5.36633642578125,-0.16400118172168732,-0.10229308158159256,1.000084638595581
1775751207558348500,5.3763486328125,-0.18324385583400726,-0.09303806722164154,1.0117071866989136
1775751207568362800,5.38636279296875,-0.18731769919395447,-0.09441092610359192,0.9773465394973755
1775751207578375700,5.396375732421875,-0.16751016676425934,-0.07881998270750046,0.9001526832580566
1775751207588388600,5.406388671875,-0.13021047413349152,-0.038109034299850464,0.8138542771339417
1775751207598402600,5.416402587890625,-0.08899272233247757,0.023490412160754204,0.7379238605499268
1775751207608415500,5.42641552734375,-0.031034881249070168,0.06359868496656418,0.6502193212509155
1775751207618429700,5.4364296875,0.008489358238875866,0.05505100265145302,0.5427703261375427
1775751207628442600,5.446442626953125,-0.02845347858965397,0.01073653344064951,0.4467971920967102
1775751207638455600,5.45645556640625,-0.14983104169368744,-0.06317497789859772,0.38523077964782715
1775751207648469800,5.4664697265625,-0.272722065448761,-0.10031461715698242,0.35025280714035034
1775751207658482400,5.476482421875,-0.3561176359653473,-0.07140414416790009,0.3168993890285492
1775751207668495600,5.48649560546875,-0.4060676097869873,0.02714027464389801,0.2924523651599884
1775751207678509800,5.496509765625,-0.4116043150424957,0.10496503114700317,0.2793560028076172
1775751207688522500,5.5065224609375,-0.3922375440597534,0.13055108487606049,0.2516562044620514
1775751207698536700,5.51653662109375,-0.3417520225048065,0.12525779008865356,0.19903028011322021
1775751207708549400,5.52654931640625,-0.25844088196754456,0.13234153389930725,0.15963387489318848
1775751207718562600,5.5365625,-0.1533631831407547,0.12123587727546692,0.11923690885305405
1775751207728576800,5.54657666015625,-0.051306065171957016,0.09927092492580414,0.05711787939071655
1775751207738589400,5.55658935546875,-0.03442588448524475,0.04583220183849335,-0.005882123950868845
1775751207748602600,5.5666025390625,-0.08994160592556,-0.06802912056446075,-0.06655958294868469
1775751207758616600,5.576616455078125,-0.17211423814296722,-0.1649484783411026,-0.11511540412902832
1775751207768629500,5.58662939453125,-0.2683233320713043,-0.16753679513931274,-0.1697821170091629
1775751207778643700,5.596643798828125,-0.3449784219264984,-0.12742426991462708,-0.24445980787277222
1775751207788656600,5.60665673828125,-0.3734428286552429,-0.029858829453587532,-0.3197779953479767
1775751207798669600,5.616669677734375,-0.3579072654247284,0.07289391756057739,-0.3887600004673004
1775751207808683500,5.62668359375,-0.2805024981498718,0.16218598186969757,-0.43299591541290283
1775751207818696400,5.636696533203125,-0.15081986784934998,0.22751012444496155,-0.42653295397758484
1775751207828710700,5.646710693359375,-0.0033425334841012955,0.28214967250823975,-0.3976355195045471
1775751207838723600,5.6567236328125,0.14165540039539337,0.26624658703804016,-0.3886108696460724
1775751207848736500,5.666736572265625,0.23606792092323303,0.13429415225982666,-0.37726926803588867
1775751207858750500,5.67675048828125,0.24793443083763123,-0.00558278476819396,-0.3451709747314453
1775751207868763600,5.686763671875,0.2294102907180786,-0.1415747106075287,-0.3042384684085846
1775751207878776600,5.696776611328125,0.20538990199565887,-0.26891854405403137,-0.2533385157585144
1775751207888790500,5.70679052734375,0.14938496053218842,-0.41591304540634155,-0.18560421466827393
1775751207898803700,5.7168037109375,0.04822105914354324,-0.5067412257194519,-0.10045044124126434
1775751207908817400,5.7268173828125,-0.03411988541483879,-0.49844521284103394,-0.051653340458869934
1775751207918830600,5.73683056640625,-0.10212477296590805,-0.3512435257434845,-0.04355786368250847
1775751207928843500,5.746843505859375,-0.12943442165851593,-0.1245879977941513,-0.054787881672382355
1775751207938857500,5.756857421875,-0.07071039080619812,0.017585385590791702,-0.07640715688467026
1775751207948870700,5.76687060546875,0.04924078285694122,0.11919909715652466,-0.10159533470869064
1775751207958883600,5.776883544921875,0.2040703147649765,0.2429649829864502,-0.1370747685432434
1775751207968897500,5.7868974609375,0.365177184343338,0.2871907651424408,-0.2028561681509018
1775751207978910700,5.79691064453125,0.4797133505344391,0.2811416685581207,-0.2767607569694519
1775751207988924400,5.80692431640625,0.5440350770950317,0.19611571729183197,-0.3118763864040375
1775751207998937600,5.8169375,0.48105931282043457,-0.08036834001541138,-0.2773679494857788
1775751208008950800,5.82695068359375,0.358155757188797,-0.38306376338005066,-0.17781101167201996
1775751208018964500,5.836964599609375,0.2707348167896271,-0.573314905166626,-0.05564754828810692
1775751208028977700,5.846977783203125,0.23323778808116913,-0.603417158126831,0.027843348681926727
1775751208038991600,5.85699169921875,0.2119245082139969,-0.44613832235336304,0.08185625076293945
1775751208049004500,5.867004638671875,0.20264871418476105,-0.21859678626060486,0.11767177283763885
1775751208059017700,5.877017822265625,0.1896626055240631,-0.030420223250985146,0.13751710951328278
1775751208069031400,5.887031494140625,0.1628562957048416,0.04116607829928398,0.13291729986667633
1775751208079044600,5.897044677734375,0.1146853044629097,0.049916427582502365,0.1031695306301117
1775751208089057800,5.907057861328125,0.06628554314374924,0.003314836649224162,0.09735265374183655
1775751208099071500,5.917071533203125,0.0040852888487279415,-0.07482896745204926,0.06920596957206726
1775751208109084700,5.927084716796875,-0.03303172066807747,-0.11935915052890778,-0.01085690874606371
1775751208119098600,5.9370986328125,-0.03586985170841217,-0.11909150332212448,-0.13261663913726807
1775751208129111600,5.947111572265625,-0.017313743010163307,-0.055632635951042175,-0.28064656257629395
1775751208139124700,5.957124755859375,0.006216350477188826,0.09417736530303955,-0.41209089756011963
1775751208149138700,5.967138671875,0.03705602139234543,0.2810058295726776,-0.4428189694881439
1775751208159151600,5.977151611328125,0.08480250835418701,0.4190971255302429,-0.3518185019493103
1775751208169164500,5.98716455078125,0.14775830507278442,0.46212315559387207,-0.18149229884147644
1775751208179178800,5.9971787109375,0.17800994217395782,0.3694342374801636,0.022458171471953392
1775751208189191700,6.007191650390625,0.16522037982940674,0.1658739149570465,0.20315231382846832
1775751208199205600,6.01720556640625,0.1628006398677826,-0.058401789516210556,0.31836652755737305
1775751208209218600,6.027218505859375,0.14427942037582397,-0.19859911501407623,0.36060771346092224
1775751208219231500,6.0372314453125,0.09512491524219513,-0.2044287770986557,0.32935819029808044
1775751208229245700,6.04724560546875,0.03341388329863548,-0.09673240035772324,0.2544253468513489
1775751208239258600,6.057258544921875,0.0038783615455031395,0.03603469952940941,0.17223940789699554
1775751208249271600,6.067271484375,0.03008493222296238,0.18942664563655853,0.10247417539358139
1775751208259285800,6.07728564453125,0.13016945123672485,0.27082404494285583,0.0934780165553093
1775751208269298400,6.08729833984375,0.2522279918193817,0.2759708762168884,0.15909990668296814
1775751208279312600,6.097312744140625,0.34668871760368347,0.1923830211162567,0.2640729248523712
1775751208289325800,6.107325927734375,0.42640218138694763,0.05055718496441841,0.3809662461280823
1775751208299338500,6.11733837890625,0.47273266315460205,-0.037092242389917374,0.46539777517318726
1775751208309352700,6.127352783203125,0.4987538754940033,-0.029414881020784378,0.4555853605270386
1775751208319365400,6.137365478515625,0.4978233575820923,0.01040630228817463,0.38088661432266235
1775751208329379600,6.147379638671875,0.46414050459861755,0.058033742010593414,0.29548144340515137
1775751208339392800,6.157392822265625,0.4277009963989258,0.08186663687229156,0.20784054696559906
1775751208349405400,6.167405517578125,0.3764769732952118,0.10460710525512695,0.14203223586082458
1775751208359419600,6.177419677734375,0.3399794101715088,0.15859204530715942,0.09881472587585449
1775751208369432600,6.1874326171875,0.31433528661727905,0.21719808876514435,0.07011623680591583
1775751208379446500,6.197446533203125,0.3013366758823395,0.26511287689208984,0.0843026265501976
1775751208389459700,6.207459716796875,0.29188963770866394,0.2221880555152893,0.14950241148471832
1775751208399472600,6.21747265625,0.2508822977542877,0.07580315321683884,0.23242498934268951
1775751208409486600,6.227486572265625,0.16304484009742737,-0.08531250059604645,0.28159040212631226
1775751208419499500,6.23749951171875,0.08816740661859512,-0.15135489404201508,0.28500962257385254
1775751208429512400,6.247512451171875,0.05175933614373207,-0.17232809960842133,0.2476492077112198
1775751208439526700,6.257526611328125,0.013470268808305264,-0.13621748983860016,0.1791178286075592
1775751208449539600,6.26753955078125,-0.02371598221361637,-0.04982081800699234,0.061479873955249786
1775751208459553500,6.277553466796875,-0.05938290059566498,0.043115511536598206,-0.10113780200481415
1775751208469566500,6.28756640625,-0.07394985854625702,0.14357048273086548,-0.24956455826759338
1775751208479579600,6.29757958984375,-0.06029822677373886,0.25056618452072144,-0.3507731854915619
1775751208489593600,6.307593505859375,-0.0448758602142334,0.3302018642425537,-0.38048210740089417
1775751208499606500,6.3176064453125,-0.040705617517232895,0.3639222979545593,-0.3488922119140625
1775751208509619700,6.32761962890625,-0.04884157329797745,0.3515913188457489,-0.2676261067390442
1775751208519633400,6.33763330078125,-0.06428125500679016,0.3448455333709717,-0.17782218754291534
1775751208529646600,6.347646484375,-0.06220345199108124,0.32699355483055115,-0.11855380982160568
1775751208539660800,6.357660888671875,-0.06792232394218445,0.31067317724227905,-0.054967645555734634
1775751208549673500,6.367673583984375,-0.094807468354702,0.17776520550251007,-0.00033396040089428425
1775751208559687400,6.3776875,-0.12909354269504547,0.04053357616066933,0.036261335015296936
1775751208569701400,6.387701416015625,-0.18352216482162476,-0.01582556776702404,0.04909404367208481
1775751208579714600,6.397714599609375,-0.22474363446235657,0.008656338788568974,0.02755572833120823
1775751208589728300,6.407728271484375,-0.21104566752910614,0.12351767718791962,-0.01991538517177105
1775751208599741400,6.417741455078125,-0.16099101305007935,0.3153286576271057,-0.07311682403087616
1775751208609754600,6.427754638671875,-0.1288631707429886,0.49139875173568726,-0.12518161535263062
1775751208619768300,6.437768310546875,-0.10671952366828918,0.5806090831756592,-0.14737321436405182
1775751208629781500,6.447781494140625,-0.09458403289318085,0.5350745916366577,-0.15407797694206238
1775751208639795500,6.45779541015625,-0.07324705272912979,0.3762812316417694,-0.14676015079021454
1775751208649808400,6.467808349609375,-0.0304548442363739,0.19777779281139374,-0.1320970505475998
1775751208659821600,6.477821533203125,-0.010932009667158127,0.08512501418590546,-0.13613386452198029
1775751208669835500,6.48783544921875,-0.011392204090952873,0.06371905654668808,-0.15803571045398712
1775751208679848400,6.497848388671875,-0.01997450739145279,0.09483250230550766,-0.18647879362106323
1775751208689861600,6.507861572265625,-0.045888129621744156,0.17572815716266632,-0.20844827592372894
1775751208699875300,6.517875244140625,-0.07274504005908966,0.27985456585884094,-0.2518112063407898
1775751208709888500,6.527888427734375,-0.0935608446598053,0.36263197660446167,-0.30807793140411377
1775751208719902500,6.53790234375,-0.08467654138803482,0.3789867162704468,-0.35447606444358826
1775751208729915400,6.547915283203125,-0.07403934001922607,0.34547802805900574,-0.364805668592453
1775751208739928600,6.557928466796875,-0.08275692909955978,0.27095720171928406,-0.3722151219844818
1775751208749942500,6.567942626953125,-0.11665524542331696,0.1751510500907898,-0.38534581661224365
1775751208759955500,6.57795556640625,-0.1600722223520279,0.11309965699911118,-0.41004157066345215
1775751208769969400,6.587969482421875,-0.17949944734573364,0.07211574167013168,-0.4678199291229248
1775751208779982600,6.597982666015625,-0.1656944304704666,0.04987221956253052,-0.5418374538421631
1775751208789995500,6.60799560546875,-0.13817891478538513,0.0526307187974453,-0.6079911589622498
1775751208800009500,6.618009521484375,-0.1265811175107956,0.013802364468574524,-0.6676329374313354
1775751208810022400,6.6280224609375,-0.16277825832366943,-0.007296795025467873,-0.7104730606079102
1775751208820036400,6.638036376953125,-0.1821274608373642,-0.04433071240782738,-0.7603617906570435
1775751208830049500,6.648049560546875,-0.16593703627586365,-0.06655452400445938,-0.8280758261680603
1775751208840062500,6.6580625,-0.10447660833597183,-0.05288079008460045,-0.8858981132507324
1775751208850076400,6.668076416015625,-0.009718406945466995,-0.06078345701098442,-0.9277539849281311
1775751208860089600,6.678089599609375,0.10993529111146927,-0.08830828964710236,-0.9214404225349426
1775751208870102500,6.6881025390625,0.2255614846944809,-0.12628576159477234,-0.8661832809448242
1775751208880116500,6.698116455078125,0.31157466769218445,-0.16453701257705688,-0.7750430107116699
1775751208890129700,6.708129638671875,0.3796836733818054,-0.15736939013004303,-0.667145311832428
1775751208900143400,6.718143310546875,0.41034597158432007,-0.09888529777526855,-0.561359703540802
1775751208910156500,6.728156494140625,0.38238704204559326,-0.0081514036282897,-0.4630526006221771
1775751208920169500,6.73816943359375,0.32636451721191406,0.07518476247787476,-0.35475143790245056
1775751208930183400,6.748183349609375,0.2785019278526306,0.14244583249092102,-0.24611815810203552
1775751208940196600,6.758196533203125,0.2511105239391327,0.1550108939409256,-0.15040121972560883
1775751208950210600,6.76821044921875,0.24831527471542358,0.13861434161663055,-0.0706547275185585
1775751208960223500,6.778223388671875,0.2522905766963959,0.10537329316139221,-0.003052248852327466
1775751208970236400,6.788236328125,0.2479267120361328,0.0639645978808403,0.046066828072071075
1775751208980250400,6.79825048828125,0.22793622314929962,0.04694646969437599,0.07417862117290497
1775751208990263600,6.808263671875,0.1858913004398346,0.028143754228949547,0.08409170806407928
1775751209000276500,6.8182763671875,0.14074113965034485,0.03177337720990181,0.0659947320818901
1775751209010290400,6.82829052734375,0.09647167474031448,0.08685367554426193,0.04387105256319046
1775751209020303400,6.838303466796875,0.059662263840436935,0.18043501675128937,0.01631292700767517
1775751209030317600,6.848317626953125,0.026924824342131615,0.28673696517944336,0.00407516909763217
1775751209040330500,6.85833056640625,0.013545103371143341,0.354084312915802,0.008508000522851944
1775751209050343400,6.868343505859375,0.0018080200534313917,0.3651667833328247,0.03418992832303047
1775751209060357600,6.878357666015625,-0.0027925907634198666,0.3129744231700897,0.07637146860361099
1775751209070370600,6.88837060546875,0.013686250895261765,0.2029981166124344,0.11251109838485718
1775751209080384500,6.898384521484375,0.04507213830947876,0.11706031113862991,0.14580726623535156
1775751209090397400,6.9083974609375,0.07745111733675003,0.09940621256828308,0.16515406966209412
1775751209100410400,6.918410400390625,0.10117215663194656,0.1098972037434578,0.15645672380924225
1775751209110424600,6.928424560546875,0.11071879416704178,0.11491513252258301,0.14907896518707275
1775751209120437500,6.9384375,0.1060691773891449,0.12063640356063843,0.13235165178775787
1775751209130451500,6.948451416015625,0.08988781273365021,0.11179044842720032,0.08010442554950714
1775751209140464600,6.958464599609375,0.06657077372074127,0.11759773641824722,0.027967719361186028
1775751209150477300,6.968477294921875,0.051414988934993744,0.12081670016050339,-0.023625435307621956
1775751209160491500,6.978491455078125,0.029637787491083145,0.09992233663797379,-0.06936842203140259
1775751209170504400,6.98850439453125,0.018066618591547012,0.07573577016592026,-0.10202117264270782
1775751209180517400,6.998517333984375,0.02599218487739563,0.060506220906972885,-0.13389228284358978
1775751209190531600,7.008531494140625,0.04403030872344971,0.04984026029706001,-0.16451677680015564
1775751209200544300,7.018544189453125,0.07647693157196045,0.04483644664287567,-0.18268325924873352
1775751209210558500,7.028558349609375,0.0964844599366188,0.04507559910416603,-0.18103156983852386
1775751209220571400,7.0385712890625,0.10535944253206253,0.028963740915060043,-0.16446058452129364
1775751209230584300,7.048584228515625,0.11604537814855576,0.013614878058433533,-0.1385118067264557
1775751209240598500,7.0585986328125,0.09316349774599075,0.015027685090899467,-0.11944437026977539
1775751209250611500,7.068611572265625,0.04862958565354347,0.005361742340028286,-0.11118431389331818
1775751209260625400,7.07862548828125,0.014134993776679039,0.0057383133098483086,-0.09831671416759491
1775751209270638600,7.088638671875,-0.0014482269762083888,-0.04620691016316414,-0.08601929992437363
1775751209280651500,7.098651611328125,-0.015511048957705498,-0.12450651079416275,-0.08191084861755371
1775751209290665500,7.10866552734375,-0.017664747312664986,-0.17163807153701782,-0.0775642991065979
1775751209300678400,7.118678466796875,-0.02641136758029461,-0.1428506225347519,-0.06406393647193909
1775751209310692600,7.128692626953125,-0.029023395851254463,-0.05369412153959274,-0.05993523821234703
1775751209320705500,7.13870556640625,-0.019844278693199158,0.03009025752544403,-0.0686538964509964
1775751209330718500,7.148718505859375,0.008786833845078945,0.07665056735277176,-0.07249417155981064
1775751209340732700,7.158732666015625,0.0386376716196537,0.07473921775817871,-0.06199625879526138
1775751209350745300,7.168745361328125,0.0450817234814167,0.04176395758986473,-0.034340132027864456
1775751209360759600,7.178759521484375,0.03147616609930992,0.0046786414459347725,0.0020607539918273687
1775751209370772500,7.1887724609375,0.003135872073471546,-0.02797570824623108,0.03355636075139046
1775751209380785400,7.198785400390625,-0.041368477046489716,-0.04214052855968475,0.047093477100133896
1775751209390799600,7.208799560546875,-0.06724375486373901,-0.04478771239519119,0.048351820558309555
1775751209400812300,7.218812255859375,-0.06060768663883209,-0.0449962355196476,0.03116191364824772
1775751209410825500,7.228825439453125,-0.029375998303294182,-0.031137678772211075,0.01446922030299902
1775751209420839400,7.23883935546875,0.001677791471593082,-0.019219767302274704,0.0073535204865038395
1775751209430852400,7.248852294921875,0.03157630190253258,-0.019659189507365227,0.026040121912956238
1775751209440866600,7.258866455078125,0.0363960899412632,-0.050214700400829315,0.06556250154972076
1775751209450879500,7.26887939453125,0.013502226211130619,-0.09261222183704376,0.0870765820145607
1775751209460892400,7.278892333984375,-0.017781926319003105,-0.10269521921873093,0.08023252338171005
1775751209470906600,7.28890673828125,-0.059357065707445145,-0.09378162026405334,0.07255595922470093
1775751209480919300,7.298919189453125,-0.10591232031583786,-0.09177465736865997,0.049731072038412094
1775751209490933500,7.30893359375,-0.14005590975284576,-0.08957089483737946,0.018269019201397896
1775751209500946400,7.318946533203125,-0.1503695249557495,-0.10019291192293167,-0.01794091798365116
1775751209510959400,7.32895947265625,-0.14179041981697083,-0.07376157492399216,-0.0519859679043293
1775751209520973600,7.3389736328125,-0.10874192416667938,-0.022882945835590363,-0.08208714425563812
1775751209530986500,7.348986572265625,-0.08072440326213837,-0.009769007563591003,-0.08785315603017807
1775751209541000400,7.35900048828125,-0.06809702515602112,-0.07503030449151993,-0.07736749202013016
1775751209551013400,7.369013427734375,-0.08242243528366089,-0.16537244617938995,-0.06246471032500267
1775751209561026600,7.379026611328125,-0.11854289472103119,-0.21364836394786835,-0.03489327058196068
1775751209571040500,7.38904052734375,-0.1394827961921692,-0.2414216697216034,-0.005004878621548414
1775751209581053700,7.3990537109375,-0.15073704719543457,-0.25663045048713684,0.033855702728033066
1775751209591068000,7.40906787109375,-0.1659623384475708,-0.2561638653278351,0.08085650205612183
1775751209601080600,7.41908056640625,-0.17141729593276978,-0.26739469170570374,0.13398656249046326
1775751209611093800,7.42909375,-0.16770564019680023,-0.2651829421520233,0.20193524658679962
1775751209621107500,7.439107421875,-0.17300426959991455,-0.22611328959465027,0.282207727432251
1775751209631120600,7.44912060546875,-0.20498217642307281,-0.1537725180387497,0.3821399211883545
1775751209641134800,7.459134765625,-0.2638542950153351,-0.0519430935382843,0.5096246600151062
1775751209651147500,7.4691474609375,-0.31863418221473694,0.026510169729590416,0.6585014462471008
1775751209661160700,7.47916064453125,-0.33351272344589233,0.07405105978250504,0.7904331088066101
1775751209671174700,7.489174560546875,-0.3071937561035156,0.10511124134063721,0.9041000604629517
1775751209681187600,7.4991875,-0.26658082008361816,0.1359780728816986,1.0045193433761597
1775751209691201800,7.509201904296875,-0.23372992873191833,0.15799708664417267,1.0832951068878174
1775751209701214700,7.519214599609375,-0.2518801689147949,0.16786356270313263,1.1319502592086792
1775751209711227600,7.5292275390625,-0.3363859951496124,0.18745964765548706,1.1484887599945068
1775751209721241600,7.53924169921875,-0.48378264904022217,0.21992650628089905,1.11345374584198
1775751209731254500,7.549254638671875,-0.6474370956420898,0.24731898307800293,1.0329911708831787
1775751209741267700,7.559267822265625,-0.8032082915306091,0.24795281887054443,0.9173449873924255
1775751209751281700,7.56928173828125,-0.9344283938407898,0.23739710450172424,0.8059910535812378
1775751209761294600,7.579294677734375,-1.0414842367172241,0.226396381855011,0.7179656028747559
1775751209771308500,7.58930859375,-1.0923810005187988,0.2817283570766449,0.6589022874832153
1775751209781321700,7.59932177734375,-1.0798002481460571,0.4239747226238251,0.5775924921035767
1775751209791334700,7.609334716796875,-0.9991897940635681,0.5568411350250244,0.48214614391326904
1775751209801348600,7.6193486328125,-0.8722749948501587,0.6096550822257996,0.393085241317749
1775751209811361800,7.62936181640625,-0.7275534868240356,0.5803517699241638,0.31791219115257263
1775751209821375500,7.63937548828125,-0.5829859375953674,0.46914803981781006,0.263305127620697
1775751209831388700,7.649388671875,-0.4652872681617737,0.3638370633125305,0.22888298332691193
1775751209841401600,7.659401611328125,-0.43092235922813416,0.2799895703792572,0.18634697794914246
1775751209851415600,7.66941552734375,-0.4591555893421173,0.1783452332019806,0.12594594061374664
1775751209861428700,7.6794287109375,-0.5345664620399475,0.09123963117599487,0.035044535994529724
1775751209871442700,7.689442626953125,-0.6277896165847778,0.08174679428339005,-0.06884884089231491
1775751209881455600,7.69945556640625,-0.6759382486343384,0.16605953872203827,-0.14876285195350647
1775751209891468800,7.70946875,-0.6497114300727844,0.25928589701652527,-0.19703450798988342
1775751209901482500,7.719482421875,-0.5548408627510071,0.2715553343296051,-0.22100108861923218
1775751209911495700,7.72949560546875,-0.3934330344200134,0.22680865228176117,-0.22017471492290497
1775751209921509600,7.739509521484375,-0.2093987613916397,0.1697102040052414,-0.19245865941047668
1775751209931522600,7.7495224609375,-0.026393523439764977,0.1669493019580841,-0.12849299609661102
1775751209941535700,7.75953564453125,0.16999143362045288,0.24692483246326447,-0.06691165268421173
1775751209951549700,7.7695498046875,0.34800538420677185,0.3457784354686737,-0.023306122049689293
1775751209961562600,7.779562744140625,0.37862586975097656,0.3279235363006592,0.015916116535663605
1775751209971575800,7.789575927734375,0.23929274082183838,0.22870348393917084,0.03654735907912254
1775751209981589800,7.79958984375,0.075539231300354,0.12357466667890549,0.0489070899784565
1775751209991602700,7.809602783203125,-0.02786412090063095,0.0925443172454834,0.07817442715167999
1775751210001616600,7.81961669921875,-0.05674397200345993,0.04512380063533783,0.11754900217056274
1775751210011629600,7.829629638671875,-0.023142071440815926,-0.006335660349577665,0.16173456609249115
1775751210021642800,7.839642822265625,0.055153798311948776,-0.0035808864049613476,0.19187462329864502
1775751210031656700,7.84965673828125,0.15576696395874023,0.04693501815199852,0.1800786852836609
1775751210041669600,7.859669677734375,0.26317650079727173,0.15632861852645874,0.13408216834068298
1775751210051683600,7.86968359375,0.37231123447418213,0.2788843512535095,0.07858695089817047
1775751210061696800,7.87969677734375,0.43027520179748535,0.3098286986351013,0.053045108914375305
1775751210071709700,7.889709716796875,0.39674627780914307,0.2558285892009735,0.06513532996177673
1775751210081723600,7.8997236328125,0.27530479431152344,0.11566055566072464,0.10931157320737839
1775751210091736800,7.90973681640625,0.05585607513785362,-0.03350256755948067,0.17086414992809296
1775751210101750500,7.91975048828125,-0.1478525847196579,-0.11648187041282654,0.1899145394563675
1775751210111763700,7.929763671875,-0.30562570691108704,-0.12519973516464233,0.14865098893642426
1775751210121776600,7.939776611328125,-0.4071672260761261,-0.017660751938819885,0.06324607878923416
1775751210131790600,7.94979052734375,-0.45262792706489563,0.20136666297912598,-0.03747387230396271
1775751210141803800,7.9598037109375,-0.4659586548805237,0.4355615973472595,-0.07849827408790588
1775751210151817500,7.9698173828125,-0.5017608404159546,0.5527979135513306,-0.057971689850091934
1775751210161830700,7.97983056640625,-0.5130217671394348,0.5740193128585815,-0.002302569104358554
1775751210171843800,7.98984375,-0.46814829111099243,0.3699844479560852,0.03729384392499924
1775751210181857500,7.999857421875,-0.41227197647094727,-0.03423599898815155,0.026875555515289307
1775751210191870700,8.00987060546875,-0.3748630881309509,-0.4356793165206909,-0.033969417214393616
1775751210201884700,8.019884765625,-0.3087277412414551,-0.7140384912490845,-0.11639611423015594
1775751210211897600,8.029897705078126,-0.2192697674036026,-0.7927026748657227,-0.17648768424987793
1775751210221910800,8.039910888671875,-0.12704849243164062,-0.7363405823707581,-0.2520413100719452
1775751210231924700,8.0499248046875,-0.05185467377305031,-0.5689116716384888,-0.35970252752304077
1775751210241937700,8.059937744140624,0.020426711067557335,-0.38755330443382263,-0.474681556224823
1775751210251951600,8.06995166015625,0.0846344605088234,-0.24498099088668823,-0.5426949858665466
1775751210261964800,8.07996484375,0.1255376785993576,-0.15490809082984924,-0.5355609059333801
1775751210271977700,8.089977783203125,0.12662185728549957,-0.113048255443573,-0.45118770003318787
1775751210281991700,8.09999169921875,0.07284171879291534,-0.09128011018037796,-0.3003840744495392
1775751210292004600,8.110004638671874,-0.004132959526032209,-0.0547652430832386,-0.12701334059238434
1775751210302017800,8.120017822265625,-0.051665324717760086,-0.02864069864153862,0.004318848252296448
1775751210312031700,8.13003173828125,-0.0821172371506691,0.002270611235871911,0.03858733922243118
1775751210322044700,8.140044677734375,-0.07721249759197235,0.09900248050689697,0.0296684131026268
1775751210332058600,8.15005859375,-0.05034785717725754,0.18902957439422607,0.0241953507065773
1775751210342071800,8.16007177734375,-0.03893062099814415,0.27132338285446167,0.028685973957180977
1775751210352084700,8.170084716796875,-0.03317606449127197,0.3226241171360016,0.05666860565543175
1775751210362098700,8.1800986328125,-0.02009541355073452,0.3335694372653961,0.10762979090213776
1775751210372112000,8.19011181640625,0.037510357797145844,0.31358057260513306,0.16807502508163452
1775751210382125600,8.20012548828125,0.12768232822418213,0.23310568928718567,0.2448776662349701
1775751210392138800,8.210138671875,0.19938501715660095,0.11545415967702866,0.3205204904079437
1775751210402151700,8.220151611328125,0.2205803096294403,-0.014974954538047314,0.38792482018470764
1775751210412165600,8.23016552734375,0.19781534373760223,-0.06623601168394089,0.4020896553993225
1775751210422178800,8.2401787109375,0.14120586216449738,-0.033840253949165344,0.33092331886291504
1775751210432192500,8.250192626953124,0.07349046319723129,0.051245611160993576,0.18659543991088867
1775751210442205700,8.260205810546875,0.03875671699643135,0.13461746275424957,0.02153538540005684
1775751210452219000,8.270218994140626,-0.006371879018843174,0.15023131668567657,-0.1463998258113861
1775751210462232600,8.280232666015625,-0.05457136780023575,0.1980116218328476,-0.25531086325645447
1775751210472245800,8.290245849609375,-0.06925443559885025,0.30991417169570923,-0.3187260627746582
1775751210482259700,8.300259765625,-0.06580138206481934,0.4425595700740814,-0.30166929960250854
1775751210492272600,8.310272705078125,-0.05480572581291199,0.5780593752861023,-0.18364067375659943
1775751210502285800,8.320285888671876,-0.00606481684371829,0.5793831944465637,0.036315664649009705
1775751210512299800,8.3302998046875,0.054541539400815964,0.40232694149017334,0.3115094304084778
1775751210522312700,8.340312744140626,0.09675130993127823,0.08886063098907471,0.5569308996200562
1775751210532326700,8.35032666015625,0.13185922801494598,-0.18528996407985687,0.6696428060531616
1775751210542339600,8.360339599609375,0.16703559458255768,-0.28307831287384033,0.6231144666671753
1775751210552352800,8.370352783203124,0.1757931262254715,-0.2366543561220169,0.47871437668800354
1775751210562366200,8.3803662109375,0.18722474575042725,-0.09740272164344788,0.2834886908531189
1775751210572379400,8.39037939453125,0.22493112087249756,0.07573390752077103,0.08708669990301132
1775751210582393300,8.400393310546875,0.261660635471344,0.1756354719400406,-0.09657420963048935
1775751210592406300,8.41040625,0.2833121418952942,0.25479447841644287,-0.21824125945568085
1775751210602419500,8.42041943359375,0.3000842034816742,0.2767639458179474,-0.26693421602249146
1775751210612433200,8.43043310546875,0.317434161901474,0.2546258866786957,-0.2612515687942505
1775751210622446300,8.4404462890625,0.35960930585861206,0.18436238169670105,-0.22996768355369568
1775751210632459500,8.45045947265625,0.4135313928127289,0.06455262750387192,-0.1936429738998413
1775751210642473200,8.46047314453125,0.4541483223438263,-0.03514041006565094,-0.1606389433145523
1775751210652486400,8.470486328125,0.4637940227985382,-0.09465274214744568,-0.1512976437807083
1775751210662500400,8.480500244140625,0.4311007857322693,-0.12572064995765686,-0.17010940611362457
1775751210672513300,8.49051318359375,0.3616602122783661,-0.08355561643838882,-0.19841055572032928
1775751210682526500,8.5005263671875,0.3199244737625122,0.010171943344175816,-0.2149794101715088
1775751210692540400,8.51054052734375,0.3014490604400635,0.12820537388324738,-0.23119939863681793
1775751210702553300,8.52055322265625,0.29530221223831177,0.21891264617443085,-0.2562248706817627
1775751210712567300,8.5305673828125,0.3054398000240326,0.22885501384735107,-0.24195031821727753
1775751210722580200,8.540580322265624,0.2964223325252533,0.17582854628562927,-0.18926845490932465
1775751210732593400,8.550593505859375,0.28733029961586,0.06354302167892456,-0.14096644520759583
1775751210742607400,8.560607421875,0.3000524938106537,-0.0459672249853611,-0.0961153507232666
1775751210752620300,8.570620361328125,0.32840290665626526,-0.12910552322864532,-0.07738746702671051
1775751210762634200,8.58063427734375,0.35738635063171387,-0.12991219758987427,-0.07978084683418274
1775751210772647400,8.5906474609375,0.3564939498901367,-0.060025252401828766,-0.08838845044374466
1775751210782660400,8.600660400390625,0.3363090455532074,0.051118046045303345,-0.09585116058588028
1775751210792674300,8.61067431640625,0.29213863611221313,0.17487886548042297,-0.08077740669250488
1775751210802687500,8.6206875,0.22498305141925812,0.2489357888698578,-0.06007718667387962
1775751210812701200,8.630701171875,0.1536683887243271,0.23606419563293457,-0.04920909181237221
1775751210822714400,8.64071435546875,0.09738674014806747,0.2153725028038025,-0.04519970342516899
1775751210832727300,8.650727294921875,0.0538424588739872,0.17860595881938934,-0.044871602207422256
1775751210842741200,8.6607412109375,0.00600436283275485,0.12558189034461975,-0.018209630623459816
1775751210852754400,8.67075439453125,-0.027952272444963455,0.10574373602867126,0.007215036079287529
1775751210862768400,8.680768310546876,-0.03993969410657883,0.1036294549703598,0.006566023454070091
1775751210872781300,8.69078125,-0.019901536405086517,0.13907532393932343,-0.0054725296795368195
1775751210882794500,8.70079443359375,0.020665597170591354,0.2184114307165146,-0.04535416513681412
1775751210892808200,8.71080810546875,0.037274401634931564,0.3036312460899353,-0.11605070531368256
1775751210902821400,8.7208212890625,-0.009616941213607788,0.34110644459724426,-0.21303583681583405
1775751210912835300,8.73083544921875,-0.09030459821224213,0.2946185767650604,-0.3226395547389984
1775751210922848300,8.74084814453125,-0.16207093000411987,0.22364401817321777,-0.40047764778137207
1775751210932861400,8.750861328125,-0.19080910086631775,0.12066196650266647,-0.48023825883865356
1775751210942875400,8.76087548828125,-0.18912704288959503,0.04783463478088379,-0.5682564973831177
1775751210952888300,8.770888427734375,-0.18360339105129242,0.052450958639383316,-0.6250494718551636
1775751210962902300,8.78090234375,-0.14686374366283417,0.046177081763744354,-0.6416806578636169
1775751210972915500,8.79091552734375,-0.10146617144346237,0.0654304027557373,-0.6310836672782898
1775751210982928400,8.800928466796876,-0.049668218940496445,0.011404188349843025,-0.6057983040809631
1775751210992942300,8.8109423828125,-0.017356619238853455,-0.08891788870096207,-0.5695556402206421
1775751211002955300,8.820955322265625,-0.003561711637303233,-0.12887462973594666,-0.5461586713790894
1775751211012969200,8.83096923828125,-0.016157398000359535,-0.08128073811531067,-0.538264811038971
1775751211022982400,8.840982421875,-0.061709970235824585,0.005264270585030317,-0.5342165231704712
1775751211032995300,8.850995361328126,-0.10402440279722214,0.09877211600542068,-0.5290902256965637
1775751211043009300,8.86100927734375,-0.13001711666584015,0.18750996887683868,-0.5112196207046509
1775751211053022500,8.8710224609375,-0.11074888706207275,0.24956029653549194,-0.49655118584632874
1775751211063036200,8.8810361328125,-0.048466335982084274,0.2551811635494232,-0.49045172333717346
1775751211073049300,8.89104931640625,0.03487782180309296,0.20306256413459778,-0.4856135845184326
1775751211083062500,8.9010625,0.1349804550409317,0.10955046117305756,-0.488468736410141
1775751211093076200,8.911076171875,0.2283141314983368,0.028806081041693687,-0.47142717242240906
1775751211103089400,8.92108935546875,0.29585614800453186,-0.04787910729646683,-0.4402599334716797
1775751211113103400,8.931103271484375,0.35413917899131775,-0.1019042581319809,-0.39932981133461
1775751211123116300,8.9411162109375,0.38479161262512207,-0.13578446209430695,-0.34652918577194214
1775751211133129500,8.95112939453125,0.34616619348526,-0.14841130375862122,-0.28848400712013245
1775751211143143400,8.961143310546875,0.2696661055088043,-0.11551700532436371,-0.21737386286258698
1775751211153156400,8.97115625,0.19748911261558533,-0.05465978384017944,-0.13580577075481415
1775751211163170300,8.98117041015625,0.14635534584522247,0.006983341183513403,-0.05378014221787453
1775751211173183200,8.991183349609376,0.11865181475877762,0.027814054861664772,0.008606537245213985
1775751211183196400,9.001196533203125,0.09204550087451935,0.034271687269210815,0.0612601600587368
1775751211193210400,9.01121044921875,0.07967858016490936,0.03753752261400223,0.10068026930093765
1775751211203223300,9.021223388671874,0.10100171715021133,0.023358052596449852,0.12087342143058777
1775751211213236200,9.031236328125,0.12164893746376038,-0.010568222030997276,0.13365446031093597
1775751211223250400,9.04125048828125,0.09393847733736038,-0.042868372052907944,0.10797147452831268
1775751211233263400,9.051263427734375,0.018204569816589355,-0.03988775983452797,0.04707563295960426
1775751211243277300,9.06127734375,-0.05657299980521202,0.017906030640006065,-0.008744223043322563
1775751211253290500,9.07129052734375,-0.09181834012269974,0.08314734697341919,-0.05423421040177345
1775751211263303200,9.08130322265625,-0.10088693350553513,0.13461746275424957,-0.0979558601975441
1775751211273317400,9.0913173828125,-0.09199357032775879,0.136732816696167,-0.14980679750442505
1775751211283330300,9.101330322265625,-0.05975201353430748,0.09464821219444275,-0.2084951549768448
1775751211293344300,9.11134423828125,-0.012626845389604568,0.06674414128065109,-0.24087226390838623
1775751211303357400,9.121357421875,0.021153755486011505,0.04372750595211983,-0.24940237402915955
1775751211313370000,9.1313701171875,0.014052702113986015,0.06090622767806053,-0.2479219138622284
1775751211323384300,9.14138427734375,0.0029198897536844015,0.07425558567047119,-0.2437404841184616
1775751211333397500,9.1513974609375,0.00729413190856576,0.0795145332813263,-0.234763503074646
1775751211343411200,9.1614111328125,0.038175083696842194,0.06642855703830719,-0.21602150797843933
1775751211353424400,9.17142431640625,0.06770607829093933,0.06040182337164879,-0.17004816234111786
1775751211363437300,9.181437255859375,0.08528826385736465,0.07540660351514816,-0.11453430354595184
1775751211373451300,9.191451171875,0.10907641798257828,0.07714325189590454,-0.07576693594455719
1775751211383464400,9.20146435546875,0.14122024178504944,0.08526536077260971,-0.051538556814193726
1775751211393478400,9.211478515625,0.16882869601249695,0.08044397830963135,-0.040534377098083496
1775751211403491300,9.2214912109375,0.17034776508808136,0.08891229331493378,-0.053762298077344894
1775751211413504300,9.231504150390625,0.16330955922603607,0.07165447622537613,-0.09557872265577316
1775751211423518500,9.2415185546875,0.15766552090644836,0.016515327617526054,-0.14455078542232513
1775751211433531400,9.251531494140625,0.15115676820278168,-0.004141215234994888,-0.19207197427749634
1775751211443545300,9.26154541015625,0.1547190099954605,0.011518438346683979,-0.23440611362457275
1775751211453558300,9.271558349609375,0.16496019065380096,0.03158775344491005,-0.25404345989227295
1775751211463571200,9.2815712890625,0.16164429485797882,0.07392296195030212,-0.243055522441864
1775751211473585400,9.29158544921875,0.1488800197839737,0.10674881935119629,-0.22517266869544983
1775751211483598300,9.301598388671875,0.11784195154905319,0.13075828552246094,-0.20640990138053894
1775751211493612300,9.3116123046875,0.06662216782569885,0.1293254941701889,-0.1903473138809204
1775751211503625500,9.32162548828125,0.010467021726071835,0.10501562803983688,-0.17752791941165924
1775751211513638100,9.33163818359375,-0.05085599049925804,0.09481998533010483,-0.17373238503932953
1775751211523652400,9.34165234375,-0.10468965768814087,0.08883693069219589,-0.18126006424427032
1775751211533665500,9.35166552734375,-0.12794092297554016,0.1063392236828804,-0.18744339048862457
1775751211543679200,9.36167919921875,-0.10908094793558121,0.12653610110282898,-0.19582383334636688
1775751211553692400,9.3716923828125,-0.05927424132823944,0.15884903073310852,-0.20062445104122162
1775751211563704800,9.381704833984376,-0.010957842692732811,0.16669709980487823,-0.18836991488933563
1775751211573718800,9.39171875,0.011315771378576756,0.14173822104930878,-0.1635657548904419
1775751211583732000,9.40173193359375,0.006947921123355627,0.11221708357334137,-0.12435683608055115
1775751211593745700,9.41174560546875,-0.015102519653737545,0.059780776500701904,-0.07683698832988739
1775751211603758800,9.4217587890625,-0.03400617092847824,0.009724265895783901,-0.03983423113822937
1775751211613772000,9.43177197265625,-0.038059502840042114,-0.02646915800869465,-0.012181831523776054
1775751211623785700,9.44178564453125,-0.03668610751628876,-0.07088828831911087,0.014355236664414406
1775751211633799000,9.451798828125,-0.03927656635642052,-0.0788455456495285,0.05680762231349945
1775751211643812900,9.461812744140625,-0.01793638989329338,-0.06895483285188675,0.11875247955322266
1775751211653825800,9.47182568359375,0.010551976971328259,-0.08096808940172195,0.2045920193195343
1775751211663839000,9.4818388671875,0.02449442446231842,-0.10860930383205414,0.3005044460296631
1775751211673853000,9.49185302734375,-0.005811550188809633,-0.1535504162311554,0.41025009751319885
1775751211683865900,9.501865966796874,-0.09403568506240845,-0.20270997285842896,0.508526086807251
1775751211693879800,9.5118798828125,-0.20564903318881989,-0.24133644998073578,0.5923991203308105
1775751211703892700,9.521892822265626,-0.31573426723480225,-0.2598568797111511,0.6404918432235718
1775751211713906000,9.531906005859375,-0.41044798493385315,-0.2313123196363449,0.6402817368507385
1775751211723920000,9.541919921875,-0.4890778064727783,-0.17190970480442047,0.6084439158439636
1775751211733932800,9.551932861328124,-0.5344133377075195,-0.08021894097328186,0.5779416561126709
1775751211743946800,9.56194677734375,-0.5406608581542969,0.0356362909078598,0.5589466691017151
1775751211753960000,9.5719599609375,-0.4983983337879181,0.14848774671554565,0.5434814095497131
1775751211763972900,9.581972900390625,-0.40297913551330566,0.24371519684791565,0.5460636019706726
1775751211773986800,9.59198681640625,-0.26882028579711914,0.2777218818664551,0.5699350833892822
1775751211784000000,9.602,-0.11022450774908066,0.22193852066993713,0.6079176664352417
1775751211794013700,9.612013671875,0.04532886669039726,0.07671475410461426,0.6246918439865112
1775751211804027000,9.62202685546875,0.11654099076986313,-0.06597129255533218,0.6212536692619324
1775751211814039800,9.632039794921875,0.1241120919585228,-0.18510514497756958,0.6010035276412964
1775751211824053800,9.6420537109375,0.08505257964134216,-0.2525928318500519,0.5586758255958557
1775751211834067000,9.65206689453125,0.024633441120386124,-0.24469204246997833,0.5100062489509583
1775751211844080600,9.66208056640625,-0.04217062145471573,-0.15820641815662384,0.4742131233215332
1775751211854093800,9.67209375,-0.12082096189260483,-0.0242608655244112,0.443148136138916
1775751211864107000,9.68210693359375,-0.17868666350841522,0.09708952903747559,0.4023434519767761
1775751211874120700,9.69212060546875,-0.2052207887172699,0.18573524057865143,0.36310577392578125
1775751211884134000,9.7021337890625,-0.20991487801074982,0.2405763864517212,0.3206922709941864
1775751211894147800,9.71214794921875,-0.19220192730426788,0.23631933331489563,0.29173997044563293
1775751211904160800,9.722160888671874,-0.166376993060112,0.15371233224868774,0.26571714878082275
1775751211914174000,9.732174072265625,-0.16592451930046082,0.015342737548053265,0.2463224232196808
1775751211924188000,9.74218798828125,-0.19947075843811035,-0.12334856390953064,0.23458720743656158
1775751211934200800,9.752200927734375,-0.24343396723270416,-0.22229965031147003,0.22229965031147003
1775751211944213800,9.7622138671875,-0.2761325240135193,-0.24709473550319672,0.2150433361530304
1775751211954227700,9.772227783203125,-0.2941141724586487,-0.24043896794319153,0.19495084881782532
1775751211964241000,9.782240966796875,-0.3175659775733948,-0.22256995737552643,0.15616749227046967
1775751211974254800,9.7922548828125,-0.3358648121356964,-0.17247962951660156,0.09592066705226898
1775751211984267800,9.802267822265625,-0.32675549387931824,-0.10502389073371887,0.029860960319638252
1775751211994281700,9.81228173828125,-0.3019412159919739,-0.030732879415154457,-0.037338584661483765
1775751212004295000,9.822294921875,-0.26870468258857727,0.007768707349896431,-0.12599362432956696
1775751212014307800,9.832307861328125,-0.23057621717453003,-0.010116550140082836,-0.2161639928817749
1775751212024321800,9.84232177734375,-0.18236768245697021,-0.07242892682552338,-0.30875784158706665
1775751212034335000,9.8523349609375,-0.1591140180826187,-0.14465677738189697,-0.3985074460506439
1775751212044347600,9.86234765625,-0.15907913446426392,-0.19871602952480316,-0.45889168977737427
1775751212054361900,9.87236181640625,-0.17580725252628326,-0.19206558167934418,-0.4700223505496979
1775751212064374800,9.882374755859376,-0.19844278693199158,-0.1599113643169403,-0.45211154222488403
1775751212074388700,9.892388671875,-0.22221443057060242,-0.1309622824192047,-0.42684292793273926
1775751212084402000,9.90240185546875,-0.2092304527759552,-0.12350250035524368,-0.41334789991378784
1775751212094414600,9.91241455078125,-0.1660161316394806,-0.12700241804122925,-0.40981149673461914
1775751212104428800,9.9224287109375,-0.11855141073465347,-0.11917565762996674,-0.4082846939563751
1775751212114442000,9.93244189453125,-0.07008614391088486,-0.1404697597026825,-0.3864835202693939
1775751212124455700,9.94245556640625,-0.042394593358039856,-0.22317582368850708,-0.3433381915092468
1775751212134468900,9.95246875,-0.03502216562628746,-0.2879028916358948,-0.2970260679721832
1775751212144481800,9.962481689453124,-0.03827548399567604,-0.27372661232948303,-0.2571753263473511
1775751212154495700,9.972495849609375,-0.025163942947983742,-0.2428709715604782,-0.236555814743042
1775751212164509000,9.982509033203126,0.007382016163319349,-0.21428672969341278,-0.21358738839626312
1775751212174523000,9.99252294921875,0.041851840913295746,-0.1999858170747757,-0.19884678721427917
1775751212184535800,10.002535888671876,0.07553550601005554,-0.21025550365447998,-0.17934125661849976
1775751212194548700,10.012548828125,0.08603101968765259,-0.2201043963432312,-0.15357065200805664
1775751212204563000,10.02256298828125,0.08458013087511063,-0.2306728959083557,-0.15743675827980042
1775751212214575900,10.032575927734374,0.10757679492235184,-0.29161134362220764,-0.21189174056053162
1775751212224589800,10.04258984375,0.16247333586215973,-0.33056193590164185,-0.2728925049304962
1775751212234602800,10.052602783203126,0.23359544575214386,-0.28453052043914795,-0.30845850706100464
1775751212244615700,10.06261572265625,0.26587775349617004,-0.16472983360290527,-0.30729684233665466
1775751212254630000,10.0726298828125,0.2789869010448456,-0.028180770576000214,-0.2661603093147278
1775751212264642800,10.082642822265624,0.2963632345199585,0.04316478222608566,-0.20891539752483368
1775751212274656800,10.09265673828125,0.30159792304039,0.021758291870355606,-0.16305096447467804
1775751212284670000,10.102669921875,0.28236618638038635,-0.03630154952406883,-0.13400334119796753
1775751212294682600,10.1126826171875,0.2534943222999573,-0.07892490923404694,-0.11229032278060913
1775751212304696800,10.12269677734375,0.20890873670578003,-0.04674140736460686,-0.11269938200712204
1775751212314710000,10.1327099609375,0.17671538889408112,0.028773324564099312,-0.11451353132724762
1775751212324723700,10.1427236328125,0.14511245489120483,0.035772643983364105,-0.12519413232803345
1775751212334737000,10.15273681640625,0.1077357828617096,-0.004523911513388157,-0.16400384902954102
1775751212344749600,10.16274951171875,0.09430679678916931,-0.0647350549697876,-0.233698770403862
1775751212354763800,10.172763671875,0.08817113935947418,-0.11747043579816818,-0.30309543013572693
1775751212364777000,10.18277685546875,0.06729861348867416,-0.12116344273090363,-0.3513377904891968
1775751212374791000,10.192791015625,0.017619207501411438,-0.08644301444292068,-0.37609532475471497
1775751212384803800,10.202803955078124,-0.0601046159863472,-0.03395264223217964,-0.3774000108242035
1775751212394816800,10.212816650390625,-0.1521381288766861,0.04288381710648537,-0.3496845066547394
1775751212404830700,10.222830810546874,-0.2593277096748352,0.1421014815568924,-0.3284657597541809
1775751212414844000,10.232843994140625,-0.3602207601070404,0.2546847462654114,-0.3188253939151764
1775751212424857900,10.24285791015625,-0.4113073945045471,0.3561655580997467,-0.29938963055610657
1775751212434870800,10.252870849609375,-0.4289066195487976,0.3868257403373718,-0.246883824467659
1775751212444883700,10.2628837890625,-0.43635547161102295,0.3840022683143616,-0.1552274078130722
1775751212454898000,10.27289794921875,-0.40160122513771057,0.3663385808467865,-0.07124967873096466
1775751212464910800,10.282910888671875,-0.35283902287483215,0.2978695034980774,0.03688185289502144
1775751212474924800,10.2929248046875,-0.3034677505493164,0.13842125236988068,0.19301925599575043
1775751212484938000,10.30293798828125,-0.28074830770492554,-0.12455977499485016,0.34121859073638916
1775751212494950700,10.31295068359375,-0.2747191786766052,-0.3423975706100464,0.45150062441825867
1775751212504964900,10.32296484375,-0.27089887857437134,-0.4262213408946991,0.5193526148796082
1775751212514977800,10.332977783203125,-0.25521206855773926,-0.3848443627357483,0.535126268863678
1775751212524991700,10.34299169921875,-0.20179569721221924,-0.30229541659355164,0.49014946818351746
1775751212535005000,10.3530048828125,-0.1344217211008072,-0.19934798777103424,0.3964748978614807
1775751212545017600,10.363017578125,-0.04356904700398445,-0.03382188081741333,0.2891322076320648
1775751212555031800,10.37303173828125,0.03726667910814285,0.17333823442459106,0.2146071046590805
1775751212565044700,10.383044677734375,0.08406800776720047,0.3974483013153076,0.16770164668560028
1775751212575057700,10.3930576171875,0.12410623580217361,0.5353938937187195,0.155936598777771
1775751212585071900,10.40307177734375,0.127878338098526,0.5515816807746887,0.1794925332069397
1775751212595084500,10.41308447265625,0.09773960709571838,0.4889816641807556,0.2264176905155182
1775751212605098800,10.4230986328125,0.05336335673928261,0.33301684260368347,0.30129939317703247
1775751212615112000,10.43311181640625,-0.008504272438585758,0.1452607959508896,0.34955933690071106
1775751212625124600,10.44312451171875,-0.022346850484609604,0.054018229246139526,0.3582545518875122
1775751212635138800,10.453138916015625,-0.008709069341421127,0.07088162750005722,0.352592408657074
1775751212645151500,10.4631513671875,0.02526807226240635,0.1652885526418686,0.32323798537254333
1775751212655165700,10.473165771484375,0.06198347732424736,0.27737435698509216,0.2821270227432251
1775751212665179000,10.483178955078126,0.05100672319531441,0.3662123382091522,0.2426544576883316
1775751212675191600,10.493191650390624,0.01786448433995247,0.40850362181663513,0.22977487742900848
1775751212685205800,10.503205810546875,-0.025140507146716118,0.4001290202140808,0.222621351480484
1775751212695218700,10.51321875,-0.0714440867304802,0.3772362470626831,0.21644681692123413
1775751212705232600,10.523232666015625,-0.0970863327383995,0.3463398218154907,0.23072561621665955
1775751212715245800,10.533245849609376,-0.07325317710638046,0.27683159708976746,0.299728125333786
1775751212725258800,10.5432587890625,-0.01828552968800068,0.1363202929496765,0.38874533772468567
1775751212735272700,10.553272705078125,0.04381938651204109,-0.0025238776579499245,0.40829935669898987
1775751212745285600,10.56328564453125,0.1211051195859909,-0.057441454380750656,0.35138946771621704
1775751212755299800,10.5732998046875,0.1799042522907257,-0.004376106429845095,0.25805869698524475
1775751212765312800,10.583312744140626,0.1936189979314804,0.09186627715826035,0.18607692420482635
1775751212775325700,10.59332568359375,0.1946355253458023,0.15322524309158325,0.1202465146780014
1775751212785340000,10.60333984375,0.20935988426208496,0.1773923635482788,0.05782867968082428
1775751212795352600,10.6133525390625,0.21625293791294098,0.20050007104873657,0.00923158135265112
1775751212805366800,10.62336669921875,0.2230037897825241,0.22149750590324402,-0.03245354816317558
1775751212815379700,10.633379638671874,0.25059521198272705,0.25691327452659607,-0.05437855422496796
1775751212825392600,10.643392578125,0.2832069396972656,0.28659048676490784,-0.07503829151391983
1775751212835406800,10.65340673828125,0.3087533116340637,0.24556395411491394,-0.10719702392816544
1775751212845419500,10.66341943359375,0.3235231935977936,0.12052428722381592,-0.12213150411844254
1775751212855433700,10.673433837890625,0.31979823112487793,0.05271567404270172,-0.14260002970695496
1775751212865447000,10.683447021484374,0.3161294758319855,0.06351666152477264,-0.18506306409835815
1775751212875459600,10.69345947265625,0.29951775074005127,0.12243244051933289,-0.20666928589344025
1775751212885473800,10.703473876953124,0.307125061750412,0.19609440863132477,-0.18760238587856293
1775751212895486700,10.71348681640625,0.3416963517665863,0.25245195627212524,-0.1494041383266449
1775751212905500700,10.723500732421876,0.37144145369529724,0.24651311337947845,-0.1080457791686058
1775751212915513900,10.733513916015625,0.38056784868240356,0.1456405520439148,-0.1119592934846878
1775751212925526500,10.743526611328125,0.35241663455963135,0.0297246053814888,-0.15224279463291168
1775751212935540700,10.753540771484374,0.27155187726020813,-0.066096730530262,-0.22480887174606323
1775751212945553700,10.7635537109375,0.18041184544563293,-0.09619338065385818,-0.34899500012397766
1775751212955567900,10.77356787109375,0.11643180251121521,0.012230567634105682,-0.4767979681491852
1775751212965580800,10.783580810546875,0.11505042016506195,0.15285372734069824,-0.5933110117912292
1775751212975593700,10.79359375,0.18913637101650238,0.2332495003938675,-0.686881422996521
1775751212985607700,10.803607666015624,0.2900398075580597,0.26435017585754395,-0.7241957783699036
1775751212995620600,10.81362060546875,0.44528958201408386,0.2322492152452469,-0.7060559391975403
1775751213005634800,10.823634765625,0.6299334764480591,0.15784715116024017,-0.6373469233512878
1775751213015647700,10.833647705078125,0.7618435621261597,0.10768438875675201,-0.5103194713592529
1775751213025660700,10.84366064453125,0.801785409450531,0.029262015596032143,-0.3792751431465149
1775751213035675000,10.8536748046875,0.7520532608032227,-0.10012606531381607,-0.32812726497650146
1775751213045687600,10.8636875,0.6160027384757996,-0.16272953152656555,-0.33690744638442993
1775751213055700700,10.87370068359375,0.44971203804016113,-0.13448403775691986,-0.3775283694267273
1775751213065715000,10.88371484375,0.2735777497291565,-0.08345068246126175,-0.42324206233024597
1775751213075727600,10.8937275390625,0.11067990958690643,-0.030496923252940178,-0.4360699951648712
1775751213085741800,10.903741943359375,0.012921657413244247,0.02521108090877533,-0.411166250705719
1775751213095754500,10.91375439453125,0.0019678096286952496,0.08364482969045639,-0.3492045998573303
1775751213105768700,10.923768798828124,0.11027643829584122,0.1464110016822815,-0.26631343364715576
1775751213115782000,10.933781982421875,0.29218071699142456,0.2580925226211548,-0.17920038104057312
1775751213125794600,10.943794677734376,0.4621303379535675,0.3777661919593811,-0.10801275074481964
1775751213135808800,10.953808837890625,0.5753074884414673,0.41445469856262207,-0.0833715870976448
1775751213145821700,10.96382177734375,0.5682397484779358,0.37268543243408203,-0.09246362000703812
1775751213155834600,10.973834716796874,0.4443500339984894,0.2945283055305481,-0.13926361501216888
1775751213165848800,10.983848876953125,0.28504613041877747,0.19443738460540771,-0.24408110976219177
1775751213175861800,10.99386181640625,0.1327657699584961,0.1459476202726364,-0.368164986371994
1775751213185875700,11.003875732421875,0.01943415217101574,0.15468598902225494,-0.4830510914325714
1775751213195888600,11.013888671875,-0.0008964200387708843,0.13096120953559875,-0.5738917589187622
1775751213205901600,11.023901611328125,0.019463978707790375,0.229178324341774,-0.6034214496612549
1775751213215915800,11.033915771484375,0.025017734616994858,0.2714187204837799,-0.6023974418640137
1775751213225928700,11.0439287109375,0.029471872374415398,0.22986648976802826,-0.5787363052368164
1775751213235942700,11.053942626953125,0.027698472142219543,0.1367456018924713,-0.5379561185836792
1775751213245955600,11.06395556640625,-0.010074472054839134,0.016232499852776527,-0.4837469756603241
1775751213255968800,11.07396875,-0.06305006891489029,-0.11152280122041702,-0.42425087094306946
1775751213265982700,11.083982666015626,-0.10764843225479126,-0.2381896674633026,-0.38068529963493347
1775751213275995600,11.09399560546875,-0.1330600529909134,-0.33558812737464905,-0.3627598285675049
1775751213286009900,11.104009765625,-0.15083052217960358,-0.33045700192451477,-0.35164111852645874
1775751213296022500,11.1140224609375,-0.16152578592300415,-0.2364271879196167,-0.34093841910362244
1775751213306035700,11.12403564453125,-0.16282406449317932,-0.10996139049530029,-0.3172543942928314
1775751213316050000,11.1340498046875,-0.14991013705730438,0.0036272252909839153,-0.28440162539482117
1775751213326062600,11.1440625,-0.1272527575492859,0.08319741487503052,-0.25361254811286926
1775751213336076800,11.154076904296875,-0.10762899369001389,0.1204739511013031,-0.22278167307376862
1775751213346089700,11.16408984375,-0.08701319247484207,0.10317112505435944,-0.16850513219833374
1775751213356102700,11.1741025390625,-0.04115888848900795,0.030774690210819244,-0.09539682418107986
1775751213366116900,11.184116943359374,0.008161523379385471,-0.044858019798994064,-0.004400074947625399
1775751213376129500,11.194129638671875,0.06028038263320923,-0.10995446145534515,0.08070922642946243
1775751213386143700,11.204143798828126,0.09958038479089737,-0.1359700858592987,0.1469915807247162
1775751213396156700,11.21415673828125,0.10897069424390793,-0.1111249253153801,0.1770291030406952
1775751213406169600,11.224169677734375,0.10472428053617477,-0.061039917171001434,0.17482879757881165
1775751213416183800,11.234183837890624,0.08895490318536758,0.008171643130481243,0.16626274585723877
1775751213426196700,11.24419677734375,0.05777967721223831,0.08388984203338623,0.14451803267002106
1775751213436210700,11.254210693359376,0.009720537811517715,0.18450219929218292,0.12753131985664368
1775751213446223600,11.2642236328125,-0.014489460736513138,0.21768465638160706,0.11431752145290375
1775751213456236800,11.27423681640625,0.001418665866367519,0.19465337693691254,0.11709652841091156
1775751213466250800,11.284250732421874,0.022945262491703033,0.17059624195098877,0.11944384127855301
1775751213476263700,11.294263671875,0.0472458079457283,0.14010943472385406,0.11769254505634308
1775751213486278000,11.30427783203125,0.06611377000808716,0.1192379742860794,0.12935186922550201
1775751213496290600,11.31429052734375,0.059909939765930176,0.10850410908460617,0.1499362289905548
1775751213506303700,11.3243037109375,0.029147231951355934,0.09549802541732788,0.15707163512706757
1775751213516317700,11.334317626953125,0.005241101142019033,0.07597412914037704,0.14156325161457062
1775751213526330600,11.34433056640625,-0.008446748368442059,0.06216457113623619,0.12344523519277573
1775751213536344800,11.3543447265625,0.002537193475291133,0.04791532829403877,0.11102239042520523
1775751213546357500,11.364357421875,0.019109778106212616,0.05269463732838631,0.09472890198230743
1775751213556370700,11.37437060546875,0.033793382346630096,0.0633627250790596,0.07984263449907303
1775751213566385200,11.38438525390625,0.048715606331825256,0.06054989621043205,0.07083848863840103
1775751213576398000,11.394398193359375,0.056483782827854156,0.055741291493177414,0.06505463272333145
1775751213586411000,11.404410888671874,0.047270309180021286,0.04639412835240364,0.05672213435173035
1775751213596425000,11.414425048828125,0.023928236216306686,0.010731207206845284,0.04593154042959213
1775751213606438100,11.424438232421876,-0.005181978922337294,-0.023852335289120674,0.041317880153656006
1775751213616452000,11.4344521484375,-0.03990480676293373,-0.04331072047352791,0.036673057824373245
1775751213626465000,11.444465087890626,-0.047019440680742264,-0.059487029910087585,0.023323697969317436
1775751213636478000,11.45447802734375,-0.029085181653499603,-0.075389564037323,0.002915895078331232
1775751213646492000,11.464491943359375,0.0016000272007659078,-0.1025649905204773,-0.010094179771840572
1775751213656505000,11.474505126953124,0.05271274596452713,-0.12775209546089172,-0.018091652542352676
1775751213666519000,11.48451904296875,0.09555235505104065,-0.1420263797044754,-0.01423725951462984
1775751213676532000,11.494531982421876,0.11239179223775864,-0.14111638069152832,0.004490622319281101
1775751213686545200,11.504545166015625,0.10486596077680588,-0.1571512669324875,0.023240074515342712
1775751213696558800,11.514558837890625,0.06306152045726776,-0.1841069906949997,0.043353065848350525
1775751213706572000,11.524572021484374,0.01119433157145977,-0.19581903517246246,0.05438680946826935
1775751213716586200,11.534586181640625,-0.025671275332570076,-0.19049938023090363,0.03958043083548546
1775751213726599000,11.544598876953126,-0.03021409548819065,-0.16669683158397675,0.00953731220215559
1775751213736612000,11.554612060546875,-0.009402023628354073,-0.1309090107679367,-0.021749237552285194
1775751213746626000,11.5646259765625,0.010582869872450829,-0.0733083039522171,-0.04313788190484047
1775751213756639000,11.574638916015624,0.033608827739953995,-0.038656048476696014,-0.07212851941585541
1775751213766653200,11.584653076171875,0.05413727089762688,0.008627044036984444,-0.08741746097803116
1775751213776666000,11.594666015625,0.06674227863550186,0.038055241107940674,-0.09436938166618347
1775751213786679000,11.604678955078125,0.06312677264213562,0.043713923543691635,-0.10385183244943619
1775751213796693000,11.61469287109375,0.052373725920915604,0.03459073230624199,-0.11192920058965683
1775751213806706000,11.624705810546875,0.04812625050544739,0.014973622746765614,-0.10737572610378265
1775751213816720100,11.63472021484375,0.05963749811053276,0.004306064918637276,-0.09582746028900146
1775751213826733000,11.644733154296874,0.09019487351179123,-0.0037609159480780363,-0.07884661108255386
1775751213836746000,11.65474609375,0.13539910316467285,-0.00854368694126606,-0.06229293346405029
1775751213846760000,11.664760009765626,0.18015246093273163,-0.009770072996616364,-0.04701065272092819
1775751213856773000,11.674773193359375,0.20020179450511932,0.006412093061953783,-0.04187474399805069
1775751213866787000,11.684787109375,0.193629652261734,0.01811002753674984,-0.04892173781991005
1775751213876800000,11.694800048828125,0.1632765382528305,0.001079645473510027,-0.06232462823390961
1775751213886813200,11.704813232421875,0.11286929249763489,-0.036163330078125,-0.08312951028347015
1775751213896827000,11.714826904296874,0.05461983382701874,-0.07597306370735168,-0.09849834442138672
1775751213906840000,11.724840087890625,0.015911322087049484,-0.12419864535331726,-0.08960125595331192
1775751213916854000,11.73485400390625,-0.005264270585030317,-0.16604170203208923,-0.04806313291192055
1775751213926867000,11.744866943359375,-0.00407383730635047,-0.2146688848733902,0.014050304889678955
1775751213936880000,11.754880126953125,0.015990683808922768,-0.3082379996776581,0.09771563857793808
1775751213946894000,11.76489404296875,0.03508581593632698,-0.4328550100326538,0.2014806568622589
1775751213956907000,11.774906982421875,0.05426190793514252,-0.5829105377197266,0.3094039261341095
1775751213966920200,11.784920166015626,0.05661454424262047,-0.6956283450126648,0.41124826669692993
1775751213976934000,11.794933837890625,0.02917865850031376,-0.7581346035003662,0.5064823627471924
1775751213986947000,11.804947021484375,-0.009825199842453003,-0.8099077343940735,0.5806490182876587
1775751213996961000,11.8149609375,-0.06411799788475037,-0.8237535357475281,0.6462842226028442
1775751214006974000,11.824973876953125,-0.1449579894542694,-0.7659009099006653,0.7013200521469116
1775751214016987100,11.834987060546876,-0.255275160074234,-0.6507015824317932,0.7172936797142029
1775751214027001000,11.8450009765625,-0.38067489862442017,-0.496192991733551,0.7168092131614685
1775751214037014000,11.855013916015626,-0.5141938328742981,-0.37747591733932495,0.733644962310791
1775751214047028000,11.865028076171875,-0.6573776006698608,-0.36033502221107483,0.7677744030952454
1775751214057041200,11.875041259765625,-0.7940763235092163,-0.41429439187049866,0.8080150485038757
1775751214067054000,11.88505419921875,-0.9070942401885986,-0.47633564472198486,0.8381476402282715
1775751214077068000,11.895068115234375,-0.9695943593978882,-0.49655038118362427,0.8632548451423645
1775751214087081000,11.9050810546875,-1.0038678646087646,-0.4713997542858124,0.8462138175964355
1775751214097095000,11.915094970703125,-1.007569432258606,-0.4238207936286926,0.7867238521575928
1775751214107108000,11.925108154296876,-1.0015614032745361,-0.3612458109855652,0.6963835954666138
1775751214117121000,11.93512109375,-0.9793878793716431,-0.2842327952384949,0.5900558233261108
1775751214127135000,11.945135009765625,-0.9142717123031616,-0.2146688848733902,0.5002540349960327
1775751214137148200,11.955148193359374,-0.8235697746276855,-0.16763266921043396,0.4329815208911896
1775751214147161900,11.965161865234375,-0.7102224230766296,-0.13627448678016663,0.3743576109409332
1775751214157175000,11.975175048828126,-0.6135818958282471,-0.10299855470657349,0.3400478661060333
1775751214167188200,11.985188232421875,-0.5552528500556946,-0.053289055824279785,0.3264087438583374
1775751214177202000,11.995201904296875,-0.5291240215301514,0.01522715575993061,0.30915865302085876
1775751214187215000,12.005215087890624,-0.508531391620636,0.06166016682982445,0.30242377519607544
1775751214197229000,12.01522900390625,-0.49349120259284973,0.04887699335813522,0.3086851239204407
1775751214207242000,12.025241943359376,-0.4766155481338501,-0.0068062408827245235,0.3168506622314453
1775751214217255200,12.035255126953125,-0.4644574224948883,-0.10436129570007324,0.31014615297317505
1775751214227269000,12.04526904296875,-0.46460098028182983,-0.17554119229316711,0.27398839592933655
1775751214237282000,12.055281982421874,-0.4399084150791168,-0.17828558385372162,0.21122968196868896
1775751214247296000,12.0652958984375,-0.38791099190711975,-0.1233735978603363,0.13891980051994324
1775751214257309000,12.075308837890624,-0.32614749670028687,-0.04471926763653755,0.06368976086378098
1775751214267322000,12.085322021484375,-0.25286102294921875,0.03548901900649071,-0.0315970741212368
1775751214277336000,12.095336181640626,-0.19336573779582977,0.12634915113449097,-0.1332741677761078
1775751214287349000,12.105348876953125,-0.1625170111656189,0.2421785444021225,-0.22424428164958954
1775751214297362200,12.115362060546875,-0.14358805119991302,0.32584095001220703,-0.27681589126586914
1775751214307376000,12.125376220703124,-0.1470903754234314,0.3433397710323334,-0.2578006386756897
1775751214317389000,12.13538916015625,-0.15774275362491608,0.266440749168396,-0.2394472062587738
1775751214327403000,12.145403076171876,-0.14364132285118103,0.14857828617095947,-0.25398513674736023
1775751214337416200,12.155416259765625,-0.10211438685655594,0.054794006049633026,-0.2543638348579407
1775751214347430000,12.165429931640626,-0.03632818162441254,0.017665812745690346,-0.2408653348684311
1775751214357443000,12.175443115234375,0.06235259026288986,0.06593534350395203,-0.20346470177173615
1775751214367456000,12.1854560546875,0.18306595087051392,0.09897585213184357,-0.1606341451406479
1775751214377470000,12.195469970703124,0.3187910318374634,0.12097089737653732,-0.15722104907035828
1775751214387483100,12.205483154296875,0.4477173089981079,0.13344541192054749,-0.18692487478256226
1775751214397496000,12.21549609375,0.5067521333694458,0.11391671746969223,-0.22470740973949432
1775751214407510000,12.225510009765625,0.4425252377986908,0.08751919865608215,-0.25218430161476135
1775751214417523200,12.235523193359375,0.30414870381355286,0.04020201414823532,-0.2635485529899597
1775751214427537000,12.245536865234374,0.16035239398479462,-0.04873238503932953,-0.22923877835273743
1775751214437550000,12.255550048828125,0.047982703894376755,-0.1460978239774704,-0.15590597689151764
1775751214447563300,12.265563232421876,-0.03558436036109924,-0.1660667359828949,-0.07062330096960068
1775751214457577000,12.275576904296875,-0.06750714033842087,-0.14407967031002045,-0.0015070828376337886
1775751214467590100,12.285590087890625,-0.042684879153966904,-0.05702866613864899,0.056820936501026154
1775751214477604000,12.29560400390625,0.032888174057006836,0.04301084950566292,0.12945891916751862
