time,seconds_elapsed,z,y,x
1775722333102179000,0.061178955078125,0.1112888753414154,-0.1837167888879776,0.24702498316764832
1775722333112192000,0.07119189453125,0.09818026423454285,-0.1737975776195526,0.2285700887441635
1775722333122205000,0.081204833984375,0.07885024696588516,-0.1639936864376068,0.20720966160297394
1775722333132217900,0.0912177734375,0.06754064559936523,-0.14227846264839172,0.17801707983016968
1775722333142231000,0.10123095703125,0.0561540350317955,-0.10655403137207031,0.14873269200325012
1775722333152245000,0.111244873046875,0.04472613334655762,-0.089790940284729,0.112754225730896
1775722333162258000,0.1212578125,0.031354136765003204,-0.07516007125377655,0.07078813016414642
1775722333172271000,0.13127099609375,0.029449494555592537,-0.045266032218933105,0.030101614072918892
1775722333182283800,0.14128369140625,0.02807903103530407,0.015596786513924599,0.006055666133761406
1775722333192297000,0.151296875,0.02129669114947319,0.04642091691493988,0.0013275446835905313
1775722333202310100,0.16131005859375,0.026182260364294052,0.048244114965200424,0.005927888676524162
1775722333212323000,0.171322998046875,0.044646766036748886,0.02529274672269821,0.008656039834022522
1775722333222336000,0.1813359375,0.06837739795446396,-0.02154027298092842,0.02633863128721714
1775722333232350000,0.191349853515625,0.09228470176458359,-0.03684468939900398,0.05408627539873123
1775722333242363000,0.20136279296875,0.10114583373069763,-0.033671531826257706,0.0734943225979805
1775722333252376000,0.2113759765625,0.09598801285028458,-0.06297937035560608,0.09395681321620941
1775722333262389000,0.221388916015625,0.083535335958004,-0.06937362253665924,0.08968190103769302
1775722333272402200,0.231402099609375,0.07826263457536697,-0.03889913484454155,0.056440480053424835
1775722333282414800,0.241414794921875,0.07321647554636002,0.0072350711561739445,0.0024523455649614334
1775722333292428000,0.251427978515625,0.05737089365720749,0.036537427455186844,-0.05458373576402664
1775722333302442800,0.26144287109375,0.03495347127318382,0.030476603657007217,-0.08795127272605896
1775722333312456000,0.2714560546875,0.01686299964785576,-0.0043996283784508705,-0.0929754227399826
1775722333322468900,0.28146875,-0.00491180457174778,-0.046586498618125916,-0.07060300558805466
1775722333332481800,0.291481689453125,-0.03482413291931152,-0.15297220647335052,-0.01671558804810047
1775722333342494700,0.30149462890625,-0.09185732901096344,-0.2467125505208969,0.06371401250362396
1775722333352508000,0.3115078125,-0.1468515694141388,-0.25057393312454224,0.15206782519817352
1775722333362520600,0.3215205078125,-0.1946031153202057,-0.22534872591495514,0.2257886379957199
1775722333372533800,0.33153369140625,-0.22918133437633514,-0.18232056498527527,0.2582440674304962
1775722333382548000,0.3415478515625,-0.22660872340202332,-0.09987922757863998,0.24027091264724731
1775722333392560600,0.351560546875,-0.18880435824394226,-0.03586826100945473,0.18965408205986023
1775722333402573800,0.36157373046875,-0.13847540318965912,0.006186246871948242,0.10599566996097565
1775722333412586800,0.371586669921875,-0.09337770193815231,-0.002934833522886038,0.008102921769022942
1775722333422599700,0.381599609375,-0.05273786559700966,-0.04561252146959305,-0.07936514168977737
1775722333432612900,0.39161279296875,-0.011720382608473301,-0.050598468631505966,-0.13456101715564728
1775722333442625800,0.401625732421875,0.012661921791732311,-0.04008617624640465,-0.14498835802078247
1775722333452639000,0.411638916015625,0.004381159320473671,-0.04313842952251434,-0.13354989886283875
1775722333462652700,0.421652587890625,-0.019078360870480537,-0.04335201531648636,-0.11078333854675293
1775722333472665900,0.431665771484375,-0.03184477612376213,-0.05670397728681564,-0.08099079877138138
1775722333482678800,0.4416787109375,-0.034329503774642944,-0.032643117010593414,-0.03989209979772568
1775722333492691700,0.451691650390625,-0.026290811598300934,0.009764716029167175,0.0023116120137274265
1775722333502705000,0.461704833984375,-0.020587921142578125,0.05059230700135231,0.0187531691044569
1775722333512717800,0.4717177734375,-0.021880220621824265,0.07743597775697708,0.0067301723174750805
1775722333522730800,0.481730712890625,-0.0238373763859272,0.07469158619642258,-0.031314149498939514
1775722333532743700,0.49174365234375,-0.02358628436923027,0.0537274144589901,-0.06980260461568832
1775722333542757600,0.501757568359375,-0.017775533720850945,0.030911315232515335,-0.08609475940465927
1775722333552770800,0.511770751953125,-0.009113284759223461,0.016796883195638657,-0.07897567003965378
1775722333562783700,0.52178369140625,-0.011563659645617008,0.0732250064611435,-0.0661512166261673
1775722333572797000,0.531796875,-0.023636026307940483,0.0892186388373375,-0.03408435359597206
1775722333582809600,0.5418095703125,-0.03729724511504173,0.08637917786836624,0.00015058310236781836
1775722333592822800,0.55182275390625,-0.04114628955721855,0.0910167470574379,0.028049569576978683
1775722333602836000,0.5618359375,-0.048620451241731644,0.09695399552583694,0.04061037302017212
1775722333612849700,0.571849609375,-0.048461008816957474,0.09947119653224945,0.03162841126322746
1775722333622862800,0.58186279296875,-0.046309176832437515,0.09218798577785492,0.010194225236773491
1775722333632875800,0.591875732421875,-0.04250803217291832,0.06477119773626328,-0.009723317809402943
1775722333642888700,0.601888671875,-0.04044594615697861,0.05297552049160004,-0.02326975390315056
1775722333652902000,0.61190185546875,-0.03888172656297684,0.06112251058220863,-0.02315298095345497
1775722333662914800,0.621914794921875,-0.03732830286026001,0.07071255147457123,-0.013264130800962448
1775722333672927700,0.631927734375,-0.03709299862384796,0.08056662976741791,-0.007527288980782032
1775722333682940700,0.641940673828125,-0.030616192147135735,0.07782250642776489,-0.011440537869930267
1775722333692955000,0.651954833984375,-0.028579693287611008,0.07843802124261856,-0.025049271062016487
1775722333702967800,0.6619677734375,-0.021263189613819122,0.0625796988606453,-0.04529914632439613
1775722333712980700,0.671980712890625,-0.009598631411790848,0.028661644086241722,-0.06524694710969925
1775722333722994000,0.681993896484375,-0.003458447754383087,-0.002556727733463049,-0.06643365323543549
1775722333733006600,0.692006591796875,0.0019120131619274616,-0.005299776792526245,-0.05432869493961334
1775722333743019800,0.702019775390625,0.0022433106787502766,0.0007503924425691366,-0.020786447450518608
1775722333753032700,0.71203271484375,-0.006261838600039482,0.014352102763950825,0.017987629398703575
1775722333763046000,0.7220458984375,-0.019045811146497726,0.026738464832305908,0.04550021514296532
1775722333773059800,0.732059814453125,-0.02391105890274048,0.03513569384813309,0.05047731101512909
1775722333783072800,0.74207275390625,-0.02247321791946888,0.03370983898639679,0.033844005316495895
1775722333793085700,0.752085693359375,-0.018461503088474274,0.01434280164539814,0.003926679491996765
1775722333803098600,0.7620986328125,-0.017043637111783028,0.0027588503435254097,-0.023140624165534973
1775722333813111800,0.77211181640625,-0.019075876101851463,-0.005545747932046652,-0.040647201240062714
1775722333823125000,0.782125,-0.01934991590678692,0.015197613276541233,-0.041320715099573135
1775722333833137700,0.7921376953125,-0.022273246198892593,0.03726982697844505,-0.03822587803006172
1775722333843150800,0.80215087890625,-0.022754481062293053,0.053105518221855164,-0.0356396809220314
1775722333853164800,0.812164794921875,-0.024589506909251213,0.06436682492494583,-0.03291194140911102
1775722333863177700,0.822177734375,-0.023143144324421883,0.06160566210746765,-0.02699972316622734
1775722333873191000,0.83219091796875,-0.019511528313159943,0.05854362994432449,-0.02268555387854576
1775722333883203800,0.842203857421875,-0.0063278162851929665,0.05805520340800285,-0.013338390737771988
1775722333893216800,0.852216796875,-0.003590353298932314,0.06311521679162979,-0.00346791697666049
1775722333903229700,0.862229736328125,-0.006726492196321487,0.059946849942207336,-0.0003110058605670929
1775722333913243000,0.872242919921875,-0.010873003862798214,0.05877235159277916,-0.001490801339969039
1775722333923255800,0.882255859375,-0.01136249303817749,0.05101962387561798,-0.011960220523178577
1775722333933269800,0.892269775390625,-0.005000230856239796,0.03926127776503563,-0.025011558085680008
1775722333943283000,0.902282958984375,0.0019151994492858648,0.026467187330126762,-0.0378892756998539
1775722333953295600,0.912295654296875,0.004690094850957394,0.009767147712409496,-0.04090997204184532
1775722333963308800,0.922308837890625,0.007894676178693771,-0.002133453730493784,-0.03993978351354599
1775722333973321700,0.93232177734375,0.011488464660942554,0.002425233367830515,-0.027836373075842857
1775722333983334700,0.942334716796875,0.013438696973025799,0.015366331674158573,-0.01004752330482006
1775722333993347800,0.952347900390625,0.013631865382194519,0.020424773916602135,0.008083200082182884
1775722334003360800,0.96236083984375,0.012204676866531372,0.022110821679234505,0.019513754174113274
1775722334013374700,0.972374755859375,0.01095433346927166,0.013299403712153435,0.022114569321274757
1775722334023387600,0.9823876953125,0.00986616499722004,0.012875162065029144,0.0161080751568079
1775722334033400800,0.99240087890625,0.005115569103509188,0.017747092992067337,0.0038008789997547865
1775722334043413800,1.002413818359375,-0.0016043849755078554,0.019118353724479675,-0.0074677541851997375
1775722334053426700,1.0124267578125,-0.00788229238241911,0.02047126181423664,-0.0205214973539114
1775722334063440000,1.02243994140625,-0.013020861893892288,0.015576105564832687,-0.02756795659661293
1775722334073452800,1.032452880859375,-0.018763793632388115,0.01013720128685236,-0.026213092729449272
1775722334083465700,1.0424658203125,-0.01928097940981388,0.005182656459510326,-0.018964501097798347
1775722334093480000,1.05247998046875,-0.019059501588344574,0.0049653914757072926,-0.007892836816608906
1775722334103492900,1.062492919921875,-0.017871465533971786,0.0158313550055027,0.002188559388741851
1775722334113505800,1.072505859375,-0.01946057379245758,0.017427919432520866,0.004224812611937523
1775722334123518700,1.082518798828125,-0.017335904762148857,0.013715206645429134,0.0010364758782088757
1775722334133532000,1.092531982421875,-0.015536583960056305,0.009272024035453796,0.0030321702361106873
1775722334143544600,1.102544677734375,-0.014650549739599228,0.0029001454822719097,0.0036652034614235163
1775722334153557800,1.112557861328125,-0.008156629279255867,-0.0010013928404077888,0.00341397849842906
1775722334163571700,1.12257177734375,0.003280049655586481,0.00016720232088118792,0.0034009290393441916
1775722334173584600,1.132584716796875,0.009473960846662521,0.00012806092854589224,-0.003496302757412195
1775722334183597800,1.142597900390625,0.010947488248348236,0.0012005158932879567,-0.011978738009929657
1775722334193610800,1.15261083984375,0.010304571129381657,-0.0012737854849547148,-0.025176282972097397
1775722334203623700,1.162623779296875,0.010782342404127121,-0.014997853897511959,-0.03403368964791298
1775722334213636900,1.172636962890625,0.0146395955234766,-0.026573114097118378,-0.036936476826667786
1775722334223649800,1.18264990234375,0.023924972862005234,-0.032152701169252396,-0.03472232446074486
1775722334233662700,1.192662841796875,0.028861429542303085,-0.01832376979291439,-0.02330111525952816
1775722334243675600,1.202675537109375,0.025010498240590096,0.0025133355520665646,-0.009800486266613007
1775722334253689900,1.21268994140625,0.019630134105682373,0.02152957394719124,0.00938011147081852
1775722334263702800,1.222702880859375,0.016920633614063263,0.03163360804319382,0.028108524158596992
1775722334273715700,1.2327158203125,0.016471879556775093,0.0354558601975441,0.030464651063084602
1775722334283729000,1.24272900390625,0.013849198818206787,0.026245582848787308,0.01967884972691536
1775722334293741800,1.252741943359375,0.013566163368523121,0.02345466800034046,-0.00012927327770739794
1775722334303754500,1.26275439453125,0.013906781561672688,0.017284123227000237,-0.01766352541744709
1775722334313767700,1.272767578125,0.015166644006967545,0.017376786097884178,-0.029029015451669693
1775722334323781600,1.28278173828125,0.015186619013547897,0.0170899648219347,-0.03293613716959953
1775722334333794600,1.292794677734375,0.012904082424938679,0.007776700891554356,-0.0287406574934721
1775722334343807700,1.302807861328125,0.011273162439465523,0.01087156031280756,-0.025405580177903175
1775722334353820700,1.312820556640625,0.00668290862813592,0.01662573404610157,-0.022507216781377792
1775722334363833600,1.32283349609375,0.00005936110392212868,0.01620548777282238,-0.022593768313527107
1775722334373846500,1.332846435546875,-0.0009758489904925227,0.0244932658970356,-0.02385636232793331
1775722334383859700,1.342859619140625,-0.0012070112861692905,0.028213700279593468,-0.02600713074207306
1775722334393872400,1.352872314453125,0.002645991276949644,0.02692502550780773,-0.023104192689061165
1775722334403886600,1.362886474609375,0.0013445043005049229,0.03279649838805199,-0.020272187888622284
1775722334413899800,1.372899658203125,0.0030735163018107414,0.028638698160648346,-0.01901847869157791
1775722334423912400,1.382912353515625,0.0017632413655519485,0.024976853281259537,-0.023023074492812157
1775722334433925600,1.392925537109375,0.000895228935405612,0.023126987740397453,-0.028429746627807617
1775722334443938600,1.4029384765625,-0.0019863112829625607,0.011846634559333324,-0.0360245481133461
1775722334453951500,1.412951416015625,-0.0033463784493505955,0.014168666675686836,-0.039348166435956955
1775722334463964700,1.422964599609375,-0.0003979927860200405,0.020536817610263824,-0.034289758652448654
1775722334473977600,1.4329775390625,0.0045799873769283295,0.024136079475283623,-0.01965302601456642
1775722334483990800,1.44299072265625,0.014013436622917652,0.02393501065671444,-0.0038213336374610662
1775722334494004700,1.453004638671875,0.018953394144773483,0.024291152134537697,0.010141290724277496
1775722334504017700,1.463017578125,0.019431164488196373,0.02334919199347496,0.018131839111447334
1775722334514030600,1.473030517578125,0.01295631006360054,0.009555384516716003,0.017347460612654686
1775722334524043500,1.48304345703125,0.013464441522955894,-0.007005748338997364,0.0074503542855381966
1775722334534056700,1.493056640625,0.019329946488142014,-0.014539005234837532,-0.0013310532085597515
1775722334544069600,1.503069580078125,0.026995588093996048,-0.007047000341117382,-0.011363979429006577
1775722334554082600,1.51308251953125,0.030076274648308754,-0.005502976477146149,-0.01119693648070097
1775722334564096800,1.5230966796875,0.028352675959467888,-0.006360780447721481,-0.011429430916905403
1775722334574109400,1.533109375,0.02747672237455845,-0.006768916733562946,-0.013697603717446327
1775722334584122600,1.54312255859375,0.028595518320798874,-0.014581299386918545,-0.024594992399215698
1775722334594135600,1.553135498046875,0.025955189019441605,-0.02336743287742138,-0.034544769674539566
1775722334604148700,1.563148681640625,0.019566532224416733,-0.024551473557949066,-0.03830275684595108
1775722334614161700,1.57316162109375,0.009333088994026184,-0.016569510102272034,-0.034529879689216614
1775722334624174600,1.583174560546875,0.0006783485878258944,-0.01037606317549944,-0.026453042402863503
1775722334634187800,1.593187744140625,-0.00739807216450572,-0.001282321522012353,-0.016473520547151566
1775722334644200400,1.603200439453125,-0.015624310821294785,-0.00006365892477333546,-0.007948210462927818
1775722334654214700,1.613214599609375,-0.022228358313441277,0.0012067458592355251,-0.00430639972910285
1775722334664227800,1.623227783203125,-0.030398404225707054,-0.001955491490662098,0.00043961964547634125
1775722334674240500,1.633240478515625,-0.03905520588159561,-0.0013221979606896639,-0.0012278766371309757
1775722334684253700,1.643253662109375,-0.042555131018161774,0.003128210548311472,-0.005817567929625511
1775722334694266600,1.6532666015625,-0.043684907257556915,0.008507823571562767,-0.014584332704544067
1775722334704279600,1.663279541015625,-0.04419170692563057,0.016842452809214592,-0.02662794664502144
1775722334714292500,1.67329248046875,-0.04000381380319595,0.017484799027442932,-0.03619437664747238
1775722334724305700,1.6833056640625,-0.026879223063588142,0.012884188443422318,-0.04430929571390152
1775722334734319600,1.693319580078125,-0.016665387898683548,0.013975405134260654,-0.04153912514448166
1775722334744332500,1.70333251953125,-0.005871596746146679,0.004760868847370148,-0.027243543416261673
1775722334754345700,1.713345703125,-0.002062527695670724,0.0020578643307089806,-0.010660534724593163
1775722334764358400,1.7233583984375,0.002265641698613763,-0.01001264713704586,-0.007027450483292341
1775722334774371600,1.73337158203125,0.004568999633193016,-0.010897370055317879,-0.015857966616749763
1775722334784384800,1.743384765625,0.008909686468541622,-0.014775465242564678,-0.027050433680415154
1775722334794397700,1.753397705078125,0.009534039534628391,-0.022857122123241425,-0.03364691510796547
1775722334804410600,1.76341064453125,0.013474185951054096,-0.026248125359416008,-0.03465891629457474
1775722334814424600,1.773424560546875,0.019397668540477753,-0.030828747898340225,-0.025605052709579468
1775722334824437500,1.7834375,0.020475715398788452,-0.03174380958080292,-0.009831946343183517
1775722334834450700,1.79345068359375,0.020867951214313507,-0.026055192574858665,0.004171521402895451
1775722334844463600,1.803463623046875,0.017422620207071304,-0.023948365822434425,0.010423824191093445
1775722334854476800,1.813476806640625,0.014975509606301785,-0.015500720590353012,0.009154239669442177
1775722334864489500,1.823489501953125,0.009327743202447891,-0.013975528068840504,-0.002232904080301523
1775722334874502700,1.833502685546875,0.007798477075994015,-0.02226756140589714,-0.0156418364495039
1775722334884515600,1.843515625,0.006085265427827835,-0.02135516330599785,-0.02317751757800579
1775722334894529500,1.853529541015625,0.003422234207391739,-0.021980134770274162,-0.025196613743901253
1775722334904542700,1.863542724609375,-0.00013175420463085175,-0.02160383015871048,-0.019676413387060165
1775722334914555600,1.8735556640625,-0.0026115821674466133,-0.004429932218044996,-0.011422575451433659
1775722334924568600,1.883568603515625,-0.010223429650068283,0.004489260260015726,-0.007231026887893677
1775722334934581500,1.89358154296875,-0.017284998670220375,0.005840912461280823,-0.004805742297321558
1775722334944594700,1.9035947265625,-0.019575051963329315,-0.0005211130483075976,-0.003928763326257467
1775722334954607600,1.913607666015625,-0.014372052624821663,-0.006542989984154701,-0.0008677050936967134
1775722334964620500,1.92362060546875,-0.01327296532690525,-0.0024198838509619236,0.007637898437678814
1775722334974634800,1.933634765625,-0.011216502636671066,0.003592350287362933,0.0169046800583601
1775722334984647400,1.9436474609375,-0.0103014400228858,0.00625950563699007,0.020544156432151794
1775722334994660600,1.95366064453125,-0.007712778635323048,0.006495720706880093,0.017120307311415672
1775722335004673800,1.963673828125,-0.004043742083013058,-0.0012301095994189382,0.007286319509148598
1775722335014686500,1.9736865234375,-0.00218719313852489,-0.017224444076418877,-0.003142682136967778
1775722335024699600,1.98369970703125,0.0003934099804610014,-0.025350548326969147,-0.009238391183316708
1775722335034712600,1.993712646484375,0.004121183883398771,-0.024522725492715836,-0.0076986923813819885
1775722335044725800,2.003725830078125,0.00689726322889328,-0.022957054898142815,-0.0019507918041199446
1775722335054739700,2.01373974609375,0.00829381588846445,-0.016844747588038445,0.0028999149799346924
1775722335064752600,2.023752685546875,0.00874388962984085,-0.01897447742521763,0.0006601964705623686
1775722335074765600,2.033765625,0.00760164950042963,-0.022668303921818733,-0.01090618222951889
1775722335084778500,2.043778564453125,0.00543463509529829,-0.030093995854258537,-0.02054229937493801
1775722335094791700,2.053791748046875,0.005935704335570335,-0.02998116984963417,-0.027436543256044388
1775722335104804600,2.0638046875,0.005593222565948963,-0.02630867063999176,-0.022916626185178757
1775722335114817500,2.073817626953125,0.00348710548132658,-0.019182352349162102,-0.010820470750331879
1775722335124830700,2.083830810546875,-0.002219516085460782,-0.01796049438416958,0.001022073905915022
1775722335134844400,2.093844482421875,-0.00409590033814311,-0.017115192487835884,0.01246692519634962
1775722335144857600,2.103857666015625,-0.005681812763214111,-0.0020598103292286396,0.01785663142800331
1775722335154870500,2.11387060546875,-0.012553340755403042,0.010944797657430172,0.0171743705868721
1775722335164883700,2.1238837890625,-0.018320415169000626,0.015888957306742668,0.006932385265827179
1775722335174896600,2.133896728515625,-0.017323248088359833,0.015210501849651337,-0.010514568537473679
1775722335184909600,2.14390966796875,-0.013263525441288948,0.016461655497550964,-0.02708582393825054
1775722335194922800,2.1539228515625,-0.007698762696236372,0.01036827266216278,-0.04207659885287285
1775722335204935400,2.163935302734375,-0.008258825168013573,0.006145563907921314,-0.043675296008586884
1775722335214948600,2.173948486328125,-0.009217435494065285,0.0067081996239721775,-0.03655492141842842
1775722335224962800,2.183962890625,-0.008849119767546654,0.014894755557179451,-0.01916021667420864
1775722335234975500,2.1939755859375,-0.011277992278337479,0.018940797075629234,-0.006603088695555925
1775722335244988700,2.20398876953125,-0.012531541287899017,0.019140534102916718,0.00028011726681143045
1775722335255001600,2.214001708984375,-0.011975079774856567,0.02471444010734558,0.0005729448748752475
1775722335265014500,2.2240146484375,-0.013163914903998375,0.022803355008363724,-0.001879826420918107
1775722335275027500,2.23402734375,-0.01589210517704487,0.025198442861437798,-0.004832169972360134
1775722335285040600,2.24404052734375,-0.015940841287374496,0.02419363148510456,0.0012323800474405289
1775722335295053800,2.2540537109375,-0.01798260770738125,0.02277631126344204,0.012260446324944496
1775722335305067500,2.264067626953125,-0.018501391634345055,0.01898689940571785,0.02490966208279133
1775722335315080700,2.274080810546875,-0.016656000167131424,0.0187832023948431,0.030649496242403984
1775722335325093600,2.28409375,-0.015130008570849895,0.02165142633020878,0.024592135101556778
1775722335335106600,2.2941064453125,-0.019406165927648544,0.01682659238576889,0.020344309508800507
1775722335345119500,2.304119384765625,-0.023989200592041016,0.01694190688431263,0.015376715920865536
1775722335355132700,2.314132568359375,-0.02150922454893589,0.013931343331933022,0.011271676979959011
1775722335365145300,2.324145263671875,-0.01597810722887516,0.013669821433722973,0.011710832826793194
1775722335375158500,2.334158447265625,-0.009035580791532993,0.015617931261658669,0.015213776379823685
1775722335385172500,2.34417236328125,-0.011781832203269005,0.01093289814889431,0.020337698981165886
1775722335395185400,2.354185302734375,-0.01065177470445633,0.011124925687909126,0.023869765922427177
1775722335405198600,2.364198486328125,-0.010760963894426823,0.013079419732093811,0.029946299269795418
1775722335415211500,2.37421142578125,-0.008580939844250679,0.01609957031905651,0.036230601370334625
1775722335425224400,2.384224365234375,-0.005679958499968052,0.024498114362359047,0.03830387443304062
1775722335435237600,2.394237548828125,-0.006059320643544197,0.029471391811966896,0.034305788576602936
1775722335445250600,2.40425048828125,-0.0051866029389202595,0.03303470462560654,0.022835291922092438
1775722335455263500,2.414263427734375,-0.00768127478659153,0.03229590505361557,0.01166527159512043
1775722335465276400,2.4242763671875,-0.010641378350555897,0.024255290627479553,0.0035151997581124306
1775722335475290600,2.43429052734375,-0.01275620423257351,0.02883041836321354,0.001177503145299852
1775722335485303600,2.444303466796875,-0.015302984975278378,0.03751179203391075,0.001978848362341523
1775722335495316500,2.45431640625,-0.019444210454821587,0.044582463800907135,0.003868355881422758
1775722335505329700,2.46432958984375,-0.02530502900481224,0.0398407056927681,0.012812315486371517
1775722335515342600,2.474342529296875,-0.027605516836047173,0.03635643422603607,0.01807771995663643
1775722335525355500,2.48435546875,-0.0278950035572052,0.035541240125894547,0.02271880954504013
1775722335535368400,2.494368408203125,-0.021947847679257393,0.027586275711655617,0.023417051881551743
1775722335545381600,2.504381591796875,-0.019187215715646744,0.03183987736701965,0.02177787572145462
1775722335555395600,2.5143955078125,-0.016665270552039146,0.03633465990424156,0.017151227220892906
1775722335565408500,2.524408447265625,-0.015392811968922615,0.036421213299036026,0.013328258879482746
1775722335575421700,2.534421630859375,-0.014349030330777168,0.027945471927523613,0.009360335767269135
1775722335585434400,2.544434326171875,-0.005871922709047794,0.02268546260893345,0.0023229322396218777
1775722335595447600,2.554447509765625,0.0005927528254687786,0.00982004776597023,-0.007529322057962418
1775722335605460700,2.564460693359375,0.007241600193083286,-0.0015370033215731382,-0.014121178537607193
1775722335615473400,2.574473388671875,0.00820106826722622,-0.008136043325066566,-0.016124051064252853
1775722335625486600,2.584486572265625,0.009458079934120178,-0.008884924463927746,-0.01832062564790249
1775722335635500500,2.59450048828125,0.007947644218802452,-0.006844438146799803,-0.01978040486574173
1775722335645513500,2.604513427734375,0.004350512288510799,-0.004941609688103199,-0.02302946150302887
1775722335655526700,2.614526611328125,0.0028651489410549402,-0.005646275356411934,-0.024094099178910255
1775722335665539600,2.62453955078125,0.00013194698840379715,-0.005459054838865995,-0.027806278318166733
1775722335675552500,2.634552490234375,-0.0002643417101353407,-0.00824170745909214,-0.029004942625761032
1775722335685565400,2.6445654296875,-0.0015272126765921712,-0.014609592966735363,-0.035455118864774704
1775722335695578600,2.65457861328125,-0.004370106849819422,-0.01569460518658161,-0.03389665111899376
1775722335705591600,2.664591552734375,-0.004864655435085297,-0.014080729335546494,-0.03457868844270706
1775722335715605500,2.67460546875,-0.002759309019893408,-0.004007435869425535,-0.03199900686740875
1775722335725618700,2.68461865234375,-0.005822743289172649,0.0014419244835153222,-0.029923873022198677
1775722335735631400,2.69463134765625,-0.00850672647356987,0.00251182122156024,-0.026557069271802902
1775722335745644500,2.70464453125,-0.011502516455948353,0.0038726963102817535,-0.02347392775118351
1775722335755657500,2.714657470703125,-0.007278121076524258,0.001540867961011827,-0.01868404448032379
1775722335765670700,2.724670654296875,-0.00649435305967927,-0.011634589172899723,-0.01157340407371521
1775722335775683600,2.73468359375,-0.004514322616159916,-0.00786697305738926,-0.005911241285502911
1775722335785696500,2.744696533203125,-0.007342066615819931,-0.006822748109698296,-0.008009279146790504
1775722335795709700,2.754709716796875,-0.0067635392770171165,-0.01614430919289589,-0.012095978483557701
1775722335805723400,2.764723388671875,-0.004352313466370106,-0.017086802050471306,-0.013785488903522491
1775722335815736600,2.774736572265625,-0.0033458657562732697,-0.011985909193754196,-0.010186267085373402
1775722335825749800,2.784749755859375,-0.005385314114391804,-0.011919064447283745,-0.0026987900491803885
1775722335835762400,2.794762451171875,-0.007582411635667086,-0.018260560929775238,-0.0006958229932934046
1775722335845775600,2.804775634765625,-0.006596243008971214,-0.025231119245290756,-0.0034681737888604403
1775722335855788500,2.81478857421875,-0.004448246210813522,-0.027667351067066193,-0.009414378553628922
1775722335865801500,2.824801513671875,-0.0068695927038788795,-0.03127513453364372,-0.012464763596653938
1775722335875814400,2.834814453125,-0.01183457300066948,-0.030727218836545944,-0.00961274839937687
1775722335885828600,2.84482861328125,-0.012908092699944973,-0.02294306457042694,-0.007470501586794853
1775722335895841500,2.854841552734375,-0.016962913796305656,-0.015581316314637661,-0.005212239921092987
1775722335905854500,2.8648544921875,-0.01969797909259796,-0.007387302815914154,-0.0020683782640844584
1775722335915867600,2.87486767578125,-0.018322378396987915,-0.003835963550955057,-0.002308412455022335
1775722335925880300,2.88488037109375,-0.021643340587615967,-0.002916374010965228,0.001936932560056448
1775722335935893500,2.8948935546875,-0.017002949491143227,0.0026133644860237837,0.010001146234571934
1775722335945906700,2.90490673828125,-0.014392519369721413,0.007864851504564285,0.012360706925392151
1775722335955919600,2.914919677734375,-0.011926906183362007,0.008365070447325706,0.005881705321371555
1775722335965933600,2.92493359375,-0.012519991025328636,-0.0034851969685405493,-0.004056945443153381
1775722335975946500,2.934946533203125,-0.011776812374591827,-0.015677014365792274,-0.014957665465772152
1775722335985959400,2.94495947265625,-0.008633749559521675,-0.016282085329294205,-0.018003789708018303
1775722335995972600,2.95497265625,-0.005637356545776129,-0.014269967563450336,-0.014469568617641926
1775722336005985500,2.964985595703125,-0.006705284118652344,-0.007271180860698223,-0.005038249306380749
1775722336015998700,2.974998779296875,-0.009665003046393394,-0.0006972801638767123,0.0026014368049800396
1775722336026011400,2.985011474609375,-0.008642615750432014,0.005319599993526936,0.004623042419552803
1775722336036024600,2.995024658203125,-0.0072172218933701515,0.00811921339482069,-0.006197440903633833
1775722336046037500,3.00503759765625,-0.006800437346100807,0.002329767681658268,-0.022592125460505486
1775722336056051500,3.015051513671875,-0.005746527574956417,-0.003419886576011777,-0.0385533832013607
1775722336066064600,3.025064697265625,-0.0018556490540504456,-0.010975806973874569,-0.047350868582725525
1775722336076077600,3.03507763671875,0.002682891208678484,-0.015684640035033226,-0.04236777871847153
1775722336086090500,3.045090576171875,0.004832861013710499,-0.014159446582198143,-0.026781097054481506
1775722336096103400,3.055103515625,0.002960659097880125,-0.013155966997146606,-0.009582401253283024
1775722336106116600,3.06511669921875,0.003250943496823311,-0.006222960539162159,-0.004395096097141504
1775722336116129500,3.075129638671875,0.001854301430284977,0.001187431043945253,-0.010581031441688538
1775722336126142500,3.085142578125,-0.0019377736607566476,-0.0011870432645082474,-0.025070225819945335
1775722336136156700,3.09515673828125,-0.0034104017540812492,-0.003615522524341941,-0.037705134600400925
1775722336146169300,3.10516943359375,-0.00360321463085711,-0.009388988837599754,-0.04261813312768936
1775722336156182500,3.1151826171875,-0.0027861676644533873,-0.008773288689553738,-0.03232582286000252
1775722336166195700,3.12519580078125,-0.007590776309370995,-0.00044478499330580235,-0.012801920995116234
1775722336176208400,3.13520849609375,-0.010227641090750694,0.01326640136539936,0.004291636869311333
1775722336186221600,3.1452216796875,-0.013786956667900085,0.025675931945443153,0.0054008434526622295
1775722336196234500,3.155234375,-0.017258208245038986,0.029158884659409523,-0.0022551037836819887
1775722336206247700,3.16524755859375,-0.017537575215101242,0.03432701900601387,-0.013965022750198841
1775722336216260400,3.17526025390625,-0.016397109255194664,0.03226274996995926,-0.02274423837661743
1775722336226274600,3.185274658203125,-0.015303082764148712,0.038148071616888046,-0.022984454408288002
1775722336236287500,3.19528759765625,-0.009187212213873863,0.05016770213842392,-0.016905706375837326
1775722336246300400,3.205300537109375,-0.00768092880025506,0.07560434937477112,-0.009198784828186035
1775722336256313600,3.215313720703125,-0.00764434551820159,0.10715077817440033,-0.005019855685532093
1775722336266326500,3.225326416015625,-0.009002290666103363,0.13675552606582642,-0.005025980994105339
1775722336276339500,3.23533935546875,-0.010934345424175262,0.15648967027664185,-0.007755247410386801
1775722336286352600,3.2453525390625,-0.01789291761815548,0.17029176652431488,-0.002111476846039295
1775722336296365600,3.255365478515625,-0.03169860690832138,0.16543982923030853,0.026921361684799194
1775722336306379800,3.2653798828125,-0.038403380662202835,0.1767958253622055,0.07858455926179886
1775722336316392700,3.275392822265625,-0.03701726347208023,0.18217293918132782,0.14908887445926666
1775722336326406000,3.285406005859375,-0.034165818244218826,0.23609794676303864,0.19999945163726807
1775722336336418600,3.29541845703125,-0.04917237535119057,0.2909795045852661,0.22278828918933868
1775722336346431700,3.305431640625,-0.0781044289469719,0.3570045828819275,0.22491455078125
1775722336356445000,3.31544482421875,-0.11883322149515152,0.43109703063964844,0.20948342978954315
1775722336366457600,3.32545751953125,-0.1712152063846588,0.48082515597343445,0.19928565621376038
1775722336376470800,3.335470703125,-0.22602114081382751,0.44821134209632874,0.23118333518505096
1775722336386483700,3.345483642578125,-0.2516535520553589,0.40066298842430115,0.3067814111709595
1775722336396497700,3.35549755859375,-0.2357769012451172,0.3612963557243347,0.39383193850517273
1775722336406510800,3.3655107421875,-0.20312601327896118,0.3095034658908844,0.4736570119857788
1775722336416523800,3.375523681640625,-0.1723846048116684,0.24231325089931488,0.5223345160484314
1775722336426536700,3.38553662109375,-0.15173391997814178,0.17611612379550934,0.5296646356582642
1775722336436549600,3.395549560546875,-0.14602290093898773,0.10371053963899612,0.5059634447097778
1775722336446562800,3.405562744140625,-0.15216761827468872,0.03806095942854881,0.4520341455936432
1775722336456575700,3.41557568359375,-0.1546681523323059,-0.031887538731098175,0.3777405619621277
1775722336466588700,3.425588623046875,-0.15301059186458588,-0.10723235458135605,0.3000204861164093
1775722336476603000,3.435602783203125,-0.13816724717617035,-0.13322654366493225,0.24383288621902466
1775722336486615600,3.445615478515625,-0.12722565233707428,-0.11944335699081421,0.2331583946943283
1775722336496628700,3.455628662109375,-0.13013315200805664,-0.10216033458709717,0.2714092433452606
1775722336506641700,3.4656416015625,-0.132907897233963,-0.10706880688667297,0.34604141116142273
1775722336516654800,3.47565478515625,-0.12269652634859085,-0.10835383832454681,0.42145758867263794
1775722336526667800,3.485667724609375,-0.08956333994865417,-0.11932127177715302,0.4739314615726471
1775722336536680700,3.4956806640625,-0.049636222422122955,-0.14310933649539948,0.5057626366615295
1775722336546694000,3.50569384765625,-0.021160904318094254,-0.15685151517391205,0.5212481617927551
1775722336556706600,3.51570654296875,-0.003718361258506775,-0.16257423162460327,0.5241116881370544
1775722336566720800,3.525720703125,0.010443796403706074,-0.1781231015920639,0.5052048563957214
1775722336576734000,3.53573388671875,0.0366814061999321,-0.1807476431131363,0.47591978311538696
1775722336586746600,3.54574658203125,0.07796332985162735,-0.17666713893413544,0.4555303454399109
1775722336596759800,3.555759765625,0.11789136379957199,-0.16047291457653046,0.4638579785823822
1775722336606772700,3.565772705078125,0.15513861179351807,-0.1431245505809784,0.49376633763313293
1775722336616785700,3.57578564453125,0.18249474465847015,-0.11503767967224121,0.5297428369522095
1775722336626798600,3.585798583984375,0.19118596613407135,-0.08378574997186661,0.5617617964744568
1775722336636811800,3.595811767578125,0.19530873000621796,-0.05158070847392082,0.5748936533927917
1775722336646825000,3.605824951171875,0.19008439779281616,-0.028125450015068054,0.5643075704574585
1775722336656838700,3.615838623046875,0.1738273799419403,-0.013969599269330502,0.5395833253860474
1775722336666851800,3.625851806640625,0.16287273168563843,0.0062065087258815765,0.5118752717971802
1775722336676864500,3.635864501953125,0.16486841440200806,0.024054531008005142,0.4864027798175812
1775722336686877700,3.645877685546875,0.18517129123210907,0.03849312663078308,0.46180662512779236
1775722336696891000,3.655890869140625,0.21617138385772705,0.04352192208170891,0.4351746141910553
1775722336706903800,3.66590380859375,0.24527227878570557,0.03331269696354866,0.4109728932380676
1775722336716916700,3.675916748046875,0.25743237137794495,0.010283451527357101,0.4054994285106659
1775722336726929700,3.6859296875,0.2591908574104309,0.0007988698780536652,0.4098411798477173
1775722336736943600,3.695943603515625,0.24699753522872925,-0.0031086821109056473,0.426023930311203
1775722336746956800,3.705956787109375,0.2310185730457306,0.0031343000009655952,0.4395253360271454
1775722336756969700,3.7159697265625,0.21913523972034454,0.015938811004161835,0.4371669292449951
1775722336766983000,3.72598291015625,0.2116011530160904,0.026299038901925087,0.4193016588687897
1775722336776995600,3.73599560546875,0.19680701196193695,0.039583396166563034,0.39839184284210205
1775722336787008800,3.7460087890625,0.18223366141319275,0.0276417825371027,0.372501403093338
1775722336797021700,3.756021728515625,0.17388521134853363,0.008444748818874359,0.34717097878456116
1775722336807034600,3.76603466796875,0.1704912781715393,-0.005804494954645634,0.3206581473350525
1775722336817047800,3.7760478515625,0.16227060556411743,-0.02844145894050598,0.3025111258029938
1775722336827061800,3.786061767578125,0.15745721757411957,-0.04671527445316315,0.3068009316921234
1775722336837074700,3.79607470703125,0.16360609233379364,-0.051045339554548264,0.33293062448501587
1775722336847087600,3.806087646484375,0.17325632274150848,-0.04508491978049278,0.35267186164855957
1775722336857100800,3.816100830078125,0.18632443249225616,-0.05624033138155937,0.3520819842815399
1775722336867113700,3.82611376953125,0.19797123968601227,-0.07031779736280441,0.33881890773773193
1775722336877126700,3.836126708984375,0.2156815379858017,-0.07034731656312943,0.32744643092155457
1775722336887139800,3.846139892578125,0.23405201733112335,-0.05875777080655098,0.32445836067199707
1775722336897152800,3.85615283203125,0.24590037763118744,-0.043099433183670044,0.3232268989086151
1775722336907166700,3.866166748046875,0.25455114245414734,-0.0244197528809309,0.3073299527168274
1775722336917180000,3.876179931640625,0.26140153408050537,-0.009775723330676556,0.2692478895187378
1775722336927192600,3.886192626953125,0.26131072640419006,0.011971383355557919,0.21244104206562042
1775722336937205800,3.896205810546875,0.25652626156806946,0.03187378868460655,0.15215064585208893
1775722336947218700,3.90621875,0.24950137734413147,0.07100573927164078,0.11174970120191574
1775722336957231900,3.91623193359375,0.2475733906030655,0.11079590767621994,0.09708592295646667
1775722336967244500,3.92624462890625,0.2590119540691376,0.12758074700832367,0.10607755929231644
1775722336977257700,3.9362578125,0.27780091762542725,0.13821114599704742,0.12213177233934402
1775722336987271000,3.94627099609375,0.2788486182689667,0.14596226811408997,0.13046479225158691
1775722336997284600,3.95628466796875,0.24866700172424316,0.1251709759235382,0.13665397465229034
1775722337007297800,3.9662978515625,0.2016371786594391,0.08705794811248779,0.13565289974212646
1775722337017310700,3.976310791015625,0.1269574612379074,-0.0055176373571157455,0.15361127257347107
1775722337027323600,3.98632373046875,0.05115005373954773,-0.04701022058725357,0.15646937489509583
1775722337037336800,3.9963369140625,-0.006544805131852627,-0.06191202625632286,0.13848519325256348
1775722337047349800,4.006349853515625,-0.047971341758966446,-0.07116970419883728,0.10163956135511398
1775722337057362700,4.01636279296875,-0.06971760839223862,-0.09168123453855515,0.05215985327959061
1775722337067375600,4.026375732421875,-0.09190919995307922,-0.14660626649856567,-0.001445053145289421
1775722337077388800,4.036388916015625,-0.11985713243484497,-0.2120603621006012,-0.0410173125565052
1775722337087402800,4.04640283203125,-0.13700948655605316,-0.2169477939605713,-0.05972655490040779
1775722337097415700,4.056415771484375,-0.1320340633392334,-0.19652536511421204,-0.059325847774744034
1775722337107428900,4.066428955078125,-0.11872384697198868,-0.15180343389511108,-0.058057647198438644
1775722337117441500,4.076441650390625,-0.10417751967906952,-0.05693569406867027,-0.06883641332387924
1775722337127454700,4.086454833984375,-0.10022991895675659,0.04103986918926239,-0.09103386104106903
1775722337137467600,4.096467529296875,-0.09018094092607498,0.11469998955726624,-0.10446639358997345
1775722337147480800,4.106480712890625,-0.0815722718834877,0.17536891996860504,-0.10439687967300415
1775722337157493800,4.11649365234375,-0.07359134405851364,0.20804907381534576,-0.08945967257022858
1775722337167506700,4.126506591796875,-0.05243412405252457,0.21029812097549438,-0.07154618948698044
1775722337177520600,4.136520751953125,-0.030813047662377357,0.17228929698467255,-0.06214359402656555
1775722337187533600,4.146533447265625,-0.021398240700364113,0.13706259429454803,-0.06928592920303345
1775722337197546800,4.156546630859375,-0.033703356981277466,0.06003619730472565,-0.05441752076148987
1775722337207560000,4.166559814453125,-0.0743277445435524,-0.04571286588907242,0.0028923749923706055
1775722337217572600,4.176572509765625,-0.12901878356933594,-0.0562116876244545,0.0751778855919838
1775722337227585800,4.186585693359375,-0.18366286158561707,0.0029562930576503277,0.14517773687839508
1775722337237598700,4.1965986328125,-0.23380818963050842,0.049582161009311676,0.19758060574531555
1775722337247611600,4.206611572265625,-0.2225629985332489,0.08280163258314133,0.23747237026691437
1775722337257625900,4.2166259765625,-0.20492100715637207,0.15595336258411407,0.27836742997169495
1775722337267638800,4.226638671875,-0.20492340624332428,0.17865921556949615,0.31254085898399353
1775722337277651700,4.236651611328125,-0.19930677115917206,0.13070203363895416,0.33551645278930664
1775722337287664600,4.24666455078125,-0.1611122488975525,0.05347222834825516,0.32534024119377136
1775722337297677800,4.256677734375,-0.10245486348867416,-0.021538913249969482,0.28367969393730164
1775722337307690500,4.2666904296875,-0.06475648283958435,-0.09953118115663528,0.24018310010433197
1775722337317703700,4.27670361328125,-0.05716019496321678,-0.11978476494550705,0.21107564866542816
1775722337327716600,4.286716552734375,-0.07760395109653473,-0.07523247599601746,0.18501794338226318
1775722337337729800,4.296729736328125,-0.11630638688802719,-0.02880111336708069,0.14475475251674652
1775722337347743700,4.30674365234375,-0.1491309106349945,-0.0027977426070719957,0.09398264437913895
1775722337357756700,4.316756591796875,-0.16798445582389832,0.014455953612923622,0.04190022870898247
1775722337367769600,4.32676953125,-0.19296224415302277,0.06489382684230804,-0.005648379679769278
1775722337377782500,4.336782470703125,-0.21441543102264404,0.12152937054634094,-0.036327917128801346
1775722337387795700,4.346795654296875,-0.22030261158943176,0.15714356303215027,-0.030783746391534805
1775722337397808600,4.35680859375,-0.2118987888097763,0.17664466798305511,-0.006429100409150124
1775722337407821600,4.366821533203125,-0.1887764185667038,0.1771503984928131,0.019009148702025414
1775722337417834800,4.376834716796875,-0.16179394721984863,0.18352963030338287,0.033334169536828995
1775722337427847700,4.38684765625,-0.14544960856437683,0.19772854447364807,0.04161074385046959
1775722337437861600,4.396861572265625,-0.1413237452507019,0.2027270495891571,0.03715039789676666
1775722337447874600,4.40687451171875,-0.13449247181415558,0.1870676577091217,0.020600447431206703
1775722337457887700,4.4168876953125,-0.11483550071716309,0.1551678627729416,-0.004636358004063368
1775722337467900700,4.426900634765625,-0.08197955042123795,0.1317400336265564,-0.025651894509792328
1775722337477913600,4.43691357421875,-0.03776198625564575,0.11498382687568665,-0.03858717530965805
1775722337487926800,4.4469267578125,0.0025153979659080505,0.08358888328075409,-0.04604082927107811
1775722337497939700,4.456939697265625,0.027414890006184578,0.05206957459449768,-0.044038932770490646
1775722337507952600,4.46695263671875,0.0431339293718338,0.04582073539495468,-0.037943754345178604
1775722337517965600,4.476965576171875,0.05478455871343613,0.04454530030488968,-0.03142071142792702
1775722337527979500,4.4869794921875,0.06297617405653,0.04023204371333122,-0.02837645262479782
1775722337537992700,4.49699267578125,0.06244350224733353,0.0406058132648468,-0.02923554740846157
1775722337548005600,4.507005615234375,0.05566282942891121,0.03588882088661194,-0.031068600714206696
1775722337558018600,4.5170185546875,0.04623154178261757,0.029268959537148476,-0.03072800301015377
1775722337568031500,4.527031494140625,0.039466846734285355,0.03826192021369934,-0.021862071007490158
1775722337578044700,4.537044677734375,0.029877226799726486,0.04680536687374115,-0.007148537784814835
1775722337588057900,4.547057861328125,0.02033192478120327,0.036966051906347275,0.011955914087593555
1775722337598070500,4.557070556640625,0.012426183559000492,0.04171516001224518,0.027870042249560356
1775722337608084700,4.567084716796875,0.0022947201505303383,0.05154142528772354,0.0337471067905426
1775722337618097700,4.57709765625,-0.012471905909478664,0.0627310648560524,0.03587757423520088
1775722337628110600,4.587110595703125,-0.02493976056575775,0.067029669880867,0.041139181703329086
1775722337638123800,4.597123779296875,-0.028728552162647247,0.05591728910803795,0.043397702276706696
1775722337648136700,4.60713671875,-0.024138327687978745,0.027429722249507904,0.03499409556388855
1775722337658149600,4.617149658203125,-0.017813360318541527,-0.005737158935517073,0.015820443630218506
1775722337668162600,4.62716259765625,-0.015748877078294754,-0.04332900792360306,-0.013331315480172634
1775722337678175700,4.63717578125,-0.011642882600426674,-0.07343177497386932,-0.04206673800945282
1775722337688188700,4.647188720703125,0.003592262975871563,-0.08329692482948303,-0.07097668945789337
1775722337698202600,4.65720263671875,0.03206326812505722,-0.09951424598693848,-0.09588335454463959
1775722337708215800,4.6672158203125,0.07102131843566895,-0.1215420514345169,-0.1244092807173729
1775722337718228500,4.677228515625,0.111430823802948,-0.13222791254520416,-0.1562604010105133
1775722337728241700,4.68724169921875,0.14121241867542267,-0.14053776860237122,-0.1841852366924286
1775722337738254600,4.697254638671875,0.16646555066108704,-0.16734299063682556,-0.20347024500370026
1775722337748267800,4.707267822265625,0.17932914197444916,-0.21540744602680206,-0.201642245054245
1775722337758280700,4.71728076171875,0.18210184574127197,-0.25774797797203064,-0.17807388305664062
1775722337768293600,4.727293701171875,0.16991175711154938,-0.26832151412963867,-0.14712528884410858
1775722337778306800,4.737306884765625,0.1317463368177414,-0.2553081512451172,-0.1191115528345108
1775722337788320500,4.747320556640625,0.06764218956232071,-0.23539410531520844,-0.113547682762146
1775722337798333700,4.757333740234375,0.011166175827383995,-0.19571176171302795,-0.14739888906478882
1775722337808346600,4.7673466796875,-0.022655170410871506,-0.1475019007921219,-0.20036597549915314
1775722337818359600,4.777359619140625,-0.05331985279917717,-0.11454160511493683,-0.2347055822610855
1775722337828372700,4.787372802734375,-0.08502238988876343,-0.08359860628843307,-0.22430062294006348
1775722337838385700,4.7973857421875,-0.12133478373289108,-0.037084270268678665,-0.17406761646270752
1775722337848398600,4.807398681640625,-0.14302703738212585,0.0166854839771986,-0.10356414318084717
1775722337858411500,4.81741162109375,-0.15130600333213806,0.07569039613008499,-0.043548233807086945
1775722337868424700,4.8274248046875,-0.14633335173130035,0.1480623334646225,-0.013234270736575127
1775722337878438700,4.837438720703125,-0.14532943069934845,0.19588428735733032,-0.011275392025709152
1775722337888451600,4.84745166015625,-0.15271411836147308,0.2415441870689392,-0.03598872944712639
1775722337898464800,4.85746484375,-0.1606392115354538,0.2665681540966034,-0.06493618339300156
1775722337908477400,4.8674775390625,-0.1551765352487564,0.26952823996543884,-0.07820378988981247
1775722337918490600,4.87749072265625,-0.11501191556453705,0.28047412633895874,-0.10170954465866089
1775722337928503800,4.88750390625,-0.06487737596035004,0.29492443799972534,-0.12611980736255646
1775722337938516700,4.897516845703125,-0.023801447823643684,0.31224262714385986,-0.13994546234607697
1775722337948529700,4.90752978515625,0.016577666625380516,0.3098534941673279,-0.1383638083934784
1775722337958542600,4.91754248046875,0.05813370645046234,0.29624778032302856,-0.1380285769701004
1775722337968556500,4.927556640625,0.07373849302530289,0.2585512697696686,-0.15371939539909363
1775722337978569700,4.93756982421875,0.07770541310310364,0.21790219843387604,-0.17429699003696442
1775722337988582700,4.947582763671875,0.09589347243309021,0.1681056171655655,-0.20465968549251556
1775722337998595800,4.957595947265625,0.11405876278877258,0.10021375119686127,-0.23005467653274536
1775722338008608500,4.9676083984375,0.12090681493282318,0.011881222017109394,-0.2434101551771164
1775722338018621700,4.97762158203125,0.1245189979672432,-0.07871401309967041,-0.2390405684709549
1775722338028634600,4.987634521484375,0.11881796270608902,-0.14338195323944092,-0.21951532363891602
1775722338038647600,4.9976474609375,0.09584128856658936,-0.17176884412765503,-0.1892509013414383
1775722338048660700,5.00766064453125,0.056886959820985794,-0.1979394555091858,-0.1507256180047989
1775722338058674700,5.0176748046875,0.017927488312125206,-0.23119118809700012,-0.11298241466283798
1775722338068687600,5.0276875,-0.02104680985212326,-0.23046840727329254,-0.07264218479394913
1775722338078700500,5.037700439453125,-0.05050024762749672,-0.19529730081558228,-0.047684166580438614
1775722338088713700,5.047713623046875,-0.07861444354057312,-0.14729781448841095,-0.03391695395112038
1775722338098726700,5.0577265625,-0.11669615656137466,-0.09884236007928848,-0.031123463064432144
1775722338108739600,5.067739501953125,-0.15277931094169617,-0.06908313184976578,-0.03319859877228737
1775722338118752800,5.077752685546875,-0.1771586537361145,-0.05442893132567406,-0.043625712394714355
1775722338128765700,5.087765625,-0.199650377035141,-0.04880459979176521,-0.06815608590841293
1775722338138778600,5.097778564453125,-0.22888106107711792,-0.046280939131975174,-0.08665350079536438
1775722338148792800,5.107792724609375,-0.2650976777076721,-0.02735358662903309,-0.09402140229940414
1775722338158805500,5.117805419921875,-0.2860774099826813,-0.013069568201899529,-0.09519331902265549
1775722338168818700,5.127818603515625,-0.28590908646583557,-0.031287986785173416,-0.10334152728319168
1775722338178831600,5.13783154296875,-0.2767903506755829,-0.046587683260440826,-0.12578801810741425
1775722338188844800,5.1478447265625,-0.2657289206981659,-0.060652635991573334,-0.15617069602012634
1775722338198857500,5.157857421875,-0.2536373734474182,-0.07072792947292328,-0.1877422034740448
1775722338208870700,5.16787060546875,-0.2396182417869568,-0.05808697268366814,-0.2163674533367157
1775722338218883800,5.1778837890625,-0.22525747120380402,-0.03060881793498993,-0.23833075165748596
1775722338228896500,5.187896484375,-0.20985721051692963,-0.003372136503458023,-0.2518945038318634
1775722338238910700,5.19791064453125,-0.17711232602596283,0.032306741923093796,-0.2658334970474243
1775722338248923600,5.207923583984375,-0.13037517666816711,0.0777522549033165,-0.27801159024238586
1775722338258936600,5.2179365234375,-0.07976771146059036,0.13527168333530426,-0.2779153883457184
1775722338268949800,5.22794970703125,-0.024991808459162712,0.17875418066978455,-0.2657966613769531
1775722338278962700,5.237962646484375,0.020456640049815178,0.19203686714172363,-0.25922533869743347
1775722338288975600,5.2479755859375,0.0733688548207283,0.18091897666454315,-0.26151004433631897
1775722338298988500,5.257988525390625,0.1366756707429886,0.13595522940158844,-0.26974615454673767
1775722338309001200,5.268001220703125,0.17785772681236267,0.09103543311357498,-0.28480952978134155
1775722338319014400,5.278014404296875,0.2027236521244049,0.048156142234802246,-0.2879328727722168
1775722338329028400,5.2880283203125,0.22721275687217712,-0.0006641307845711708,-0.29010096192359924
1775722338339041300,5.298041259765625,0.24602088332176208,-0.038446094840765,-0.2901982367038727
1775722338349054500,5.308054443359375,0.256672203540802,-0.07535404711961746,-0.29446303844451904
1775722338359067100,5.318067138671875,0.2575582265853882,-0.11628425866365433,-0.3029433786869049
1775722338369080300,5.328080322265625,0.2384929358959198,-0.1350446343421936,-0.3105757236480713
1775722338379093200,5.33809326171875,0.1963023543357849,-0.12380508333444595,-0.3179266154766083
1775722338389106200,5.348106201171875,0.14566047489643097,-0.11810112744569778,-0.32595470547676086
1775722338399119400,5.358119384765625,0.10773399472236633,-0.1334952712059021,-0.3359498977661133
1775722338409132300,5.36813232421875,0.08193115890026093,-0.15187667310237885,-0.35005319118499756
1775722338419146200,5.378146240234375,0.0607592947781086,-0.18171952664852142,-0.36354878544807434
1775722338429159200,5.3881591796875,0.03960607200860977,-0.20303918421268463,-0.3791085481643677
1775722338439172400,5.39817236328125,0.01323674339801073,-0.23615732789039612,-0.3948043882846832
1775722338449185300,5.408185302734375,-0.01089975144714117,-0.2744003236293793,-0.4034428894519806
1775722338459198200,5.4181982421875,-0.024157913401722908,-0.2976067066192627,-0.39780882000923157
1775722338469211400,5.42821142578125,-0.029734041541814804,-0.3128892481327057,-0.3750734329223633
1775722338479224300,5.438224365234375,-0.02675378881394863,-0.3057727813720703,-0.34486669301986694
1775722338489237200,5.4482373046875,-0.036098018288612366,-0.2644900679588318,-0.3133961260318756
1775722338499250200,5.458250244140625,-0.05641059949994087,-0.23421087861061096,-0.2794066071510315
1775722338509264100,5.46826416015625,-0.07996013760566711,-0.1985948234796524,-0.2487509548664093
1775722338519277300,5.47827734375,-0.09314030408859253,-0.15347206592559814,-0.2376621663570404
1775722338529290200,5.488290283203125,-0.09186465293169022,-0.10343499481678009,-0.2452649623155594
1775722338539303400,5.498303466796875,-0.08688367158174515,-0.0628504529595375,-0.258887380361557
1775722338549316000,5.508316162109375,-0.08629218488931656,-0.030005421489477158,-0.27604398131370544
1775722338559329300,5.518329345703125,-0.08131712675094604,0.00140887382440269,-0.29075103998184204
1775722338569342500,5.528342529296875,-0.07393963634967804,0.003480546874925494,-0.2885485887527466
1775722338579355100,5.538355224609375,-0.062009651213884354,0.006789294071495533,-0.2627205550670624
1775722338589368300,5.548368408203125,-0.056596241891384125,0.009990147314965725,-0.2264312505722046
1775722338599381200,5.55838134765625,-0.04865029826760292,-0.0036113248206675053,-0.1951986402273178
1775722338609395200,5.568395263671875,-0.04736665263772011,-0.029343320056796074,-0.1743261218070984
1775722338619408400,5.578408447265625,-0.058065228164196014,-0.03285982459783554,-0.16895490884780884
1775722338629421300,5.58842138671875,-0.07390598207712173,-0.005404497962445021,-0.18416954576969147
1775722338639434200,5.598434326171875,-0.08990654349327087,0.004438585136085749,-0.21341291069984436
1775722338649447200,5.608447265625,-0.10621041804552078,-0.02722107246518135,-0.24135185778141022
1775722338659460400,5.61846044921875,-0.10720809549093246,-0.04208984598517418,-0.24697400629520416
1775722338669473300,5.628473388671875,-0.09918772429227829,-0.05822513997554779,-0.22905679047107697
1775722338679486200,5.638486328125,-0.0887598991394043,-0.08537515997886658,-0.19565270841121674
1775722338689499400,5.64849951171875,-0.07942978292703629,-0.09613646566867828,-0.16012747585773468
1775722338699513000,5.65851318359375,-0.06405676901340485,-0.0854262188076973,-0.13138467073440552
1775722338709526300,5.6685263671875,-0.03435879573225975,-0.08265946060419083,-0.11235611885786057
1775722338719539200,5.678539306640625,0.00038457545451819897,-0.09431837499141693,-0.10305747389793396
1775722338729552400,5.688552490234375,0.04196983575820923,-0.11682900786399841,-0.10249394923448563
1775722338739565300,5.6985654296875,0.08440052717924118,-0.14701886475086212,-0.11052993685007095
1775722338749578200,5.708578125,0.11450676620006561,-0.19855742156505585,-0.1356709748506546
1775722338759591400,5.71859130859375,0.14166225492954254,-0.28416168689727783,-0.1782861202955246
1775722338769604000,5.72860400390625,0.1743147373199463,-0.3735962212085724,-0.22213800251483917
1775722338779617300,5.7386171875,0.20879963040351868,-0.44295600056648254,-0.2519786059856415
1775722338789631500,5.748631591796875,0.23427675664424896,-0.4657401442527771,-0.2632658779621124
1775722338799644200,5.75864404296875,0.22654429078102112,-0.4208453297615051,-0.2498568594455719
1775722338809657300,5.7686572265625,0.19012796878814697,-0.3216172754764557,-0.21475639939308167
1775722338819670300,5.778670166015625,0.15496592223644257,-0.2261740267276764,-0.17081712186336517
1775722338829683200,5.78868310546875,0.13647080957889557,-0.15447960793972015,-0.1339011788368225
1775722338839696100,5.798696044921875,0.1261826604604721,-0.06670147180557251,-0.09888610243797302
1775722338849709300,5.808709228515625,0.10934189707040787,0.03064931184053421,-0.05819832161068916
1775722338859722500,5.818722412109375,0.10496426373720169,0.09204637259244919,-0.04358910396695137
1775722338869735200,5.828735107421875,0.1032278835773468,0.12550979852676392,-0.055709149688482285
1775722338879748400,5.838748291015625,0.10228075087070465,0.1379074603319168,-0.08676654100418091
1775722338889762000,5.848761962890625,0.0766315832734108,0.1341390758752823,-0.11477234214544296
1775722338899775200,5.858775146484375,0.018060527741909027,0.15226204693317413,-0.14176440238952637
1775722338909788400,5.868788330078125,-0.06386017054319382,0.17693357169628143,-0.15948933362960815
1775722338919801300,5.87880126953125,-0.14631284773349762,0.1644379049539566,-0.17804664373397827
1775722338929814300,5.888814208984375,-0.21544212102890015,0.12795020639896393,-0.20852838456630707
1775722338939827200,5.8988271484375,-0.2757985591888428,0.10287456214427948,-0.2294665426015854
1775722338949840400,5.90884033203125,-0.3388076424598694,0.08888284116983414,-0.2222515046596527
1775722338959853000,5.91885302734375,-0.3952532112598419,0.10348058491945267,-0.18844573199748993
1775722338969866200,5.9288662109375,-0.4301515519618988,0.11879216134548187,-0.14930285513401031
1775722338979880400,5.93888037109375,-0.44210508465766907,0.12920129299163818,-0.11816281825304031
1775722338989893000,5.94889306640625,-0.43163618445396423,0.14573872089385986,-0.10054121166467667
1775722338999906300,5.95890625,-0.4089395999908447,0.13674002885818481,-0.08291006088256836
1775722339009919200,5.968919189453125,-0.36899271607398987,0.1064591035246849,-0.06259439885616302
1775722339019932200,5.97893212890625,-0.32036590576171875,0.07569579780101776,-0.03452514111995697
1775722339029945300,5.9889453125,-0.2689115107059479,0.053406473249197006,0.0000019423896446824074
1775722339039958300,5.998958251953125,-0.22438785433769226,0.061579201370477676,0.04058388993144035
1775722339049971500,6.008971435546875,-0.17366689443588257,0.06831620633602142,0.0667414590716362
1775722339059984100,6.018984130859375,-0.1172640472650528,0.0623040497303009,0.0745524913072586
1775722339069998300,6.028998291015625,-0.06074511259794235,0.05192278325557709,0.06797607988119125
1775722339080011300,6.03901123046875,-0.008165111765265465,0.040856555104255676,0.06497453153133392
1775722339090024200,6.049024169921875,0.035893961787223816,0.03219382464885712,0.06784622371196747
1775722339100037400,6.059037353515625,0.07336492091417313,0.022558176890015602,0.08153138309717178
1775722339110050300,6.06905029296875,0.1091061383485794,0.024247154593467712,0.10579784214496613
1775722339120063200,6.079063232421875,0.14719098806381226,0.030280711129307747,0.12629002332687378
1775722339130076200,6.089076171875,0.1882161945104599,0.024782879278063774,0.13007117807865143
1775722339140089300,6.09908935546875,0.21989747881889343,0.0153854601085186,0.11940915137529373
1775722339150102300,6.109102294921875,0.2328803837299347,0.005283023696392775,0.09867511689662933
1775722339160116200,6.1191162109375,0.2412761002779007,-0.0028982339426875114,0.06988251209259033
1775722339170129400,6.12912939453125,0.24317653477191925,-0.00929274968802929,0.04082130268216133
1775722339180142000,6.13914208984375,0.23321941494941711,-0.01626301370561123,0.01903674751520157
1775722339190155300,6.1491552734375,0.2169506847858429,-0.029229944571852684,-0.008648675866425037
1775722339200168400,6.15916845703125,0.2051192820072174,-0.03035731613636017,-0.047388020902872086
1775722339210181000,6.16918115234375,0.17233870923519135,-0.0481586828827858,-0.08595805615186691
1775722339220194300,6.1791943359375,0.11973822861909866,-0.05881023406982422,-0.1262558400630951
1775722339230207200,6.189207275390625,0.06531281024217606,-0.07176811248064041,-0.17095141112804413
1775722339240220400,6.199220458984375,0.025980502367019653,-0.07545873522758484,-0.2072744369506836
1775722339250233000,6.209233154296875,0.0034027553629130125,-0.08897747099399567,-0.22398044168949127
1775722339260247300,6.219247314453125,-0.023551583290100098,-0.10096244513988495,-0.21059758961200714
1775722339270260200,6.22926025390625,-0.057463210076093674,-0.08706606924533844,-0.18104688823223114
1775722339280273200,6.239273193359375,-0.09052976220846176,-0.06757351756095886,-0.1478293538093567
1775722339290286300,6.249286376953125,-0.11041052639484406,-0.05197111889719963,-0.1271032989025116
1775722339300299300,6.25929931640625,-0.1185561940073967,-0.029006216675043106,-0.11578311771154404
1775722339310312200,6.269312255859375,-0.11235262453556061,-0.015434482134878635,-0.09604590386152267
1775722339320325000,6.2793251953125,-0.09712466597557068,0.00037617271300405264,-0.06951922178268433
1775722339330338300,6.28933837890625,-0.08487971872091293,0.011634952388703823,-0.037548236548900604
1775722339340351200,6.299351318359375,-0.07901808619499207,0.028846099972724915,-0.01885446161031723
1775722339350365200,6.309365234375,-0.07242783159017563,0.04132114350795746,-0.015469318255782127
1775722339360378400,6.31937841796875,-0.06548485159873962,0.051002420485019684,-0.02408929355442524
1775722339370391000,6.32939111328125,-0.0632517859339714,0.05036672577261925,-0.03913615271449089
1775722339380404200,6.339404296875,-0.058630917221307755,0.06864447146654129,-0.05596522241830826
1775722339390417400,6.34941748046875,-0.04353984817862511,0.08725650608539581,-0.06785277277231216
1775722339400430000,6.35943017578125,-0.017188291996717453,0.09926360845565796,-0.07442156225442886
1775722339410443300,6.369443359375,0.020694641396403313,0.10647864639759064,-0.07652386277914047
1775722339420456200,6.379456298828125,0.05691736191511154,0.09690458327531815,-0.08086241781711578
1775722339430469400,6.389469482421875,0.08421555906534195,0.09053269773721695,-0.0834648609161377
1775722339440483300,6.3994833984375,0.1054222509264946,0.09111440926790237,-0.08126664906740189
1775722339450496300,6.409496337890625,0.12665189802646637,0.08175979554653168,-0.06964541226625443
1775722339460509200,6.41950927734375,0.15619926154613495,0.07925881445407867,-0.04584137722849846
1775722339470522000,6.429522216796875,0.19885112345218658,0.07115774601697922,-0.013461335562169552
1775722339480535300,6.439535400390625,0.249217227101326,0.05402367562055588,0.01761922985315323
1775722339490548200,6.44954833984375,0.29018595814704895,0.029353749006986618,0.028591718524694443
1775722339500561200,6.45956103515625,0.301313191652298,-0.008852578699588776,0.02785533480346203
1775722339510574300,6.46957421875,0.2831086218357086,-0.046044424176216125,0.02250397950410843
1775722339520587300,6.479587158203125,0.24825675785541534,-0.08021453022956848,0.006007683463394642
1775722339530600200,6.48960009765625,0.20996823906898499,-0.10785600543022156,-0.016755152493715286
1775722339540614100,6.4996142578125,0.1824181228876114,-0.11321409046649933,-0.03832704573869705
1775722339550627300,6.50962744140625,0.1680748611688614,-0.12492693960666656,-0.04713784530758858
1775722339560640300,6.51964013671875,0.15524984896183014,-0.15531960129737854,-0.03326859697699547
1775722339570653200,6.529653076171875,0.14067623019218445,-0.16803060472011566,-0.015011029317975044
1775722339580666400,6.539666259765625,0.11903546750545502,-0.1614614576101303,0.0024738507345318794
1775722339590679300,6.54967919921875,0.08691135793924332,-0.15017470717430115,0.018225649371743202
1775722339600692200,6.559692138671875,0.05641812086105347,-0.1464184671640396,0.02998594380915165
1775722339610705200,6.569705078125,0.04032517224550247,-0.14639237523078918,0.04750075191259384
1775722339620718300,6.57971826171875,0.04330107197165489,-0.153000608086586,0.0718047022819519
1775722339630732300,6.589732177734375,0.054275695234537125,-0.15192602574825287,0.0908159464597702
1775722339640745200,6.5997451171875,0.06218584254384041,-0.13891130685806274,0.09057489037513733
1775722339650758100,6.609758056640625,0.06129927560687065,-0.1187591701745987,0.07324650138616562
1775722339660771000,6.61977099609375,0.054264623671770096,-0.10169465839862823,0.0652630627155304
1775722339670784300,6.6297841796875,0.04465433955192566,-0.07918056100606918,0.07637296617031097
1775722339680797400,6.63979736328125,0.03715934604406357,-0.05805565044283867,0.10400199145078659
1775722339690810000,6.64981005859375,0.02695145271718502,-0.03746781498193741,0.13081176578998566
1775722339700823300,6.6598232421875,0.010740218684077263,0.006656362675130367,0.14760597050189972
1775722339710836200,6.669836181640625,-0.007224933244287968,0.04857132211327553,0.15900243818759918
1775722339720850200,6.67985009765625,-0.016873428598046303,0.07116487622261047,0.1766020655632019
1775722339730863400,6.68986328125,-0.011057084426283836,0.1067095547914505,0.19406867027282715
1775722339740876300,6.699876220703125,0.0004580982495099306,0.13355574011802673,0.209528386592865
1775722339750889200,6.70988916015625,0.005822503007948399,0.15585145354270935,0.22235096991062164
1775722339760902100,6.719902099609375,0.00450232345610857,0.1599254012107849,0.2315887212753296
1775722339770915300,6.729915283203125,0.0014388894196599722,0.14745408296585083,0.24085944890975952
1775722339780928300,6.73992822265625,0.0023388226982206106,0.1300012171268463,0.24591249227523804
1775722339790941200,6.749941162109375,0.0034190008882433176,0.1111188679933548,0.2489285171031952
1775722339800954400,6.759954345703125,0.006221406627446413,0.0879279226064682,0.2527283728122711
1775722339810967300,6.76996728515625,0.01497308723628521,0.0677235871553421,0.2605804204940796
1775722339820981200,6.779981201171875,0.0376482829451561,0.06135975942015648,0.2785450518131256
1775722339830994200,6.789994140625,0.05347971245646477,0.06394010037183762,0.30604803562164307
1775722339841007400,6.80000732421875,0.053813692182302475,0.05987098813056946,0.3353175222873688
1775722339851020300,6.810020263671875,0.04429102689027786,0.058162037283182144,0.3683132827281952
1775722339861033200,6.820033203125,0.03679829090833664,0.040643490850925446,0.3983863890171051
1775722339871046400,6.83004638671875,0.0392550565302372,0.015312831848859787,0.4112832844257355
1775722339881059000,6.84005908203125,0.04941478371620178,-0.009772587567567825,0.41124171018600464
1775722339891072300,6.850072265625,0.05697496235370636,-0.03499245643615723,0.4023779332637787
1775722339901085200,6.860085205078125,0.06527525931596756,-0.04732828214764595,0.38369131088256836
1775722339911099100,6.87009912109375,0.0669993907213211,-0.0604584664106369,0.3607892096042633
1775722339921112300,6.8801123046875,0.06604434549808502,-0.07355878502130508,0.3557971119880676
1775722339931125200,6.890125244140625,0.06331832706928253,-0.07478863000869751,0.36764204502105713
1775722339941138200,6.90013818359375,0.06943762302398682,-0.07000938802957535,0.3836405873298645
1775722339951151000,6.910151123046875,0.07208213955163956,-0.07086505740880966,0.3901301920413971
1775722339961164300,6.920164306640625,0.07335629314184189,-0.07785963267087936,0.38163700699806213
1775722339971177200,6.93017724609375,0.0656839907169342,-0.08455722033977509,0.36514484882354736
1775722339981190100,6.940190185546875,0.05330060049891472,-0.07121197879314423,0.3506947457790375
1775722339991203300,6.950203369140625,0.03983459249138832,-0.03948814049363136,0.33038362860679626
1775722340001216300,6.96021630859375,0.030980845913290977,-0.01705632358789444,0.30050942301750183
1775722340011230200,6.970230224609375,0.020392917096614838,-0.0027247879188507795,0.2713739275932312
1775722340021243400,6.980243408203125,0.012845201417803764,0.015529418364167213,0.24533118307590485
1775722340031256300,6.99025634765625,0.017369378358125687,0.041115738451480865,0.21635864675045013
1775722340041269200,7.000269287109375,0.04153994470834732,0.05574987083673477,0.1821943074464798
1775722340051282200,7.0102822265625,0.0706099420785904,0.07067183405160904,0.14299790561199188
1775722340061295400,7.02029541015625,0.09342996776103973,0.0862879753112793,0.1095808818936348
1775722340071308000,7.03030810546875,0.11819523572921753,0.09120390564203262,0.08321639150381088
1775722340081321200,7.0403212890625,0.13337691128253937,0.08591166138648987,0.06846026331186295
1775722340091334400,7.05033447265625,0.1332608014345169,0.0842684879899025,0.07163368910551071
1775722340101348000,7.06034814453125,0.12965627014636993,0.07553347945213318,0.08699794858694077
1775722340111361300,7.070361328125,0.13862605392932892,0.051402848213911057,0.11024788022041321
1775722340121374200,7.080374267578125,0.1580529659986496,0.019786790013313293,0.13275590538978577
1775722340131387100,7.09038720703125,0.1756247580051422,-0.008362025022506714,0.1573406159877777
1775722340141400300,7.100400390625,0.18797791004180908,-0.009589908644557,0.18268506228923798
1775722340151413200,7.110413330078125,0.19841456413269043,-0.013124456629157066,0.20492751896381378
1775722340161426400,7.120426513671875,0.21046879887580872,-0.026152513921260834,0.21659007668495178
1775722340171439000,7.130439208984375,0.2315804660320282,-0.03597931191325188,0.22954583168029785
1775722340181452300,7.140452392578125,0.24929936230182648,-0.039905332028865814,0.24945206940174103
1775722340191466200,7.15046630859375,0.258244127035141,-0.035205382853746414,0.27366340160369873
1775722340201479200,7.160479248046875,0.25440770387649536,-0.018757076933979988,0.3021569550037384
1775722340211492400,7.170492431640625,0.2413126826286316,0.009411974810063839,0.32278794050216675
1775722340221505300,7.18050537109375,0.22099822759628296,0.03646232187747955,0.3359062373638153
1775722340231518200,7.190518310546875,0.18788553774356842,0.05207457393407822,0.346614271402359
1775722340241531100,7.20053125,0.15074846148490906,0.06923771649599075,0.34691932797431946
1775722340251544300,7.21054443359375,0.13526296615600586,0.08495090156793594,0.3407738208770752
1775722340261557200,7.22055712890625,0.1348581314086914,0.09999176114797592,0.3235732913017273
1775722340271570200,7.230570068359375,0.143108069896698,0.11902324110269547,0.3032909333705902
1775722340281583400,7.240583251953125,0.1560276299715042,0.12600919604301453,0.2893271744251251
1775722340291597000,7.25059716796875,0.1593075692653656,0.12612131237983704,0.27193939685821533
1775722340301610200,7.2606103515625,0.15183788537979126,0.1264503002166748,0.24738241732120514
1775722340311623400,7.27062353515625,0.14336663484573364,0.11805681884288788,0.20853862166404724
1775722340321636000,7.280635986328125,0.13815996050834656,0.10583825409412384,0.15698160231113434
1775722340331649300,7.290649169921875,0.14898811280727386,0.0864027664065361,0.10536182671785355
1775722340341662200,7.300662109375,0.1816859394311905,0.03503395617008209,0.07117928564548492
1775722340351675400,7.31067529296875,0.23059596121311188,-0.05111158266663551,0.0645541399717331
1775722340361688000,7.32068798828125,0.29308411478996277,-0.13167566061019897,0.08504556864500046
1775722340371701200,7.330701171875,0.34328922629356384,-0.1853647232055664,0.11533316969871521
1775722340381715200,7.340715087890625,0.36211538314819336,-0.2190113365650177,0.14060364663600922
1775722340391728000,7.35072802734375,0.34459763765335083,-0.2556284964084625,0.152165487408638
1775722340401741300,7.3607412109375,0.29306820034980774,-0.2623627483844757,0.14593948423862457
1775722340411754200,7.370754150390625,0.2236984372138977,-0.268844336271286,0.1348535418510437
1775722340421767200,7.38076708984375,0.15371771156787872,-0.2701161503791809,0.12445580959320068
1775722340431780400,7.3907802734375,0.10258102416992188,-0.25956231355667114,0.11816355586051941
1775722340441793300,7.400793212890625,0.06879626959562302,-0.2567913234233856,0.10730627924203873
1775722340451806200,7.41080615234375,0.06642445921897888,-0.2413913458585739,0.09389566630125046
1775722340461819100,7.420819091796875,0.08025191724300385,-0.2343522608280182,0.09279011934995651
1775722340471832300,7.430832275390625,0.10772828757762909,-0.23576772212982178,0.09736090898513794
1775722340481846300,7.44084619140625,0.11577752232551575,-0.2212226539850235,0.10436039417982101
1775722340491859200,7.450859130859375,0.10038045048713684,-0.19241099059581757,0.10699905455112457
1775722340501872400,7.460872314453125,0.072768934071064,-0.16651484370231628,0.0984746590256691
1775722340511885000,7.470885009765625,0.04206322133541107,-0.14324094355106354,0.08989635109901428
1775722340521898200,7.480898193359375,0.022392425686120987,-0.11750658601522446,0.08813776075839996
1775722340531911200,7.4909111328125,0.01455314364284277,-0.09441804140806198,0.0915500745177269
1775722340541924400,7.50092431640625,-0.008291313424706459,-0.06061072275042534,0.09878280758857727
1775722340551937300,7.510937255859375,-0.05078550800681114,-0.016365496441721916,0.09989308565855026
1775722340561950200,7.5209501953125,-0.11088833957910538,0.024041300639510155,0.08985890448093414
1775722340571964200,7.530964111328125,-0.17468596994876862,0.05050806328654289,0.07423680275678635
1775722340581977000,7.54097705078125,-0.22639699280261993,0.09735381603240967,0.06376967579126358
1775722340591990300,7.550990234375,-0.25119689106941223,0.158016636967659,0.05737782642245293
1775722340602003500,7.56100341796875,-0.2527049481868744,0.2433566004037857,0.0570850633084774
1775722340612016000,7.57101611328125,-0.24016810953617096,0.34092310070991516,0.06433232128620148
1775722340622029300,7.581029296875,-0.23237884044647217,0.41269412636756897,0.08934149146080017
1775722340632042200,7.591042236328125,-0.2188904583454132,0.44808006286621094,0.1206757128238678
1775722340642055200,7.60105517578125,-0.18956077098846436,0.4304843544960022,0.15967817604541779
1775722340652068000,7.611068115234375,-0.15043440461158752,0.3627535104751587,0.19202838838100433
1775722340662082300,7.621082275390625,-0.10865659266710281,0.2771137058734894,0.19745858013629913
1775722340672095200,7.63109521484375,-0.07517213374376297,0.18109850585460663,0.17179661989212036
1775722340682108200,7.641108154296875,-0.039043691009283066,0.06361554563045502,0.11797547340393066
1775722340692121300,7.651121337890625,-0.003392221638932824,-0.04643825441598892,0.0718788206577301
1775722340702134000,7.661134033203125,0.03875959664583206,-0.14479298889636993,0.054107729345560074
1775722340712147200,7.671147216796875,0.07574424147605896,-0.24048249423503876,0.05619458109140396
1775722340722160400,7.681160400390625,0.11013960838317871,-0.28959983587265015,0.07841348648071289
1775722340732173300,7.69117333984375,0.13791584968566895,-0.2839672565460205,0.11894972622394562
1775722340742186200,7.701186279296875,0.14892658591270447,-0.23617447912693024,0.1750551462173462
1775722340752199200,7.71119921875,0.14523571729660034,-0.1810861974954605,0.23746846616268158
1775722340762213000,7.721213134765625,0.12080993503332138,-0.13421306014060974,0.3024936020374298
1775722340772226300,7.731226318359375,0.07726618647575378,-0.0907801017165184,0.35715338587760925
1775722340782239200,7.7412392578125,0.022893939167261124,-0.01619740016758442,0.3956630527973175
1775722340792252400,7.75125244140625,-0.02611861191689968,0.06421781331300735,0.410305380821228
1775722340802265000,7.76126513671875,-0.07091988623142242,0.11699973791837692,0.4057321846485138
1775722340812278300,7.7712783203125,-0.10903158783912659,0.15492475032806396,0.38281938433647156
1775722340822291200,7.781291259765625,-0.15182866156101227,0.1812441349029541,0.356875479221344
1775722340832304000,7.79130419921875,-0.19147594273090363,0.21671557426452637,0.32079923152923584
1775722340842317300,7.8013173828125,-0.22141045331954956,0.24087846279144287,0.29014819860458374
1775722340852331300,7.811331298828125,-0.23555238544940948,0.28014862537384033,0.26294347643852234
1775722340862344200,7.82134423828125,-0.22152909636497498,0.2872609496116638,0.23089219629764557
1775722340872357000,7.831357177734375,-0.18966011703014374,0.24417394399642944,0.18797536194324493
1775722340882370300,7.841370361328125,-0.13642466068267822,0.17403320968151093,0.1345236599445343
1775722340892383200,7.85138330078125,-0.08730105310678482,0.15248051285743713,0.08303836733102798
1775722340902396200,7.861396240234375,-0.0538155660033226,0.15558873116970062,0.02059365250170231
1775722340912409300,7.871409423828125,-0.044683586806058884,0.1548622101545334,-0.073128841817379
1775722340922422300,7.88142236328125,-0.05402368679642677,0.1572279930114746,-0.18961592018604279
1775722340932435200,7.891435302734375,-0.06387152522802353,0.15214267373085022,-0.3080586791038513
1775722340942449400,7.901449462890625,-0.05642612650990486,0.1455707997083664,-0.3852536082267761
1775722340952462000,7.911462158203125,-0.03438260778784752,0.13206563889980316,-0.4092622697353363
1775722340962475300,7.921475341796875,-0.00364379258826375,0.11976105719804764,-0.3844395577907562
1775722340972488200,7.93148828125,0.029548782855272293,0.11548295617103577,-0.3303438425064087
1775722340982501400,7.94150146484375,0.041996367275714874,0.1089482381939888,-0.2616707384586334
1775722340992514000,7.95151416015625,0.019818097352981567,0.09129387885332108,-0.18488405644893646
1775722341002527200,7.96152734375,-0.018003076314926147,0.09000193327665329,-0.10675223916769028
1775722341012540400,7.97154052734375,-0.053247615694999695,0.09198598563671112,-0.03382343798875809
1775722341022553000,7.981552978515625,-0.07650821655988693,0.0780625119805336,0.037489380687475204
1775722341032566300,7.991566162109375,-0.0741337463259697,0.04706411808729172,0.09649863839149475
1775722341042580200,8.001580322265625,-0.0483107753098011,0.006296208593994379,0.12750618159770966
1775722341052593200,8.01159326171875,-0.008571885526180267,-0.036347925662994385,0.11804291605949402
1775722341062606300,8.0216064453125,0.025176268070936203,-0.07719790190458298,0.07553884387016296
1775722341072619300,8.031619384765625,0.05474347993731499,-0.11220728605985641,0.006844468880444765
1775722341082632200,8.041632080078125,0.0789160281419754,-0.13346095383167267,-0.07261823862791061
1775722341092645000,8.05164501953125,0.08561387658119202,-0.16414909064769745,-0.13981404900550842
1775722341102658300,8.061658203125,0.08988331258296967,-0.20363853871822357,-0.19197776913642883
1775722341112671200,8.071671142578126,0.09608528763055801,-0.20695017278194427,-0.22643348574638367
1775722341122684200,8.08168408203125,0.1047363206744194,-0.21837201714515686,-0.2433970421552658
1775722341132698400,8.091698486328125,0.11631467938423157,-0.2174263298511505,-0.25040459632873535
1775722341142711000,8.1017109375,0.13187634944915771,-0.19467340409755707,-0.2489071488380432
1775722341152724200,8.11172412109375,0.13987621665000916,-0.15809328854084015,-0.2454117387533188
1775722341162737200,8.121737060546875,0.12594027817249298,-0.11468349397182465,-0.2390354424715042
1775722341172750300,8.131750244140624,0.0923522338271141,-0.07884666323661804,-0.24006368219852448
1775722341182763300,8.14176318359375,0.04944875091314316,-0.03661340847611427,-0.2553290128707886
1775722341192776200,8.151776123046876,-0.005184932146221399,0.013781586661934853,-0.27292636036872864
1775722341202789400,8.161789306640625,-0.05906841531395912,0.035104162991046906,-0.27537301182746887
1775722341212802000,8.171802001953125,-0.10482072085142136,0.050510283559560776,-0.258102148771286
1775722341222815200,8.181815185546874,-0.12321466207504272,0.05556529015302658,-0.23866558074951172
1775722341232829400,8.191829345703125,-0.12170624732971191,0.049036018550395966,-0.21706867218017578
1775722341242842000,8.201842041015626,-0.11383175849914551,0.04306315630674362,-0.19933314621448517
1775722341252855300,8.211855224609375,-0.11281496286392212,0.018716542050242424,-0.17489810287952423
1775722341262868200,8.2218681640625,-0.12810415029525757,-0.010504704900085926,-0.13517865538597107
1775722341272881200,8.231881103515626,-0.15347795188426971,-0.024842631071805954,-0.07255442440509796
1775722341282894000,8.24189404296875,-0.16433152556419373,-0.0077744051814079285,-0.0020047854632139206
1775722341292907300,8.2519072265625,-0.1445964276790619,0.010374771431088448,0.06203704699873924
1775722341302920400,8.26192041015625,-0.1019204780459404,0.023921625688672066,0.10749468952417374
1775722341312933600,8.27193359375,-0.051852524280548096,0.038650237023830414,0.12883806228637695
1775722341322947800,8.28194775390625,-0.015470663085579872,0.061451803892850876,0.13182304799556732
1775722341332960500,8.29196044921875,0.010997695848345757,0.0802348181605339,0.12794922292232513
1775722341342973700,8.3019736328125,0.0013653202913701534,0.133039191365242,0.11460492014884949
1775722341352986600,8.311986572265624,-0.07088463753461838,0.23462946712970734,0.1143316775560379
1775722341362999600,8.32199951171875,-0.1762380748987198,0.3565337359905243,0.12189273536205292
1775722341373012500,8.332012451171876,-0.2670031189918518,0.4598894417285919,0.11253146082162857
1775722341383025700,8.342025634765625,-0.3247484564781189,0.5347150564193726,0.07430526614189148
1775722341393038800,8.352038818359375,-0.3757655620574951,0.5887545347213745,0.02129291743040085
1775722341403051500,8.362051513671876,-0.43665260076522827,0.5957037210464478,-0.03253251686692238
1775722341413064700,8.372064697265625,-0.49422934651374817,0.5723283290863037,-0.07129137217998505
1775722341423078700,8.38207861328125,-0.5379220247268677,0.5154753923416138,-0.06855864077806473
1775722341433091600,8.392091552734374,-0.5490865111351013,0.4505715072154999,-0.009970422834157944
1775722341443104800,8.402104736328125,-0.5370435118675232,0.3951548933982849,0.07728540152311325
1775722341453117700,8.41211767578125,-0.519511342048645,0.298319935798645,0.1830935925245285
1775722341463130600,8.422130615234375,-0.5001459121704102,0.21259921789169312,0.28396642208099365
1775722341473143600,8.4321435546875,-0.49159902334213257,0.1630292683839798,0.37092846632003784
1775722341483156700,8.44215673828125,-0.5034231543540955,0.11904312670230865,0.44020071625709534
1775722341493169700,8.452169677734375,-0.5250645279884338,0.0522257499396801,0.4830150306224823
1775722341503182600,8.4621826171875,-0.5487658977508545,0.017159657552838326,0.5026231408119202
1775722341513196800,8.47219677734375,-0.565227746963501,0.00227524945512414,0.5070266723632812
1775722341523209500,8.48220947265625,-0.5581427812576294,-0.0191099364310503,0.4908697009086609
1775722341533222700,8.49222265625,-0.5439593195915222,-0.06018893048167229,0.4499494433403015
1775722341543235600,8.502235595703125,-0.5120272040367126,-0.12603919208049774,0.39002329111099243
1775722341553248800,8.512248779296876,-0.4462261497974396,-0.22134041786193848,0.3043469786643982
1775722341563261700,8.52226171875,-0.35824111104011536,-0.32006651163101196,0.2047063261270523
1775722341573274600,8.532274658203125,-0.23890964686870575,-0.40944617986679077,0.07896358519792557
1775722341583287800,8.542287841796876,-0.11767850816249847,-0.4801720380783081,-0.05193319544196129
1775722341593300500,8.552300537109375,-0.014029880985617638,-0.5075144171714783,-0.1812397837638855
1775722341603313700,8.562313720703125,0.05803694203495979,-0.5032070875167847,-0.29114481806755066
1775722341613327600,8.57232763671875,0.100074402987957,-0.47362419962882996,-0.37322717905044556
1775722341623340500,8.582340576171875,0.11580237746238708,-0.43185627460479736,-0.43353351950645447
1775722341633353700,8.592353759765626,0.10567863285541534,-0.3870643079280853,-0.46225276589393616
1775722341643366700,8.60236669921875,0.07820699363946915,-0.3205152153968811,-0.4631046652793884
1775722341653379600,8.612379638671875,0.040701694786548615,-0.24258926510810852,-0.44536668062210083
1775722341663392500,8.622392578125,-0.0073481593281030655,-0.16686320304870605,-0.41800427436828613
1775722341673405700,8.63240576171875,-0.050008002668619156,-0.0765780583024025,-0.40416860580444336
1775722341683418600,8.642418701171875,-0.07614587247371674,0.008900065906345844,-0.4091804027557373
1775722341693431600,8.652431640625,-0.07675174623727798,0.0575227290391922,-0.41733795404434204
1775722341703445800,8.66244580078125,-0.06497630476951599,0.10509666055440903,-0.39536285400390625
1775722341713458400,8.67245849609375,-0.04665029048919678,0.14448454976081848,-0.34287407994270325
1775722341723471600,8.6824716796875,-0.032402075827121735,0.1839631199836731,-0.2854989767074585
1775722341733484800,8.69248486328125,-0.028004661202430725,0.22785015404224396,-0.23790748417377472
1775722341743497700,8.702497802734374,-0.027159661054611206,0.2657398283481598,-0.20321261882781982
1775722341753510700,8.7125107421875,-0.030960258096456528,0.2701769173145294,-0.18457874655723572
1775722341763523600,8.722523681640626,-0.02219115011394024,0.2441347986459732,-0.17381170392036438
1775722341773536800,8.732536865234374,0.0053371465764939785,0.2107962816953659,-0.16950936615467072
1775722341783549400,8.742549560546875,0.04818200320005417,0.18517959117889404,-0.16962964832782745
1775722341793562600,8.752562744140626,0.09388450533151627,0.1592680960893631,-0.16818594932556152
1775722341803576800,8.762576904296875,0.1362992525100708,0.14878222346305847,-0.16712965071201324
1775722341813589500,8.772589599609375,0.17206764221191406,0.12342172861099243,-0.16815629601478577
1775722341823602700,8.782602783203124,0.18577958643436432,0.09511748701334,-0.1722252070903778
1775722341833615600,8.79261572265625,0.1785096973180771,0.08795571327209473,-0.17352403700351715
1775722341843628500,8.802628662109376,0.16958239674568176,0.1030004695057869,-0.1764632612466812
1775722341853641700,8.812641845703125,0.17559394240379333,0.11190953850746155,-0.18474063277244568
1775722341863654700,8.822654541015625,0.19808915257453918,0.08970758318901062,-0.21701015532016754
1775722341873667800,8.832667724609376,0.24170933663845062,0.05892384052276611,-0.2825244665145874
1775722341883680500,8.842680419921875,0.3069112002849579,-0.009597388096153736,-0.3705722689628601
1775722341893693700,8.852693603515625,0.38696128129959106,-0.10240615904331207,-0.451539009809494
1775722341903707600,8.862707763671875,0.44527822732925415,-0.1794000267982483,-0.4999082684516907
1775722341913720600,8.872720458984375,0.46506285667419434,-0.22064360976219177,-0.5034688711166382
1775722341923733800,8.882733642578126,0.45475345849990845,-0.22255989909172058,-0.4783909320831299
1775722341933746700,8.89274658203125,0.42763131856918335,-0.24465693533420563,-0.45021361112594604
1775722341943759600,8.902759521484375,0.39544588327407837,-0.279558002948761,-0.4480060636997223
1775722341953772500,8.9127724609375,0.36926379799842834,-0.2995423674583435,-0.48031100630760193
1775722341963785700,8.92278564453125,0.3559459447860718,-0.3145923316478729,-0.5342960357666016
1775722341973798700,8.932798583984376,0.3498462438583374,-0.3264159560203552,-0.584858775138855
1775722341983811600,8.9428115234375,0.34114643931388855,-0.3527868092060089,-0.6192209720611572
1775722341993825800,8.95282568359375,0.3365596830844879,-0.36813247203826904,-0.6388881802558899
1775722342003838500,8.96283837890625,0.30976182222366333,-0.3685268759727478,-0.6423749327659607
1775722342013851600,8.9728515625,0.24644730985164642,-0.3558443784713745,-0.6201077103614807
1775722342023864800,8.98286474609375,0.15536509454250336,-0.3065187335014343,-0.5540656447410583
1775722342033877500,8.99287744140625,0.06498938053846359,-0.22007757425308228,-0.45858439803123474
1775722342043890700,9.002890625,-0.009325219318270683,-0.1365414261817932,-0.35798704624176025
1775722342053903600,9.012903564453126,-0.05201675742864609,-0.08770731091499329,-0.29096806049346924
1775722342063916800,9.022916748046875,-0.08103927969932556,-0.05239176005125046,-0.2723686397075653
1775722342073929500,9.032929443359375,-0.10104414075613022,-0.019565636292099953,-0.2631288170814514
1775722342083942700,9.042942626953124,-0.10877465456724167,0.0038196640089154243,-0.23872634768486023
1775722342093956600,9.05295654296875,-0.10198891907930374,0.029752463102340698,-0.21949486434459686
1775722342103969500,9.062969482421876,-0.09105003625154495,0.04107685759663582,-0.20966190099716187
1775722342113982700,9.072982666015625,-0.08459852635860443,0.049064476042985916,-0.20418031513690948
1775722342123995600,9.08299560546875,-0.07737253606319427,0.0475332997739315,-0.19350001215934753
1775722342134008600,9.093008544921876,-0.06608419120311737,0.05731295794248581,-0.17704807221889496
1775722342144021800,9.103021728515625,-0.05067465454339981,0.08607922494411469,-0.15750016272068024
1775722342154034700,9.11303466796875,-0.023514937609434128,0.0871676579117775,-0.1403006613254547
1775722342164047600,9.123047607421874,0.012106498703360558,0.07833242416381836,-0.12425599247217178
1775722342174060500,9.133060546875,0.05094604194164276,0.07884188741445541,-0.10704264789819717
1775722342184073700,9.14307373046875,0.08191818743944168,0.07637675106525421,-0.08528207987546921
1775722342194087700,9.153087646484375,0.10385331511497498,0.06593956053256989,-0.05921532213687897
1775722342204100600,9.1631005859375,0.11890218406915665,0.05022728815674782,-0.048494644463062286
1775722342214113800,9.17311376953125,0.1252191960811615,0.032344426959753036,-0.05736031010746956
1775722342224126500,9.18312646484375,0.1154128834605217,0.01495562493801117,-0.08261851221323013
1775722342234139600,9.1931396484375,0.09957639873027802,0.010600823909044266,-0.11418735235929489
1775722342244152600,9.203152587890624,0.07852115482091904,0.006508493795990944,-0.14432230591773987
1775722342254165800,9.213165771484375,0.058936264365911484,-0.005648037418723106,-0.16495461761951447
1775722342264178700,9.2231787109375,0.04206850752234459,-0.0030573508702218533,-0.16986940801143646
1775722342274191600,9.233191650390625,0.033746927976608276,-0.0048704310320317745,-0.16074222326278687
1775722342284205600,9.24320556640625,0.04321381449699402,-0.012521225959062576,-0.1397731453180313
1775722342294218500,9.253218505859374,0.06061463803052902,-0.013032552786171436,-0.11971794068813324
1775722342304231700,9.263231689453125,0.07250369340181351,-0.019455336034297943,-0.09993723034858704
1775722342314244000,9.273244140625,0.06610598415136337,-0.02329295128583908,-0.08072545379400253
1775722342324257000,9.283257080078124,0.05131373181939125,-0.021898604929447174,-0.05928489565849304
1775722342334270000,9.29327001953125,0.04151063412427902,-0.008681071922183037,-0.044262804090976715
1775722342344283100,9.303283203125,0.03911368548870087,0.013109048828482628,-0.03358659893274307
1775722342354296300,9.31329638671875,0.04875672608613968,0.029470179229974747,-0.036424461752176285
1775722342364309000,9.32330908203125,0.0622328519821167,0.022184036672115326,-0.05101299285888672
1775722342374322200,9.333322265625,0.06576021015644073,0.02406476065516472,-0.0792936310172081
1775722342384336000,9.3433359375,0.06458629667758942,0.03113749623298645,-0.10524003207683563
1775722342394349000,9.35334912109375,0.0627729520201683,0.03304724767804146,-0.12610723078250885
1775722342404362200,9.3633623046875,0.04883192479610443,0.014124728739261627,-0.1284269243478775
1775722342414375200,9.373375244140625,0.039590224623680115,0.0121265584602952,-0.11321228742599487
1775722342424388000,9.38338818359375,0.03531739488244057,0.026593483984470367,-0.09332535415887833
1775722342434401000,9.393401123046875,0.02293209917843342,0.026836631819605827,-0.07691655308008194
1775722342444414200,9.403414306640625,0.005070986691862345,0.026212085038423538,-0.06699620187282562
1775722342454427000,9.413427001953124,-0.01615733653306961,0.03266172856092453,-0.053777068853378296
1775722342464440000,9.423440185546875,-0.03681229427456856,0.041418373584747314,-0.0346858911216259
1775722342474453200,9.433453369140626,-0.04898586869239807,0.04453374072909355,-0.01013021357357502
1775722342484467000,9.443467041015625,-0.042274679988622665,0.04089304804801941,0.006935548968613148
1775722342494480100,9.453480224609375,-0.02978791482746601,0.03754332289099693,0.007558729033917189
1775722342504493000,9.4634931640625,-0.02184342034161091,0.03443428874015808,-0.0018161514308303595
1775722342514506000,9.473506103515625,-0.02136458456516266,0.031063523143529892,-0.012326582334935665
1775722342524519200,9.483519287109376,-0.021473590284585953,0.024884533137083054,-0.021313052624464035
1775722342534532000,9.493531982421874,-0.021491700783371925,0.02436894364655018,-0.02886471152305603
1775722342544545300,9.503545166015625,-0.021990031003952026,0.022365285083651543,-0.029677465558052063
1775722342554558000,9.513557861328126,-0.022757286205887794,0.020738359540700912,-0.018877282738685608
1775722342564571100,9.523571044921875,-0.028366314247250557,0.03275986760854721,0.003333906177431345
1775722342574585000,9.533585205078126,-0.032856136560440063,0.046210695058107376,0.03399594500660896
1775722342584598000,9.543597900390624,-0.03697889298200607,0.058104295283555984,0.05641806498169899
1775722342594611200,9.553611083984375,-0.04410364851355553,0.0647406354546547,0.060427453368902206
1775722342604624100,9.5636240234375,-0.04736713692545891,0.06296626478433609,0.055164024233818054
1775722342614637000,9.573636962890625,-0.039400022476911545,0.060054365545511246,0.04756362736225128
1775722342624650000,9.58364990234375,-0.028022395446896553,0.05857507884502411,0.04825092852115631
1775722342634663200,9.5936630859375,-0.01663125678896904,0.0619029700756073,0.05761939659714699
1775722342644676000,9.603676025390625,-0.004773629829287529,0.06904108077287674,0.06608462333679199
1775722342654689000,9.61368896484375,0.005693391896784306,0.0720379427075386,0.07217207551002502
1775722342664702200,9.6237021484375,0.010996896773576736,0.06798028200864792,0.07035862654447556
1775722342674716000,9.6337158203125,0.016578614711761475,0.05900862067937851,0.058066803961992264
1775722342684729000,9.64372900390625,0.021483164280653,0.053391046822071075,0.0401974655687809
1775722342694742300,9.6537421875,0.027216948568820953,0.03432707488536835,0.027586601674556732
1775722342704755000,9.6637548828125,0.03184518963098526,0.02164420485496521,0.02440578304231167
1775722342714768100,9.67376806640625,0.036870039999485016,0.014517317526042461,0.026441236957907677
1775722342724781000,9.683781005859375,0.04125482961535454,0.004917558748275042,0.028040053322911263
1775722342734794200,9.693794189453126,0.0439201220870018,-0.0110233249142766,0.024165954440832138
1775722342744807000,9.703806884765624,0.049528349190950394,-0.01731024496257305,0.021326063200831413
1775722342754820000,9.713820068359375,0.053983815014362335,-0.032011162489652634,0.014526745304465294
1775722342764833300,9.723833251953126,0.06068861484527588,-0.04059714451432228,0.004159590695053339
1775722342774847000,9.733846923828125,0.061022840440273285,-0.04060593247413635,-0.008799351751804352
1775722342784860200,9.743860107421876,0.05502055585384369,-0.04117947444319725,-0.025795867666602135
1775722342794873000,9.753873046875,0.04485926777124405,-0.03827742859721184,-0.04501670226454735
1775722342804886000,9.763885986328125,0.036920215934515,-0.04257608950138092,-0.061433061957359314
1775722342814899200,9.773899169921876,0.03355637937784195,-0.040916141122579575,-0.07596486806869507
1775722342824912100,9.783912109375,0.033448606729507446,-0.03821991756558418,-0.08304762095212936
1775722342834925000,9.793925048828125,0.03240198642015457,-0.03845241293311119,-0.08845623582601547
1775722342844938000,9.80393798828125,0.02380416728556156,-0.056055475026369095,-0.08797681331634521
1775722342854951200,9.813951171875,-0.003491902258247137,-0.07457137107849121,-0.0774083212018013
1775722342864964000,9.823964111328126,-0.03450639545917511,-0.07543785125017166,-0.059259817004203796
1775722342874978000,9.83397802734375,-0.054948288947343826,-0.07489882409572601,-0.03461785614490509
1775722342884991200,9.8439912109375,-0.0665479451417923,-0.07643449306488037,-0.018152084201574326
1775722342895004200,9.854004150390624,-0.0728607028722763,-0.09415942430496216,0.005703181028366089
1775722342905017000,9.86401708984375,-0.0759863331913948,-0.09800674021244049,0.03629292547702789
1775722342915030000,9.874030029296875,-0.08746695518493652,-0.07760639488697052,0.06918483227491379
1775722342925043200,9.884043212890624,-0.10673561692237854,-0.052606794983148575,0.10319516062736511
1775722342935056100,9.89405615234375,-0.12834477424621582,-0.0238686241209507,0.11838290095329285
1775722342945069000,9.904069091796876,-0.15664862096309662,0.001980231609195471,0.1131674274802208
1775722342955082200,9.914082275390625,-0.18281738460063934,0.01468430832028389,0.09863641858100891
1775722342965095200,9.92409521484375,-0.19838252663612366,0.034046947956085205,0.08890499919652939
1775722342975109000,9.934109130859374,-0.19865524768829346,0.046255677938461304,0.08667300641536713
1775722342985122300,9.944122314453125,-0.1850905418395996,0.06512925773859024,0.09663412719964981
1775722342995135000,9.954135009765626,-0.16704602539539337,0.08335220813751221,0.11785286664962769
1775722343005148200,9.964148193359375,-0.15462122857570648,0.0932067334651947,0.14414004981517792
1775722343015161000,9.9741611328125,-0.1381429135799408,0.09786726534366608,0.16751381754875183
1775722343025174000,9.984174072265626,-0.11109085381031036,0.09755265712738037,0.1904604732990265
1775722343035187000,9.99418701171875,-0.0733509361743927,0.08907048404216766,0.22183305025100708
1775722343045200100,10.0042001953125,-0.02489837072789669,0.08090098202228546,0.2552015781402588
1775722343055213300,10.01421337890625,0.02570009045302868,0.07930734753608704,0.28380686044692993
1775722343065227000,10.02422705078125,0.07007148861885071,0.07530027627944946,0.3030889928340912
1775722343075240200,10.034240234375,0.10622336715459824,0.06126781553030014,0.31268277764320374
1775722343085253000,10.044253173828125,0.14165236055850983,0.051859691739082336,0.3166256844997406
1775722343095266000,10.05426611328125,0.1787981241941452,0.049511849880218506,0.32126757502555847
1775722343105279200,10.064279296875,0.20400545001029968,0.041815467178821564,0.33475521206855774
1775722343115292200,10.074292236328125,0.22190801799297333,0.02619602531194687,0.35594889521598816
1775722343125305000,10.08430517578125,0.23582838475704193,0.014028778299689293,0.37498489022254944
1775722343135318000,10.094318115234374,0.24432706832885742,-0.0016891983104869723,0.38376933336257935
1775722343145331200,10.104331298828125,0.252175897359848,-0.031911954283714294,0.38894280791282654
1775722343155344100,10.11434423828125,0.2572113871574402,-0.060262903571128845,0.39124804735183716
1775722343165358000,10.124358154296875,0.25385943055152893,-0.08620969951152802,0.3879927098751068
1775722343175371300,10.134371337890625,0.23944346606731415,-0.11308632045984268,0.3749554753303528
1775722343185384000,10.144384033203124,0.2150740623474121,-0.14455728232860565,0.36130663752555847
1775722343195397000,10.154397216796875,0.1883644163608551,-0.1808290034532547,0.3531821370124817
1775722343205410000,10.16441015625,0.16063722968101501,-0.19462890923023224,0.3524981737136841
1775722343215423200,10.17442333984375,0.13951356709003448,-0.19527259469032288,0.3521868586540222
1775722343225436200,10.184436279296875,0.11382359266281128,-0.18930453062057495,0.3476046919822693
1775722343235449000,10.194448974609376,0.07724188268184662,-0.17710351943969727,0.3400828540325165
1775722343245462300,10.204462158203125,0.029768986627459526,-0.15877537429332733,0.3328610956668854
1775722343255475000,10.214474853515625,-0.020064083859324455,-0.14183074235916138,0.32478347420692444
1775722343265489200,10.2244892578125,-0.06143810227513313,-0.12225767970085144,0.3091370761394501
1775722343275502000,10.234502197265625,-0.08693361282348633,-0.10392048209905624,0.2805810570716858
1775722343285515000,10.244514892578126,-0.10074939578771591,-0.08165045827627182,0.23529759049415588
1775722343295528200,10.254528076171875,-0.10169907659292221,-0.017531126737594604,0.1969728320837021
1775722343305541000,10.264541015625,-0.09645505249500275,0.034578412771224976,0.17822684347629547
1775722343315554000,10.274553955078124,-0.08117995411157608,0.05477768927812576,0.15793728828430176
1775722343325567200,10.284567138671875,-0.05886513739824295,0.06065421178936958,0.12308458238840103
1775722343335580400,10.294580322265626,-0.03158584609627724,0.060783106833696365,0.0910925567150116
1775722343345593000,10.304593017578124,-0.008543197996914387,0.05441616103053093,0.07954009622335434
1775722343355606300,10.314606201171875,0.013356774114072323,0.06016086786985397,0.08960870653390884
1775722343365620200,10.3246201171875,0.03644002228975296,0.06628210097551346,0.11321468651294708
1775722343375633200,10.334633056640625,0.060584504157304764,0.06256832182407379,0.14051342010498047
1775722343385646300,10.344646240234376,0.08320373296737671,0.05912875011563301,0.1494302749633789
1775722343395659300,10.3546591796875,0.09506571292877197,0.07296653836965561,0.14113719761371613
1775722343405672200,10.364672119140625,0.10195838660001755,0.08658354729413986,0.1330660581588745
1775722343415685000,10.37468505859375,0.10373365134000778,0.10677989572286606,0.13027825951576233
1775722343425698300,10.3846982421875,0.0985269844532013,0.12273821234703064,0.14131860435009003
1775722343435711200,10.394711181640625,0.07883210480213165,0.12303302437067032,0.15865497291088104
1775722343445724200,10.40472412109375,0.04408584162592888,0.11560609191656113,0.1845688819885254
1775722343455737300,10.4147373046875,0.004503011703491211,0.11433549970388412,0.2173241674900055
1775722343465751300,10.424751220703126,-0.030030880123376846,0.12247533351182938,0.24068422615528107
1775722343475764200,10.43476416015625,-0.052834730595350266,0.12837263941764832,0.24184803664684296
1775722343485777200,10.444777099609375,-0.08014369010925293,0.12938839197158813,0.23191428184509277
1775722343495790300,10.454790283203126,-0.10231930017471313,0.1377837359905243,0.21233364939689636
1775722343505803300,10.46480322265625,-0.11120632290840149,0.14251069724559784,0.19904425740242004
1775722343515816200,10.474816162109375,-0.10425467789173126,0.13575372099876404,0.19316905736923218
1775722343525829400,10.484829345703124,-0.08476193249225616,0.12187021225690842,0.18398888409137726
1775722343535842300,10.49484228515625,-0.055389404296875,0.09203561395406723,0.16950714588165283
1775722343545855200,10.504855224609376,-0.026706697419285774,0.0529341883957386,0.1450660526752472
1775722343555868200,10.5148681640625,-0.010986589826643467,0.013834457844495773,0.11344367265701294
1775722343565882000,10.524882080078125,-0.004421215504407883,-0.029394391924142838,0.08281638473272324
1775722343575895300,10.534895263671874,-0.01691463775932789,-0.06407274305820465,0.05724071338772774
1775722343585908200,10.544908203125,-0.032261922955513,-0.08501285314559937,0.03467364236712456
1775722343595921200,10.554921142578126,-0.033382847905159,-0.10103442519903183,0.019611869007349014
1775722343605934000,10.56493408203125,-0.011672886088490486,-0.11635922640562057,0.018647925928235054
1775722343615947300,10.574947265625,0.034555595368146896,-0.13034534454345703,0.021405363455414772
1775722343625960400,10.58496044921875,0.09279573708772659,-0.14272452890872955,0.018304379656910896
1775722343635973000,10.59497314453125,0.1465580314397812,-0.14001768827438354,-0.0051833707839250565
1775722343645986300,10.604986328125,0.18705874681472778,-0.13052639365196228,-0.04080064967274666
1775722343655999200,10.614999267578124,0.2109675407409668,-0.12356569617986679,-0.07693149149417877
1775722343666013200,10.62501318359375,0.22514283657073975,-0.121190145611763,-0.1003844365477562
1775722343676026400,10.6350263671875,0.23433980345726013,-0.12737560272216797,-0.0977977067232132
1775722343686039300,10.645039306640625,0.23476962745189667,-0.1176484078168869,-0.06784220039844513
1775722343696052200,10.65505224609375,0.22909630835056305,-0.08910251408815384,-0.01850474812090397
1775722343706065200,10.665065185546876,0.22026397287845612,-0.04332447424530983,0.038646113127470016
1775722343716078300,10.675078369140625,0.20634442567825317,0.0035679321736097336,0.0913039967417717
1775722343726091300,10.68509130859375,0.17503631114959717,0.03984710946679115,0.1312897652387619
1775722343736104200,10.695104248046874,0.12447379529476166,0.054291028529405594,0.1590479016304016
1775722343746117400,10.705117431640625,0.0625912994146347,0.07216151058673859,0.17845112085342407
1775722343756131000,10.715131103515626,-0.0037642917595803738,0.1124894917011261,0.1891186684370041
1775722343766144300,10.725144287109375,-0.062027428299188614,0.16574132442474365,0.20131312310695648
1775722343776157200,10.7351572265625,-0.11242402344942093,0.20630338788032532,0.20879501104354858
1775722343786170400,10.74517041015625,-0.16104699671268463,0.2399122267961502,0.21003977954387665
1775722343796183300,10.755183349609375,-0.20528556406497955,0.28023862838745117,0.19998635351657867
1775722343806196200,10.7651962890625,-0.2388494312763214,0.325981467962265,0.17599263787269592
1775722343816209400,10.77520947265625,-0.24879154562950134,0.3619581162929535,0.13830438256263733
1775722343826222000,10.78522216796875,-0.23905043303966522,0.37966370582580566,0.08972054719924927
1775722343836235300,10.7952353515625,-0.218148872256279,0.3692864179611206,0.042098961770534515
1775722343846248200,10.805248291015625,-0.20630031824111938,0.37343478202819824,-0.005043639801442623
1775722343856262100,10.81526220703125,-0.19610413908958435,0.3737136125564575,-0.049197521060705185
1775722343866275300,10.825275390625,-0.18653900921344757,0.35611841082572937,-0.08809791505336761
1775722343876288300,10.835288330078125,-0.1805756688117981,0.3328583836555481,-0.11702676862478256
1775722343886301200,10.84530126953125,-0.1745913326740265,0.28224146366119385,-0.13426801562309265
1775722343896314000,10.855314208984375,-0.15898095071315765,0.22295443713665009,-0.13879938423633575
1775722343906327300,10.865327392578125,-0.14620697498321533,0.178624227643013,-0.12184686958789825
1775722343916340200,10.87534033203125,-0.13783372938632965,0.1556565910577774,-0.08929798007011414
1775722343926353200,10.885353271484375,-0.13762226700782776,0.15747520327568054,-0.0524398535490036
1775722343936366300,10.895366455078126,-0.13779138028621674,0.15812049806118011,-0.02264733798801899
1775722343946379300,10.905379150390624,-0.12337681651115417,0.15343767404556274,-0.015786992385983467
1775722343956393200,10.915393310546875,-0.09493878483772278,0.1388952136039734,-0.026495829224586487
1775722343966406400,10.925406494140624,-0.06367139518260956,0.09990930557250977,-0.03698493912816048
1775722343976419300,10.93541943359375,-0.03088921681046486,0.04723730683326721,-0.04409238323569298
1775722343986432300,10.945432373046875,-0.006754047237336636,-0.009610352106392384,-0.03874051198363304
1775722343996445200,10.955445068359374,0.006048034410923719,-0.05833874270319939,-0.024120822548866272
1775722344006458400,10.965458251953125,0.013952374458312988,-0.07828660309314728,-0.0029240059666335583
1775722344016471000,10.975470947265626,0.026101183146238327,-0.078708715736866,0.010460242629051208
1775722344026484200,10.985484130859374,0.04601374641060829,-0.08974914252758026,0.01274539902806282
1775722344036497400,10.995497314453125,0.07269835472106934,-0.1173325702548027,0.006610540673136711
1775722344046510300,11.00551025390625,0.10170462727546692,-0.1465892642736435,0.0007932130829431117
1775722344056524300,11.015524169921875,0.12425175309181213,-0.1698591709136963,-0.003064109478145838
1775722344066537200,11.025537109375,0.1344514638185501,-0.17483846843242645,-0.006539083551615477
1775722344076550100,11.035550048828124,0.1251857876777649,-0.1428389847278595,-0.007894899696111679
1775722344086563300,11.045563232421875,0.10806558281183243,-0.09376271814107895,-0.013887977227568626
1775722344096576300,11.055576171875,0.09243921935558319,-0.06116535887122154,-0.026443716138601303
1775722344106589400,11.06558935546875,0.07633454352617264,-0.03349274396896362,-0.04524004086852074
1775722344116602000,11.07560205078125,0.05701010674238205,-0.011052682995796204,-0.06126881018280983
1775722344126615300,11.085615234375,0.030132748186588287,0.010470529086887836,-0.06141373887658119
1775722344136628200,11.095628173828125,-0.01113293319940567,0.02970787137746811,-0.03979127109050751
1775722344146641200,11.10564111328125,-0.04495694488286972,0.05782259628176689,0.0026906742714345455
1775722344156655400,11.1156552734375,-0.06354500353336334,0.08156760782003403,0.04815855622291565
1775722344166668300,11.125668212890625,-0.05727299675345421,0.08377057313919067,0.08184594660997391
1775722344176681200,11.13568115234375,-0.04302029311656952,0.08430080860853195,0.09271350502967834
1775722344186694100,11.145694091796875,-0.029816659167408943,0.08607485145330429,0.0849728062748909
1775722344196707300,11.155707275390625,-0.018193557858467102,0.07543152570724487,0.06571681797504425
1775722344206720300,11.16572021484375,-0.0037891496904194355,0.05356169119477272,0.04622844234108925
1775722344216733200,11.175733154296875,0.013336574658751488,0.024831777438521385,0.03548604995012283
1775722344226746400,11.185746337890626,0.030361156910657883,0.0015630172565579414,0.029692547395825386
1775722344236759300,11.19575927734375,0.05105551332235336,-0.016019972041249275,0.03068537451326847
1775722344246772200,11.205772216796875,0.07310709357261658,-0.026609931141138077,0.04033820331096649
1775722344256786400,11.215786376953124,0.08891694992780685,-0.02217976190149784,0.045165982097387314
1775722344266799000,11.225799072265625,0.09840071201324463,-0.014062384143471718,0.039818909019231796
1775722344276812300,11.235812255859376,0.09226558357477188,-0.017906123772263527,0.025609880685806274
1775722344286825200,11.2458251953125,0.07514142245054245,-0.02875198796391487,0.010770254768431187
1775722344296838400,11.25583837890625,0.056637246161699295,-0.027511220425367355,0.0009370645275339484
1775722344306851000,11.26585107421875,0.031191527843475342,-0.015532346442341805,-0.0012893371749669313
1775722344316864000,11.275864013671875,0.006820942275226116,-0.003407773096114397,-0.008052434772253036
1775722344326877000,11.285876953125,-0.00844323169440031,0.007452863734215498,-0.02528867870569229
1775722344336889900,11.295889892578124,-0.015652675181627274,0.007330891210585833,-0.04832316190004349
1775722344346903000,11.305903076171875,-0.02123078890144825,-0.00023867678828537464,-0.07699807733297348
1775722344356917000,11.3159169921875,-0.022772492840886116,-0.017441632226109505,-0.1023833230137825
1775722344366930000,11.325929931640625,-0.023635299876332283,-0.025320516899228096,-0.120390884578228
1775722344376942800,11.33594287109375,-0.025206297636032104,-0.03153473883867264,-0.12584130465984344
1775722344386956000,11.3459560546875,-0.025196002796292305,-0.028555763885378838,-0.12224195897579193
1775722344396969000,11.355968994140625,-0.01788828894495964,-0.023167654871940613,-0.11538085341453552
1775722344406982000,11.36598193359375,0.0044249678030610085,-0.026120441034436226,-0.10887950658798218
1775722344416995000,11.3759951171875,0.038196247071027756,-0.04688830301165581,-0.11161750555038452
1775722344427008000,11.386008056640625,0.08836572617292404,-0.07964715361595154,-0.12333811819553375
1775722344437021000,11.39602099609375,0.15637406706809998,-0.10616637766361237,-0.14509721100330353
1775722344447033900,11.406033935546875,0.24328994750976562,-0.13143762946128845,-0.1611144244670868
1775722344457048000,11.416048095703125,0.3523900806903839,-0.160275399684906,-0.16181856393814087
1775722344467061000,11.42606103515625,0.4686757028102875,-0.1904161274433136,-0.15172521770000458
1775722344477074000,11.436073974609375,0.5476914048194885,-0.22920213639736176,-0.13228653371334076
1775722344487087000,11.446087158203126,0.5764666795730591,-0.2712133526802063,-0.11378107964992523
1775722344497099800,11.456099853515624,0.5687879920005798,-0.2952110767364502,-0.08206363022327423
1775722344507113000,11.466113037109375,0.5385645031929016,-0.28780439496040344,-0.018213747069239616
1775722344517126100,11.476126220703126,0.4944462776184082,-0.2080637514591217,0.03728945925831795
1775722344527139000,11.48613916015625,0.45377451181411743,-0.16596589982509613,0.07366848737001419
1775722344537152000,11.496152099609375,0.41838911175727844,-0.17615647614002228,0.0881667360663414
1775722344547165000,11.5061650390625,0.4154837429523468,-0.25087615847587585,0.1162184625864029
1775722344557179000,11.516178955078125,0.4308869242668152,-0.31759577989578247,0.16803427040576935
1775722344567192000,11.526192138671876,0.4177262783050537,-0.3606336712837219,0.22060652077198029
1775722344577205000,11.536205078125,0.36503535509109497,-0.3804883360862732,0.2711296081542969
1775722344587218000,11.546218017578125,0.28152570128440857,-0.3848627507686615,0.32481828331947327
1775722344597230800,11.55623095703125,0.18870840966701508,-0.3767230808734894,0.3875759243965149
1775722344607244000,11.566244140625,0.10636250674724579,-0.34351882338523865,0.453574538230896
1775722344617257000,11.576257080078125,0.027360104024410248,-0.2839638590812683,0.511034369468689
1775722344627270000,11.586269775390624,-0.05458986759185791,-0.2017500251531601,0.5417699217796326
1775722344637283000,11.596282958984375,-0.13940010964870453,-0.1277564913034439,0.5331506133079529
1775722344647296000,11.6062958984375,-0.21852397918701172,-0.06708849966526031,0.4921427369117737
1775722344657310000,11.61631005859375,-0.29231831431388855,-0.01765676587820053,0.42796772718429565
1775722344667323000,11.626322998046875,-0.3565080761909485,0.044093623757362366,0.3446316421031952
1775722344677336000,11.636336181640624,-0.4133729338645935,0.11854788661003113,0.25410282611846924
1775722344687349000,11.646348876953125,-0.4743885397911072,0.18259774148464203,0.16548950970172882
1775722344697362000,11.65636181640625,-0.5259747505187988,0.1871701180934906,0.09133592247962952
1775722344707375000,11.666375,-0.5629591941833496,0.16230975091457367,0.02420223504304886
1775722344717388000,11.676387939453125,-0.5882936120033264,0.13793489336967468,-0.03531355410814285
1775722344727401000,11.68640087890625,-0.5969220399856567,0.11073942482471466,-0.07725349068641663
1775722344737414000,11.696413818359375,-0.5960906147956848,0.07083860784769058,-0.10376366227865219
1775722344747427000,11.706427001953125,-0.5835968255996704,0.03280601650476456,-0.12050863355398178
1775722344757441000,11.71644091796875,-0.5652844309806824,0.009197094477713108,-0.13712382316589355
1775722344767454000,11.726453857421875,-0.5350382924079895,-0.019969768822193146,-0.1561090350151062
1775722344777467100,11.736467041015626,-0.4994105398654938,-0.03948355093598366,-0.1850019246339798
1775722344787479800,11.746479736328125,-0.4686489403247833,-0.04463635012507439,-0.2201867699623108
1775722344797493000,11.756492919921875,-0.4497138559818268,-0.047446783632040024,-0.2497454732656479
1775722344807506200,11.766506103515624,-0.44034212827682495,-0.05439888685941696,-0.26304617524147034
1775722344817518800,11.776518798828125,-0.43375933170318604,-0.050628386437892914,-0.2541400194168091
1775722344827532000,11.786531982421875,-0.4199153780937195,-0.03191841021180153,-0.23901034891605377
1775722344837545000,11.796544921875,-0.39599141478538513,-0.011921266093850136,-0.22262685000896454
1775722344847558100,11.80655810546875,-0.3622238337993622,0.010048176161944866,-0.2161434143781662
1775722344857572000,11.816572021484374,-0.32451480627059937,0.029617615044116974,-0.22063162922859192
1775722344867585000,11.8265849609375,-0.28317490220069885,0.026265544816851616,-0.24065130949020386
1775722344877598000,11.836597900390625,-0.24890802800655365,0.015964971855282784,-0.2711043059825897
1775722344887611000,11.84661083984375,-0.21557100117206573,0.02937786653637886,-0.3113229274749756
1775722344897624000,11.8566240234375,-0.19111678004264832,0.056900039315223694,-0.3416464924812317
1775722344907637000,11.866636962890626,-0.1714535355567932,0.07966374605894089,-0.3550339937210083
1775722344917650000,11.87664990234375,-0.15179409086704254,0.0973798930644989,-0.3589179515838623
1775722344927663000,11.8866630859375,-0.12949618697166443,0.09733369946479797,-0.3583264946937561
1775722344937676000,11.896676025390626,-0.10909345746040344,0.08300748467445374,-0.35251253843307495
1775722344947689000,11.90668896484375,-0.10099487006664276,0.08053337782621384,-0.33412495255470276
1775722344957703000,11.916702880859376,-0.09963319450616837,0.07903401553630829,-0.294472873210907
1775722344967716000,11.926716064453124,-0.09688525646924973,0.07054948806762695,-0.24455226957798004
1775722344977729000,11.93672900390625,-0.09143190830945969,0.04999574273824692,-0.19015267491340637
1775722344987742000,11.946741943359376,-0.08825251460075378,0.04916976019740105,-0.14454244077205658
1775722344997755100,11.956755126953125,-0.08488228917121887,0.051862750202417374,-0.11575525999069214
1775722345007767800,11.966767822265625,-0.08005989342927933,0.03695536032319069,-0.10146520286798477
1775722345017781000,11.976781005859374,-0.07122538983821869,-0.003109498880803585,-0.09937115758657455
1775722345027794000,11.9867939453125,-0.05849645286798477,-0.03476618975400925,-0.09688971191644669
1775722345037807000,11.99680712890625,-0.04526533558964729,-0.04675601050257683,-0.07978449761867523
1775722345047820000,12.006820068359374,-0.029110347852110863,-0.05283103510737419,-0.06747240573167801
1775722345057834000,12.016833984375,-0.011000585742294788,-0.06075846776366234,-0.07663740962743759
1775722345067847000,12.026846923828124,0.009185459464788437,-0.07758945226669312,-0.1130485013127327
1775722345077859800,12.03685986328125,0.014356519095599651,-0.06434395909309387,-0.17145802080631256
1775722345087873000,12.046873046875,0.005732255056500435,-0.06822109967470169,-0.2358190268278122
1775722345097886200,12.05688623046875,-0.011007576249539852,-0.11570525914430618,-0.28044426441192627
1775722345107899000,12.06689892578125,-0.019815362989902496,-0.14434896409511566,-0.3152526915073395
1775722345117912000,12.076912109375,-0.014203018508851528,-0.150955468416214,-0.3587551712989807
1775722345127925000,12.086925048828125,0.0025694919750094414,-0.17619585990905762,-0.4043119251728058
1775722345137938000,12.09693798828125,0.011278826743364334,-0.21075622737407684,-0.4492724537849426
1775722345147950800,12.106950927734376,0.007336185779422522,-0.2367616891860962,-0.5007169246673584
1775722345157964000,12.116964111328125,-0.010240145027637482,-0.23772655427455902,-0.5672357678413391
1775722345167978000,12.12697802734375,-0.030882390215992928,-0.22042284905910492,-0.6417900919914246
1775722345177991000,12.136990966796875,-0.06606194376945496,-0.16727440059185028,-0.7365317344665527
1775722345188004000,12.147004150390625,-0.08771736919879913,-0.1750381588935852,-0.8272596001625061
1775722345198016800,12.157016845703126,-0.11052734404802322,-0.14430128037929535,-0.8746617436408997
