time,seconds_elapsed,z,y,x
1775341918771441700,0.068441650390625,2.3497519493103027,9.53061294555664,-0.14117653667926788
1775341918788228400,0.085228271484375,2.1918256282806396,9.559326171875,0.05742774158716202
1775341918805015300,0.102015380859375,2.304288148880005,9.559326171875,-0.13160525262355804
1775341918821802000,0.118802001953125,2.337787628173828,9.528220176696777,0.040677983313798904
1775341918838588700,0.135588623046875,2.2540390491485596,9.556933403015137,-0.11246266216039658
1775341918855375400,0.152375244140625,2.2755744457244873,9.533005714416504,0.014356935396790504
1775341918872162000,0.169162109375,2.3234307765960693,9.521040916442871,-0.09810572862625122
1775341918888948700,0.18594873046875,2.2995026111602783,9.540184020996094,0.016749758273363113
1775341918905735400,0.2027353515625,2.2636101245880127,9.559326171875,-0.0933200865983963
1775341918922522000,0.219522216796875,2.313859462738037,9.533005714416504,0.016749758273363113
1775341918939308800,0.236308837890625,2.297109842300415,9.525827407836914,-0.08853443711996078
1775341918956095500,0.253095458984375,2.297109842300415,9.53061294555664,0.007178467698395252
1775341918972882200,0.269882080078125,2.282752752304077,9.547362327575684,-0.08853443711996078
1775341918989668900,0.2866689453125,2.3162522315979004,9.53061294555664,0.007178467698395252
1775341919006455600,0.30345556640625,2.287538528442383,9.547362327575684,-0.08135596662759781
1775341919023242200,0.3202421875,2.2947168350219727,9.542576789855957,-0.009571290574967861
1775341919040029200,0.337029296875,2.2995026111602783,9.542576789855957,-0.08135596662759781
1775341919056815900,0.35381591796875,2.2947168350219727,9.533005714416504,-0.009571290574967861
1775341919073602600,0.3706025390625,2.2707886695861816,9.55214786529541,-0.07417750358581543
1775341919090389200,0.38738916015625,2.2995026111602783,9.53061294555664,-0.004785645287483931
1775341919107176000,0.404176025390625,2.2923240661621094,9.540184020996094,-0.04785645380616188
1775341919123962600,0.420962646484375,2.2995026111602783,9.528220176696777,-0.02871387079358101
1775341919140749300,0.437749267578125,2.2947168350219727,9.547362327575684,-0.0526420995593071
1775341919157536000,0.454535888671875,2.287538528442383,9.542576789855957,-0.040677983313798904
1775341919174322700,0.47132275390625,2.287538528442383,9.54496955871582,-0.04785645380616188
1775341919191109400,0.488109375,2.287538528442383,9.549755096435547,-0.04546362906694412
1775341919207896000,0.50489599609375,2.2923240661621094,9.533005714416504,-0.04307080805301666
1775341919224682800,0.521682861328125,2.2995026111602783,9.535398483276367,-0.035892341285943985
1775341919241469400,0.538469482421875,2.297109842300415,9.540184020996094,-0.038285162299871445
1775341919258256400,0.55525634765625,2.282752752304077,9.54496955871582,-0.040677983313798904
1775341919275043000,0.57204296875,2.297109842300415,9.53779125213623,-0.02871387079358101
1775341919291829800,0.588829833984375,2.3018953800201416,9.547362327575684,-0.040677983313798904
1775341919308616400,0.605616455078125,2.297109842300415,9.535398483276367,-0.05024927482008934
1775341919325403100,0.622403076171875,2.3018953800201416,9.547362327575684,-0.035892341285943985
1775341919342189800,0.63918994140625,2.3090739250183105,9.533005714416504,-0.05024927482008934
1775341919358976500,0.6559765625,2.2851455211639404,9.53779125213623,-0.04307080805301666
1775341919375763200,0.67276318359375,2.280359983444214,9.533005714416504,-0.05024927482008934
1775341919392550000,0.6895498046875,2.2923240661621094,9.533005714416504,-0.031106693670153618
1775341919409336600,0.706336669921875,2.2851455211639404,9.540184020996094,-0.04546362906694412
1775341919426123300,0.723123291015625,2.3018953800201416,9.53779125213623,-0.03349951654672623
1775341919442910000,0.739909912109375,2.2947168350219727,9.542576789855957,-0.04546362906694412
1775341919459696600,0.756696533203125,2.289931297302246,9.54496955871582,-0.03349951654672623
1775341919476483600,0.773483642578125,2.280359983444214,9.535398483276367,-0.0526420995593071
1775341919493270300,0.790270263671875,2.2923240661621094,9.55214786529541,-0.035892341285943985
1775341919510057000,0.807056884765625,2.3018953800201416,9.54496955871582,-0.04785645380616188
1775341919526843600,0.82384375,2.2995026111602783,9.542576789855957,-0.040677983313798904
1775341919543630300,0.84063037109375,2.2923240661621094,9.542576789855957,-0.0526420995593071
1775341919560417000,0.8574169921875,2.2947168350219727,9.53779125213623,-0.02632104977965355
1775341919577203700,0.87420361328125,2.2779672145843506,9.53061294555664,-0.02871387079358101
1775341919593990400,0.890990478515625,2.2851455211639404,9.53779125213623,-0.04546362906694412
1775341919610777000,0.907777099609375,2.289931297302246,9.54496955871582,-0.035892341285943985
1775341919627563800,0.924563720703125,2.2947168350219727,9.53779125213623,-0.04307080805301666
1775341919644350500,0.9413505859375,2.297109842300415,9.547362327575684,-0.04785645380616188
1775341919661137200,0.95813720703125,2.2947168350219727,9.540184020996094,-0.04307080805301666
1775341919677923800,0.974923828125,2.306680917739868,9.523433685302734,-0.031106693670153618
1775341919694710500,0.99171044921875,2.282752752304077,9.54496955871582,-0.040677983313798904
1775341919711497200,1.008497314453125,2.2683959007263184,9.540184020996094,-0.04307080805301666
1775341919728284200,1.0252841796875,2.2923240661621094,9.547362327575684,-0.03349951654672623
1775341919745070800,1.04207080078125,2.287538528442383,9.53061294555664,-0.03349951654672623
1775341919761857500,1.058857421875,2.2851455211639404,9.540184020996094,-0.040677983313798904
1775341919778644200,1.075644287109375,2.2995026111602783,9.533005714416504,-0.04307080805301666
1775341919795431000,1.092430908203125,2.289931297302246,9.542576789855957,-0.031106693670153618
1775341919812217600,1.109217529296875,2.2779672145843506,9.53061294555664,-0.04307080805301666
1775341919829004300,1.12600439453125,2.282752752304077,9.53779125213623,-0.040677983313798904
1775341919845791000,1.142791015625,2.2995026111602783,9.53779125213623,-0.040677983313798904
1775341919862577700,1.15957763671875,2.2947168350219727,9.535398483276367,-0.02871387079358101
1775341919879364400,1.1763642578125,2.3018953800201416,9.533005714416504,-0.04785645380616188
1775341919896151000,1.193151123046875,2.289931297302246,9.53779125213623,-0.02632104977965355
1775341919912937700,1.209937744140625,2.280359983444214,9.53779125213623,-0.03349951654672623
1775341919929724400,1.226724365234375,2.273181438446045,9.53779125213623,-0.038285162299871445
1775341919946511000,1.243510986328125,2.280359983444214,9.547362327575684,-0.04785645380616188
1775341919963297800,1.2602978515625,2.287538528442383,9.540184020996094,-0.05024927482008934
1775341919980084500,1.27708447265625,2.2923240661621094,9.540184020996094,-0.04546362906694412
1775341919996871400,1.293871337890625,2.273181438446045,9.547362327575684,-0.02871387079358101
1775341920013658000,1.310658203125,2.2755744457244873,9.547362327575684,-0.035892341285943985
1775341920030444800,1.32744482421875,2.3018953800201416,9.540184020996094,-0.031106693670153618
1775341920047231500,1.3442314453125,2.3018953800201416,9.540184020996094,-0.03349951654672623
1775341920064018200,1.36101806640625,2.280359983444214,9.54496955871582,-0.02871387079358101
1775341920080804900,1.377804931640625,2.2995026111602783,9.540184020996094,-0.038285162299871445
1775341920097591600,1.394591552734375,2.2851455211639404,9.528220176696777,-0.0526420995593071
1775341920114378200,1.411378173828125,2.2995026111602783,9.53779125213623,-0.04307080805301666
1775341920131165000,1.4281650390625,2.297109842300415,9.540184020996094,-0.05024927482008934
1775341920147951600,1.44495166015625,2.2923240661621094,9.547362327575684,-0.04546362906694412
1775341920164738300,1.46173828125,2.287538528442383,9.540184020996094,-0.040677983313798904
1775341920181525000,1.47852490234375,2.321038007736206,9.528220176696777,-0.038285162299871445
1775341920198311700,1.495311767578125,2.2851455211639404,9.53779125213623,-0.040677983313798904
1775341920215098400,1.512098388671875,2.289931297302246,9.547362327575684,-0.040677983313798904
1775341920231885000,1.528885009765625,2.304288148880005,9.535398483276367,-0.04546362906694412
1775341920248672000,1.545672119140625,2.289931297302246,9.53779125213623,-0.05024927482008934
1775341920265458700,1.562458740234375,2.2755744457244873,9.547362327575684,-0.04546362906694412
1775341920282245400,1.579245361328125,2.287538528442383,9.540184020996094,-0.04307080805301666
1775341920299032000,1.596031982421875,2.2923240661621094,9.549755096435547,-0.038285162299871445
1775341920315818800,1.61281884765625,2.280359983444214,9.540184020996094,-0.03349951654672623
1775341920332605400,1.62960546875,2.3090739250183105,9.53061294555664,-0.040677983313798904
1775341920349392100,1.64639208984375,2.297109842300415,9.547362327575684,-0.04546362906694412
1775341920366178800,1.6631787109375,2.287538528442383,9.54496955871582,-0.038285162299871445
1775341920382965500,1.679965576171875,2.2995026111602783,9.540184020996094,-0.040677983313798904
1775341920399752200,1.696752197265625,2.289931297302246,9.53779125213623,-0.040677983313798904
1775341920416539000,1.713538818359375,2.287538528442383,9.53779125213623,-0.040677983313798904
1775341920433325600,1.73032568359375,2.2923240661621094,9.533005714416504,-0.04785645380616188
1775341920450112300,1.7471123046875,2.273181438446045,9.53779125213623,-0.04307080805301666
1775341920466899000,1.76389892578125,2.2947168350219727,9.53061294555664,-0.040677983313798904
1775341920483685600,1.780685546875,2.3018953800201416,9.533005714416504,-0.04307080805301666
1775341920500472600,1.79747265625,2.289931297302246,9.54496955871582,-0.03349951654672623
1775341920517259300,1.81425927734375,2.2851455211639404,9.549755096435547,-0.040677983313798904
1775341920534046000,1.8310458984375,2.2947168350219727,9.533005714416504,-0.03349951654672623
1775341920550832600,1.84783251953125,2.2947168350219727,9.540184020996094,-0.04546362906694412
1775341920567619300,1.864619384765625,2.2779672145843506,9.549755096435547,-0.04546362906694412
1775341920584406000,1.881406005859375,2.2779672145843506,9.53061294555664,-0.0526420995593071
1775341920601192700,1.898192626953125,2.2995026111602783,9.535398483276367,-0.04307080805301666
1775341920617979400,1.9149794921875,2.2851455211639404,9.547362327575684,-0.04785645380616188
1775341920634766000,1.93176611328125,2.306680917739868,9.53779125213623,-0.04785645380616188
1775341920651552800,1.948552734375,2.3162522315979004,9.533005714416504,-0.04307080805301666
1775341920668339500,1.96533935546875,2.280359983444214,9.54496955871582,-0.035892341285943985
1775341920685126100,1.982126220703125,2.273181438446045,9.542576789855957,-0.04307080805301666
1775341920701912800,1.998912841796875,2.313859462738037,9.53061294555664,-0.03349951654672623
1775341920718699500,2.015699462890625,2.304288148880005,9.54496955871582,-0.038285162299871445
1775341920735486200,2.032486328125,2.287538528442383,9.540184020996094,-0.03349951654672623
1775341920752273000,2.04927294921875,2.289931297302246,9.535398483276367,-0.05024927482008934
1775341920769059600,2.0660595703125,2.297109842300415,9.535398483276367,-0.031106693670153618
1775341920785846300,2.08284619140625,2.304288148880005,9.533005714416504,-0.0526420995593071
1775341920802633200,2.09963330078125,2.306680917739868,9.533005714416504,-0.03349951654672623
1775341920819420000,2.116419921875,2.2947168350219727,9.533005714416504,-0.03349951654672623
1775341920836206600,2.13320654296875,2.280359983444214,9.540184020996094,-0.02153540402650833
1775341920852993300,2.1499931640625,2.2995026111602783,9.542576789855957,-0.04307080805301666
1775341920869780000,2.166780029296875,2.2995026111602783,9.542576789855957,-0.02871387079358101
1775341920886566700,2.183566650390625,2.289931297302246,9.53061294555664,-0.0526420995593071
1775341920903353300,2.200353271484375,2.289931297302246,9.53779125213623,-0.038285162299871445
1775341920920140000,2.21714013671875,2.2612173557281494,9.53779125213623,-0.05024927482008934
1775341920936926700,2.2339267578125,2.2947168350219727,9.53061294555664,-0.019142581149935722
1775341920953713400,2.25071337890625,2.304288148880005,9.540184020996094,-0.05503492057323456
1775341920970500000,2.2675,2.287538528442383,9.554540634155273,-0.02153540402650833
1775341920987286800,2.284286865234375,2.287538528442383,9.53779125213623,-0.04307080805301666
1775341921004073500,2.301073486328125,2.297109842300415,9.535398483276367,-0.02871387079358101
1775341921020860200,2.317860107421875,2.273181438446045,9.53779125213623,-0.0526420995593071
1775341921037646800,2.334646728515625,2.2851455211639404,9.53779125213623,-0.038285162299871445
1775341921054433800,2.351433837890625,2.311466693878174,9.528220176696777,-0.04546362906694412
1775341921071220200,2.36822021484375,2.289931297302246,9.535398483276367,-0.040677983313798904
1775341921088007200,2.385007080078125,2.282752752304077,9.549755096435547,-0.040677983313798904
1775341921104793600,2.401793701171875,2.304288148880005,9.535398483276367,-0.040677983313798904
1775341921121580500,2.41858056640625,2.287538528442383,9.540184020996094,-0.05024927482008934
1775341921138367200,2.4353671875,2.2923240661621094,9.540184020996094,-0.03349951654672623
1775341921155154000,2.45215380859375,2.2995026111602783,9.54496955871582,-0.03349951654672623
1775341921171940600,2.468940673828125,2.289931297302246,9.53779125213623,-0.031106693670153618
1775341921188727300,2.485727294921875,2.2851455211639404,9.540184020996094,-0.040677983313798904
1775341921205514000,2.502513916015625,2.2995026111602783,9.53779125213623,-0.038285162299871445
1775341921222300700,2.51930078125,2.297109842300415,9.525827407836914,-0.04546362906694412
1775341921239087400,2.53608740234375,2.2851455211639404,9.53061294555664,-0.038285162299871445
1775341921255874000,2.5528740234375,2.2779672145843506,9.54496955871582,-0.04785645380616188
1775341921272660700,2.56966064453125,2.2995026111602783,9.547362327575684,-0.035892341285943985
1775341921289447400,2.586447509765625,2.297109842300415,9.540184020996094,-0.05024927482008934
1775341921306234000,2.603234130859375,2.289931297302246,9.540184020996094,-0.03349951654672623
1775341921323020800,2.620020751953125,2.2779672145843506,9.542576789855957,-0.04546362906694412
1775341921339807500,2.636807373046875,2.2995026111602783,9.54496955871582,-0.035892341285943985
1775341921356594200,2.65359423828125,2.2995026111602783,9.525827407836914,-0.04546362906694412
1775341921373380900,2.670380859375,2.2636101245880127,9.554540634155273,-0.031106693670153618
1775341921390167600,2.68716748046875,2.2947168350219727,9.542576789855957,-0.0526420995593071
1775341921406954500,2.70395458984375,2.3162522315979004,9.535398483276367,-0.02632104977965355
1775341921423741200,2.7207412109375,2.266003131866455,9.53779125213623,-0.04546362906694412
1775341921440528000,2.73752783203125,2.2468605041503906,9.561718940734863,-0.035892341285943985
1775341921457314600,2.754314453125,2.313859462738037,9.521040916442871,-0.04546362906694412
1775341921474101200,2.771101318359375,2.3018953800201416,9.540184020996094,-0.02632104977965355
1775341921490888000,2.787887939453125,2.2612173557281494,9.55214786529541,-0.04785645380616188
1775341921507674600,2.804674560546875,2.306680917739868,9.535398483276367,-0.040677983313798904
1775341921524461300,2.82146142578125,2.3018953800201416,9.521040916442871,-0.04785645380616188
1775341921541248000,2.838248046875,2.2612173557281494,9.549755096435547,-0.040677983313798904
1775341921558034700,2.85503466796875,2.282752752304077,9.542576789855957,-0.038285162299871445
1775341921574821400,2.8718212890625,2.3018953800201416,9.53061294555664,-0.04785645380616188
1775341921591608000,2.888608154296875,2.2923240661621094,9.53779125213623,-0.031106693670153618
1775341921608394800,2.905394775390625,2.280359983444214,9.54496955871582,-0.040677983313798904
1775341921625181400,2.922181396484375,2.311466693878174,9.53061294555664,-0.04307080805301666
1775341921641968000,2.938968017578125,2.2851455211639404,9.53779125213623,-0.04307080805301666
1775341921658754800,2.9557548828125,2.2851455211639404,9.547362327575684,-0.035892341285943985
1775341921675541500,2.97254150390625,2.2995026111602783,9.53779125213623,-0.062213387340307236
1775341921692328200,2.989328125,2.297109842300415,9.535398483276367,-0.04546362906694412
1775341921709115000,3.006114990234375,2.2947168350219727,9.528220176696777,-0.04546362906694412
1775341921725901600,3.022901611328125,2.280359983444214,9.53779125213623,-0.031106693670153618
1775341921742688300,3.039688232421875,2.2923240661621094,9.53779125213623,-0.04785645380616188
1775341921759475200,3.05647509765625,2.2995026111602783,9.542576789855957,-0.03349951654672623
1775341921776261600,3.07326171875,2.282752752304077,9.535398483276367,-0.0526420995593071
1775341921793048600,3.090048583984375,2.282752752304077,9.55214786529541,-0.02632104977965355
1775341921809835300,3.106835205078125,2.3162522315979004,9.473184585571289,-0.009571290574967861
1775341921826622000,3.1236220703125,2.297109842300415,9.561718940734863,-0.11246266216039658
1775341921843408600,3.14040869140625,2.234896421432495,9.540184020996094,-0.019142581149935722
1775341921860195300,3.1571953125,2.146361827850342,9.611968994140625,-0.038285162299871445
1775341921876982000,3.17398193359375,2.4119651317596436,9.477970123291016,-0.04785645380616188
1775341921893768700,3.190768798828125,2.304288148880005,9.528220176696777,-0.040677983313798904
1775341921910555400,3.207555419921875,2.2229323387145996,9.56889820098877,-0.059820566326379776
1775341921927342000,3.224342041015625,2.256431818008423,9.561718940734863,-0.009571290574967861
1775341921944128800,3.241128662109375,2.337787628173828,9.540184020996094,-0.07896314561367035
1775341921960915500,3.25791552734375,2.321038007736206,9.521040916442871,0.0023928226437419653
1775341921977702100,3.2747021484375,2.2444677352905273,9.53779125213623,-0.06939185410737991
1775341921994488800,3.29148876953125,2.3162522315979004,9.511469841003418,0
1775341922011275500,3.308275634765625,2.2851455211639404,9.53779125213623,-0.09092725813388824
1775341922028062200,3.325062255859375,2.3258235454559326,9.53061294555664,-0.009571290574967861
1775341922044849000,3.341848876953125,2.282752752304077,9.54496955871582,-0.059820566326379776
1775341922061635600,3.358635498046875,2.3090739250183105,9.521040916442871,-0.02153540402650833
1775341922078422300,3.37542236328125,2.282752752304077,9.542576789855957,-0.05503492057323456
1775341922095209000,3.392208984375,2.287538528442383,9.53061294555664,-0.035892341285943985
1775341922111995600,3.40899560546875,2.2947168350219727,9.547362327575684,-0.031106693670153618
1775341922128782600,3.425782470703125,2.2612173557281494,9.55214786529541,-0.05024927482008934
1775341922145569000,3.442569091796875,2.3018953800201416,9.547362327575684,-0.019142581149935722
1775341922162356000,3.45935595703125,2.297109842300415,9.535398483276367,-0.064606212079525
1775341922179142400,3.476142333984375,2.3162522315979004,9.547362327575684,-0.019142581149935722
1775341922195929300,3.492929443359375,2.2707886695861816,9.554540634155273,-0.04785645380616188
1775341922212716000,3.509716064453125,2.3018953800201416,9.533005714416504,-0.02632104977965355
1775341922229502700,3.526502685546875,2.2779672145843506,9.542576789855957,-0.05742774158716202
1775341922246289400,3.543289306640625,2.3186452388763428,9.542576789855957,-0.04307080805301666
1775341922263076000,3.560076171875,2.280359983444214,9.547362327575684,-0.031106693670153618
1775341922279862800,3.57686279296875,2.2779672145843506,9.540184020996094,-0.04546362906694412
1775341922296649500,3.5936494140625,2.304288148880005,9.528220176696777,-0.04546362906694412
1775341922313436200,3.610436279296875,2.282752752304077,9.53061294555664,-0.04785645380616188
1775341922330222800,3.627222900390625,2.2779672145843506,9.53061294555664,-0.035892341285943985
1775341922347009500,3.644009521484375,2.2779672145843506,9.554540634155273,-0.04785645380616188
1775341922363796200,3.660796142578125,2.3090739250183105,9.53779125213623,-0.02871387079358101
1775341922380583000,3.6775830078125,2.2923240661621094,9.540184020996094,-0.035892341285943985
1775341922397369600,3.69436962890625,2.306680917739868,9.523433685302734,-0.031106693670153618
1775341922414156300,3.71115625,2.2707886695861816,9.554540634155273,-0.04307080805301666
1775341922430943000,3.72794287109375,2.2755744457244873,9.54496955871582,-0.04546362906694412
1775341922447729700,3.744729736328125,2.313859462738037,9.535398483276367,-0.0526420995593071
1775341922464516400,3.761516357421875,2.287538528442383,9.54496955871582,-0.059820566326379776
1775341922481303000,3.778302978515625,2.2947168350219727,9.53779125213623,-0.038285162299871445
1775341922498089700,3.79508984375,2.289931297302246,9.53061294555664,-0.03349951654672623
1775341922514876400,3.81187646484375,2.304288148880005,9.53061294555664,-0.040677983313798904
1775341922531663000,3.8286630859375,2.280359983444214,9.54496955871582,-0.0526420995593071
1775341922548449800,3.84544970703125,2.282752752304077,9.540184020996094,-0.03349951654672623
1775341922565236700,3.86223681640625,2.289931297302246,9.54496955871582,-0.02632104977965355
1775341922582023400,3.8790234375,2.311466693878174,9.518648147583008,-0.035892341285943985
1775341922598810000,3.89581005859375,2.297109842300415,9.53779125213623,-0.04307080805301666
1775341922615596800,3.9125966796875,2.287538528442383,9.53061294555664,-0.05024927482008934
1775341922632383500,3.929383544921875,2.280359983444214,9.533005714416504,-0.038285162299871445
1775341922649170200,3.946170166015625,2.280359983444214,9.540184020996094,-0.06699903309345245
1775341922665956900,3.962956787109375,2.3162522315979004,9.542576789855957,-0.014356935396790504
1775341922682743600,3.97974365234375,2.2851455211639404,9.542576789855957,-0.05024927482008934
1775341922699530200,3.9965302734375,2.3090739250183105,9.516255378723145,-0.02871387079358101
1775341922716317000,4.01331689453125,2.287538528442383,9.561718940734863,-0.031106693670153618
1775341922733103600,4.030103515625,2.287538528442383,9.547362327575684,-0.040677983313798904
1775341922749890300,4.046890380859375,2.289931297302246,9.54496955871582,-0.038285162299871445
1775341922766677000,4.063677001953125,2.2995026111602783,9.535398483276367,-0.0526420995593071
1775341922783463700,4.080463623046875,2.2995026111602783,9.540184020996094,-0.05742774158716202
1775341922800250400,4.09725048828125,2.304288148880005,9.53779125213623,-0.04307080805301666
1775341922817037000,4.114037109375,2.321038007736206,9.525827407836914,-0.016749758273363113
1775341922833823700,4.13082373046875,2.266003131866455,9.549755096435547,-0.07178468257188797
1775341922850610400,4.1476103515625,2.282752752304077,9.54496955871582,0.004785645287483931
1775341922867397000,4.164397216796875,2.297109842300415,9.540184020996094,-0.06939185410737991
1775341922884183800,4.181183837890625,2.297109842300415,9.535398483276367,-0.02871387079358101
1775341922900970500,4.197970458984375,2.3162522315979004,9.535398483276367,-0.07178468257188797
1775341922917757200,4.214757080078125,2.282752752304077,9.549755096435547,-0.02153540402650833
1775341922934544000,4.2315439453125,2.3186452388763428,9.53061294555664,-0.059820566326379776
1775341922951330600,4.24833056640625,2.2947168350219727,9.53061294555664,-0.019142581149935722
1775341922968117200,4.2651171875,2.2947168350219727,9.53779125213623,-0.04785645380616188
1775341922984904000,4.281904052734375,2.287538528442383,9.53061294555664,-0.019142581149935722
1775341923001691000,4.29869091796875,2.304288148880005,9.55214786529541,-0.07178468257188797
1775341923018477600,4.3154775390625,2.321038007736206,9.523433685302734,0.019142581149935722
1775341923035264300,4.33226416015625,2.2396819591522217,9.57607650756836,-0.12681959569454193
1775341923052051000,4.349051025390625,2.344966173171997,9.521040916442871,-0.014356935396790504
1775341923068837600,4.365837646484375,2.2923240661621094,9.549755096435547,-0.05024927482008934
1775341923085624300,4.382624267578125,2.366501569747925,9.511469841003418,-0.04785645380616188
1775341923102411000,4.399410888671875,2.2612173557281494,9.542576789855957,-0.04307080805301666
1775341923119197700,4.41619775390625,2.280359983444214,9.533005714416504,-0.004785645287483931
1775341923135984400,4.432984375,2.337787628173828,9.540184020996094,-0.038285162299871445
1775341923152771000,4.44977099609375,2.2229323387145996,9.588040351867676,-0.04785645380616188
1775341923169557800,4.466557861328125,2.297109842300415,9.535398483276367,-0.02632104977965355
1775341923186344400,4.483344482421875,2.282752752304077,9.535398483276367,-0.02632104977965355
1775341923203131100,4.500131103515625,2.3330020904541016,9.511469841003418,-0.0526420995593071
1775341923219917800,4.516917724609375,2.3090739250183105,9.535398483276367,-0.02153540402650833
1775341923236704500,4.53370458984375,2.2301106452941895,9.540184020996094,-0.0526420995593071
1775341923253491200,4.5504912109375,2.289931297302246,9.56650447845459,-0.019142581149935722
1775341923270278000,4.56727783203125,2.335394859313965,9.511469841003418,-0.09571290761232376
1775341923287064600,4.584064697265625,2.0315065383911133,9.611968994140625,0.05742774158716202
1775341923303851300,4.600851318359375,2.3736801147460938,9.554540634155273,-0.12203395366668701
1775341923320638000,4.617637939453125,2.4335005283355713,9.432506561279297,0.08853443711996078
1775341923337424600,4.634424560546875,2.4885356426239014,9.509077072143555,-0.25363919138908386
1775341923354211300,4.65121142578125,2.337787628173828,9.559326171875,0.17946170270442963
1775341923370998000,4.667998046875,2.1439690589904785,9.619147300720215,-0.1579262912273407
1775341923387784700,4.68478466796875,2.4430718421936035,9.473184585571289,0.059820566326379776
1775341923404571400,4.7015712890625,2.462214469909668,9.456435203552246,-0.15314064919948578
1775341923421358000,4.718358154296875,2.251646041870117,9.547362327575684,0.15074782073497772
1775341923438144800,4.735144775390625,2.234896421432495,9.559326171875,-0.2967100143432617
1775341923454931700,4.751931640625,2.3497519493103027,9.528220176696777,0.17946170270442963
1775341923471718100,4.76871826171875,2.6368906497955322,9.470791816711426,-0.23688943684101105
1775341923488505000,4.785505126953125,2.282752752304077,9.518648147583008,0.11724831163883209
1775341923505291500,4.80229150390625,2.242074728012085,9.590433120727539,-0.21774685382843018
1775341923522078500,4.819078369140625,2.493321180343628,9.42054271697998,0.07896314561367035
1775341923538865200,4.835865234375,2.187039852142334,9.619147300720215,-0.05503492057323456
1775341923555651800,4.85265185546875,2.4765713214874268,9.506684303283691,-0.04307080805301666
1775341923572438500,4.8694384765625,2.5459632873535156,9.477970123291016,-0.038285162299871445
1775341923589225200,4.88622509765625,2.359323024749756,9.511469841003418,-0.11006984114646912
1775341923606012000,4.903011962890625,2.234896421432495,9.53061294555664,0.014356935396790504
1775341923622798600,4.919798583984375,2.352144718170166,9.554540634155273,-0.16271193325519562
1775341923639585300,4.936585205078125,2.251646041870117,9.533005714416504,0.14117653667926788
1775341923656372000,4.9533720703125,2.4981069564819336,9.547362327575684,-0.16031911969184875
1775341923673158700,4.97015869140625,2.7876384258270264,9.401400566101074,0.06699903309345245
1775341923689945300,4.9869453125,2.3569302558898926,9.487542152404785,-0.17706887423992157
1775341923706732000,5.00373193359375,1.9334007501602173,9.707681655883789,0.16271193325519562
1775341923723518700,5.020518798828125,2.447857618331909,9.511469841003418,-0.18903298676013947
1775341923740305400,5.037305419921875,2.5770699977874756,9.437292098999023,0.02871387079358101
1775341923757092000,5.054092041015625,1.9525432586669922,9.805787086486816,-0.13878370821475983
1775341923773878800,5.070878662109375,2.3330020904541016,9.619147300720215,-0.02632104977965355
1775341923790665500,5.08766552734375,1.4620146751403809,10.102497100830078,0.040677983313798904
1775341923807452200,5.1044521484375,2.139183521270752,9.851250648498535,0.04307080805301666
1775341923824238800,5.12123876953125,3.1657042503356934,9.549755096435547,-0.004785645287483931
1775341923841025500,5.138025634765625,2.9072794914245605,9.841679573059082,0.009571290574967861
1775341923857812200,5.154812255859375,1.7539390325546265,10.286744117736816,0.16031911969184875
1775341923874599000,5.171598876953125,2.2133610248565674,10.250852584838867,-0.07657032459974289
1775341923891385600,5.188385498046875,2.6560330390930176,9.994820594787598,0.20578274130821228
1775341923908172300,5.20517236328125,2.062613010406494,10.540383338928223,-0.5312066078186035
1775341923924959000,5.221958984375,1.7419748306274414,10.131211280822754,0.5048855543136597
1775341923941745700,5.23874560546875,1.8951154947280884,10.621739387512207,-0.7154539823532104
1775341923958532400,5.255532470703125,3.0652058124542236,9.729216575622559,0.3517449200153351
1775341923975319000,5.272319091796875,2.4119651317596436,9.863214492797852,-0.8039883971214294
1775341923992105700,5.289105712890625,-1.3256237506866455,11.552547454833984,0.4498506486415863
1775341924008892400,5.305892333984375,-1.8616160154342651,11.387442588806152,-0.3732803463935852
1775341924025679400,5.322679443359375,-6.10169792175293,12.497713088989258,0.44745782017707825
1775341924042465800,5.3394658203125,-0.038285162299871445,9.588040351867676,-0.14356936514377594
1775341924059252700,5.356252685546875,4.7473602294921875,7.448856830596924,-0.15314064919948578
1775341924076039200,5.3730390625,4.323830604553223,7.489534854888916,-0.15553347766399384
1775341924092826000,5.389826171875,5.213960647583008,7.252645492553711,-0.19621145725250244
1775341924109612800,5.40661279296875,7.929814338684082,5.891129493713379,-0.31824541091918945
1775341924126399500,5.4233994140625,9.286544799804688,5.3216376304626465,-0.641276478767395
1775341924143186200,5.440186279296875,7.534998416900635,6.297909259796143,0.019142581149935722
1775341924159972900,5.456972900390625,5.077569484710693,7.460821151733398,-0.6221339106559753
1775341924176759600,5.473759521484375,6.348158359527588,6.876972198486328,0.26560330390930176
1775341924193546200,5.490546142578125,7.652246952056885,6.214160442352295,-0.5934200286865234
1775341924210333000,5.5073330078125,6.963113784790039,6.56829833984375,0.17946170270442963
1775341924227119600,5.52411962890625,3.4576287269592285,8.226524353027344,-0.2273181527853012
1775341924243906300,5.54090625,1.0432707071304321,8.920442581176758,0.15553347766399384
1775341924260693000,5.55769287109375,4.019941806793213,7.192824840545654,-0.16031911969184875
1775341924277479700,5.574479736328125,25.607988357543945,-0.4546363055706024,-2.0721843242645264
1775341924294266400,5.591266357421875,-5.536991596221924,12.21057415008545,3.9290146827697754
1775341924311053000,5.608052978515625,13.502697944641113,2.9958138465881348,-5.383851051330566
1775341924327839700,5.62483984375,9.781859397888184,4.371686935424805,2.9455647468566895
1775341924344626400,5.64162646484375,1.9214365482330322,9.236295700073242,-1.911865234375
1775341924361413000,5.6584130859375,6.719046115875244,6.400800704956055,-0.07417750358581543
1775341924378199800,5.67519970703125,9.731609344482422,5.106283664703369,0.24646073579788208
1775341924394986500,5.691986572265625,5.319244861602783,7.539783954620361,-1.4739787578582764
1775341924411773200,5.708773193359375,6.656832695007324,6.099305152893066,1.2035897970199585
1775341924428560000,5.725559814453125,3.7495529651641846,8.34138011932373,-1.2969099283218384
1775341924445346600,5.7423466796875,8.556734085083008,5.8719868659973145,0.5048855543136597
1775341924462133200,5.75913330078125,6.185446739196777,7.2335028648376465,-0.5216353535652161
1775341924478920000,5.775919921875,6.448657035827637,6.790830612182617,-0.27038896083831787
1775341924495706600,5.79270654296875,6.508477687835693,6.685546398162842,0.016749758273363113
1775341924512493300,5.809493408203125,6.0370917320251465,7.365108013153076,-0.6460621356964111
1775341924529280000,5.826280029296875,6.9104719161987305,6.666403770446777,0.2392822653055191
1775341924546066700,5.843066650390625,6.111268997192383,7.140182971954346,-0.6197410821914673
1775341924562853600,5.859853515625,8.791230201721191,5.764309883117676,0.12681959569454193
1775341924579640300,5.876640380859375,5.125426292419434,7.41535758972168,-0.19621145725250244
1775341924596427000,5.893427001953125,6.393621921539307,6.865008354187012,-0.23688943684101105
1775341924613213700,5.910213623046875,7.592426300048828,6.070590972900391,-0.2273181527853012
1775341924630000400,5.92700048828125,5.635097503662109,7.063612461090088,-0.349352091550827
1775341924646787000,5.943787109375,6.963113784790039,6.1088762283325195,-0.28235307335853577
1775341924663573800,5.96057373046875,6.355337142944336,6.922435760498047,-0.3445664644241333
1775341924680360400,5.9773603515625,6.50608491897583,6.463014125823975,-0.23688943684101105
1775341924697147100,5.994147216796875,6.561119556427002,6.649653911590576,-0.22492532432079315
1775341924713933800,6.010933837890625,6.8004021644592285,6.613761901855469,-0.380458801984787
1775341924730720500,6.027720458984375,6.9583282470703125,6.455835342407227,0.04307080805301666
1775341924747507200,6.044507080078125,6.1399827003479,6.991827964782715,-0.30628129839897156
1775341924764294000,6.0612939453125,6.881757736206055,6.50608491897583,0.1746760457754135
1775341924781080600,6.07808056640625,6.436692714691162,6.900900363922119,-0.5240281820297241
1775341924797867500,6.094867431640625,6.9822564125061035,7.018148899078369,-0.1339980661869049
1775341924814654200,6.111654296875,6.625725746154785,6.530013084411621,-0.37088751792907715
1775341924831441000,6.12844091796875,6.92482852935791,7.11146879196167,-0.2799602448940277
1775341924848227600,6.1452275390625,6.32662296295166,6.742974281311035,-0.2225325107574463
1775341924865014300,6.16201416015625,6.759724140167236,6.951149940490723,-0.34217363595962524
1775341924881801000,6.178801025390625,6.051448345184326,6.9104719161987305,-0.12921242415905
1775341924898587600,6.195587646484375,6.38883638381958,7.192824840545654,-0.009571290574967861
1775341924915374300,6.212374267578125,7.154539585113525,6.7310099601745605,-0.26560330390930176
1775341924932161000,6.2291611328125,6.175875186920166,6.865008354187012,0.04785645380616188
1775341924948947700,6.24594775390625,6.379265308380127,6.936792850494385,-0.49292147159576416
1775341924965734400,6.262734375,7.652246952056885,7.128218650817871,0.10289137065410614
1775341924982521000,6.27952099609375,6.1710896492004395,7.240681171417236,-0.34695929288864136
1775341924999307800,6.296307861328125,7.027719974517822,7.04207706451416,-0.08135596662759781
1775341925016094700,6.3130947265625,7.379465103149414,7.018148899078369,-0.41156548261642456
1775341925032881400,6.32988134765625,6.836294174194336,7.348358154296875,-0.24406790733337402
1775341925049668000,6.346668212890625,7.020541667938232,7.113861560821533,-0.14356936514377594
1775341925066454800,6.363454833984375,6.951149940490723,7.027719974517822,-0.4307080805301666
1775341925083241500,6.380241455078125,6.936792850494385,7.1234331130981445,-0.18424734473228455
1775341925100028200,6.397028076171875,6.932007312774658,6.994220733642578,-0.41874396800994873
1775341925116814800,6.41381494140625,6.965506553649902,6.8410797119140625,-0.035892341285943985
1775341925133601500,6.4306015625,6.826723098754883,7.324429988861084,-0.4570291340351105
1775341925150388200,6.44738818359375,6.238088607788086,7.04925537109375,0.20338992774486542
1775341925167175000,6.4641748046875,7.326822757720947,7.240681171417236,-0.4259224236011505
1775341925183961600,6.480961669921875,7.5708909034729,7.101897716522217,0.11964113265275955
1775341925200748300,6.497748291015625,6.613761901855469,7.247859954833984,-0.5551348328590393
1775341925217535200,6.51453515625,6.91765022277832,7.063612461090088,-0.05742774158716202
1775341925234322000,6.531322021484375,6.671189308166504,7.410571575164795,-0.5623133182525635
1775341925251108600,6.548108642578125,6.527620315551758,7.6666035652160645,-0.059820566326379776
1775341925267895300,6.564895263671875,6.553941249847412,7.3292155265808105,-0.6245267391204834
1775341925284682000,6.581681884765625,8.123632431030273,6.92482852935791,-0.08135596662759781
1775341925301468700,6.59846875,6.491727828979492,7.2335028648376465,-0.6508477330207825
1775341925318255400,6.61525537109375,6.7932233810424805,7.4847493171691895,0.05024927482008934
1775341925335042000,6.6320419921875,7.1856465339660645,7.121040344238281,-0.43549370765686035
1775341925351828700,6.648828857421875,7.731209754943848,7.396214962005615,-0.08853443711996078
1775341925368615400,6.665615478515625,6.563512325286865,7.355536937713623,-0.5479564070701599
1775341925385402000,6.682402099609375,7.089933395385742,7.2335028648376465,0.06699903309345245
1775341925402189000,6.69918896484375,6.577869415283203,7.513463020324707,-0.37088751792907715
1775341925418975700,6.715975830078125,6.31944465637207,7.0995049476623535,0.2225325107574463
1775341925435762400,6.732762451171875,7.343572616577148,7.087540626525879,-0.397208571434021
1775341925452549000,6.749549072265625,6.695117950439453,7.3746795654296875,0.07896314561367035
1775341925469335800,6.766335693359375,6.642475605010986,7.36032247543335,-0.22971096634864807
1775341925486122500,6.78312255859375,6.348158359527588,7.544569969177246,-0.2225325107574463
1775341925502909200,6.7999091796875,8.563912391662598,6.97268533706665,-0.15074782073497772
1775341925519696000,6.81669580078125,6.63051176071167,7.728816986083984,-0.39481574296951294
1775341925536482600,6.833482666015625,6.960721015930176,7.475177764892578,0.16031911969184875
1775341925553269200,6.850269287109375,7.668996810913086,7.245467185974121,-0.8638089895248413
1775341925570056000,6.867055908203125,6.869793891906738,7.451249599456787,-0.22013968229293823
1775341925586842600,6.883842529296875,6.98704195022583,7.539783954620361,-0.6675975322723389
1775341925603629600,6.900629638671875,7.204789161682129,7.489534854888916,-0.019142581149935722
1775341925620416000,6.917416015625,6.750152587890625,7.183253765106201,-0.45942193269729614
1775341925637203000,6.934202880859375,7.424928665161133,7.085147857666016,0.10767702013254166
1775341925653989600,6.95098974609375,6.912864685058594,7.106683254241943,-0.42352959513664246
1775341925670776300,6.9677763671875,6.771687984466553,6.98704195022583,-0.016749758273363113
1775341925687563000,6.98456298828125,7.022934436798096,6.951149940490723,-0.3397808074951172
1775341925704349700,7.001349609375,5.946164131164551,7.338787078857422,-0.038285162299871445
1775341925721136400,7.018136474609375,6.745367050170898,7.178467750549316,-0.15074782073497772
1775341925737923000,7.034923095703125,6.489335060119629,7.575676441192627,-0.09092725813388824
1775341925754709800,7.051709716796875,6.833901405334473,6.831508636474609,-0.31345975399017334
1775341925771496400,7.068496337890625,5.816951751708984,7.731209754943848,-0.21774685382843018
1775341925788283100,7.085283203125,8.097311973571777,6.580262184143066,-0.41156548261642456
1775341925805069800,7.10206982421875,6.831508636474609,7.396214962005615,-0.48095735907554626
1775341925821856500,7.1188564453125,6.3361945152282715,7.456035137176514,-0.1866401731967926
1775341925838643500,7.1356435546875,7.410571575164795,7.051648139953613,-0.3924229145050049
1775341925855430100,7.15243017578125,6.39601469039917,7.661818027496338,-0.10289137065410614
1775341925872216800,7.169216796875,7.408178806304932,7.527820110321045,-0.42352959513664246
1775341925889003500,7.18600341796875,7.04925537109375,7.590033531188965,-0.30149564146995544
1775341925905790200,7.202790283203125,7.621140003204346,7.738388538360596,-0.16271193325519562
1775341925922577000,7.219576904296875,7.250252723693848,8.011170387268066,-0.2632105052471161
1775341925939363600,7.236363525390625,7.735995769500732,8.209774017333984,-0.10289137065410614
1775341925956150300,7.253150390625,8.059026718139648,8.336593627929688,-0.3445664644241333
1775341925972937000,7.26993701171875,7.587640762329102,8.96112060546875,-0.004785645287483931
1775341925989723600,7.2867236328125,8.307880401611328,8.559126853942871,-0.33738797903060913
1775341926006510300,7.30351025390625,8.549555778503418,8.63330364227295,-0.3206382393836975
1775341926023297000,7.320297119140625,7.621140003204346,8.958727836608887,-0.33499518036842346
1775341926040083700,7.337083740234375,8.303094863891602,9.133403778076172,-0.31824541091918945
1775341926056870700,7.35387060546875,8.554341316223145,8.841479301452637,-0.2679961323738098
1775341926073657300,7.3706572265625,8.374878883361816,8.930013656616211,-0.3613162338733673
1775341926090444000,7.387444091796875,7.9585280418396,9.049654960632324,-0.38285163044929504
1775341926107230700,7.404230712890625,7.82692289352417,9.018548965454102,-0.12442677468061447
1775341926124017400,7.421017333984375,8.726624488830566,8.987442016601562,-0.32542386651039124
1775341926140804000,7.43780419921875,7.853243827819824,8.827122688293457,-0.3158525824546814
1775341926157590800,7.4545908203125,8.506484031677246,8.441878318786621,-0.22492532432079315
1775341926174377500,7.47137744140625,7.874779224395752,8.57348346710205,-0.1746760457754135
1775341926191164200,7.4881640625,7.5804619789123535,8.7505521774292,-0.2584248483181
1775341926207950800,7.504950927734375,7.726424217224121,8.48016357421875,-0.15553347766399384
1775341926224737500,7.521737548828125,7.429714202880859,8.470592498779297,-0.0526420995593071
1775341926241524200,7.538524169921875,7.200003147125244,8.166703224182129,-0.349352091550827
1775341926258311000,7.555310791015625,7.341179847717285,7.601997375488281,-0.2560320198535919
1775341926275097600,7.57209765625,7.618747234344482,8.384450912475586,-0.2225325107574463
1775341926291884300,7.58888427734375,7.247859954833984,7.719245910644531,-0.30628129839897156
1775341926308671200,7.605671142578125,7.475177764892578,8.066205024719238,-0.5216353535652161
1775341926325457700,7.622457763671875,7.343572616577148,7.573283672332764,-0.24885354936122894
1775341926342244600,7.63924462890625,6.97986364364624,7.6666035652160645,-0.5048855543136597
1775341926359031300,7.65603125,6.496513366699219,7.45364236831665,-0.3326023519039154
1775341926375818000,7.67281787109375,7.587640762329102,7.008577346801758,-0.45942193269729614
1775341926392604700,7.689604736328125,6.843472957611084,7.690532207489014,-0.17228323221206665
1775341926409391400,7.706391357421875,6.348158359527588,6.946363925933838,-0.12921242415905
1775341926426178000,7.723177978515625,6.357729911804199,7.216753005981445,-0.12442677468061447
1775341926442964700,7.73996484375,6.6831536293029785,6.857829570770264,-0.004785645287483931
1775341926459751400,7.75675146484375,6.522834300994873,6.661618232727051,-0.6795616149902344
1775341926476538000,7.7735380859375,5.97727108001709,6.589833736419678,0.06699903309345245
1775341926493324800,7.79032470703125,6.4319071769714355,6.245266914367676,-0.5527420043945312
1775341926510111500,7.807111572265625,6.522834300994873,6.297909259796143,-0.09571290761232376
1775341926526898400,7.8238984375,6.32662296295166,6.419943332672119,-0.4378865361213684
1775341926543684900,7.840684814453125,5.120640277862549,6.027520179748535,-0.11006984114646912
1775341926560471800,7.857471923828125,6.719046115875244,5.096712112426758,-0.31824541091918945
1775341926577258200,7.87425830078125,5.9437713623046875,5.419743061065674,-0.4737788736820221
1775341926594045200,7.891045166015625,5.194818019866943,4.41475772857666,0.0023928226437419653
1775341926610832000,7.907831787109375,4.967499732971191,4.766502857208252,-0.05024927482008934
1775341926627618600,7.92461865234375,4.78803825378418,4.721039295196533,-0.13878370821475983
1775341926644405200,7.9414052734375,5.422136306762695,5.326423168182373,-0.035892341285943985
1775341926661192000,7.95819189453125,3.9672999382019043,4.922036170959473,-0.07657032459974289
1775341926677978600,7.974978515625,5.773880958557129,4.012763500213623,-0.3684946894645691
1775341926694765300,7.991765380859375,4.1491546630859375,5.1876397132873535,-0.1339980661869049
1775341926711552000,8.008552001953126,5.381458282470703,4.488935470581055,-0.3565305769443512
1775341926728338700,8.025338623046874,4.996213912963867,4.292723655700684,-0.2991028428077698
1775341926745125400,8.04212548828125,4.247260093688965,4.252045631408691,-0.20817556977272034
1775341926761912000,8.058912109375,4.54636287689209,4.213760852813721,-0.02153540402650833
1775341926778698800,8.07569873046875,5.407779216766357,3.7184464931488037,-0.5120640397071838
1775341926795485400,8.0924853515625,2.706282377243042,5.259424209594727,0.14356936514377594
1775341926812272000,8.109272216796874,4.764110088348389,4.668396949768066,-0.3278166949748993
1775341926829058800,8.126058837890625,5.807380676269531,4.426722049713135,-0.07896314561367035
1775341926845845800,8.142845703125,3.81655216217041,5.788238048553467,-0.2727817893028259
1775341926862632200,8.159632080078126,6.082555294036865,4.53200626373291,-0.2560320198535919
1775341926879419100,8.176419189453124,5.1876397132873535,5.855237007141113,-0.31824541091918945
1775341926896205800,8.193205810546875,6.6831536293029785,5.173282623291016,-0.45942193269729614
1775341926912992500,8.209992431640625,5.374279499053955,6.144768714904785,0.09092725813388824
1775341926929779200,8.226779296875,5.2977094650268555,6.096911907196045,-0.4713860750198364
1775341926946566000,8.24356591796875,7.283751964569092,5.843272686004639,0.038285162299871445
1775341926963352600,8.2603525390625,7.037291526794434,5.814558982849121,-0.5718846321105957
1775341926980139300,8.27713916015625,5.855237007141113,6.39601469039917,-0.10289137065410614
1775341926996926000,8.293926025390626,5.132604598999023,6.750152587890625,-0.4043870270252228
1775341927013712600,8.310712646484374,6.759724140167236,6.446264266967773,-0.12442677468061447
1775341927030499300,8.327499267578125,6.216553211212158,6.843472957611084,-0.1866401731967926
1775341927047286000,8.3442861328125,6.005984783172607,7.195217609405518,-0.18903298676013947
1775341927064072700,8.36107275390625,7.786244869232178,6.6352972984313965,-0.5072783827781677
1775341927080859400,8.377859375,6.857829570770264,7.17368221282959,-0.3038884699344635
1775341927097646000,8.39464599609375,7.276573657989502,7.29810905456543,-0.3038884699344635
1775341927114432800,8.411432861328125,7.238288402557373,7.0923261642456055,-0.2153540402650833
1775341927131219500,8.428219482421875,6.620940208435059,7.144968509674072,-0.14117653667926788
1775341927148006400,8.44500634765625,6.63769006729126,7.396214962005615,-0.49292147159576416
1775341927164793000,8.46179296875,6.704689025878906,7.2095746994018555,0.02392822690308094
1775341927181579800,8.478579833984375,7.3986077308654785,7.137789726257324,-0.275174617767334
1775341927198366500,8.495366455078125,6.300302028656006,7.085147857666016,-0.22492532432079315
1775341927215153200,8.512153076171876,6.881757736206055,7.200003147125244,-0.4426721930503845
1775341927231939800,8.52893994140625,6.97986364364624,7.238288402557373,-0.33738797903060913
1775341927248726500,8.5457265625,6.503692150115967,8.066205024719238,-0.16510476171970367
1775341927265513200,8.56251318359375,7.137789726257324,7.558926582336426,-0.33499518036842346
1775341927282300000,8.5792998046875,7.467999458312988,7.434499740600586,-0.1459621787071228
1775341927299086600,8.596086669921876,7.238288402557373,7.625925540924072,-0.14835500717163086
1775341927315873300,8.612873291015624,7.171289443969727,7.597211837768555,0.0023928226437419653
1775341927332660000,8.629659912109375,7.2813591957092285,7.654639720916748,-0.4259224236011505
1775341927349446700,8.64644677734375,7.365108013153076,7.853243827819824,-0.27756741642951965
1775341927366233300,8.6632333984375,7.164111137390137,7.793423175811768,-0.5359922647476196
1775341927383020000,8.68002001953125,7.338787078857422,7.5086774826049805,0.062213387340307236
1775341927399806700,8.696806640625,7.152146816253662,8.123632431030273,-0.6221339106559753
1775341927416593400,8.713593505859375,6.97268533706665,7.645068168640137,0.13878370821475983
1775341927433380000,8.730380126953126,7.384250640869141,7.786244869232178,-0.6436693072319031
1775341927450166800,8.747166748046874,7.501499176025391,7.800601959228516,-0.03349951654672623
1775341927466953700,8.76395361328125,6.293123722076416,8.305487632751465,-0.30628129839897156
1775341927483740200,8.780740234375,7.226324558258057,7.69531774520874,0.014356935396790504
1775341927500527000,8.797527099609376,7.762316703796387,7.496713161468506,-0.2225325107574463
1775341927517313800,8.814313720703124,7.0755767822265625,7.786244869232178,-0.059820566326379776
1775341927534100500,8.8311005859375,7.479963779449463,7.850851058959961,-0.4139583110809326
1775341927550887200,8.84788720703125,8.030312538146973,7.9968132972717285,-0.31106695532798767
1775341927567673900,8.864673828125,7.188039302825928,7.858029365539551,-0.31345975399017334
1775341927584460500,8.88146044921875,6.795616149902344,8.023134231567383,-0.4737788736820221
1775341927601247200,8.898247314453124,7.623532772064209,7.829315662384033,-0.2799602448940277
1775341927618034000,8.915033935546875,7.64028263092041,8.159524917602539,-0.4498506486415863
1775341927634820600,8.931820556640625,7.200003147125244,7.901100158691406,0.08614161610603333
1775341927651607300,8.948607177734376,7.802994728088379,7.767102241516113,-0.380458801984787
1775341927668394000,8.96539404296875,7.283751964569092,8.126026153564453,-0.23449662327766418
1775341927685180700,8.9821806640625,7.824530124664307,8.176275253295898,-0.09571290761232376
1775341927701967400,8.99896728515625,8.00638484954834,7.733603000640869,-0.17706887423992157
1775341927718754000,9.015754150390626,6.774080753326416,8.367700576782227,-0.15314064919948578
1775341927735540700,9.032540771484374,7.381857872009277,8.4562349319458,-0.2991028428077698
1775341927752327400,9.049327392578125,7.891529083251953,8.274380683898926,-0.31106695532798767
1775341927769114000,9.066114013671875,8.671588897705078,8.346165657043457,-0.33499518036842346
1775341927785900800,9.08290087890625,9.09990406036377,8.389236450195312,-0.4139583110809326
1775341927802687700,9.099687744140626,7.477570533752441,8.831908226013184,-0.12203395366668701
1775341927819474200,9.11647412109375,8.283951759338379,8.891729354858398,-0.41874396800994873
1775341927836261000,9.13326123046875,8.57348346710205,9.066405296325684,-0.05742774158716202
1775341927853047800,9.1500478515625,7.7455668449401855,9.253045082092285,-0.5647061467170715
1775341927869834500,9.16683447265625,8.57348346710205,9.073583602905273,-0.09092725813388824
1775341927886621200,9.18362109375,8.71226692199707,8.973084449768066,-0.519242525100708
1775341927903407900,9.200407958984375,8.372486114501953,9.09272575378418,-0.32303106784820557
1775341927920194600,9.217194580078125,8.417949676513672,9.08554744720459,-0.30628129839897156
1775341927936981200,9.233981201171876,8.166703224182129,8.9850492477417,-0.22492532432079315
1775341927953768000,9.250767822265624,7.9585280418396,8.70508861541748,-0.363709032535553
1775341927970554600,9.2675546875,9.052047729492188,8.693124771118164,-0.3326023519039154
1775341927987341300,9.28434130859375,7.176074981689453,8.554341316223145,-0.4546363055706024
1775341928004128000,9.3011279296875,8.709874153137207,8.166703224182129,-0.07417750358581543
1775341928020914700,9.317914794921874,7.286144733428955,8.987442016601562,-0.27756741642951965
1775341928037701400,9.334701416015625,7.9728851318359375,7.767102241516113,-0.1866401731967926
1775341928054488000,9.351488037109375,7.3986077308654785,8.080561637878418,-0.6747759580612183
1775341928071274800,9.368274658203125,7.1162543296813965,8.252845764160156,0.064606212079525
1775341928088061400,9.3850615234375,7.747959613800049,7.611568927764893,-0.16031911969184875
1775341928104848100,9.40184814453125,7.142575740814209,8.063812255859375,0.10767702013254166
1775341928121634800,9.418634765625,6.704689025878906,7.9728851318359375,-0.33020952343940735
1775341928138421500,9.43542138671875,7.0995049476623535,7.130611419677734,-0.18424734473228455
1775341928155208200,9.452208251953126,7.0755767822265625,7.795815944671631,-0.009571290574967861
1775341928171995100,9.4689951171875,8.228917121887207,7.245467185974121,-0.729810893535614
1775341928188781800,9.48578173828125,8.15234661102295,7.5086774826049805,-0.04785645380616188
1775341928205568500,9.502568603515625,6.647261142730713,7.207181930541992,-0.6460621356964111
1775341928222355200,9.519355224609376,6.948757171630859,7.250252723693848,-0.1459621787071228
1775341928239142000,9.536141845703124,7.058826923370361,7.144968509674072,0.13639089465141296
1775341928255928600,9.552928466796875,7.17368221282959,6.510870456695557,0.0526420995593071
1775341928272715300,9.56971533203125,6.180660724639893,6.922435760498047,-0.24646073579788208
1775341928289502000,9.586501953125,6.271588325500488,6.673582553863525,-0.24885354936122894
1775341928306288600,9.60328857421875,6.288337707519531,6.1399827003479,-0.3206382393836975
1775341928323075300,9.620075439453124,6.245266914367676,6.551548480987549,-0.4163511395454407
1775341928339862000,9.636862060546875,5.458028316497803,6.2668023109436035,0.019142581149935722
1775341928356648700,9.653648681640625,6.927221775054932,5.814558982849121,-0.44027936458587646
1775341928373435400,9.670435302734376,6.049055576324463,5.446064472198486,0.08614161610603333
1775341928390222000,9.68722216796875,5.687739372253418,6.197410583496094,-0.3326023519039154
1775341928407008800,9.7040087890625,6.3529438972473145,5.453242778778076,0.31824541091918945
1775341928423795500,9.72079541015625,5.213960647583008,6.082555294036865,-0.5958128571510315
1775341928440582100,9.73758203125,6.929614543914795,4.7234320640563965,-0.007178467698395252
1775341928457368800,9.754368896484374,8.669196128845215,4.223331928253174,-0.39481574296951294
1775341928474155800,9.77115576171875,4.024727821350098,6.068198204040527,-0.09092725813388824
1775341928490942200,9.787942138671875,6.31944465637207,4.718646049499512,-0.35413774847984314
1775341928507729200,9.804729248046876,6.154339790344238,4.804787635803223,-0.5048855543136597
1775341928524515800,9.821515869140624,4.376472473144531,4.682754039764404,-0.16749759018421173
1775341928541302500,9.838302490234375,5.151747226715088,4.4482574462890625,-0.4091726839542389
1775341928558089200,9.855089111328125,4.867001056671143,4.168296813964844,-0.28235307335853577
1775341928574876000,9.8718759765625,3.7160534858703613,4.756931304931641,-0.2273181527853012
1775341928591662600,9.88866259765625,5.06799840927124,3.649054527282715,-0.16510476171970367
1775341928608449300,9.90544921875,4.12761926651001,4.491328239440918,-0.08135596662759781
1775341928625236000,9.922236083984375,4.675575256347656,4.285545349121094,-0.07896314561367035
1775341928642022700,9.939022705078125,5.101497650146484,4.302295207977295,-0.33020952343940735
1775341928658809300,9.955809326171876,4.443471431732178,4.735395908355713,0.02632104977965355
1775341928675596000,9.972595947265624,5.151747226715088,4.890929698944092,-0.19381862878799438
1775341928692382700,9.9893828125,5.903093338012695,4.814359188079834,0.09092725813388824
1775341928709169400,10.00616943359375,5.178068161010742,5.383851051330566,-0.2153540402650833
1775341928725956000,10.0229560546875,4.977071285247803,5.936593055725098,-0.04785645380616188
1775341928742742800,10.03974267578125,6.013163089752197,5.714060306549072,-0.11724831163883209
1775341928759529500,10.056529541015625,6.6113691329956055,6.087340831756592,-0.7752745151519775
1775341928776316200,10.073316162109375,4.089334011077881,6.647261142730713,-0.2799602448940277
1775341928793102800,10.090102783203125,6.400800704956055,6.283552169799805,-0.1818545162677765
1775341928809889500,10.1068896484375,8.616554260253906,5.737988471984863,-0.20578274130821228
1775341928826676500,10.123676513671874,6.434299945831299,6.434299945831299,-0.5647061467170715
1775341928843463200,10.140463134765625,6.041877269744873,6.819544315338135,-0.014356935396790504
1775341928860249900,10.157249755859375,6.790830612182617,6.955935478210449,-0.28235307335853577
1775341928877036500,10.17403662109375,6.317051887512207,6.888936519622803,-0.11246266216039658
1775341928893823200,10.1908232421875,6.185446739196777,7.171289443969727,-0.4378865361213684
1775341928910610000,10.20760986328125,6.671189308166504,6.948757171630859,-0.20817556977272034
1775341928927396600,10.224396728515625,6.857829570770264,6.719046115875244,-0.5575276613235474
1775341928944183300,10.241183349609376,6.008377552032471,7.520641803741455,-0.24406790733337402
1775341928960970000,10.257969970703124,6.900900363922119,7.1856465339660645,-0.09092725813388824
1775341928977756700,10.274756591796875,7.027719974517822,7.063612461090088,-0.363709032535553
1775341928994543400,10.29154345703125,6.166304111480713,7.393822193145752,-0.12681959569454193
1775341929011330000,10.308330078125,6.826723098754883,7.386643409729004,-0.24167509377002716
1775341929028116700,10.32511669921875,7.357929706573486,7.537391185760498,-0.1986042857170105
1775341929044903400,10.3419033203125,6.364908218383789,7.5804619789123535,-0.11485548317432404
1775341929061690000,10.358690185546875,7.271788120269775,7.905886173248291,-0.038285162299871445
1775341929078476800,10.375476806640625,6.1950178146362305,7.671389579772949,0.04307080805301666
1775341929095263500,10.392263427734376,7.836493968963623,7.3292155265808105,-0.33738797903060913
1775341929112050200,10.40905029296875,7.451249599456787,7.590033531188965,-0.3613162338733673
1775341929128836900,10.4258369140625,7.0301127433776855,8.030312538146973,-0.2273181527853012
1775341929145623600,10.44262353515625,7.338787078857422,7.690532207489014,-0.4618147611618042
1775341929162410500,10.459410400390626,7.549355506896973,7.611568927764893,-0.30628129839897156
1775341929179197000,10.476197021484374,6.965506553649902,7.932207107543945,-0.1866401731967926
1775341929195984000,10.49298388671875,7.080362319946289,7.623532772064209,-0.15074782073497772
1775341929212770600,10.5097705078125,7.625925540924072,7.527820110321045,-0.380458801984787
1775341929229557200,10.52655712890625,6.719046115875244,7.824530124664307,-0.10289137065410614
1775341929246344000,10.543343994140624,7.10429048538208,7.927421569824219,-0.6364908218383789
1775341929263130600,10.560130615234375,8.389236450195312,6.752545356750488,-0.11485548317432404
1775341929279917300,10.576917236328125,5.706881999969482,7.726424217224121,-0.14117653667926788
1775341929296704000,10.5937041015625,8.001599311828613,7.121040344238281,0.1459621787071228
1775341929313490700,10.61049072265625,6.029912948608398,7.810173034667969,-0.16749759018421173
1775341929330277400,10.62727734375,6.843472957611084,7.824530124664307,0.11006984114646912
1775341929347064000,10.64406396484375,8.039883613586426,6.989434719085693,-0.5910272002220154
1775341929363850800,10.660850830078125,6.429514408111572,7.657032489776611,-0.24885354936122894
1775341929380637400,10.677637451171876,8.47298526763916,6.893722057342529,-0.3158525824546814
1775341929397424000,10.694424072265624,5.85284423828125,8.075776100158691,-0.1579262912273407
1775341929414210800,10.7112109375,7.178467750549316,7.750352382659912,-0.27756741642951965
1775341929430997500,10.72799755859375,7.482356548309326,7.506284713745117,-0.6556333899497986
1775341929447784200,10.7447841796875,6.8865437507629395,7.7455668449401855,0.004785645287483931
1775341929464571000,10.76157080078125,7.618747234344482,7.645068168640137,-0.7130611538887024
1775341929481357600,10.778357666015625,7.195217609405518,7.590033531188965,-0.040677983313798904
1775341929498144300,10.795144287109375,6.716653347015381,7.8795647621154785,-0.6604190468788147
1775341929514931000,10.811930908203125,7.566105365753174,7.161718368530273,0.0023928226437419653
1775341929531717600,10.828717529296876,6.920042991638184,7.518248558044434,-0.5694918036460876
1775341929548504600,10.845504638671875,7.611568927764893,7.922635555267334,0.04307080805301666
1775341929565291000,10.862291015625,5.78345251083374,8.547162055969238,-0.34217363595962524
1775341929582078000,10.879077880859375,7.7455668449401855,8.295916557312012,0.28235307335853577
1775341929598864400,10.895864501953126,8.104490280151367,8.068597793579102,-0.39960137009620667
1775341929615651300,10.9126513671875,6.530013084411621,8.83669376373291,0.11964113265275955
1775341929632438000,10.92943798828125,9.698110580444336,8.147561073303223,-0.4905286431312561
1775341929649224700,10.946224609375,8.63330364227295,8.372486114501953,-0.23449662327766418
1775341929666011400,10.963011474609376,7.546962738037109,9.052047729492188,-0.4618147611618042
1775341929682798000,10.979798095703124,8.760123252868652,8.58066177368164,-0.4091726839542389
1775341929699584800,10.996584716796875,8.408378601074219,8.884550094604492,-0.5288137793540955
1775341929716371500,11.013371337890625,7.769495010375977,8.951549530029297,-0.2560320198535919
1775341929733158100,11.030158203125,8.183453559875488,8.767302513122559,-0.5000999569892883
1775341929749944800,11.04694482421875,8.283951759338379,8.839086532592773,-0.24885354936122894
1775341929766731500,11.0637314453125,8.133204460144043,9.006584167480469,-0.26560330390930176
1775341929783518200,11.080518310546875,7.733603000640869,8.71226692199707,-0.007178467698395252
1775341929800305000,11.097304931640625,8.499305725097656,8.898907661437988,-0.4570291340351105
1775341929817091600,11.114091552734376,8.09970474243164,8.219346046447754,0.04546362906694412
1775341929833878300,11.130878173828124,8.204988479614258,8.26241683959961,-0.8446664214134216
1775341929850665000,11.1476650390625,7.884350776672363,8.12123966217041,0.014356935396790504
1775341929867451600,11.16445166015625,4.859822750091553,9.190832138061523,-0.5790630578994751
1775341929884238300,11.18123828125,7.542177200317383,8.561519622802734,0.6005984544754028
1775341929901025000,11.19802490234375,8.427521705627441,7.843672752380371,-0.7322037220001221
1775341929917811700,11.214811767578125,6.281159400939941,8.200202941894531,0.26560330390930176
1775341929934598400,11.231598388671875,7.207181930541992,7.944170951843262,-0.8039883971214294
1775341929951385000,11.248385009765625,7.984848976135254,7.968099594116211,0.2153540402650833
1775341929968171800,11.265171875,7.001399040222168,8.22413158416748,-0.34695929288864136
1775341929984958500,11.28195849609375,7.381857872009277,8.21695327758789,0.1986042857170105
1775341930001745200,11.2987451171875,8.324629783630371,7.03489875793457,-0.7752745151519775
1775341930018531800,11.31553173828125,6.307480335235596,8.295916557312012,0.09571290761232376
1775341930035318500,11.332318603515626,7.970492362976074,7.202396392822266,-0.727418065071106
1775341930052105200,11.349105224609374,6.063412666320801,8.178668022155762,0.28235307335853577
1775341930068892200,11.36589208984375,7.470392227172852,7.056434154510498,-0.7154539823532104
1775341930085678800,11.382678955078125,7.176074981689453,7.57806921005249,-0.2273181527853012
1775341930102465500,11.399465576171876,5.520241737365723,7.264609336853027,-0.1986042857170105
1775341930119252200,11.416252197265624,7.858029365539551,6.915257453918457,-0.36610186100006104
1775341930136039000,11.433038818359375,6.379265308380127,6.355337142944336,-0.2273181527853012
1775341930152825600,11.44982568359375,5.637490272521973,7.288537979125977,-0.4833501875400543
1775341930169612300,11.4666123046875,7.025327205657959,6.44387149810791,-0.05503492057323456
1775341930186399000,11.48339892578125,5.221138954162598,6.776473522186279,0.12442677468061447
1775341930203185700,11.500185546875,6.357729911804199,6.903293132781982,0.29431718587875366
1775341930219972400,11.516972412109375,7.357929706573486,6.305087566375732,-0.5144568681716919
1775341930236759000,11.533759033203125,5.757131099700928,6.357729911804199,0.07417750358581543
1775341930253545700,11.550545654296876,5.434100151062012,6.080162525177002,-0.34217363595962524
1775341930270332400,11.56733251953125,6.467799663543701,6.082555294036865,-0.12921242415905
1775341930287119000,11.584119140625,5.493920803070068,5.742774486541748,-0.23210379481315613
1775341930303905800,11.60090576171875,4.828716278076172,6.209374904632568,-0.3086741268634796
1775341930320692500,11.6176923828125,4.886143684387207,5.962913990020752,0.12203395366668701
1775341930337479200,11.634479248046874,5.907878875732422,5.857629776000977,-0.7920243144035339
1775341930354265900,11.651265869140625,5.685346603393555,5.407779216766357,0.08135596662759781
1775341930371052500,11.668052490234375,5.508277893066406,5.446064472198486,-0.4666004180908203
1775341930387839200,11.684839111328126,6.7070817947387695,4.625326156616211,-0.26081767678260803
1775341930404626000,11.7016259765625,4.914857864379883,5.72841739654541,-0.42352959513664246
1775341930421412600,11.71841259765625,5.458028316497803,5.163711071014404,-0.3732803463935852
1775341930438199300,11.73519921875,5.536991596221924,4.555934429168701,-0.12203395366668701
1775341930454986000,11.751986083984375,5.639883041381836,4.577469825744629,-0.28953152894973755
1775341930471772700,11.768772705078124,5.115854740142822,4.792823791503906,-0.0933200865983963
1775341930488559400,11.785559326171875,3.469592809677124,4.962714195251465,-0.031106693670153618
1775341930505346000,11.802345947265625,5.5034918785095215,4.357329845428467,-0.24646073579788208
1775341930522132700,11.8191328125,5.063212871551514,4.517649173736572,-0.3038884699344635
1775341930538919400,11.83591943359375,5.077569484710693,4.364508628845215,-0.13160525262355804
1775341930555706000,11.8527060546875,4.316651821136475,4.835894584655762,-0.06939185410737991
1775341930572492800,11.869492919921875,5.139782905578613,5.106283664703369,-0.46899324655532837
1775341930589279500,11.886279541015625,5.029713153839111,4.989035129547119,0.0933200865983963
1775341930606066200,11.903066162109376,4.247260093688965,5.663811206817627,-0.30628129839897156
1775341930622853000,11.91985302734375,8.161917686462402,3.775874137878418,-0.03349951654672623
1775341930639639800,11.936639892578125,4.225724697113037,6.128018856048584,-0.2991028428077698
1775341930656426500,11.953426513671875,4.977071285247803,6.0849480628967285,-0.11485548317432404
1775341930673213200,11.970213134765626,7.288537979125977,5.472385406494141,-0.37806597352027893
1775341930690000000,11.986999755859374,5.618347644805908,5.467599868774414,-0.6005984544754028
1775341930706786300,12.003786376953125,5.757131099700928,6.496513366699219,-0.15314064919948578
1775341930723573200,12.0205732421875,8.068597793579102,5.773880958557129,-0.5096712112426758
1775341930740360000,12.03735986328125,6.010770320892334,6.400800704956055,-0.380458801984787
1775341930757146600,12.054146728515626,5.948556900024414,6.604190349578857,-0.16749759018421173
1775341930773933300,12.070933349609374,7.613961696624756,5.982056617736816,-0.5359922647476196
1775341930790720000,12.087719970703125,5.828916072845459,7.190432071685791,0.14835500717163086
1775341930807506700,12.104506591796875,6.628118515014648,6.786045074462891,-0.4713860750198364
1775341930824293400,12.12129345703125,6.915257453918457,6.563512325286865,0.11964113265275955
1775341930841080000,12.138080078125,6.118447303771973,7.250252723693848,-0.5000999569892883
1775341930857866800,12.15486669921875,7.0923261642456055,7.144968509674072,-0.014356935396790504
1775341930874653400,12.1716533203125,6.6831536293029785,6.908079147338867,-0.5359922647476196
1775341930891440000,12.188440185546876,7.161718368530273,6.989434719085693,0.0023928226437419653
1775341930908226800,12.205226806640624,6.439085960388184,7.3292155265808105,-0.5168496966362
1775341930925013500,12.222013427734375,7.142575740814209,6.970292568206787,0.28953152894973755
1775341930941800200,12.23880029296875,7.054041385650635,7.302894592285156,-0.6628118753433228
1775341930958587000,12.2555869140625,7.121040344238281,7.106683254241943,0.038285162299871445
1775341930975373600,12.27237353515625,7.22871732711792,7.494320392608643,-0.5359922647476196
1775341930992160300,12.28916015625,7.618747234344482,7.1234331130981445,-0.0933200865983963
1775341931008947000,12.305947021484375,7.307680130004883,7.161718368530273,-0.16749759018421173
1775341931025733600,12.322733642578125,6.419943332672119,7.551748275756836,-0.09092725813388824
1775341931042520300,12.339520263671876,7.76470947265625,7.231110095977783,-0.4211367964744568
1775341931059307000,12.35630712890625,6.829115867614746,8.090133666992188,-0.29431718587875366
1775341931076093700,12.37309375,6.955935478210449,7.5637125968933105,-0.2273181527853012
1775341931092880400,12.38988037109375,7.77188777923584,7.719245910644531,-0.3397808074951172
1775341931109667000,12.4066669921875,6.8410797119140625,7.6498541831970215,-0.3756731450557709
1775341931126453800,12.423453857421874,6.850651264190674,7.477570533752441,-0.2512463629245758
1775341931143240400,12.440240478515625,7.738388538360596,7.412964344024658,-0.5072783827781677
1775341931160027100,12.457027099609375,7.250252723693848,7.676175117492676,-0.02392822690308094
1775341931176813800,12.473813720703125,7.10429048538208,7.9968132972717285,-0.33738797903060913
1775341931193600500,12.4906005859375,7.171289443969727,8.018348693847656,-0.26560330390930176
1775341931210387200,12.50738720703125,7.568498134613037,7.496713161468506,-0.13160525262355804
1775341931227174000,12.524173828125,7.051648139953613,8.008777618408203,-0.3397808074951172
1775341931243960600,12.540960693359375,7.0683979988098145,7.800601959228516,-0.2919243574142456
1775341931260747300,12.557747314453126,7.664210796356201,7.6498541831970215,-0.23688943684101105
1775341931277534000,12.574533935546874,7.046862602233887,8.12123966217041,-0.26081767678260803
1775341931294320600,12.591320556640625,7.539783954620361,7.755138397216797,-0.16271193325519562
1775341931311107300,12.608107421875,7.941778182983398,7.5326056480407715,-0.40677985548973083
1775341931327894000,12.62489404296875,6.927221775054932,7.848458290100098,-0.13878370821475983
1775341931344680700,12.6416806640625,7.590033531188965,7.740781307220459,-0.1818545162677765
1775341931361467400,12.65846728515625,6.9104719161987305,7.728816986083984,-0.07657032459974289
1775341931378254000,12.675254150390625,7.475177764892578,7.994420528411865,-0.4331009089946747
1775341931395040800,12.692040771484375,7.178467750549316,8.226524353027344,-0.3613162338733673
1775341931411827500,12.708827392578126,7.202396392822266,8.382058143615723,-0.35892340540885925
1775341931428614100,12.7256142578125,7.57806921005249,7.975277900695801,-0.35413774847984314
1775341931445400800,12.74240087890625,7.810173034667969,8.066205024719238,-0.040677983313798904
1775341931462187500,12.7591875,7.322037220001221,8.042277336120605,-0.48095735907554626
1775341931478974200,12.77597412109375,7.255038261413574,8.398807525634766,-0.2512463629245758
1775341931495761000,12.792760986328124,7.716853141784668,8.401200294494629,-0.29431718587875366
1775341931512547600,12.809547607421875,7.9968132972717285,8.24566650390625,-0.2584248483181
1775341931529334300,12.826334228515625,7.77188777923584,8.595019340515137,-0.35413774847984314
1775341931546121000,12.843120849609376,8.030312538146973,8.647661209106445,-0.12921242415905
1775341931562907600,12.85990771484375,8.279166221618652,8.659625053405762,-0.3326023519039154
1775341931579694300,12.8766943359375,8.018348693847656,8.74337387084961,-0.22013968229293823
1775341931596481000,12.89348095703125,8.432307243347168,9.07119083404541,-0.39960137009620667
1775341931613267700,12.910267822265626,8.025527000427246,9.068798065185547,-0.2727817893028259
1775341931630054400,12.927054443359374,8.240880966186523,9.152546882629395,-0.4307080805301666
1775341931646841000,12.943841064453125,8.226524353027344,8.925228118896484,-0.3038884699344635
1775341931663627800,12.960627685546875,8.200202941894531,9.090332984924316,-0.4953143000602722
1775341931680414500,12.97741455078125,8.343772888183594,8.769695281982422,-0.06699903309345245
1775341931697201200,12.994201171875,8.056633949279785,8.681160926818848,-0.5288137793540955
1775341931713987800,13.01098779296875,8.248059272766113,8.72901725769043,0.23688943684101105
1775341931730774500,13.0277744140625,8.2695951461792,8.444271087646484,-0.5000999569892883
1775341931747561200,13.044561279296875,7.393822193145752,8.922835350036621,0.0933200865983963
1775341931764348000,13.061347900390626,8.126026153564453,8.391629219055176,-0.5168496966362
1775341931781134600,13.078134521484374,6.0849480628967285,8.695517539978027,0.2919243574142456
1775341931797921300,13.09492138671875,7.810173034667969,8.032705307006836,-0.4426721930503845
1775341931814708000,13.1117080078125,8.166703224182129,7.913064479827881,-0.02392822690308094
1775341931831494700,13.12849462890625,7.429714202880859,8.128418922424316,-0.46420758962631226
1775341931848281300,13.14528125,7.501499176025391,7.714460372924805,-0.07178468257188797
1775341931865068000,13.162068115234375,7.920242786407471,7.936992645263672,-0.35413774847984314
1775341931881854700,13.178854736328125,6.893722057342529,8.054241180419922,-0.01196411345154047
1775341931898641400,13.195641357421875,7.534998416900635,7.89631462097168,-0.27038896083831787
1775341931915428000,13.212427978515626,7.724031448364258,8.161917686462402,-0.27756741642951965
1775341931932214800,13.22921484375,6.503692150115967,7.6498541831970215,-0.46899324655532837
1775341931949001500,13.24600146484375,6.482156753540039,7.680960655212402,-0.20338992774486542
1775341931965788200,13.2627880859375,7.331608772277832,7.518248558044434,-0.33738797903060913
1775341931982574800,13.279574951171876,6.965506553649902,7.456035137176514,-0.3684946894645691
1775341931999361500,13.296361572265624,6.752545356750488,6.996613502502441,-0.0933200865983963
1775341932016148200,13.313148193359375,7.546962738037109,6.4941205978393555,-0.36610186100006104
1775341932032935000,13.329934814453125,5.237888813018799,7.085147857666016,-0.064606212079525
1775341932049721600,13.3467216796875,7.456035137176514,6.422336101531982,-0.33020952343940735
1775341932066508300,13.36350830078125,5.484349727630615,7.5708909034729,0.2799602448940277
1775341932083295000,13.380294921875,7.171289443969727,6.058627128601074,-0.3900300860404968
1775341932100081700,13.39708154296875,5.288137912750244,6.8410797119140625,-0.30628129839897156
1775341932116868400,13.413868408203125,5.618347644805908,6.604190349578857,-0.38763725757598877
1775341932133655000,13.430655029296876,7.319644451141357,5.66620397567749,-0.1698904037475586
1775341932150441700,13.447441650390624,5.338387489318848,6.580262184143066,-0.24885354936122894
1775341932167228400,13.464228515625,6.0466628074646,6.288337707519531,-0.30149564146995544
1775341932184015000,13.48101513671875,7.032505512237549,5.527420520782471,-0.5479564070701599
1775341932200801800,13.4978017578125,5.764309883117676,6.400800704956055,-0.16510476171970367
1775341932217588500,13.51458837890625,5.618347644805908,5.44845724105835,-0.5694918036460876
1775341932234375200,13.531375244140625,3.19441819190979,6.702296257019043,0.363709032535553
1775341932251161900,13.548161865234375,7.63310432434082,4.0079779624938965,-0.5144568681716919
1775341932267948500,13.564948486328126,4.862215518951416,5.824130535125732,0.2273181527853012
1775341932284735200,13.5817353515625,5.816951751708984,4.900500774383545,-0.0933200865983963
1775341932301522000,13.59852197265625,6.8482584953308105,4.249652862548828,-0.12442677468061447
1775341932318308600,13.61530859375,5.881557941436768,4.993820667266846,-0.16510476171970367
1775341932335095300,13.63209521484375,3.7710886001586914,4.95074987411499,-0.01196411345154047
1775341932351882000,13.648882080078126,6.128018856048584,4.110869407653809,-0.8757730722427368
1775341932368668700,13.665668701171874,2.7421748638153076,5.0943193435668945,0.06699903309345245
1775341932385455400,13.682455322265625,5.048855781555176,4.730610370635986,-0.9020941257476807
1775341932402242000,13.699241943359375,6.0610198974609375,3.8739798069000244,-0.28953152894973755
1775341932419028700,13.71602880859375,3.9792640209198,4.895715236663818,-0.4618147611618042
1775341932435815400,13.7328154296875,5.283352375030518,5.01296329498291,0.1746760457754135
1775341932452602000,13.74960205078125,4.713860511779785,5.290530681610107,-0.41874396800994873
1775341932469388800,13.766388916015625,4.146761417388916,6.168696880340576,0.24167509377002716
1775341932486175500,13.783175537109376,9.523433685302734,3.82373046875,-0.7680960893630981
1775341932502962200,13.799962158203124,5.938985824584961,5.900700569152832,0.47617170214653015
1775341932519748900,13.816748779296875,6.757331371307373,5.697310924530029,-0.6221339106559753
1775341932536535600,13.83353564453125,6.343372821807861,6.0466628074646,0.5120640397071838
1775341932553322200,13.850322265625,6.1950178146362305,6.293123722076416,-0.8039883971214294
1775341932570109000,13.86710888671875,6.072983741760254,6.075376510620117,0.2799602448940277
1775341932586895600,13.8838955078125,6.290730953216553,6.489335060119629,-0.7369893789291382
1775341932603682300,13.900682373046875,6.876972198486328,6.025127410888672,-0.17706887423992157
1775341932620469000,13.917468994140625,4.275974273681641,8.300702095031738,-0.641276478767395
1775341932637255700,13.934255615234376,7.386643409729004,6.096911907196045,-0.27038896083831787
1775341932654042400,13.95104248046875,6.415157318115234,6.675975322723389,-0.43549370765686035
1775341932670829000,13.9678291015625,6.5874409675598145,6.795616149902344,0.11485548317432404
1775341932687615700,13.98461572265625,7.159325122833252,6.680760860443115,-0.6149554252624512
1775341932704402400,14.00140234375,5.864808082580566,7.0301127433776855,0.1866401731967926
1775341932721189000,14.018189208984374,7.058826923370361,6.585047721862793,-0.5694918036460876
1775341932737975800,14.034975830078125,7.434499740600586,6.5491557121276855,0.09810572862625122
1775341932754762500,14.051762451171875,6.317051887512207,7.223931789398193,-0.009571290574967861
1775341932771549200,14.068549072265625,6.647261142730713,7.219145774841309,-0.10049854964017868
1775341932788335900,14.0853359375,6.623332977294922,7.319644451141357,-0.02632104977965355
1775341932805122600,14.10212255859375,6.850651264190674,6.805187702178955,-0.36610186100006104
1775341932821909200,14.1189091796875,7.283751964569092,6.668796539306641,-0.550349235534668
1775341932838696000,14.135696044921875,5.886343479156494,7.381857872009277,-0.5670989751815796
1775341932855482600,14.152482666015626,5.898307800292969,7.109076023101807,-0.15074782073497772
1775341932872269300,14.169269287109374,7.2095746994018555,7.008577346801758,-0.5144568681716919
1775341932889056000,14.186055908203125,6.814758777618408,7.178467750549316,-0.5000999569892883
1775341932905842700,14.2028427734375,6.537191390991211,6.704689025878906,0.09092725813388824
1775341932922629400,14.21962939453125,7.343572616577148,7.118647575378418,-0.23210379481315613
1775341932939416000,14.236416015625,6.173482418060303,7.250252723693848,0.2153540402650833
1775341932956202800,14.25320263671875,7.195217609405518,6.903293132781982,-0.7106683254241943
1775341932972989400,14.269989501953125,7.17368221282959,7.0683979988098145,-0.007178467698395252
1775341932989776100,14.286776123046875,6.599404811859131,7.338787078857422,-0.20578274130821228
1775341933006562800,14.303562744140624,6.991827964782715,6.884150981903076,-0.031106693670153618
1775341933023349500,14.320349609375,6.302694797515869,7.135396957397461,-0.7657032608985901
1775341933040136200,14.33713623046875,6.896114826202393,7.307680130004883,0.009571290574967861
1775341933056923000,14.3539228515625,7.707281589508057,6.912864685058594,-0.7082754969596863
1775341933073709600,14.37070947265625,6.666403770446777,7.520641803741455,-0.08614161610603333
1775341933090496300,14.387496337890624,7.178467750549316,7.542177200317383,-0.3900300860404968
1775341933107283000,14.404282958984375,8.338987350463867,6.960721015930176,0.06939185410737991
1775341933124069400,14.4210693359375,7.149754047393799,7.676175117492676,-0.44027936458587646
1775341933140856300,14.437856201171876,6.6113691329956055,7.70967435836792,0.1459621787071228
1775341933157643000,14.45464306640625,7.690532207489014,7.410571575164795,-0.5024927258491516
1775341933174429700,14.4714296875,7.2095746994018555,7.8556365966796875,-0.16031911969184875
1775341933191216400,14.48821630859375,6.640082836151123,7.310073375701904,-0.19142581522464752
1775341933208002800,14.5050029296875,7.3746795654296875,7.475177764892578,-0.5288137793540955
1775341933224789800,14.521789794921874,7.264609336853027,7.377072334289551,-0.2799602448940277
1775341933241576400,14.538576416015625,7.611568927764893,7.592426300048828,-0.41874396800994873
1775341933258363000,14.55536279296875,6.805187702178955,7.774280548095703,0.035892341285943985
1775341933275149600,14.572149658203125,6.8243303298950195,7.594819068908691,-0.397208571434021
1775341933291936300,14.588936279296876,7.767102241516113,7.872386455535889,-0.014356935396790504
1775341933308723000,14.605722900390624,6.745367050170898,8.458627700805664,-0.16271193325519562
1775341933325509600,14.622509521484375,8.343772888183594,7.542177200317383,-0.07178468257188797
1775341933342296300,14.63929638671875,7.171289443969727,7.88913631439209,-0.397208571434021
1775341933359083000,14.6560830078125,7.664210796356201,8.437092781066895,-0.2632105052471161
1775341933375869700,14.67286962890625,8.58066177368164,7.915457248687744,-0.6101697683334351
1775341933392656400,14.689656494140625,6.561119556427002,8.317451477050781,-0.35413774847984314
1775341933409443000,14.706443115234375,7.520641803741455,8.173882484436035,-0.4091726839542389
1775341933426229800,14.723229736328125,8.075776100158691,8.140382766723633,-0.15074782073497772
1775341933443016400,14.740016357421876,7.003791809082031,8.559126853942871,-0.38285163044929504
1775341933459803100,14.75680322265625,7.8388872146606445,7.994420528411865,-0.22971096634864807
1775341933476589800,14.77358984375,8.018348693847656,8.080561637878418,-0.3684946894645691
1775341933493376500,14.79037646484375,7.719245910644531,8.434700012207031,-0.08614161610603333
1775341933510163200,14.8071630859375,7.434499740600586,8.74337387084961,-0.29431718587875366
1775341933526950000,14.823949951171874,8.757730484008789,8.396414756774902,-0.2225325107574463
1775341933543736600,14.840736572265625,8.525627136230469,8.58066177368164,-0.4259224236011505
1775341933560523300,14.857523193359375,6.613761901855469,9.22433090209961,-0.15314064919948578
1775341933577310000,14.87431005859375,7.8628153800964355,9.126225471496582,-0.33499518036842346
1775341933594096600,14.8910966796875,8.592626571655273,8.73619556427002,-0.5048855543136597
1775341933610883300,14.90788330078125,7.582854747772217,9.214759826660156,-0.17946170270442963
1775341933627670000,14.924669921875,7.704888820648193,9.006584167480469,-0.33738797903060913
1775341933644456700,14.941456787109376,8.800801277160645,8.640482902526855,-0.23210379481315613
1775341933661243400,14.958243408203124,7.503891944885254,9.030512809753418,-0.11724831163883209
1775341933678030000,14.975030029296875,7.302894592285156,8.709874153137207,0.02392822690308094
1775341933694816800,14.991816650390625,8.291130065917969,8.602197647094727,-0.3924229145050049
1775341933711603500,15.008603515625,8.283951759338379,8.571090698242188,-0.004785645287483931
1775341933728390100,15.02539013671875,6.960721015930176,8.963513374328613,-0.4019941985607147
1775341933745176800,15.0421767578125,8.37009334564209,8.37009334564209,-0.016749758273363113
1775341933761963500,15.058963623046875,7.448856830596924,8.066205024719238,-0.6915257573127747
1775341933778750200,15.075750244140625,7.5708909034729,8.599804878234863,0.038285162299871445
1775341933795537000,15.092536865234376,8.408378601074219,7.403393268585205,-0.5120640397071838
1775341933812323600,15.109323486328124,6.821937561035156,8.539983749389648,0.04785645380616188
1775341933829110300,15.1261103515625,7.846065521240234,7.755138397216797,-0.6915257573127747
1775341933845897000,15.14289697265625,7.278966426849365,7.9657063484191895,0.10289137065410614
1775341933862683400,15.159683349609375,7.29810905456543,7.920242786407471,-0.349352091550827
1775341933879470000,15.176469970703126,7.692924976348877,8.01356315612793,-0.01196411345154047
1775341933896256800,15.1932568359375,6.561119556427002,7.379465103149414,-0.35413774847984314
1775341933913043500,15.21004345703125,7.432106971740723,7.343572616577148,-0.1579262912273407
1775341933929830100,15.226830078125,7.412964344024658,7.460821151733398,-0.6005984544754028
1775341933946616800,15.243616943359376,7.188039302825928,7.417750358581543,0.06939185410737991
1775341933963403500,15.260403564453124,7.087540626525879,7.04925537109375,-0.6580262184143066
1775341933980190200,15.277190185546875,6.474977970123291,6.977470874786377,0.04785645380616188
1775341933996977000,15.293976806640625,6.757331371307373,7.3746795654296875,-0.09092725813388824
1775341934013763600,15.310763671875,6.364908218383789,6.489335060119629,-0.11006984114646912
1775341934030550300,15.32755029296875,6.826723098754883,6.759724140167236,-0.32303106784820557
1775341934047337000,15.3443369140625,6.386443614959717,6.9104719161987305,0.13639089465141296
1775341934064123600,15.36112353515625,6.814758777618408,6.8410797119140625,-0.3732803463935852
1775341934080910300,15.377910400390626,5.821737289428711,6.419943332672119,-0.14356936514377594
1775341934097697000,15.394697021484374,6.128018856048584,6.673582553863525,-0.3613162338733673
1775341934114483700,15.411483642578125,6.723831653594971,6.704689025878906,-0.1746760457754135
1775341934131270400,15.4282705078125,6.364908218383789,6.573083877563477,-0.37806597352027893
1775341934148057000,15.44505712890625,6.2428741455078125,6.38883638381958,-0.07896314561367035
1775341934164843800,15.46184375,6.025127410888672,6.2668023109436035,-0.23688943684101105
1775341934181630500,15.47863037109375,6.613761901855469,6.2428741455078125,-0.2153540402650833
1775341934198417200,15.495417236328125,6.262016773223877,6.113661766052246,-0.1052841991186142
1775341934215203800,15.512203857421875,6.826723098754883,5.912664890289307,-0.31824541091918945
1775341934231990500,15.528990478515626,5.9916276931762695,6.020341873168945,-0.2991028428077698
1775341934248777200,15.545777099609374,5.7786664962768555,5.553741455078125,-0.5838487148284912
1775341934265564000,15.56256396484375,5.333601474761963,5.773880958557129,-0.14835500717163086
1775341934282350600,15.5793505859375,4.960321426391602,5.79780912399292,-0.45942193269729614
1775341934299137300,15.59613720703125,5.056034088134766,5.326423168182373,0.2153540402650833
1775341934315923700,15.612923828125,6.204588890075684,4.955535888671875,-0.5048855543136597
1775341934332710700,15.629710693359375,5.37906551361084,5.000999450683594,-0.17946170270442963
1775341934349497000,15.6464970703125,4.216153621673584,4.063013076782227,-0.27756741642951965
1775341934366283800,15.66328369140625,5.795416355133057,4.991427898406982,-0.3397808074951172
1775341934383070500,15.680070556640626,5.900700569152832,4.005585193634033,-0.20099709928035736
1775341934399857200,15.696857177734374,5.848058700561523,4.797609329223633,-0.5240281820297241
1775341934416643800,15.713643798828125,4.417150497436523,5.2354960441589355,0.13639089465141296
1775341934433430500,15.730430419921875,4.321437835693359,5.087141036987305,-0.02871387079358101
1775341934450217200,15.74721728515625,4.814359188079834,5.271388053894043,-0.10289137065410614
1775341934467004000,15.76400390625,5.247459888458252,5.113461971282959,-0.31106695532798767
1775341934483790600,15.78079052734375,5.053641319274902,5.357530117034912,0.0023928226437419653
1775341934500577300,15.797577392578125,4.993820667266846,5.654240131378174,-0.19621145725250244
1775341934517364000,15.814364013671875,7.350750923156738,4.859822750091553,-0.04307080805301666
1775341934534150700,15.831150634765624,4.754538536071777,6.362515449523926,-0.08853443711996078
1775341934550937300,15.847937255859375,5.481956481933594,6.003592014312744,-0.4546363055706024
1775341934567724000,15.86472412109375,7.671389579772949,5.233103275299072,-0.13639089465141296
1775341934584510700,15.8815107421875,3.94097900390625,6.8243303298950195,-0.3397808074951172
1775341934601297400,15.89829736328125,6.379265308380127,6.214160442352295,-0.48574298620224
1775341934618084000,15.915083984375,6.187839508056641,6.226124286651611,0.014356935396790504
1775341934634870800,15.931870849609375,7.200003147125244,6.221338748931885,-0.46899324655532837
1775341934651657500,15.948657470703125,5.98444938659668,6.041877269744873,-0.1866401731967926
1775341934668444200,15.965444091796876,6.075376510620117,6.4510498046875,-0.5838487148284912
1775341934685230600,15.982230712890624,7.168896675109863,6.2189459800720215,-0.04546362906694412
1775341934702017500,15.999017578125,6.089733600616455,6.601797580718994,-0.3278166949748993
1775341934718804000,16.015803955078123,6.0777692794799805,6.269195556640625,0.15314064919948578
1775341934735590700,16.032590576171874,7.2813591957092285,6.192625045776367,-0.5240281820297241
1775341934752377300,16.04937744140625,5.209175109863281,6.946363925933838,-0.03349951654672623
1775341934769164000,16.0661640625,6.750152587890625,6.654439926147461,-0.3206382393836975
1775341934785950700,16.08295068359375,6.9822564125061035,6.5874409675598145,-0.11964113265275955
1775341934802737400,16.0997373046875,6.508477687835693,7.1473612785339355,-0.5000999569892883
1775341934819524000,16.116524169921874,6.4701924324035645,6.829115867614746,-0.10289137065410614
1775341934836310800,16.133310791015624,6.8243303298950195,6.896114826202393,-0.4307080805301666
1775341934853097500,16.150097412109375,7.113861560821533,6.97268533706665,0.1698904037475586
1775341934869884200,16.16688427734375,7.286144733428955,6.943971157073975,-0.7345965504646301
1775341934886670800,16.1836708984375,6.91765022277832,7.417750358581543,-0.1579262912273407
1775341934903457500,16.20045751953125,6.379265308380127,7.288537979125977,-0.5551348328590393
1775341934920244200,16.217244140625,6.530013084411621,7.64028263092041,-0.05024927482008934
1775341934937031000,16.234031005859375,7.307680130004883,7.015756130218506,-0.4666004180908203
1775341934953817600,16.250817626953125,6.98704195022583,7.929814338684082,-0.17946170270442963
1775341934970604300,16.267604248046876,7.058826923370361,7.491927623748779,0.04785645380616188
1775341934987391000,16.284390869140626,7.11146879196167,6.965506553649902,-0.7465606927871704
1775341935004177700,16.301177734375,7.788637638092041,7.211967468261719,0.14117653667926788
1775341935020964400,16.31796435546875,6.5491557121276855,7.506284713745117,-0.3684946894645691
1775341935037750800,16.334750732421874,6.802794933319092,7.5637125968933105,-0.2273181527853012
1775341935054537500,16.351537353515624,6.025127410888672,7.843672752380371,-0.02871387079358101
1775341935071324400,16.368324462890627,7.29093074798584,7.726424217224121,-0.22013968229293823
1775341935088110800,16.38511083984375,7.345965385437012,7.5708909034729,-0.363709032535553
1775341935104897500,16.4018974609375,5.544169902801514,8.159524917602539,-0.2584248483181
1775341935121684200,16.418684326171874,8.281558990478516,7.2813591957092285,-0.2847459018230438
1775341935138471000,16.435470947265625,7.824530124664307,7.767102241516113,-0.42831525206565857
1775341935155257600,16.452257568359375,6.881757736206055,8.391629219055176,-0.31824541091918945
1775341935172044300,16.469044189453125,7.707281589508057,7.5804619789123535,-0.07178468257188797
1775341935188831000,16.4858310546875,7.1234331130981445,7.735995769500732,-0.48095735907554626
1775341935205617700,16.50261767578125,6.661618232727051,7.680960655212402,-0.07657032459974289
1775341935222404400,16.519404296875,7.085147857666016,7.762316703796387,-0.6364908218383789
1775341935239191000,16.53619091796875,7.2574310302734375,7.216753005981445,0.20099709928035736
1775341935255977700,16.552977783203126,7.247859954833984,7.262216567993164,-0.6747759580612183
1775341935272764400,16.569764404296876,7.642675399780273,7.405786037445068,0.04785645380616188
1775341935289551000,16.586551025390627,6.573083877563477,7.6474609375,-0.5288137793540955
1775341935306337800,16.603337890625,6.271588325500488,7.843672752380371,0.11724831163883209
1775341935323124500,16.62012451171875,8.276773452758789,7.45364236831665,-0.8470591902732849
1775341935339911200,16.6369111328125,6.984649181365967,7.616354465484619,0.30628129839897156
1775341935356697900,16.65369775390625,7.032505512237549,8.082955360412598,-0.48095735907554626
1775341935373484300,16.670484375,7.18086051940918,8.578269004821777,0.3278166949748993
1775341935390271000,16.68727099609375,8.417949676513672,7.472784996032715,-0.6819544434547424
1775341935407057700,16.7040576171875,7.642675399780273,8.082955360412598,-0.10767702013254166
1775341935423844400,16.72084423828125,7.747959613800049,8.066205024719238,-0.5096712112426758
1775341935440631000,16.737631103515625,7.171289443969727,8.37009334564209,-0.11724831163883209
1775341935457417700,16.754417724609375,7.692924976348877,8.437092781066895,-0.33738797903060913
1775341935474204400,16.771204345703126,7.817351341247559,8.425128936767578,-0.3732803463935852
1775341935490991000,16.7879912109375,8.032705307006836,8.293522834777832,-0.4091726839542389
1775341935507777800,16.80477783203125,8.111668586730957,8.329415321350098,-0.2847459018230438
1775341935524564500,16.821564453125,7.5804619789123535,8.851051330566406,-0.3397808074951172
1775341935541351200,16.83835107421875,7.89631462097168,8.554341316223145,-0.1459621787071228
1775341935558137900,16.855137939453126,7.781459331512451,8.556734085083008,-0.27038896083831787
1775341935574924500,16.871924560546876,8.420342445373535,8.37966537475586,-0.24167509377002716
1775341935591711200,16.888711181640623,8.267202377319336,8.846264839172363,-0.34217363595962524
1775341935608498000,16.905497802734374,8.609375953674316,8.532805442810059,-0.1818545162677765
1775341935625284600,16.92228466796875,7.451249599456787,8.662017822265625,-0.4785645306110382
1775341935642071300,16.9390712890625,7.759923934936523,8.525627136230469,-0.0526420995593071
1775341935658857700,16.955857666015625,8.372486114501953,8.3629150390625,-0.3900300860404968
1775341935675644400,16.97264453125,7.6043901443481445,8.559126853942871,-0.1339980661869049
1775341935692431000,16.98943115234375,7.7216386795043945,8.616554260253906,-0.28953152894973755
1775341935709217800,17.0062177734375,8.140382766723633,8.48016357421875,-0.2392822653055191
1775341935726004500,17.02300439453125,7.070790767669678,8.623732566833496,-0.16749759018421173
1775341935742791200,17.039791259765625,7.527820110321045,8.118846893310547,-0.29431718587875366
1775341935759577900,17.056577880859376,7.7455668449401855,8.671588897705078,-0.02871387079358101
1775341935776364500,17.073364501953126,7.259823799133301,8.154739379882812,-0.5455635786056519
1775341935793151200,17.090151123046876,6.530013084411621,7.960920810699463,-0.09810572862625122
1775341935809938000,17.10693798828125,8.50169849395752,8.087740898132324,-0.760917603969574
1775341935826724600,17.123724609375,6.975078105926514,7.970492362976074,0.02871387079358101
1775341935843511300,17.14051123046875,7.451249599456787,7.824530124664307,-0.3852444589138031
1775341935860298000,17.157298095703126,6.735795974731445,7.82692289352417,-0.21774685382843018
1775341935877084700,17.174084716796877,7.601997375488281,7.786244869232178,-0.24167509377002716
1775341935893871400,17.190871337890623,7.355536937713623,7.716853141784668,-0.23449662327766418
1775341935910657800,17.20765771484375,7.058826923370361,7.738388538360596,-0.2105683982372284
1775341935927444500,17.224444580078124,6.45822811126709,7.35314416885376,-0.31824541091918945
1775341935944231200,17.241231201171875,7.582854747772217,7.2813591957092285,-0.2153540402650833
1775341935961017900,17.258017822265625,7.288537979125977,6.996613502502441,-0.48574298620224
1775341935977804500,17.274804443359375,7.077969551086426,7.322037220001221,-0.11006984114646912
1775341935994591200,17.29159130859375,7.008577346801758,6.898507595062256,-0.5096712112426758
1775341936011378000,17.3083779296875,6.685546398162842,7.36032247543335,-0.3038884699344635
1775341936028164600,17.32516455078125,5.527420520782471,7.1162543296813965,-0.14356936514377594
1775341936044951300,17.341951416015625,6.238088607788086,7.23589563369751,-0.17228323221206665
1775341936061738000,17.358738037109376,6.6113691329956055,6.63769006729126,-0.1339980661869049
1775341936078524700,17.375524658203126,6.508477687835693,6.764509677886963,-0.11246266216039658
1775341936095311400,17.392311279296877,5.740381717681885,6.776473522186279,-0.019142581149935722
1775341936112098000,17.40909814453125,6.733402729034424,6.2668023109436035,-0.09092725813388824
1775341936128884500,17.425884521484374,6.8865437507629395,6.3122663497924805,-0.1866401731967926
1775341936145671200,17.442671142578124,6.10169792175293,6.915257453918457,-0.1052841991186142
1775341936162458000,17.4594580078125,6.455835342407227,6.020341873168945,-0.4331009089946747
1775341936179244500,17.47624462890625,5.962913990020752,6.144768714904785,-0.4737788736820221
1775341936196031200,17.49303125,5.173282623291016,6.3529438972473145,-0.4713860750198364
1775341936212818000,17.50981787109375,6.32662296295166,6.020341873168945,-0.19621145725250244
1775341936229604600,17.5266044921875,6.238088607788086,6.240481376647949,-0.4043870270252228
1775341936246391300,17.543391357421875,5.592026710510254,5.831308841705322,-0.1986042857170105
1775341936263178000,17.560177978515625,5.685346603393555,5.637490272521973,-0.31106695532798767
1775341936279964700,17.576964599609376,5.7786664962768555,5.240281581878662,-0.20099709928035736
1775341936296751400,17.59375146484375,6.214160442352295,5.398207664489746,-0.2512463629245758
1775341936313538000,17.6105380859375,4.292723655700684,5.484349727630615,-0.45942193269729614
1775341936330324700,17.62732470703125,4.821537494659424,5.218746185302734,-0.007178467698395252
1775341936347111400,17.644111328125,5.484349727630615,3.3308091163635254,0.45942193269729614
1775341936363898000,17.660898193359376,5.027320384979248,4.869394302368164,-0.3445664644241333
1775341936380684500,17.6776845703125,5.01296329498291,4.158725738525391,0.09810572862625122
1775341936397471200,17.69447119140625,4.311866283416748,4.656432628631592,0.08374879509210587
1775341936414258000,17.7112578125,5.553741455078125,4.40757942199707,-0.44745782017707825
1775341936431044600,17.728044677734374,4.816751956939697,4.548755645751953,0.02392822690308094
1775341936447831300,17.744831298828124,4.113262176513672,5.1804609298706055,-0.3613162338733673
1775341936464618000,17.761617919921875,5.44845724105835,4.675575256347656,-0.19142581522464752
1775341936481404700,17.77840478515625,5.125426292419434,5.350351333618164,-0.6771687865257263
1775341936498191400,17.79519140625,4.340580463409424,5.508277893066406,-0.08853443711996078
1775341936514978000,17.81197802734375,8.700303077697754,4.027120590209961,-1.062413215637207
1775341936531764700,17.8287646484375,4.1659040451049805,6.106483459472656,0.016749758273363113
1775341936548551400,17.845551513671875,4.505684852600098,6.733402729034424,-0.349352091550827
1775341936565338000,17.862338134765626,9.640682220458984,4.381258487701416,-0.4953143000602722
1775341936582124800,17.879124755859376,3.620340585708618,7.436892986297607,0.27038896083831787
1775341936598911500,17.895911376953126,7.551748275756836,6.31944465637207,-0.42352959513664246
1775341936615698000,17.912697998046873,6.489335060119629,6.400800704956055,-0.24406790733337402
1775341936632484600,17.929484619140624,5.522634506225586,6.809973239898682,-0.23688943684101105
1775341936649271300,17.946271240234374,7.599604606628418,6.484549522399902,-0.038285162299871445
1775341936666058000,17.96305810546875,6.45822811126709,6.867401123046875,-0.35413774847984314
1775341936682844700,17.9798447265625,6.766902446746826,6.8171515464782715,-0.031106693670153618
1775341936699631400,17.99663134765625,6.594619274139404,6.419943332672119,-0.6221339106559753
1775341936716418000,18.01341796875,7.027719974517822,6.915257453918457,0.1459621787071228
1775341936733204700,18.030204833984374,6.075376510620117,7.070790767669678,-0.2991028428077698
1775341936749991400,18.046991455078125,7.089933395385742,6.697510719299316,-0.2584248483181
1775341936766778000,18.063778076171875,6.192625045776367,7.7455668449401855,-0.5335994362831116
1775341936783564800,18.080564697265626,6.221338748931885,7.10429048538208,0.19621145725250244
1775341936800351500,18.0973515625,7.051648139953613,7.424928665161133,-0.5168496966362
1775341936817138000,18.114137939453126,6.989434719085693,7.03489875793457,0.12203395366668701
1775341936833924600,18.130924560546877,6.888936519622803,7.317251682281494,-0.7322037220001221
1775341936850711300,18.147711181640624,6.508477687835693,7.384250640869141,0.20817556977272034
1775341936867498000,18.164498046875,8.389236450195312,7.156932353973389,-0.5694918036460876
1775341936884284700,18.18128466796875,5.67338228225708,7.6498541831970215,-0.04785645380616188
1775341936901071400,18.1980712890625,7.0683979988098145,7.704888820648193,-0.19621145725250244
1775341936917858000,18.214858154296873,7.858029365539551,6.908079147338867,-0.3326023519039154
1775341936934644700,18.231644775390624,6.364908218383789,7.494320392608643,-0.43549370765686035
1775341936951431400,18.248431396484374,7.113861560821533,7.750352382659912,-0.3326023519039154
1775341936968218000,18.265218017578125,7.448856830596924,7.250252723693848,-0.5240281820297241
1775341936985004800,18.2820048828125,7.616354465484619,7.412964344024658,0.07896314561367035
1775341937001791500,18.29879150390625,7.252645492553711,7.202396392822266,-0.6005984544754028
1775341937018578000,18.315577880859376,6.283552169799805,7.23589563369751,0.19621145725250244
1775341937035364600,18.332364501953126,7.908278942108154,7.245467185974121,-0.5958128571510315
1775341937052151300,18.3491513671875,6.302694797515869,7.575676441192627,0.06939185410737991
1775341937068938000,18.36593798828125,6.675975322723389,7.793423175811768,-0.18424734473228455
1775341937085724700,18.382724609375,6.501298904418945,7.513463020324707,-0.13878370821475983
1775341937102511400,18.399511474609376,7.3746795654296875,7.611568927764893,-0.031106693670153618
1775341937119298000,18.416298095703127,8.221738815307617,6.86261510848999,-0.46899324655532837
1775341937136084700,18.433084716796873,7.420143127441406,8.032705307006836,-0.2847459018230438
1775341937152871400,18.449871337890624,7.29810905456543,7.037291526794434,-0.24406790733337402
1775341937169658000,18.466658203125,7.858029365539551,7.657032489776611,-0.6197410821914673
1775341937186444500,18.483444580078125,6.474977970123291,7.637889862060547,-0.28953152894973755
1775341937203231500,18.5002314453125,6.833901405334473,7.1234331130981445,-0.4211367964744568
1775341937220018000,18.517017822265625,6.994220733642578,7.501499176025391,-0.3565305769443512
1775341937236804600,18.5338046875,7.467999458312988,7.70249605178833,-0.07178468257188797
1775341937253591300,18.55059130859375,6.872186660766602,7.255038261413574,-0.2847459018230438
1775341937270378000,18.5673779296875,7.527820110321045,7.080362319946289,-0.15553347766399384
1775341937287164700,18.58416455078125,7.204789161682129,7.226324558258057,-0.44745782017707825
1775341937303951400,18.600951416015626,5.814558982849121,7.776673793792725,0.15314064919948578
1775341937320738000,18.617738037109376,7.027719974517822,7.618747234344482,-0.37806597352027893
1775341937337524700,18.634524658203127,8.752944946289062,6.865008354187012,-0.2560320198535919
1775341937354311400,18.6513115234375,6.056233882904053,7.920242786407471,-0.17706887423992157
1775341937371098000,18.66809814453125,6.063412666320801,8.075776100158691,0.02871387079358101
1775341937387884800,18.684884765625,8.34855842590332,7.345965385437012,-0.5168496966362
1775341937404671500,18.70167138671875,6.989434719085693,7.795815944671631,-0.15314064919948578
1775341937421458000,18.7184580078125,6.553941249847412,8.109275817871094,-0.37806597352027893
1775341937438244600,18.73524462890625,7.936992645263672,7.403393268585205,-0.33020952343940735
1775341937455031300,18.75203125,7.121040344238281,7.9657063484191895,-0.2727817893028259
1775341937471818000,18.76881787109375,6.929614543914795,8.233702659606934,-0.3684946894645691
1775341937488604700,18.785604736328125,8.219346046447754,7.642675399780273,-0.13639089465141296
1775341937505391400,18.802391357421875,7.884350776672363,7.877171993255615,-0.33738797903060913
1775341937522178000,18.819177978515626,7.941778182983398,7.934599876403809,-0.14835500717163086
1775341937538964700,18.83596484375,5.891129493713379,8.58784008026123,-0.34217363595962524
1775341937555751400,18.85275146484375,7.664210796356201,8.446663856506348,-0.09092725813388824
1775341937572538000,18.8695380859375,8.128418922424316,7.874779224395752,-0.45224347710609436
1775341937589324500,18.886324462890624,7.558926582336426,8.11406135559082,-0.09571290761232376
1775341937606111200,18.903111328125,7.345965385437012,8.243273735046387,-0.33499518036842346
1775341937622898000,18.91989794921875,7.865208148956299,7.970492362976074,-0.19381862878799438
1775341937639684600,18.9366845703125,7.106683254241943,8.499305725097656,-0.3732803463935852
1775341937656471300,18.95347119140625,7.2574310302734375,8.489734649658203,-0.1459621787071228
1775341937673258000,18.970258056640624,7.893921852111816,8.38684368133545,-0.2991028428077698
1775341937690044700,18.987044677734374,7.276573657989502,8.286344528198242,-0.16271193325519562
1775341937706831400,19.003831298828125,7.704888820648193,8.812766075134277,-0.3326023519039154
1775341937723618000,19.0206181640625,8.669196128845215,8.413164138793945,-0.26081767678260803
1775341937740404500,19.037404541015626,7.64028263092041,9.001798629760742,-0.2679961323738098
1775341937757191400,19.05419140625,7.824530124664307,8.709874153137207,-0.12921242415905
1775341937773978000,19.07097802734375,8.271987915039062,8.810373306274414,-0.5024927258491516
1775341937790764500,19.0877646484375,7.735995769500732,8.848658561706543,-0.3326023519039154
1775341937807551200,19.10455126953125,8.01356315612793,8.415556907653809,-0.4259224236011505
1775341937824338000,19.121337890625,7.41535758972168,8.774480819702148,-0.21296121180057526
1775341937841124600,19.13812451171875,7.479963779449463,8.015955924987793,-0.17706887423992157
1775341937857911300,19.154911376953127,8.446663856506348,7.936992645263672,-0.4378865361213684
1775341937874698000,19.171697998046874,7.3746795654296875,8.319844245910645,0.14356936514377594
1775341937891484700,19.188484619140624,7.0683979988098145,7.860422611236572,-0.4833501875400543
1775341937908271400,19.205271240234374,7.594819068908691,8.327022552490234,0.14835500717163086
1775341937925058000,19.22205810546875,7.491927623748779,7.587640762329102,-0.37806597352027893
1775341937941844500,19.238844482421875,6.391229152679443,8.032705307006836,-0.12203395366668701
1775341937958631200,19.255631103515626,7.4464640617370605,7.405786037445068,-0.6197410821914673
1775341937975417900,19.27241796875,7.286144733428955,7.599604606628418,-0.2727817893028259
1775341937992204500,19.28920458984375,7.389036178588867,7.661818027496338,-0.1866401731967926
1775341938008991200,19.3059912109375,6.776473522186279,7.683353424072266,-0.2512463629245758
1775341938025778000,19.32277783203125,6.094519138336182,7.424928665161133,-0.32542386651039124
1775341938042564600,19.339564697265626,6.843472957611084,7.231110095977783,-0.5144568681716919
1775341938059351300,19.356351318359376,6.434299945831299,7.221538543701172,0.02871387079358101
1775341938076138000,19.373137939453127,7.724031448364258,6.558726787567139,-0.38285163044929504
1775341938092924700,19.389924560546874,6.527620315551758,6.850651264190674,-0.2512463629245758
1775341938109711000,19.406711181640624,6.558726787567139,6.652047157287598,-0.21774685382843018
1775341938126497800,19.423497802734374,7.324429988861084,6.245266914367676,-0.2225325107574463
1775341938143284500,19.440284423828125,6.7621169090271,6.879364967346191,-0.2847459018230438
1775341938160071200,19.4570712890625,6.745367050170898,6.888936519622803,-0.20099709928035736
1775341938176857900,19.47385791015625,6.6352972984313965,6.821937561035156,-0.275174617767334
1775341938193644500,19.49064453125,6.640082836151123,6.798008918762207,-0.32542386651039124
1775341938210431200,19.50743115234375,6.2428741455078125,6.692724704742432,-0.2632105052471161
1775341938227218000,19.524218017578125,6.585047721862793,6.1088762283325195,-0.40677985548973083
1775341938244004600,19.541004638671875,5.9437713623046875,6.623332977294922,-0.14117653667926788
1775341938260791300,19.557791259765626,6.106483459472656,6.211767673492432,0.05503492057323456
1775341938277577700,19.57457763671875,6.288337707519531,5.962913990020752,-0.20338992774486542
1775341938294364400,19.591364501953127,5.867201328277588,6.618547439575195,-0.3732803463935852
1775341938311151000,19.608151123046873,6.56829833984375,5.929414749145508,0.035892341285943985
1775341938327937800,19.624937744140624,6.372086524963379,6.187839508056641,-0.3732803463935852
1775341938344724500,19.641724365234374,5.891129493713379,6.096911907196045,-0.2153540402650833
1775341938361511200,19.65851123046875,5.505885124206543,6.118447303771973,-0.39960137009620667
1775341938378297900,19.6752978515625,5.742774486541748,5.826523303985596,-0.31345975399017334
1775341938395084500,19.69208447265625,6.087340831756592,5.864808082580566,-0.5168496966362
1775341938411871200,19.708871337890624,6.26440954208374,5.862415313720703,-0.20338992774486542
1775341938428657700,19.72565771484375,6.0777692794799805,5.907878875732422,-0.363709032535553
1775341938445444400,19.7424443359375,5.79780912399292,6.017949104309082,0
1775341938462231000,19.75923095703125,5.881557941436768,6.154339790344238,-0.4019941985607147
1775341938479017700,19.776017822265626,5.496313571929932,6.293123722076416,0.01196411345154047
1775341938495804400,19.792804443359376,5.7547383308410645,5.864808082580566,-0.4091726839542389
1775341938512591000,19.809591064453127,6.183053493499756,5.867201328277588,-0.009571290574967861
1775341938529377800,19.826377685546873,6.412764549255371,6.283552169799805,-0.33020952343940735
1775341938546164500,19.84316455078125,5.9916276931762695,5.821737289428711,-0.15553347766399384
1775341938562951200,19.859951171875,5.924628734588623,6.125626087188721,-0.4019941985607147
1775341938579737900,19.87673779296875,6.333801746368408,5.601597785949707,-0.17228323221206665
1775341938596524300,19.893524169921875,6.262016773223877,6.240481376647949,-0.5312066078186035
1775341938613311000,19.91031103515625,6.029912948608398,6.068198204040527,-0.11485548317432404
1775341938630097700,19.92709765625,6.417550563812256,6.226124286651611,-0.19621145725250244
1775341938646884400,19.94388427734375,5.850451469421387,6.486942291259766,-0.05503492057323456
1775341938663671000,19.960671142578125,6.340980052947998,6.439085960388184,-0.14117653667926788
1775341938680457700,19.977457763671875,6.206982135772705,6.553941249847412,-0.22971096634864807
1775341938697244400,19.994244384765626,6.721438884735107,6.754938125610352,-0.0023928226437419653
1775341938714031000,20.011031005859376,6.948757171630859,6.742974281311035,-0.363709032535553
1775341938730817800,20.02781787109375,6.594619274139404,6.943971157073975,-0.08614161610603333
1775341938747604200,20.044604248046873,6.912864685058594,6.929614543914795,-0.33499518036842346
1775341938764391000,20.061390869140624,6.874579429626465,6.920042991638184,-0.25363919138908386
1775341938781177600,20.078177490234374,6.719046115875244,7.04925537109375,-0.4498506486415863
1775341938797964300,20.09496435546875,6.821937561035156,7.1162543296813965,-0.17706887423992157
1775341938814751000,20.1117509765625,7.04925537109375,7.133004188537598,-0.42352959513664246
1775341938831537700,20.12853759765625,6.57547664642334,7.195217609405518,-0.27038896083831787
1775341938848324400,20.145324462890624,6.814758777618408,7.154539585113525,-0.32303106784820557
1775341938865111000,20.162111083984374,7.058826923370361,7.195217609405518,-0.1698904037475586
1775341938881897500,20.1788974609375,6.479763507843018,7.223931789398193,-0.27756741642951965
1775341938898684200,20.19568408203125,6.719046115875244,7.1162543296813965,-0.3206382393836975
1775341938915470800,20.212470947265626,7.590033531188965,7.188039302825928,-0.11724831163883209
1775341938932257500,20.229257568359376,6.661618232727051,6.965506553649902,-0.21774685382843018
1775341938949044200,20.246044189453126,6.692724704742432,7.063612461090088,-0.11006984114646912
1775341938965831000,20.262830810546873,6.831508636474609,6.936792850494385,-0.36610186100006104
1775341938982617600,20.27961767578125,6.427121639251709,6.9104719161987305,-0.19621145725250244
1775341938999404300,20.296404296875,6.4079790115356445,6.833901405334473,-0.3565305769443512
1775341939016191000,20.31319091796875,6.757331371307373,6.632904529571533,-0.2967100143432617
1775341939032977400,20.329977294921875,6.214160442352295,6.6352972984313965,-0.380458801984787
1775341939049764000,20.34676416015625,6.228517532348633,6.63051176071167,-0.3924229145050049
1775341939066550800,20.36355078125,6.728617191314697,5.862415313720703,-0.24646073579788208
1775341939083337500,20.38033740234375,4.462614059448242,6.508477687835693,-0.1339980661869049
1775341939100124200,20.397124267578125,6.690331935882568,5.7619171142578125,0.10049854964017868
1775341939116910800,20.413910888671875,5.850451469421387,5.9916276931762695,-0.08853443711996078
1775341939133697500,20.430697509765626,5.687739372253418,6.214160442352295,-0.06939185410737991
1775341939150484200,20.447484130859376,5.996413707733154,6.297909259796143,-0.14356936514377594
1775341939167270700,20.464270751953126,6.3601226806640625,6.197410583496094,-0.08853443711996078
1775341939184057300,20.481057373046873,6.0466628074646,6.376872539520264,-0.3445664644241333
1775341939200844000,20.497843994140624,6.180660724639893,6.45822811126709,-0.22013968229293823
1775341939217630700,20.514630615234374,6.692724704742432,6.049055576324463,-0.4785645306110382
1775341939234417400,20.53141748046875,6.702296257019043,6.26440954208374,-0.28235307335853577
1775341939251204000,20.5482041015625,6.25723123550415,6.532405853271484,-0.5024927258491516
1775341939267990800,20.56499072265625,6.151947021484375,6.539584159851074,-0.5288137793540955
1775341939284777500,20.581777587890624,6.305087566375732,6.896114826202393,-0.019142581149935722
1775341939301564200,20.598564208984374,6.314659118652344,6.597012042999268,-0.3900300860404968
1775341939318350600,20.6153505859375,5.694917678833008,7.0995049476623535,-0.0933200865983963
1775341939335137300,20.63213720703125,6.63051176071167,6.757331371307373,-0.1339980661869049
1775341939351924000,20.648924072265626,7.678567886352539,6.343372821807861,-0.397208571434021
1775341939368710700,20.665710693359376,5.946164131164551,7.379465103149414,0.17706887423992157
1775341939385497300,20.682497314453126,7.310073375701904,6.881757736206055,-0.15074782073497772
1775341939402284000,20.699283935546877,6.977470874786377,6.953542709350586,-0.2847459018230438
1775341939419070700,20.71607080078125,6.333801746368408,6.896114826202393,-0.2847459018230438
1775341939435857400,20.732857421875,7.020541667938232,6.738188743591309,-0.4905286431312561
1775341939452643800,20.749643798828124,7.197610378265381,7.245467185974121,-0.1746760457754135
1775341939469430500,20.766430419921875,5.824130535125732,7.377072334289551,-0.6005984544754028
1775341939486217200,20.78321728515625,6.393621921539307,6.960721015930176,-0.3038884699344635
1775341939503004000,20.80000390625,6.5419769287109375,7.3675007820129395,-0.5072783827781677
1775341939519790600,20.81679052734375,6.896114826202393,7.1856465339660645,-0.5072783827781677
1775341939536577300,20.833577392578125,7.36032247543335,6.757331371307373,-0.5670989751815796
1775341939553364000,20.850364013671875,6.288337707519531,7.2095746994018555,0.15074782073497772
1775341939570150700,20.867150634765625,6.819544315338135,7.618747234344482,-0.2632105052471161
1775341939586937000,20.88393701171875,6.896114826202393,6.781259536743164,0.08374879509210587
1775341939603723800,20.900723876953126,7.357929706573486,7.121040344238281,-0.2560320198535919
1775341939620510500,20.917510498046877,6.553941249847412,7.130611419677734,-0.15074782073497772
1775341939637297200,20.934297119140624,7.23589563369751,7.118647575378418,-0.02392822690308094
1775341939654083800,20.951083740234374,6.896114826202393,7.001399040222168,-0.5216353535652161
1775341939670870500,20.96787060546875,6.106483459472656,7.221538543701172,-0.16271193325519562
1775341939687657200,20.9846572265625,7.738388538360596,6.984649181365967,-0.607776939868927
1775341939704444000,21.00144384765625,6.589833736419678,7.389036178588867,-0.363709032535553
1775341939721230600,21.018230712890624,6.460621356964111,6.912864685058594,-0.46899324655532837
1775341939738017300,21.035017333984374,6.673582553863525,7.17368221282959,-0.23688943684101105
1775341939754803700,21.0518037109375,6.616154670715332,7.267002582550049,-0.12921242415905
1775341939771590400,21.06859033203125,6.51326322555542,6.783652305603027,-0.37806597352027893
1775341939788377000,21.085377197265625,6.97268533706665,6.618547439575195,0.06699903309345245
1775341939805163800,21.102163818359376,6.632904529571533,7.278966426849365,-0.20099709928035736
1775341939821950500,21.118950439453126,6.649653911590576,6.891329288482666,-0.2225325107574463
1775341939838737200,21.135737060546877,6.463014125823975,7.18086051940918,-0.13160525262355804
1775341939855523800,21.15252392578125,5.965306758880615,7.501499176025391,-0.23210379481315613
1775341939872310500,21.169310546875,6.6831536293029785,7.061219692230225,0.12681959569454193
1775341939889097200,21.18609716796875,6.668796539306641,7.245467185974121,-0.44027936458587646
1775341939905883600,21.202883544921875,7.3052873611450195,6.946363925933838,-0.2919243574142456
1775341939922670300,21.21967041015625,6.912864685058594,7.458428382873535,-0.4953143000602722
1775341939939457000,21.23645703125,6.922435760498047,7.288537979125977,-0.23449662327766418
1775341939956243700,21.25324365234375,6.680760860443115,7.4225358963012695,-0.4139583110809326
1775341939973030400,21.270030517578125,6.8171515464782715,7.465606689453125,-0.2632105052471161
1775341939989817000,21.286817138671875,6.704689025878906,7.171289443969727,-0.1986042857170105
1775341940006603800,21.303603759765625,7.204789161682129,7.214360237121582,-0.3565305769443512
1775341940023390500,21.320390380859376,7.22871732711792,7.6474609375,-0.3326023519039154
1775341940040177200,21.33717724609375,6.752545356750488,6.97268533706665,-0.20099709928035736
1775341940056963800,21.3539638671875,7.087540626525879,7.211967468261719,-0.23210379481315613
1775341940073750300,21.370750244140623,6.714260101318359,7.36032247543335,-0.10049854964017868
1775341940090537000,21.387536865234374,6.417550563812256,8.188239097595215,-0.07417750358581543
1775341940107323600,21.40432373046875,7.142575740814209,7.5086774826049805,-0.19381862878799438
1775341940124110300,21.4211103515625,7.389036178588867,7.401000499725342,-0.3206382393836975
1775341940140897000,21.43789697265625,6.460621356964111,7.88913631439209,-0.1052841991186142
