time,seconds_elapsed,z,y,x
1775751072988153300,0.0591533203125,1.7736024949163198,-9.335199193698168,2.424618864121288
1775751072998167600,0.06916748046875,1.7582227010853588,-9.338352104771136,2.423676468704641
1775751073008181200,0.07918115234375,1.747620496919751,-9.340727017208934,2.42219499797523
1775751073018195500,0.089195556640625,1.7429637571550904,-9.34347543913424,2.414933190278709
1775751073028208400,0.09920849609375,1.7446081633612514,-9.346855144700408,2.400633446769416
1775751073038222300,0.109222412109375,1.7505584500677882,-9.350145418417453,2.3834246839456257
1775751073048236300,0.119236328125,1.7577055453434585,-9.352118764317035,2.3703802011944353
1775751073058250500,0.12925048828125,1.7643766936704515,-9.3521491594553,2.365298075624555
1775751073068264400,0.139264404296875,1.7694968131631612,-9.350739877179265,2.367058947817236
1775751073078277400,0.14927734375,1.7729145126521586,-9.348485960772633,2.373390050534904
1775751073088291300,0.159291259765625,1.776980300786346,-9.345678502136469,2.381385140942037
1775751073098305500,0.169305419921875,1.7824211766660212,-9.34257878255546,2.38946834802404
1775751073108319500,0.179319580078125,1.790292786823958,-9.339263374397158,2.3965407706283033
1775751073118333400,0.18933349609375,1.8024176705121993,-9.33577027158439,2.4010570790089667
1775751073128346400,0.199346435546875,1.8196354934252799,-9.33123905789554,2.4056825468525287
1775751073138360600,0.209360595703125,1.8414247159071266,-9.324662602114676,2.414582915536314
1775751073148374300,0.219374267578125,1.868565528549999,-9.314784182178974,2.4318035149283705
1775751073158388500,0.229388427734375,1.904722006819397,-9.300002208110689,2.4601658321902153
1775751073168402400,0.23940234375,1.9536415205501019,-9.278418152812122,2.5029268232911823
1775751073178415600,0.24941552734375,2.0152024891890585,-9.249169261974096,2.561683255903423
1775751073188429300,0.25942919921875,2.0810313444055617,-9.214543938794732,2.632843827536702
1775751073198443500,0.269443603515625,2.1421394547104833,-9.178245713967085,2.7095059191957116
1775751073208457500,0.27945751953125,2.1958646151572463,-9.143024178460239,2.7845427477404474
1775751073218471400,0.289471435546875,2.239296637387574,-9.11156053418219,2.852263992574811
1775751073228485400,0.2994853515625,2.2719966915927827,-9.084617582198977,2.911723312759399
1775751073238498600,0.30949853515625,2.2955814191892743,-9.061028616818785,2.9662220879271626
1775751073248512500,0.319512451171875,2.3117671225756404,-9.039245239555836,3.019628976204991
1775751073258526200,0.329526123046875,2.3251877451628444,-9.017193566745519,3.0747508517071602
1775751073268540400,0.33954052734375,2.338632771538943,-8.994173925685882,3.1314532743990418
1775751073278554400,0.349554443359375,2.3540812466919423,-8.969797609320283,3.18926278154999
1775751073288567600,0.359567626953125,2.3715876772880553,-8.942693913817406,3.251797855918109
1775751073298581200,0.369581298828125,2.3900883796185255,-8.913077358710765,3.3188740808472037
1775751073308595500,0.379595458984375,2.411859628052264,-8.88015124066472,3.3906104065418243
1775751073318609400,0.389609375,2.435620150607079,-8.843790471994877,3.4677798632010814
1775751073328623600,0.39962353515625,2.457558864562213,-8.805881889361142,3.5478491329550743
1775751073338637300,0.40963720703125,2.4744033241182564,-8.769213662177323,3.626099662849307
1775751073348650500,0.419650390625,2.48679927983284,-8.734748497995733,3.70005074198395
1775751073358664400,0.42966455078125,2.498363753159344,-8.70163299485743,3.769635442602634
1775751073368678400,0.439678466796875,2.5105899052649736,-8.669548003810643,3.834872177144885
1775751073378692400,0.4496923828125,2.521264151753485,-8.638692846819758,3.8969969171464443
1775751073388706600,0.45970654296875,2.5275588679835197,-8.608544376793503,3.9591383160218596
1775751073398719500,0.469719482421875,2.527846160492301,-8.579358029797673,4.021814844687283
1775751073408733400,0.4797333984375,2.520285369849205,-8.552149120354652,4.084030477842688
1775751073418747400,0.489747314453125,2.505821667949855,-8.527519706010818,4.143986933894455
1775751073428761600,0.49976171875,2.487984690225124,-8.506932845056056,4.196711977387965
1775751073438775800,0.50977587890625,2.4707310653463006,-8.490455172985792,4.240049307072162
1775751073448789000,0.5197890625,2.4574855070650576,-8.47563169786334,4.277247987870871
1775751073458803000,0.529802978515625,2.4461155333973466,-8.460723467066883,4.313125941459834
1775751073468816600,0.539816650390625,2.436240474462509,-8.444957742658257,4.349460698905587
1775751073478830800,0.549830810546875,2.4315308354668317,-8.428681730639934,4.383534525682032
1775751073488844800,0.5598447265625,2.4313395506784317,-8.413421033143997,4.412853851407766
1775751073498859000,0.56985888671875,2.4335563499450683,-8.40030436193943,4.4365614747315645
1775751073508871700,0.57987158203125,2.4349191627308726,-8.388601064664124,4.457904414750636
1775751073518886000,0.589885986328125,2.432210926685482,-8.377240297216176,4.48068615540117
1775751073528899800,0.59989990234375,2.427640257769078,-8.366125613483787,4.503872092938423
1775751073538914000,0.6099140625,2.4247188173644245,-8.355575577896833,4.524988822986185
1775751073548927700,0.619927734375,2.4235031579643485,-8.34549023721218,4.544208194980025
1775751073558941000,0.62994091796875,2.422202158368379,-8.336068913394213,4.562154186037183
1775751073568955000,0.639954833984375,2.419277503093332,-8.32740220733583,4.579503672505915
1775751073578968800,0.64996875,2.4161769067294894,-8.31997585672736,4.594616193702817
1775751073588982800,0.659982666015625,2.4169169114418327,-8.314482520008086,4.6041608516395085
1775751073598997000,0.6699970703125,2.4221986512370406,-8.310694818162917,4.6082159722492095
1775751073609011000,0.680010986328125,2.428010552386194,-8.310070548784733,4.606288219057023
1775751073619024000,0.69002392578125,2.432094022307545,-8.313256193083523,4.59837759206295
1775751073629037800,0.700037841796875,2.4347723016060887,-8.318520981743932,4.5874254054158925
1775751073639052000,0.710052001953125,2.4327239907741545,-8.325261103653908,4.576270974195003
1775751073649065700,0.720065673828125,2.4240835882008076,-8.333229890576005,4.56634491572529
1775751073659079700,0.73007958984375,2.408995178531855,-8.342627248996497,4.55716061553359
1775751073669092900,0.7400927734375,2.385053892582655,-8.35310246578157,4.550560194355249
1775751073679107000,0.750107177734375,2.3529211168713866,-8.362883855083584,4.549318962122499
1775751073689120800,0.760120849609375,2.3156275973960754,-8.370394961366056,4.554640157145261
1775751073699134700,0.770134765625,2.2725230535544454,-8.374840250337124,4.568163071063161
1775751073709149000,0.78014892578125,2.2271439889095723,-8.37568839159906,4.588907460667192
1775751073719163000,0.790162841796875,2.185716146108508,-8.37217950669527,4.615157169689238
1775751073729175800,0.80017578125,2.1486321777306494,-8.365935059347748,4.643803710719943
1775751073739189800,0.810189697265625,2.1220823167182505,-8.357834755000471,4.670519283688068
1775751073749204000,0.820203857421875,2.108194661141187,-8.349100828924774,4.692378941057622
1775751073759217700,0.8302177734375,2.1054035691179336,-8.339796409484743,4.710141976763308
1775751073769232000,0.84023193359375,2.111145181509852,-8.330099191334844,4.724710600341856
1775751073779244800,0.850244873046875,2.122346666742861,-8.31997819481492,4.737508999377488
1775751073789259000,0.860259033203125,2.134136619388312,-8.30893774536252,4.75156791986823
1775751073799272700,0.870272705078125,2.157009253192693,-8.295878941825032,4.764041909255087
1775751073809287000,0.880286865234375,2.206900388434529,-8.27616827918291,4.7754620056748385
1775751073819300900,0.89030078125,2.2537385658465325,-8.25718067011833,4.786440788067877
1775751073829315000,0.900315185546875,2.2783277943104503,-8.246106318396329,4.79388555111587
1775751073839327700,0.91032763671875,2.2854110305696724,-8.240312537425757,4.800471066986024
1775751073849342000,0.920342041015625,2.289418658775836,-8.241059556400776,4.797277531641721
1775751073859356000,0.93035595703125,2.2982078221701085,-8.248320487314462,4.7805683889031405
1775751073869369900,0.940369873046875,2.3115528953030706,-8.263843635138869,4.74721352405101
1775751073879383800,0.9503837890625,2.328963464309275,-8.28995130534172,4.692872569793463
1775751073889397000,0.96039697265625,2.3480580408796667,-8.32172883787453,4.626643609343469
1775751073899411000,0.970410888671875,2.3707591175094245,-8.348236321049928,4.566928560832142
1775751073909425000,0.9804248046875,2.414225918792188,-8.360090424972773,4.5222561831519
1775751073919438800,0.99043896484375,2.4970251980319618,-8.352766950216889,4.490718012332916
1775751073929452800,1.000452880859375,2.6170933006972072,-8.323525658163428,4.47662139018029
1775751073939467000,1.010467041015625,2.7391405944809315,-8.271480413627623,4.500013663944602
1775751073949480000,1.02047998046875,2.8483386358246205,-8.199507064306735,4.563491864381731
1775751073959494000,1.030493896484375,2.9485248109340665,-8.127367126247286,4.628443936763704
1775751073969507800,1.0405078125,3.044890843233466,-8.076189896717667,4.6555549387902015
1775751073979521800,1.050521728515625,3.130214964775741,-8.049499458190798,4.6451790907263755
1775751073989535700,1.06053564453125,3.1994296630382535,-8.036748113167285,4.620036466163397
1775751073999549000,1.070548828125,3.259756121446192,-8.028004250219464,4.592989177022874
1775751074009562600,1.080562744140625,3.3127883311927318,-8.019519330468773,4.569805285312235
1775751074019576800,1.090576904296875,3.3579733345702287,-8.006345376119016,4.559915759460628
1775751074029590800,1.1005908203125,3.3961113420456646,-7.98545164117217,4.568301018229127
1775751074039605000,1.11060498046875,3.4297295340090987,-7.961248927807808,4.58539652993679
1775751074049619000,1.120618896484375,3.4599914012819526,-7.93707368697226,4.604529684951901
1775751074059631900,1.1306318359375,3.487733102427423,-7.91303405521512,4.624928329858184
1775751074069645800,1.140645751953125,3.5164287432968613,-7.891001087105273,4.640819434212148
1775751074079660000,1.150659912109375,3.54700771369487,-7.873533819475769,4.6472158572509885
1775751074089673700,1.160673828125,3.5763106728076934,-7.862564097172021,4.643327325379849
1775751074099688000,1.17068798828125,3.6007530401468273,-7.8599115368366235,4.628903370968997
1775751074109702000,1.180701904296875,3.61937093911618,-7.864959467875957,4.605748413091898
1775751074119714800,1.19071484375,3.632848552587628,-7.874182638773322,4.579308149933815
1775751074129728800,1.200728759765625,3.642003042162955,-7.883510439088941,4.555925228519738
1775751074139743000,1.210742919921875,3.647362523369491,-7.889189069247245,4.541786520791054
1775751074149757000,1.2207568359375,3.649409519027173,-7.890033703377842,4.538678325642645
1775751074159771000,1.23077099609375,3.6502541531577704,-7.8869830836355685,4.543300140224397
1775751074169783800,1.24078369140625,3.6524890726029873,-7.882606768247484,4.549089537280798
1775751074179797800,1.2507978515625,3.6552895169764756,-7.879163349795341,4.552799497714639
1775751074189812000,1.26081201171875,3.6561809128582476,-7.8779265014767645,4.554224269820749
1775751074199825700,1.27082568359375,3.6547207771778103,-7.879027740716934,4.5534950787633655
1775751074209839900,1.28083984375,3.651066638584435,-7.88147922552228,4.552185749730468
1775751074219853800,1.290853759765625,3.646642684662342,-7.884522246479988,4.550462871460616
1775751074229866800,1.30086669921875,3.640368426698446,-7.88709122018516,4.551034241607785
1775751074239880700,1.310880615234375,3.6326086063519116,-7.889642658233642,4.552811772674322
1775751074249895000,1.32089501953125,3.6235982014223933,-7.892796153828502,4.554526175376773
1775751074259908900,1.330908935546875,3.6124776724711056,-7.896693745788931,4.556605027477443
1775751074269922800,1.3409228515625,3.600308511249721,-7.901513128769397,4.5578775316312905
1775751074279936800,1.350936767578125,3.587596329192817,-7.906495593357086,4.559260218161344
1775751074289950000,1.360949951171875,3.5750440138727426,-7.910211983531713,4.562670611126721
1775751074299964000,1.3709638671875,3.5634698959350586,-7.9112699681520455,4.56989062550813
1775751074309977900,1.380977783203125,3.5566795051425695,-7.91064628329575,4.576253438538313
1775751074319991800,1.39099169921875,3.555076453860104,-7.910081635150313,4.5784746217191215
1775751074330005800,1.401005859375,3.5569440012976523,-7.910074620887636,4.577032606217265
1775751074340018700,1.411018798828125,3.5625019276857373,-7.910871908745169,4.571334394575655
1775751074350033000,1.421032958984375,3.569783901387453,-7.912601509016752,4.5626478147730225
1775751074360046800,1.431046875,3.576982580719888,-7.914704034253955,4.5533536244660615
1775751074370060800,1.441060791015625,3.58539034358114,-7.915902304127812,4.544652139355242
1775751074380074800,1.45107470703125,3.59376420417279,-7.915810534191131,4.53819404925704
1775751074390088700,1.461088623046875,3.60238005682677,-7.915639269277453,4.531655879659951
1775751074400102000,1.471101806640625,3.6105388133630156,-7.917588065257668,4.521750863978267
1775751074410115800,1.48111572265625,3.6156826059922573,-7.921007518312335,4.511638927547633
1775751074420129800,1.4911298828125,3.616347791902721,-7.924201345917582,4.5054938489213585
1775751074430143700,1.501143798828125,3.613105448980629,-7.926276983147859,4.504443755346537
1775751074440157200,1.5111572265625,3.609838848400116,-7.927669314289092,4.504610636346042
1775751074450171000,1.5211708984375,3.6080697929009795,-7.928332162111997,4.5048564278006555
1775751074460184000,1.53118408203125,3.6071962249368426,-7.927529613557457,4.506970351214707
1775751074470198300,1.5411982421875,3.6070170689776537,-7.9250623466610906,4.511451003760099
1775751074480212200,1.551212158203125,3.6075323250234126,-7.921850398877263,4.516677506236732
1775751074490226000,1.561225830078125,3.6076536133155224,-7.919044693806767,4.521499227304757
1775751074500240100,1.571240234375,3.607100655607879,-7.917321523275971,4.524955212977528
1775751074510254000,1.581254150390625,3.6057360892564057,-7.9166908241569995,4.527146877802908
1775751074520267000,1.59126708984375,3.6036508074149487,-7.917407447993755,4.527554874081909
1775751074530281000,1.601281005859375,3.6007574240610003,-7.9204411166012285,4.5245501393079754
1775751074540295200,1.611295166015625,3.5972619831606742,-7.925674341079592,4.518158684705197
1775751074550309000,1.62130908203125,3.5913384383305904,-7.93343737629652,4.509237419363856
1775751074560323000,1.631322998046875,3.5816540796622633,-7.943075557735562,4.499965148627758
1775751074570336000,1.6413359375,3.568192540542781,-7.954228235390782,4.490948313957452
1775751074580350200,1.65135009765625,3.5530814806506035,-7.966269970840215,4.481578720326722
1775751074590364000,1.661364013671875,3.5386949356406925,-7.97802879769504,4.472030847519636
1775751074600378000,1.671378173828125,3.526331128630042,-7.988319305562973,4.463421716867387
1775751074610392000,1.68139208984375,3.5164226058170196,-7.996228471252322,4.457073516884446
1775751074620406300,1.69140625,3.509823645943403,-8.001423117285967,4.452949714952707
1775751074630419000,1.7014189453125,3.5068484295248985,-8.005102682581544,4.448678028982878
1775751074640433200,1.71143310546875,3.5073476112186905,-8.008605137744546,4.441975024212897
1775751074650447000,1.721447021484375,3.5101992012575267,-8.013061532631516,4.431672533646226
1775751074660461300,1.73146142578125,3.5136087174400683,-8.017730108964443,4.420514887554943
1775751074670475000,1.74147509765625,3.5162162695899606,-8.020852040377259,4.412765880863368
1775751074680489000,1.751489013671875,3.5184827532172203,-8.020876590296625,4.410921422040462
1775751074690502100,1.761502197265625,3.5219147734925147,-8.016868523699046,4.415467833298444
1775751074700516000,1.77151611328125,3.527490527798235,-8.00936326263547,4.424623199656605
1775751074710530000,1.781530029296875,3.535316691379249,-7.999926741248369,4.435440946269035
1775751074720544000,1.7915439453125,3.5437899206921455,-7.991304458853602,4.444209359136224
1775751074730558200,1.80155810546875,3.5510543587371703,-7.985221924069523,4.449338246457279
1775751074740572200,1.811572265625,3.555169685101509,-7.981809485277533,4.452179022841155
1775751074750585000,1.821585205078125,3.5564161780312653,-7.979942522361874,4.454527339532971
1775751074760599000,1.83159912109375,3.55501829393208,-7.978840114077925,4.457613907371461
1775751074770613200,1.84161328125,3.5530233207225796,-7.978502844947576,4.459809663850069
1775751074780627000,1.851626953125,3.550902383045852,-7.97922297591567,4.460213568475842
1775751074790641200,1.86164111328125,3.548235501924157,-7.980854376509785,4.4594136502698065
1775751074800655000,1.871655029296875,3.5446655344828963,-7.983110631003975,4.458216549439728
1775751074810668000,1.88166796875,3.5400992494806647,-7.985179253971576,4.458142022898793
1775751074820682000,1.891681884765625,3.53583750038296,-7.986564570850134,4.459043647913634
1775751074830696200,1.9016962890625,3.5330163054823873,-7.987982036432624,4.458730928702652
1775751074840710100,1.911710205078125,3.5321219869911666,-7.989414699584245,4.456875948485732
1775751074850724000,1.92172412109375,3.5326661768704652,-7.990279207459092,4.4548961728453635
1775751074860737000,1.931737060546875,3.533923483455181,-7.990536397090554,4.453431653250753
1775751074870751200,1.941751220703125,3.536205749173462,-7.991271725627779,4.450305922445654
1775751074880765200,1.95176513671875,3.5388629856839775,-7.99375126748383,4.443734727361798
1775751074890779100,1.961779052734375,3.5400241384178397,-7.998961111086606,4.433424053488672
1775751074900793000,1.97179296875,3.5364977178573604,-8.008623842445015,4.418770966497063
1775751074910807000,1.98180712890625,3.527109711787104,-8.022406284081935,4.401237647894025
1775751074920821200,1.9918212890625,3.5137633234798904,-8.038669436618685,4.382200354468822
1775751074930834200,2.001834228515625,3.4982106573000546,-8.055304929599165,4.364056502752006
1775751074940848000,2.01184814453125,3.481717787660658,-8.069828544992207,4.350391550014913
1775751074950862000,2.021862060546875,3.4649893556997178,-8.081288096639513,4.342468648061156
1775751074960876000,2.0318759765625,3.4482685225233434,-8.089657281056047,4.340190181735157
1775751074970890000,2.041889892578125,3.433330481110513,-8.092757585158944,4.346249920165539
1775751074980903200,2.051903076171875,3.422740698035061,-8.088724968641996,4.362083156852424
1775751074990917000,2.061917236328125,3.4221769266724587,-8.07767808944881,4.382942112746835
1775751075000931000,2.07193115234375,3.433507298982143,-8.062709652897714,4.401606773467361
1775751075010945000,2.081945068359375,3.4525577441498636,-8.04703336033821,4.415369633620977
1775751075020959200,2.091959228515625,3.473338958632946,-8.031663357248902,4.427043704801798
1775751075030973200,2.10197314453125,3.492776941813528,-8.01665458868742,4.438937848474085
1775751075040986000,2.111986083984375,3.5097757151484488,-8.002297562032938,4.451415052731335
1775751075051000000,2.122,3.5242391247868534,-7.988972216513752,4.4639051164701575
1775751075061014300,2.13201416015625,3.5349016808375713,-7.976165926432609,4.478352451756597
1775751075071028000,2.142028076171875,3.54025765491277,-7.963228703448176,4.49710742110908
1775751075081042200,2.152042236328125,3.5403491325885055,-7.950274529328942,4.519893253412842
1775751075091056000,2.16205615234375,3.5368127751559015,-7.938226364138722,4.543777694608271
1775751075101069300,2.1720693359375,3.531903960326314,-7.929715725424885,4.562420728018879
1775751075111083000,2.1820830078125,3.524184179729223,-7.926203917911648,4.574475615210831
1775751075121097000,2.192096923828125,3.514364796504378,-7.926247757053375,4.581944928178191
1775751075131111200,2.202111083984375,3.503411440813541,-7.927483436328172,4.588190836830437
1775751075141125000,2.212125,3.4924709446042774,-7.928131671103834,4.595408220863342
1775751075151139000,2.22213916015625,3.483708084695041,-7.927527275469899,4.603092053364217
1775751075161152000,2.232152099609375,3.4792204178869723,-7.92558549375236,4.609825745533406
1775751075171166200,2.242166259765625,3.478017471837997,-7.923200059920549,4.614832175518572
1775751075181180000,2.252179931640625,3.4777541447266933,-7.921343618398905,4.618219479869306
1775751075191194000,2.262194091796875,3.4763343410566447,-7.920602444642782,4.620555521601438
1775751075201208000,2.2722080078125,3.4739009764298796,-7.920801766607165,4.622042253027856
1775751075211222300,2.28222216796875,3.47072994517833,-7.922275930812955,4.621900798730552
1775751075221235000,2.29223486328125,3.4665894843727347,-7.925468004852533,4.619539622557163
1775751075231249200,2.302249267578125,3.4623248126655817,-7.930133658576011,4.614722869925201
1775751075241263000,2.31226318359375,3.45819662681967,-7.935696553400159,4.608251043562591
1775751075251277300,2.32227734375,3.4538930844068525,-7.941386873996257,4.601670788389444
1775751075261291000,2.332291015625,3.449744440294802,-7.946835202530026,4.595379287029803
1775751075271305000,2.342304931640625,3.4465900679171084,-7.951819420683384,4.589114381416142
1775751075281318100,2.352318115234375,3.445240406873822,-7.956489750581979,4.582028222547471
1775751075291332000,2.36233203125,3.4456980875134464,-7.961205088666081,4.573486896434426
1775751075301346000,2.372345947265625,3.446827676065266,-7.966666861203312,4.563108125761151
1775751075311360000,2.382360107421875,3.4484567385718226,-7.972765178078412,4.551213982088863
1775751075321374200,2.392374267578125,3.4485125604122877,-7.979780025276542,4.538861865516007
1775751075331388000,2.402387939453125,3.444723981784284,-7.988570649975538,4.52625752774775
1775751075341401000,2.412401123046875,3.4376039206460116,-7.998617412215471,4.5139086260452865
1775751075351415000,2.4224150390625,3.428386302706599,-8.0088003680557,4.502853563545644
1775751075361429200,2.43242919921875,3.4171862787783143,-8.017769271931051,4.49540090945214
1775751075371443000,2.44244287109375,3.4044545152381063,-8.024458540436624,4.493125073474645
1775751075381457200,2.45245703125,3.3923794620409606,-8.029420546758175,4.49338664702028
1775751075391471000,2.46247119140625,3.3825516032487153,-8.034036516121029,4.492544350977242
1775751075401484000,2.472484130859375,3.3739512404248115,-8.039394828283786,4.489425634434819
1775751075411498000,2.482498046875,3.367057389257848,-8.04483205090165,4.484860518476367
1775751075421512200,2.49251220703125,3.3628806880950926,-8.049032425200938,4.480458484125137
1775751075431526100,2.502526123046875,3.3604183896347877,-8.052158448266983,4.476688317936659
1775751075441540400,2.512540283203125,3.3596605570048093,-8.054258635416627,4.47347753919661
1775751075451554600,2.522554443359375,3.3603760117977854,-8.055150615820288,4.471330005773901
1775751075461567500,2.5325673828125,3.3609804074317213,-8.055462750509381,4.470312060903012
1775751075471581400,2.54258154296875,3.35922976437211,-8.055964854812622,4.47072707144469
1775751075481595400,2.552595458984375,3.3532585810080167,-8.057671658730506,4.472132554328441
1775751075491609300,2.562609375,3.345150970137119,-8.06061180383563,4.472908507137
1775751075501623300,2.572623291015625,3.3383798685669896,-8.0648811517179,4.4702690985441205
1775751075511637500,2.582637451171875,3.3369577268093824,-8.069851341345906,4.462357594767212
1775751075521651500,2.5926513671875,3.3421491579726337,-8.074231163865328,4.450533009199797
1775751075531664400,2.602664306640625,3.352259048576653,-8.075748582690954,4.440166513486206
1775751075541678300,2.61267822265625,3.365090180838108,-8.073233384999632,4.435025935727357
1775751075551692500,2.622692626953125,3.377911668488383,-8.06775641489327,4.4352454236969345
1775751075561706500,2.63270654296875,3.3911990200847386,-8.059960646450518,4.439279501518607
1775751075571720400,2.642720458984375,3.4062086654290553,-8.050493729925154,4.44496339237392
1775751075581734400,2.652734375,3.421407111343741,-8.0408052796036,4.450821470752358
1775751075591747600,2.66274755859375,3.435444989046454,-8.031904180267453,4.456077783845365
1775751075601761300,2.67276123046875,3.450274017126858,-8.023185451760888,4.460321997286379
1775751075611775500,2.682775390625,3.4673572538748383,-8.014932587200402,4.46191511169672
1775751075621789400,2.69278955078125,3.4865193427234886,-8.008703921943903,4.45816540377438
1775751075631803400,2.702803466796875,3.5091198815882203,-8.005551595392824,4.4460739839643235
1775751075641817300,2.7128173828125,3.5368890552625056,-8.005529968082904,4.424055921162664
1775751075651830500,2.72283056640625,3.566437513568997,-8.008924286696315,4.394091283270717
1775751075661844500,2.732844482421875,3.5938916299447414,-8.015374485749005,4.359826610097289
1775751075671858400,2.7428583984375,3.6163881239131093,-8.022693868851661,4.327645172938705
1775751075681872400,2.752872314453125,3.632837738932669,-8.026365250840783,4.307013596059382
1775751075691886300,2.76288623046875,3.6448292054995894,-8.024849001058936,4.2996994736537335
1775751075701900500,2.772900634765625,3.655935705925524,-8.018637286937237,4.30185898977518
1775751075711913500,2.78291357421875,3.6677535694912073,-8.0088968141675,4.309939128117263
1775751075721927400,2.792927490234375,3.680938045234978,-7.99776050312519,4.319367758458853
1775751075731941400,2.80294140625,3.695639939804375,-7.98813751925528,4.324618226332962
1775751075741955600,2.81295556640625,3.7105759353905916,-7.98243083204627,4.322366355752945
1775751075751969300,2.82296923828125,3.7219074767440556,-7.982361273941398,4.312738695707917
1775751075761983500,2.8329833984375,3.7273651576280593,-7.989254540586471,4.295228173458576
1775751075771996400,2.842996337890625,3.72776467833966,-8.001345375874639,4.27230877790302
1775751075782010400,2.85301025390625,3.7250370069414376,-8.01351804422736,4.251820408886671
1775751075792024300,2.8630244140625,3.7202591250151396,-8.019139391240477,4.245403527581692
1775751075802038500,2.87303857421875,3.7112604105234146,-8.015153536474704,4.260777037802338
1775751075812052500,2.883052490234375,3.6958185112416744,-8.005059427961706,4.293055797855556
1775751075822066400,2.89306640625,3.672873981244862,-7.993129920715093,4.334772540600597
1775751075832079400,2.903079345703125,3.6463115530118344,-7.981595550265908,4.378234081186354
1775751075842093600,2.913093505859375,3.6224051922455427,-7.971877289327979,4.415626823252439
1775751075852107500,2.923107421875,3.6065251938074825,-7.964926155015826,4.441095611029863
1775751075862121200,2.933121337890625,3.602033435346186,-7.962788558465242,4.448567554345726
1775751075872135400,2.943135498046875,3.6083988787248726,-7.965838593685627,4.437939485086501
1775751075882149400,2.9531494140625,3.6241923679232597,-7.972178318101167,4.413614898908138
1775751075892162300,2.963162353515625,3.6477883475661277,-7.976440651720762,4.386393422244489
1775751075902176300,2.97317626953125,3.6748680776715275,-7.972913062116503,4.370174108849466
1775751075912190500,2.9831904296875,3.6998420676693318,-7.957250213560462,4.37764371407777
1775751075922204400,2.993204345703125,3.7202041799575087,-7.929654935148358,4.410331931714714
1775751075932218400,3.00321826171875,3.728165075834095,-7.89673466232121,4.462373961380123
1775751075942232300,3.013232421875,3.719612936066091,-7.865090400779247,4.524957843326032
1775751075952245500,3.02324560546875,3.6979026240393518,-7.841839289051294,4.58273958568722
1775751075962259500,3.033259521484375,3.665761226630211,-7.832824792468547,4.623791142521799
1775751075972273400,3.0432734375,3.622604514209926,-7.835892363345622,4.652518639834225
1775751075982287400,3.053287353515625,3.5665792601272464,-7.852417381688952,4.667915823191404
1775751075992301600,3.063301513671875,3.494159628343582,-7.880698304277658,4.675023901630937
1775751076002315500,3.0733154296875,3.4028882888346907,-7.9124004334867,4.688780332043767
1775751076012328400,3.083328369140625,3.3026927613750097,-7.943091924348473,4.708491579207777
1775751076022342400,3.09334228515625,3.213821176484227,-7.968997349977493,4.726184764547646
1775751076032356600,3.103356689453125,3.1529858917713165,-7.987019913402199,4.736729539437592
1775751076042370300,3.113370361328125,3.1254438048511743,-7.997146755141019,4.737891276693344
1775751076052384300,3.12338427734375,3.125194214004278,-8.000624660384654,4.73218254365772
1775751076062398500,3.1333984375,3.1433097164094446,-7.998679371535777,4.7234641074120995
1775751076072412400,3.143412353515625,3.170226949429512,-7.992881498911976,4.7152837235659355
1775751076082425300,3.15342529296875,3.1992619052559137,-7.984207194069027,4.710367309951782
1775751076092439300,3.163439208984375,3.225610106216371,-7.9744509392082685,4.708922079579532
1775751076102453500,3.17345361328125,3.247041309040785,-7.967318018588423,4.706266012112796
1775751076112467500,3.183467529296875,3.264901667641103,-7.964241095361113,4.699112048704922
1775751076122481400,3.1934814453125,3.2836867398709058,-7.963716779226064,4.686897002515196
1775751076132495400,3.203495361328125,3.3110900028422474,-7.963344438782334,4.668210714484751
1775751076142508500,3.213508544921875,3.3526796120762823,-7.9605919252038,4.643155183683335
1775751076152522200,3.223522216796875,3.408678562673926,-7.95191820488274,4.617172308903933
1775751076162536400,3.233536376953125,3.474542781464755,-7.937049721574783,4.593599710136652
1775751076172550400,3.24355029296875,3.5412609867364164,-7.917679250672459,4.576044471962749
1775751076182564600,3.253564697265625,3.594653554227948,-7.898495242252945,4.56755896769017
1775751076192578300,3.263578369140625,3.6242093190580604,-7.8861898874312635,4.565472516804934
1775751076202591500,3.273591552734375,3.631906887823343,-7.885859632563591,4.5599195588529104
1775751076212605400,3.28360546875,3.627367490828037,-7.896552291491627,4.545002267967164
1775751076222619600,3.29361962890625,3.6173552153795954,-7.913468354979157,4.523510859388113
1775751076232633300,3.30363330078125,3.6014418991938233,-7.933104783341288,4.501763430221379
1775751076242647300,3.313647216796875,3.5871757656931873,-7.949129450947046,4.48485408873558
1775751076252661500,3.32366162109375,3.5842978721693157,-7.955543994164467,4.47577061856985
1775751076262674400,3.33367431640625,3.591092939136922,-7.949711634749174,4.480683232791722
1775751076272688400,3.3436884765625,3.607986206270754,-7.929922061651944,4.502131094489991
1775751076282702300,3.353702392578125,3.630773207618296,-7.899220049396157,4.537641676071286
1775751076292716500,3.363716552734375,3.6555034519881007,-7.862627225536108,4.5811327350124715
1775751076302730200,3.373730224609375,3.6853739818558093,-7.825521191456914,4.620563997168839
1775751076312744400,3.383744384765625,3.7166912034004924,-7.7920684191882605,4.651910152547061
1775751076322757400,3.39375732421875,3.744318922777474,-7.764974076035618,4.675004904669523
1775751076332771600,3.403771484375,3.763134682406485,-7.745265751481056,4.692554589885473
1775751076342785300,3.413785400390625,3.769143567432463,-7.731469281318783,4.710443882319331
1775751076352799500,3.423799560546875,3.7657252834215758,-7.720041878375411,4.731875961926579
1775751076362813400,3.4338134765625,3.7561931927055117,-7.71014007756412,4.755536823499202
1775751076372827600,3.44382763671875,3.744633980076015,-7.700251136234402,4.780609013174474
1775751076382841300,3.45384130859375,3.7358635213822122,-7.688508675992488,4.806301965096592
1775751076392854500,3.4638544921875,3.731979957947135,-7.674568997967243,4.831534021508693
1775751076402868500,3.473868408203125,3.734945237493515,-7.658300584733485,4.8549993605092165
1775751076412882400,3.48388232421875,3.7452167484000323,-7.637215126606821,4.88023463179171
1775751076422896400,3.493896484375,3.7558652759253977,-7.6099775755912065,4.914484107396007
1775751076432910000,3.50391015625,3.7567157552748918,-7.5824091851860285,4.956259302330017
1775751076442924300,3.51392431640625,3.745573599013686,-7.560461557272077,4.99804677222371
1775751076452937200,3.523937255859375,3.722607441706955,-7.545448112535476,5.037736977577209
1775751076462951200,3.533951171875,3.687441143518686,-7.541184025350213,5.069884512466192
1775751076472965000,3.543965087890625,3.6443718171209096,-7.552020476663112,5.084876914414763
1775751076482979300,3.553979248046875,3.6002602881938217,-7.5755983361274,5.081225406169891
1775751076492993000,3.563992919921875,3.558922023372352,-7.60668788639605,5.063869782221317
1775751076503007200,3.57400732421875,3.5261046263977884,-7.638205306687951,5.039328630682825
1775751076513020200,3.584020263671875,3.5026261356547472,-7.664718050560355,5.015387783125043
1775751076523034000,3.5940341796875,3.4829631115466353,-7.6851237097293135,4.9978223158180715
1775751076533048000,3.604048095703125,3.462529103066027,-7.700062335664033,4.989016493549943
1775751076543062300,3.614062255859375,3.438041435280442,-7.7106024343788615,4.98967466519773
1775751076553076200,3.624076171875,3.409769572781026,-7.716326657244562,5.000218271043896
1775751076563090200,3.634090087890625,3.378767993056774,-7.720821046054363,5.014300572410225
1775751076573103000,3.64410302734375,3.3463533316642042,-7.729235823178291,5.023068985277414
1775751076583117300,3.654117431640625,3.3149051772162315,-7.745404867690801,5.0190159104943275
1775751076593131000,3.664131103515625,3.2839725710749623,-7.7714985093683,4.998974408462644
1775751076603145200,3.674145263671875,3.2517753518253563,-7.8071280411541455,4.964382987552881
1775751076613159200,3.6841591796875,3.2197099422618747,-7.847468234848976,4.921495447462797
1775751076623173000,3.694173095703125,3.188486828741431,-7.886387455829977,4.8794332522809505
1775751076633187300,3.704187255859375,3.1584339280441402,-7.92056795785129,4.843479018585383
1775751076643200300,3.7142001953125,3.131684745067358,-7.948179602876305,4.81553857999742
1775751076653214200,3.724214111328125,3.108942751905322,-7.968073220869898,4.797360241489112
1775751076663228200,3.734228271484375,3.088996526941657,-7.97944567875564,4.791344342200458
1775751076673242000,3.7442421875,3.07081643486768,-7.986188723275065,4.791790332402289
1775751076683256000,3.754256103515625,3.0527099925518035,-7.9929984032899135,4.792008651328087
1775751076693270300,3.764270263671875,3.0332091732680797,-8.002472334077954,4.788572831660509
1775751076703283000,3.774282958984375,3.0067300394043324,-8.018921949097514,4.777745732697844
1775751076713297200,3.784297119140625,2.9695322353884577,-8.043969296592474,4.758869767314195
1775751076723311000,3.79431103515625,2.922773406822979,-8.07473034555912,4.735663663771748
1775751076733325300,3.8043251953125,2.869158721013367,-8.109500630167126,4.708962119328976
1775751076743339000,3.814339111328125,2.809135629466176,-8.146722984102368,4.680814175470173
1775751076753353200,3.824353271484375,2.741098450550437,-8.184255134639143,4.655613098718225
1775751076763366100,3.8343662109375,2.6641563729062674,-8.220847958499192,4.635765365692973
1775751076773380400,3.84438037109375,2.583672969393432,-8.256842816466092,4.617312886418402
1775751076783394000,3.85439404296875,2.5079566341519355,-8.29289671114385,4.594391445036232
1775751076793408300,3.864408203125,2.444799482362717,-8.329343404531478,4.562388871575892
1775751076803422200,3.874422119140625,2.3980526364959776,-8.3654276943475,4.520989816477894
1775751076813436200,3.884436279296875,2.366754996434599,-8.39885007147789,4.4752857576623555
1775751076823449000,3.894448974609375,2.3461400784291326,-8.426530105563998,4.433913590571284
1775751076833463300,3.90446337890625,2.3299686958290633,-8.44752613184154,4.4023754197523
1775751076843477200,3.914477294921875,2.317916146724671,-8.461951547557115,4.380983379894495
1775751076853491000,3.924490966796875,2.3127399131305513,-8.470787764963507,4.3666199234992265
1775751076863505200,3.934505126953125,2.314581449344009,-8.476747550150751,4.354057963567972
1775751076873519000,3.94451904296875,2.323299885589629,-8.481454120406507,4.340230221484601
1775751076883532300,3.9545322265625,2.3383916562594473,-8.485717038547993,4.323761901764572
1775751076893546000,3.9645458984375,2.3591432062566278,-8.489426998981832,4.30516942949742
1775751076903560200,3.974560302734375,2.3840279105357824,-8.492628425371647,4.285101331719756
1775751076913574100,3.98457421875,2.410257015161216,-8.495748603218793,4.264187430767715
1775751076923588400,3.99458837890625,2.4339913803614674,-8.498044020679593,4.246096478281915
1775751076933602000,4.00460205078125,2.4509751022577286,-8.499750824597477,4.232886575835943
1775751076943616300,4.0146162109375,2.460907590468228,-8.501509650963545,4.223581571874022
1775751076953629200,4.024629150390625,2.465781918506324,-8.504123048332334,4.215466946740448
1775751076963643100,4.03464306640625,2.4675854607969523,-8.50843623535633,4.205702800834179
1775751076973657000,4.044656982421875,2.468377780218422,-8.514000299224257,4.193963263201713
1775751076983671300,4.05467138671875,2.468784899714589,-8.520262282228469,4.180987169511616
1775751076993685200,4.064685302734375,2.4679487411513925,-8.527104110947251,4.167506048908829
1775751077003699000,4.074698974609375,2.4658950234919783,-8.533999131157994,4.154588407407701
1775751077013712100,4.084712158203125,2.4633754418864844,-8.540260529640317,4.143200459691882
1775751077023726300,4.094726318359375,2.4569500850141046,-8.545245332315563,4.1367327249825
1775751077033740300,4.104740234375,2.443073389222473,-8.547734226521849,4.139807894644141
1775751077043754000,4.11475390625,2.420234657687694,-8.547579328221083,4.153520778176188
1775751077053768200,4.124768310546875,2.3896742458596822,-8.546095227143168,4.174216360202432
1775751077063782100,4.1347822265625,2.3528330001965165,-8.544996910512447,4.197331278330087
1775751077073795000,4.144795166015625,2.311079286441952,-8.545287417891622,4.219877164398134
1775751077083809000,4.15480908203125,2.2658574581854043,-8.547010003900528,4.240860623455047
1775751077093823200,4.1648232421875,2.218887324956804,-8.549239370387792,4.261152593116462
1775751077103837200,4.174837158203125,2.1719782742656766,-8.54924580012858,4.285241909234226
1775751077113851100,4.18485107421875,2.1253581235185264,-8.544488960990309,4.317980688014626
1775751077123865000,4.194864990234375,2.079582022380084,-8.534035956037044,4.3607302809387445
1775751077133878300,4.204878173828125,2.0377816930048165,-8.518407594272494,4.410732913731039
1775751077143892200,4.214892333984375,1.9983041074886916,-8.500456927040219,4.463114842875301
1775751077153906200,4.22490625,1.9573921052552758,-8.483508130326866,4.513214506301283
1775751077163920100,4.234920166015625,1.9173877193860709,-8.469325291195512,4.556811948226392
1775751077173934300,4.244934326171875,1.8826709185309707,-8.45646113344729,4.595018344762921
1775751077183948300,4.2549482421875,1.8553306377932428,-8.443920216304063,4.629077266231179
1775751077193962000,4.2649619140625,1.8340826825812457,-8.43137637655139,4.660302133317291
1775751077203975200,4.27497509765625,1.8174131412006913,-8.418764147737622,4.689543425370752
1775751077213989400,4.2849892578125,1.8058606505729258,-8.406161855795979,4.716535184931755
1775751077224003000,4.295003173828125,1.8012834057852625,-8.392383505812287,4.742746607770026
1775751077234017000,4.30501708984375,1.803328355616331,-8.375700082036852,4.771376489926874
1775751077244031200,4.31503125,1.812603256700933,-8.35522544928491,4.803654665458202
1775751077254045200,4.325045166015625,1.83108145493865,-8.330916352936624,4.838737377016246
1775751077264058000,4.33505810546875,1.859880556182563,-8.302936459121108,4.875703125841915
1775751077274072000,4.345072021484375,1.9003426226913929,-8.270361054208875,4.915300684475898
1775751077284086300,4.355086181640625,1.9558168187625704,-8.232300495883822,4.957256496673822
1775751077294100200,4.365100341796875,2.028639916780591,-8.187845852607488,5.001417709961533
1775751077304114200,4.3751142578125,2.115473127711564,-8.137243792617321,5.047813550433516
1775751077314128100,4.385128173828125,2.20937934576869,-8.08342335510254,5.093849325421452
1775751077324141300,4.395141357421875,2.301247774387896,-8.030923937058448,5.13603894637525
1775751077334155000,4.405155029296875,2.3866101821139454,-7.982218066078424,5.172879607516527
1775751077344169200,4.415169189453125,2.466108958503604,-7.936440649765729,5.20592262994051
1775751077354183200,4.42518310546875,2.5437252821475265,-7.891777332174778,5.236380312046409
1775751077364197400,4.435197265625,2.620777834428847,-7.846454673892259,5.266407201519608
1775751077374211000,4.445211181640625,2.7001602909624576,-7.799180297020078,5.296441689777374
1775751077384224300,4.455224365234375,2.7835540289640424,-7.7499524479925626,5.325453264728188
1775751077394238200,4.46523828125,2.8710324059307575,-7.698805613601207,5.35312686907351
1775751077404252400,4.47525244140625,2.9620652605086564,-7.646350619220733,5.378652355474233
1775751077414266000,4.48526611328125,3.056391019152105,-7.594058706447481,5.399921937996149
1775751077424280000,4.495280029296875,3.152708828395605,-7.544356810167431,5.414193624454736
1775751077434294300,4.505294189453125,3.2460601890489458,-7.499103125467896,5.4218906086981296
1775751077444307200,4.51530712890625,3.329923005867004,-7.456974879312515,5.4291340039551255
1775751077454321200,4.525321044921875,3.4006267736434936,-7.4157000351160764,5.441829234877228
1775751077464335000,4.535335205078125,3.4583281442448497,-7.3734770964145655,5.4627995421916244
1775751077474349000,4.54534912109375,3.5037162689790127,-7.330314831036329,5.4918882740318775
1775751077484363000,4.555363037109375,3.5363717533901333,-7.287701431712508,5.5275557997405524
1775751077494377200,4.565377197265625,3.5592066855326294,-7.247704352366924,5.565357999390363
1775751077504390000,4.575389892578125,3.576229132004082,-7.21076549154818,5.602307381603121
1775751077514404000,4.585404052734375,3.5919258828297256,-7.177147884106636,5.635336960023642
1775751077524418000,4.59541796875,3.608251579208672,-7.147987840595841,5.661906402519345
1775751077534432300,4.605432373046875,3.623967619256675,-7.124201891338825,5.681816387125849
1775751077544446000,4.615446044921875,3.638751639151573,-7.106669741779565,5.6943082044303415
1775751077554460200,4.625460205078125,3.6513358109146354,-7.09487409004569,5.700959479013085
1775751077564474000,4.63547412109375,3.660644906529784,-7.086561019730568,5.705322934919596
1775751077574487300,4.6454873046875,3.668445058886707,-7.078979186299443,5.709722631183267
1775751077584501000,4.6555009765625,3.677765844939649,-7.071712994688749,5.712734087958932
1775751077594515200,4.66551513671875,3.6889565165176985,-7.065271563464402,5.713488121196627
1775751077604529200,4.675529052734375,3.69733709911108,-7.059785241007805,5.714850641721487
1775751077614543000,4.685543212890625,3.700482995921373,-7.056040793782472,5.71743715108335
1775751077624557000,4.69555712890625,3.7030315113604066,-7.053886246097087,5.718448373952508
1775751077634570200,4.7055703125,3.7103923955172298,-7.0530977260679,5.714645474538207
1775751077644584200,4.715584228515625,3.7226743694633244,-7.055421200579405,5.703778043565154
1775751077654598000,4.725597900390625,3.738247786170244,-7.062897820070385,5.6843117110729215
1775751077664612000,4.735612060546875,3.7552182101935148,-7.075456272870301,5.657441824325919
1775751077674626000,4.7456259765625,3.7727316550523042,-7.091687861225009,5.625375537979602
1775751077684640300,4.75564013671875,3.789156720152497,-7.109937219142913,5.591198543089628
1775751077694653000,4.76565283203125,3.80212287697047,-7.128232169768213,5.55900541549325
1775751077704667100,4.775667236328125,3.806596807514131,-7.145860765439272,5.533254888164997
1775751077714681000,4.78568115234375,3.7988349413409828,-7.162073649093508,5.51760022291541
1775751077724695300,4.7956953125,3.7800942927747965,-7.176129062452912,5.51221210013628
1775751077734709000,4.805708984375,3.7570766975417733,-7.186891864007711,5.513919488576054
1775751077744723200,4.81572314453125,3.7351919057309626,-7.194736147767305,5.518561761423945
1775751077754736000,4.825736083984375,3.71833721704185,-7.200725159049034,5.522127929472923
1775751077764750000,4.83575,3.7100817221328612,-7.206653380054235,5.51995116995573
1775751077774764000,4.845763916015625,3.710009533679485,-7.213949382281303,5.510461457076668
1775751077784778200,4.8557783203125,3.7120699733406304,-7.223865796139836,5.4960588377147905
1775751077794792200,4.865792236328125,3.7078935644388196,-7.237841714522242,5.4804696389168495
1775751077804806000,4.875805908203125,3.6928719363957643,-7.255164020723104,5.46769432849586
1775751077814819000,4.885819091796875,3.667076985403895,-7.273653032615781,5.460484835508465
1775751077824833300,4.895833251953125,3.6343197941839693,-7.290366851529479,5.460094374886155
1775751077834847200,4.90584716796875,3.59741980407089,-7.303496966737509,5.466982380834222
1775751077844861000,4.91586083984375,3.5576065568596125,-7.314450906950235,5.47837997316122
1775751077854875100,4.925875244140625,3.514754964865744,-7.3250360138505695,5.491880090725422
1775751077864889000,4.93588916015625,3.473295411752164,-7.335280344489217,5.504568891906738
1775751077874902000,4.945902099609375,3.435321947188675,-7.346006321164965,5.514088999924064
1775751077884916000,4.955916015625,3.403474856550991,-7.35647861534059,5.519871674978733
1775751077894930200,4.96593017578125,3.3802202376917,-7.364041744071245,5.524072633799911
1775751077904944000,4.975944091796875,3.3636005268022418,-7.369152803474664,5.527404408571123
1775751077914958000,4.9859580078125,3.352439958101511,-7.373874571299552,5.527886639130116
1775751077924972000,4.995971923828125,3.345632031652331,-7.377617264959215,5.527018039602041
1775751077934986200,5.005986328125,3.3342937682971354,-7.3775354318946595,5.533969758436084
1775751077944999000,5.0159990234375,3.317133082398772,-7.3734490393638605,5.549710348403454
1775751077955013000,5.02601318359375,3.3055744542911647,-7.366533560886979,5.565767164713144
1775751077965027000,5.036027099609375,3.3050951463416216,-7.359224114656448,5.575713389188051
1775751077975041000,5.046041015625,3.3148554928556084,-7.353502814400196,5.577465785813331
1775751077985055200,5.05605517578125,3.334083048155904,-7.350665545147657,5.569741329041123
1775751077995069000,5.06606884765625,3.363832874253392,-7.349929632088542,5.552798962068557
1775751078005082000,5.07608203125,3.4014395513311024,-7.349030052900314,5.531035458549857
1775751078015096000,5.086095947265625,3.439548624972999,-7.346606625145673,5.510653180256486
1775751078025110000,5.096110107421875,3.477169330576062,-7.338703304675221,5.497556382796168
1775751078035124000,5.1061240234375,3.515456391133368,-7.3214780291080475,5.496171650439501
1775751078045138200,5.11613818359375,3.555117078131437,-7.294667763593792,5.506303752875327
1775751078055152000,5.126152099609375,3.592243862737715,-7.262063132587075,5.525267981064319
1775751078065165000,5.1361650390625,3.622451077213883,-7.231600774306059,5.545461458787321
1775751078075179000,5.146178955078125,3.6471935965433713,-7.209491818350553,5.558024587762356
1775751078085193200,5.156193115234375,3.669328563722968,-7.195569675981998,5.561493140655756
1775751078095207200,5.166207275390625,3.6903812886238097,-7.187856909647584,5.557535342940688
1775751078105221000,5.17622119140625,3.7093151216745373,-7.184993921431898,5.548623137688637
1775751078115235000,5.186235107421875,3.7235380005553362,-7.183360182750224,5.541209646561741
1775751078125248300,5.196248291015625,3.7309991302162406,-7.1814289224267,5.538692110782861
1775751078135262000,5.206261962890625,3.732285662895441,-7.181438274776935,5.537813574382662
1775751078145276200,5.216276123046875,3.729189158184826,-7.1849541739433995,5.53533870870173
1775751078155290000,5.2262900390625,3.7235444302961227,-7.191509586936235,5.5306233706176275
1775751078165304000,5.236303955078125,3.7228272219374774,-7.199524551087618,5.520666624748706
1775751078175318000,5.246318115234375,3.731117788159847,-7.208145664438605,5.503793815881013
1775751078185331200,5.256331298828125,3.750449972878396,-7.216334816113114,5.479875764676928
1775751078195345200,5.26634521484375,3.780098676688969,-7.222815994825959,5.4508904932111495
1775751078205359000,5.276359130859375,3.809970960122347,-7.2268918659627435,5.424623248532414
1775751078215373000,5.286373046875,3.8353555767476557,-7.2261647207319735,5.407675036340952
1775751078225387000,5.296386962890625,3.8507624047160145,-7.220695933932065,5.404035218533873
1775751078235401200,5.306401123046875,3.8556300107523795,-7.214702830997109,5.408564678657054
1775751078245414100,5.3164140625,3.8571708104535936,-7.211313188558816,5.411984131711721
1775751078255428000,5.326427978515625,3.861289936210215,-7.211588498368859,5.408680413991212
1775751078265442000,5.336442138671875,3.8713744001120327,-7.213554830005765,5.398841157022118
1775751078275456300,5.346456298828125,3.884365691371262,-7.2151125808417795,5.387416092166304
1775751078285470000,5.356469970703125,3.898007847754657,-7.214799277108908,5.3779702184289695
1775751078295484200,5.366484130859375,3.911584829947352,-7.212301615074277,5.371457475534081
1775751078305497000,5.3764970703125,3.919992592808604,-7.208933015424012,5.3698547165125605
1775751078315511000,5.386510986328125,3.918465529371798,-7.206506080538034,5.37422109502852
1775751078325525000,5.39652490234375,3.9063387459874153,-7.206856209149956,5.382579173529148
1775751078335539200,5.406539306640625,3.8876425210848446,-7.211867315310239,5.3893993749380105
1775751078345553200,5.41655322265625,3.868296015579998,-7.22229167869091,5.389358458405733
1775751078355567000,5.426567138671875,3.8505207049146293,-7.2372320581912994,5.3820402443468565
1775751078365580000,5.436580078125,3.835476280517876,-7.25599228824079,5.367502600428462
1775751078375594200,5.44659423828125,3.823142284123599,-7.278536128482222,5.345735005256533
1775751078385608200,5.456608154296875,3.812281282891333,-7.303285369813442,5.319671758717298
1775751078395622000,5.466621826171875,3.802897952996194,-7.3273752704530954,5.293197008767724
1775751078405636000,5.476635986328125,3.7937645062088965,-7.350071670907735,5.268225064596534
1775751078415650000,5.486650146484375,3.7813527684032913,-7.370092130151391,5.249143932029605
1775751078425663000,5.4966630859375,3.7632504177406427,-7.387015207901596,5.238354826989769
1775751078435677000,5.506677001953125,3.7406191914767026,-7.4029147878229615,5.232112717729807
1775751078445692000,5.51669189453125,3.714776601950824,-7.419189630797505,5.227471613925695
1775751078455705900,5.526705810546875,3.68662310513407,-7.437337281906604,5.221611781981587
1775751078465720000,5.536719970703125,3.6587624537840484,-7.45851334092617,5.21099394185543
1775751078475733800,5.546733642578125,3.6345799064248796,-7.484205416065454,5.191042456194758
1775751078485747000,5.556746826171875,3.614945231628418,-7.515221316576004,5.159843600332737
1775751078495761000,5.566760986328125,3.5952193714171647,-7.550370955890417,5.122175256195664
1775751078505774800,5.57677490234375,3.575320784987509,-7.585516503551602,5.084035202893615
1775751078515788800,5.586788818359375,3.560079961235821,-7.61703860001862,5.04747102060616
1775751078525802800,5.596802734375,3.549800559283793,-7.644300116431713,5.013382288521528
1775751078535817000,5.60681689453125,3.543117428258061,-7.668110031086206,4.981643918955326
1775751078545830000,5.616829833984375,3.5359871379867194,-7.6907725292712446,4.951687172108889
1775751078555843800,5.62684375,3.525819087454676,-7.7140902764946215,4.922580904611944
1775751078565857800,5.63685791015625,3.512387651212513,-7.7380574275374405,4.894489074854553
1775751078575872000,5.6468720703125,3.493187860701978,-7.762818943828344,4.868945468275249
1775751078585885700,5.6568857421875,3.4664009760633108,-7.788294161346554,4.847362289759516
1775751078595900000,5.66689990234375,3.428735554535687,-7.815254648986459,4.8307349800854915
1775751078605912800,5.676912841796875,3.3790693140909074,-7.843964610642194,4.819177521021664
1775751078615926800,5.6869267578125,3.3179452755644916,-7.87431590976417,4.812148937559128
1775751078625940700,5.696940673828125,3.2457696816697714,-7.906134943351149,4.809198855581879
1775751078635955000,5.706954833984375,3.158757168649137,-7.93994544301629,4.811437282158434
1775751078645969000,5.716968994140625,3.0544466070860623,-7.9782520850569005,4.8154178762272
1775751078655982800,5.72698291015625,2.9374598115622996,-8.024917390120029,4.8106554841309785
1775751078665995800,5.736995849609375,2.8156246992245313,-8.079967077168822,4.791326222021877
1775751078676010000,5.747010009765625,2.6967116118133068,-8.142530793109536,4.75366781475693
1775751078686024000,5.75702392578125,2.5833175800845027,-8.211964394819736,4.696860178124904
1775751078696038000,5.767037841796875,2.4757711053401232,-8.284755490264295,4.626418276154995
1775751078706051800,5.7770517578125,2.378154342327267,-8.356202769884467,4.548479880949855
1775751078716065800,5.787065673828125,2.2987772926211356,-8.418426878607272,4.4739352198362345
1775751078726078700,5.79707861328125,2.244399367354065,-8.464170977172255,4.414849116878211
1775751078736093000,5.807093017578125,2.217387587918341,-8.491881990918516,4.375104843249916
1775751078746107000,5.81710693359375,2.2145663930177686,-8.50344032676518,4.354033998170495
1775751078756120800,5.827120849609375,2.230841528253257,-8.501845751050114,4.348830584308505
1775751078766134800,5.837134765625,2.259658603545278,-8.491865039783717,4.353454444716871
1775751078776148700,5.847148681640625,2.293586592110246,-8.47831582238078,4.36210946033746
1775751078786162000,5.857161865234375,2.3262615118741987,-8.465531159609556,4.369629918970167
1775751078796176000,5.86717578125,2.3539247409559785,-8.456510817807912,4.3722833560884
1775751078806189800,5.87718994140625,2.374859538565576,-8.45179664876759,4.370077954998612
1775751078816203800,5.887203857421875,2.389468640284985,-8.451036185789107,4.3635763180196285
1775751078826218000,5.897218017578125,2.398040799927711,-8.453834876596927,4.353443631061912
1775751078836232000,5.90723193359375,2.402994622942805,-8.458561320596933,4.341515877380967
1775751078846244900,5.917244873046875,2.407292758528143,-8.463367844095826,4.3297465291321275
1775751078856258800,5.9272587890625,2.4141173438511787,-8.466186408647895,4.320429250210523
1775751078866273000,5.93727294921875,2.427667291906476,-8.465618253371119,4.31394573341012
1775751078876286700,5.94728662109375,2.44867310892567,-8.461870883536339,4.309419195896387
1775751078886301000,5.957301025390625,2.4751810304924846,-8.456116850054263,4.305571580557525
1775751078896315000,5.96731494140625,2.5042887592941523,-8.449843761134147,4.301050888262689
1775751078906328000,5.977328125,2.5362828571870923,-8.443060384604335,4.2956238947778935
1775751078916341800,5.987341796875,2.570853235308826,-8.435872518926859,4.2891918159037825
1775751078926355700,5.997355712890625,2.6071546750068664,-8.429002633157372,4.280779669128358
1775751078936370000,6.007369873046875,2.6427655020922423,-8.42264537308514,4.271443393245339
1775751078946384000,6.0173837890625,2.6733877271100877,-8.416160102719068,4.26516650493294
1775751078956397800,6.027397705078125,2.6948209757611155,-8.408494098135828,4.266798490048945
1775751078966410800,6.03741064453125,2.706022460994124,-8.398618600809574,4.279139792966842
1775751078976425000,6.047425048828125,2.709265972959995,-8.387032792434097,4.299759387147426
1775751078986438700,6.057438720703125,2.706526903384924,-8.375061784133315,4.324744775322079
1775751078996452900,6.067452880859375,2.6980639032050964,-8.364467909404635,4.350459062293171
1775751079006466800,6.077466796875,2.685342076537013,-8.356191663968563,4.374171361792087
1775751079016481000,6.08748095703125,2.6690973364397883,-8.351645252710581,4.392756819796562
1775751079026494700,6.09749462890625,2.648864111228287,-8.351396246385574,4.405459064981341
1775751079036508000,6.1075078125,2.6252204930514096,-8.354065173333883,4.4145445809736845
1775751079046521900,6.11752197265625,2.6006533302888273,-8.358278991636633,4.421106715968251
1775751079056536000,6.1275361328125,2.5742761954948303,-8.363428629484773,4.426801420478522
1775751079066549800,6.1375498046875,2.54505302361995,-8.369092646595835,4.4329915072903034
1775751079076563700,6.147563720703125,2.5149896015286446,-8.375434124577046,4.43816511053592
1775751079086577000,6.157576904296875,2.4849162425652147,-8.383580606153608,4.4397240304157135
1775751079096590800,6.1675908203125,2.4578584320306778,-8.392689210760594,4.437577666036784
1775751079106604800,6.177604736328125,2.4361006276004016,-8.402568799740076,4.4308737844839685
1775751079116618800,6.18761865234375,2.420439678740501,-8.413554304134845,4.418594148625433
1775751079126633000,6.197633056640625,2.4102917942136526,-8.425776072326302,4.400812700480222
1775751079136646700,6.207646728515625,2.4067574826076625,-8.439231181704997,4.376906631974876
1775751079146659800,6.217659912109375,2.4107773857735095,-8.452482877466082,4.3490351669698954
1775751079156673800,6.227673828125,2.4206235108748078,-8.464668989822268,4.319763187517226
1775751079166688000,6.23768798828125,2.4320626042559743,-8.476235508975385,4.29055842808187
1775751079176701700,6.24770166015625,2.4419476000629365,-8.487630178692937,4.262326020810008
1775751079186716000,6.2577158203125,2.450466568213701,-8.498994453272223,4.234703562130034
1775751079196729900,6.267729736328125,2.4584765639290214,-8.510559218859672,4.206742080754041
1775751079206744000,6.277744140625,2.466855977478623,-8.522624919706583,4.177304973867535
1775751079216756700,6.2877568359375,2.4759347714692352,-8.535110891792177,4.146328528584539
1775751079226771000,6.29777099609375,2.4856752442389727,-8.546867380559444,4.116173044295609
1775751079236785000,6.307784912109375,2.4960306340366603,-8.556266492545603,4.090298890587687
1775751079246798800,6.317798828125,2.507548930133879,-8.561693778291344,4.071854594619572
1775751079256812800,6.327812744140625,2.5213451080352067,-8.56181594336629,4.063065138964355
1775751079266826800,6.33782666015625,2.537501293066144,-8.555839207044244,4.065597287790477
1775751079276839700,6.347839599609375,2.5562524630263446,-8.543898009359836,4.078939292183518
1775751079286854000,6.35785400390625,2.578087570476532,-8.526103993993997,4.102367221783101
1775751079296867800,6.367867919921875,2.605640178790688,-8.502053840842843,4.134745935079455
1775751079306881800,6.3778818359375,2.641373755472898,-8.472299923092127,4.172972205360233
1775751079316896000,6.38789599609375,2.68575767160058,-8.437966860857605,4.214000965841114
1775751079326909700,6.39790966796875,2.736466991357505,-8.401302725327014,4.254437897908687
1775751079336923000,6.4079228515625,2.790970150439441,-8.364930266219377,4.290551998341083
1775751079346936800,6.417936767578125,2.847080744718015,-8.33144943690002,4.318736767078936
1775751079356950800,6.42795068359375,2.9031574367269872,-8.30244721429944,4.3372158420994875
1775751079366964700,6.43796484375,2.9574747178480028,-8.279070430365204,4.345195734937489
1775751079376979000,6.44797900390625,3.0101182205379007,-8.260182774543761,4.344989106449485
1775751079386991600,6.45799169921875,3.061435735321045,-8.244636245843768,4.338659026645123
1775751079397005800,6.468005859375,3.1111589666500685,-8.230744498613475,4.329656512761116
1775751079407019800,6.478019775390625,3.160340053926408,-8.215242978098988,4.3234743169948455
1775751079417034000,6.488033935546875,3.2098475966781375,-8.196648752266167,4.322292121472954
1775751079427047700,6.498047607421875,3.2612881533190605,-8.174872973787783,4.325025930351019
1775751079437062000,6.508061767578125,3.313244550527632,-8.149910966488719,4.3326378666594625
1775751079447075800,6.518075927734375,3.3585034959241744,-8.12258690623343,4.349073745414614
1775751079457088800,6.5280888671875,3.392357834731042,-8.093627353730797,4.376697080877423
1775751079467102700,6.538102783203125,3.4169694211572406,-8.064479585179686,4.411216605594754
1775751079477117000,6.548116943359375,3.435989763447642,-8.036227888685465,4.447851515030861
1775751079487131000,6.558130859375,3.451523724927008,-8.01062992157042,4.481871858054399
1775751079497144600,6.56814453125,3.4664775484308596,-7.989370275920629,4.508204861445725
1775751079507158800,6.57815869140625,3.4830578040927644,-7.971292182916402,4.527386824038625
1775751079517172000,6.588171875,3.5026857568874954,-7.952276516801119,4.5456443652629845
1775751079527186000,6.59818603515625,3.526104918658733,-7.928996763500571,4.5681496270596975
1775751079537199600,6.60819970703125,3.5537326380357146,-7.899483084246516,4.597774657733738
1775751079547213800,6.6182138671875,3.586479600122571,-7.861955609884857,4.636505954927205
1775751079557227800,6.628227783203125,3.6226246802151203,-7.816771483290195,4.684558622695505
1775751079567242000,6.638241943359375,3.659219257640838,-7.767239682880043,4.738198150685429
1775751079577254700,6.648254638671875,3.693905078835785,-7.717324436110258,4.792535890072584
1775751079587268900,6.658268798828125,3.7280119310989974,-7.668934206950664,4.843525488075613
1775751079597282800,6.66828271484375,3.765133747269213,-7.622734181311726,4.887542908978462
1775751079607296800,6.678296875,3.8104189961507915,-7.579882881578802,4.9189901866436
1775751079617310700,6.688310791015625,3.8668276965931057,-7.541856225523352,4.933398066702485
1775751079627325000,6.698324951171875,3.9280768228039142,-7.510275092345475,4.933194068562984
1775751079637337900,6.708337890625,3.9853897786095738,-7.4839225074708455,4.927263509470224
1775751079647351800,6.718351806640625,4.032155621437728,-7.45786159901917,4.928730659413337
1775751079657365800,6.72836572265625,4.064169885335862,-7.429962953746318,4.944550744357705
1775751079667380000,6.7383798828125,4.083645862439274,-7.399905084612965,4.973492761203646
1775751079677394000,6.748393798828125,4.097814380784333,-7.367790282949805,5.009385327839851
1775751079687406800,6.75840673828125,4.113564907623827,-7.336077047824859,5.042911165344715
1775751079697420800,6.7684208984375,4.1372982499107716,-7.307889064216614,5.064373055568337
1775751079707435000,6.77843505859375,4.174309299182892,-7.284064536514878,5.068329099717736
1775751079717448700,6.78844873046875,4.223444793751836,-7.263821958953142,5.056659120190143
1775751079727462700,6.798462646484375,4.274748864531516,-7.246361705586314,5.038566414138675
1775751079737476900,6.808476806640625,4.316612906792759,-7.231557519686222,5.024126969897747
1775751079747489800,6.81848974609375,4.3440638082981105,-7.216144846498966,5.022624164119363
1775751079757503700,6.828503662109375,4.3597675733864305,-7.195314239916205,5.0388762107402085
1775751079767517700,6.838517578125,4.37304732619822,-7.167799041002988,5.066509483075142
1775751079777532000,6.848531982421875,4.3881960877522825,-7.137948677140474,5.095469035577774
1775751079787545900,6.8585458984375,4.405946263976395,-7.112634787663817,5.115514044740796
1775751079797559800,6.868559814453125,4.4270890052482486,-7.096994150939583,5.118977921459079
1775751079807572700,6.87857275390625,4.451880332155525,-7.093969834682345,5.1016421712547535
1775751079817587000,6.8885869140625,4.476958074788749,-7.103758822768926,5.065950095626712
1775751079827600600,6.8986005859375,4.496881795659661,-7.123087792617082,5.020959445777535
1775751079837614800,6.90861474609375,4.508093217764794,-7.1465832344949245,4.977330147409439
1775751079847628800,6.91862890625,4.507824629956484,-7.167604395213723,4.947257080706954
1775751079857643000,6.92864306640625,4.498098770233988,-7.181124386522174,4.936490187498927
1775751079867655700,6.93865576171875,4.483704334178567,-7.185055880752206,4.943863346615434
1775751079877670000,6.948669921875,4.470380157703161,-7.182625438734888,4.959432087147236
1775751079887683800,6.958683837890625,4.459864024385809,-7.179624503353238,4.97322446565628
1775751079897697800,6.96869775390625,4.451455969263613,-7.179045242160559,4.981588389375806
1775751079907711700,6.978711669921875,4.4427968619897955,-7.184024784138798,4.982145438736677
1775751079917725700,6.9887255859375,4.4327246730476615,-7.197616671639681,4.971483759468794
1775751079927739000,6.99873876953125,4.415671831437945,-7.220504210752249,4.953438984212279
1775751079937752800,7.0087529296875,4.382805919146538,-7.247645315656065,4.942979549518228
1775751079947766800,7.018766845703125,4.334503660531341,-7.272884386330842,4.9484974361568685
1775751079957780700,7.02878076171875,4.276770141226053,-7.295521750074625,4.965379012852907
1775751079967795000,7.038794921875,4.217987697389722,-7.317229139491915,4.983685069394111
1775751079977808600,7.04880859375,4.163385169586539,-7.340001527792215,4.996100898852944
1775751079987821800,7.05882177734375,4.119259319873154,-7.362554135861992,4.999487034159898
1775751079997835800,7.068835693359375,4.087994413037598,-7.381900056844949,4.996622292378545
1775751080007849700,7.078849609375,4.0677489128664135,-7.39663234655261,4.991358088240027
1775751080017863700,7.08886376953125,4.0550986901298165,-7.407529003620147,4.985488903945684
1775751080027878000,7.0988779296875,4.049399893966317,-7.415443430006504,4.978349553585052
1775751080037891800,7.108891845703125,4.054987046448886,-7.416750420951843,4.971846163040399
1775751080047904800,7.11890478515625,4.0706110242992635,-7.410817523771524,4.96792811281383
1775751080057918700,7.128918701171875,4.093312100929022,-7.400989957240223,4.963921799781918
1775751080067933000,7.138932861328125,4.12144893887192,-7.3897016705065965,4.957454065072536
1775751080077947000,7.14894677734375,4.153373770920932,-7.379278476169705,4.946323599249125
1775751080087960800,7.1589609375,4.184495469893515,-7.371542913481592,4.931607091632485
1775751080097974800,7.168974853515625,4.208702859432995,-7.368570035150647,4.915419926941395
1775751080107988000,7.178988037109375,4.224700931292772,-7.373073191788793,4.8949035008743405
1775751080118001700,7.189001708984375,4.236598289835452,-7.38432348459959,4.867588208447397
1775751080128016000,7.199015869140625,4.243421998375654,-7.401390354734659,4.83561486108154
1775751080138029800,7.20902978515625,4.2452033288344735,-7.424390122050046,4.79865086582154
1775751080148043800,7.219043701171875,4.243138797520101,-7.448608032983541,4.7628161668524145
1775751080158056700,7.229056640625,4.240505818668008,-7.4676289597958325,4.735295414981246
1775751080168071000,7.23907080078125,4.242364306016266,-7.4788979573071,4.715802194482087
1775751080178084900,7.2490849609375,4.24686980074197,-7.483788651958108,4.703975855349004
1775751080188098800,7.259098876953125,4.2511017392233015,-7.485237097200751,4.6978448052480815
1775751080198112800,7.26911279296875,4.250458472883701,-7.48727123337686,4.695187860998511
1775751080208126700,7.279126708984375,4.241157560575008,-7.492683906075358,4.6949578516349195
1775751080218140000,7.289139892578125,4.226472617140412,-7.501584420889616,4.693989883385599
1775751080228153600,7.299153564453125,4.211853140157461,-7.512873292145133,4.6890734697714445
1775751080238167800,7.309167724609375,4.20123208516091,-7.526572147151827,4.676614970214665
1775751080248181800,7.319181640625,4.195248334576189,-7.54219583274126,4.656775128234923
1775751080258196000,7.329196044921875,4.191217179363965,-7.558155033895373,4.634477956230938
1775751080268209700,7.339209716796875,4.186932926173508,-7.57231507667303,4.615194871351123
1775751080278222800,7.349222900390625,4.178635637949407,-7.583800347283482,4.603839364600181
1775751080288236800,7.35923681640625,4.163298660346865,-7.594000254258513,4.600920846804976
1775751080298251000,7.3692509765625,4.141842907603085,-7.606276382985711,4.6000151301369065
1775751080308264700,7.3792646484375,4.117705660690367,-7.623583491617441,4.593022787031531
1775751080318279000,7.38927880859375,4.09436862424463,-7.647835304820537,4.57352635166198
1775751080328292900,7.39929296875,4.070849509230256,-7.679416437998413,4.541485492017865
1775751080338305800,7.409305908203125,4.047742189887166,-7.715888850349187,4.500133198671042
1775751080348319700,7.41931982421875,4.028497391191125,-7.752068417233228,4.4550046016559
1775751080358334000,7.429333984375,4.016951622565091,-7.783601035094261,4.410224379687011
1775751080368348000,7.439347900390625,4.01533074336499,-7.807470570981502,4.3693157384544605
1775751080378361600,7.449361572265625,4.0205806267172095,-7.8220894634425635,4.338232910187542
1775751080388375800,7.459375732421875,4.026789710490405,-7.830278615117073,4.317649556364119
1775751080398388700,7.469388671875,4.033217405450344,-7.837232087516784,4.298988987296819
1775751080408403000,7.47940283203125,4.037712086521089,-7.847308660373091,4.27633671824485
1775751080418416600,7.489416748046875,4.040034976510704,-7.861649320414662,4.247702744434774
1775751080428430800,7.499430908203125,4.0407586146101355,-7.879978173309564,4.212906740863621
1775751080438444800,7.50944482421875,4.040037022337318,-7.90231100114882,4.1715623385623095
1775751080448458000,7.5194580078125,4.038569580133259,-7.9261893048644065,4.127451101896167
1775751080458471200,7.52947119140625,4.035331913386285,-7.94725664281249,4.0899408709302545
1775751080468485000,7.539485107421875,4.028487162058055,-7.966310887372494,4.059501016741991
1775751080478499000,7.5494990234375,4.014375634597242,-7.986818253350258,4.033097578462958
1775751080488513000,7.559512939453125,3.9881948991581795,-8.012479348829388,4.00810342245996
1775751080498527000,7.56952685546875,3.9502772564351556,-8.045102684536575,3.9802071152746676
1775751080508540200,7.5795400390625,3.9036578363403676,-8.083896817833185,3.947464244841039
1775751080518553900,7.589553955078125,3.8583550518020986,-8.124142318981885,3.909190043765306
1775751080528568000,7.599568115234375,3.823802501598,-8.160013258308172,3.8682162283420563
1775751080538582000,7.60958203125,3.8015602746516466,-8.188539680090546,3.829664963890612
1775751080548596200,7.61959619140625,3.790290692618489,-8.207318614840506,3.8005300548210736
1775751080558610000,7.62960986328125,3.78243764103055,-8.21721515495479,3.786944889321923
1775751080568623000,7.639623046875,3.7718846828341484,-8.223101290383935,3.784688050305843
1775751080578637000,7.649636962890625,3.755530637143552,-8.228584105709194,3.7890351395994424
1775751080588651000,7.659651123046875,3.7301097801610825,-8.23782422774136,3.794063781416416
1775751080598665000,7.6696650390625,3.6999078263819216,-8.252545411533116,3.7916435685321686
1775751080608679200,7.67967919921875,3.6697409439161417,-8.27268102158904,3.7770501027733085
1775751080618693000,7.689693115234375,3.645855625937879,-8.296208612170815,3.748476042456925
1775751080628706000,7.6997060546875,3.631832653543353,-8.318377189359069,3.7127863049164413
1775751080638720000,7.709719970703125,3.62529243811965,-8.336923484396934,3.677411332413554
1775751080648734200,7.719734130859375,3.6251430927768347,-8.3503405998528,3.646988721621036
1775751080658748200,7.729748046875,3.6315596818208693,-8.357718435144424,3.623633857257664
1775751080668761900,7.739761962890625,3.6402450925797223,-8.360853810560704,3.607650106184184
1775751080678776000,7.749776123046875,3.6446982725962993,-8.362441956534981,3.5994638771191236
1775751080688789200,7.759789306640625,3.64382996532917,-8.365546352291107,3.593118307484686
1775751080698803000,7.769802978515625,3.640638768072426,-8.371976677599548,3.5813606496736403
1775751080708817000,7.77981689453125,3.6375258967489,-8.38239928741455,3.5600787921920416
1775751080718831000,7.7898310546875,3.6341903225854035,-8.396868542271852,3.5292522767737506
1775751080728845000,7.799844970703125,3.630051323084533,-8.414131811761855,3.4922079097539185
1775751080738859000,7.80985888671875,3.6293043041095134,-8.432178925105928,3.4491917748481034
1775751080748872000,7.819871826171875,3.6357667781218885,-8.447232117331028,3.4052687542304394
1775751080758886100,7.82988623046875,3.653380176223814,-8.454113693538307,3.3691432556211947
1775751080768900000,7.839900146484375,3.6827515243977307,-8.451585636365413,3.3434120175153015
1775751080778914000,7.8499140625,3.724403677473962,-8.439540978306532,3.327666459111869
1775751080788928000,7.859927978515625,3.776155492021143,-8.419951311695575,3.318955037128925
1775751080798941200,7.869941162109375,3.831988146141171,-8.397541911488771,3.311733853703737
1775751080808955000,7.879954833984375,3.8865219926223156,-8.376255962353945,3.30206761521399
1775751080818969000,7.889968994140625,3.936063437643647,-8.3585642383188,3.2881875584214924
1775751080828983000,7.899983154296875,3.977211148329079,-8.34603091996014,3.2704642702043056
1775751080838997200,7.909997314453125,4.0072538198933,-8.34041950981915,3.248030612339079
1775751080849011000,7.920010986328125,4.025765628139674,-8.342355446317791,3.2200486726969477
1775751080859024100,7.930024169921875,4.034793568725884,-8.349777120751142,3.1893609812274573
1775751080869038000,7.9400380859375,4.038787022276223,-8.358933071631192,3.1601988918900488
1775751080879052300,7.95005224609375,4.041015804241598,-8.3668276242733,3.1363606279239056
1775751080889066000,7.96006591796875,4.042510134452582,-8.371858019655942,3.120981564745307
1775751080899080000,7.970079833984375,4.0451615257441995,-8.374020750647782,3.1117282909706234
1775751080909094100,7.98009423828125,4.052914624089002,-8.373234568706154,3.103741383869946
1775751080919107000,7.990107177734375,4.066017559029162,-8.370281564119457,3.094555330112576
1775751080929121000,8.00012109375,4.081780068567395,-8.365861994111537,3.085743370364606
1775751080939135000,8.010135009765625,4.097656852135062,-8.35964443477094,3.081553225198388
1775751080949149200,8.020149169921876,4.112129906384647,-8.3513097371459,3.084863664920628
1775751080959163000,8.030162841796875,4.122936254820227,-8.341718317458033,3.096370855101943
1775751080969176000,8.040176025390625,4.127680234476924,-8.333338611647486,3.112567956665158
1775751080979190000,8.05018994140625,4.123625698389112,-8.32867061983645,3.13038447612375
1775751080989204200,8.060204345703125,4.108894285464286,-8.329381982976198,3.147817256961763
1775751080999218000,8.070218017578124,4.0852018597096205,-8.335584929269551,3.162204678754508
1775751081009232100,8.080232177734375,4.054771357871592,-8.346547052788734,3.1724466713055968
1775751081019246000,8.09024609375,4.020919064891338,-8.360442891672253,3.178934279759228
1775751081029259000,8.100259033203125,3.988563440209627,-8.374635083153843,3.1823367816790937
1775751081039273000,8.11027294921875,3.9601343413218855,-8.387013503211737,3.1852383483394977
1775751081049287200,8.120287109375,3.9352275713413953,-8.395822248089313,3.192888863092661
1775751081059301000,8.130301025390626,3.91382705591619,-8.399853111040592,3.208550834865868
1775751081069315000,8.140315185546875,3.8968613080680368,-8.398971652030944,3.231426099018752
1775751081079328000,8.150327880859376,3.8826211857914923,-8.39470931841135,3.2595293269529937
1775751081089342200,8.16034228515625,3.8694565837919708,-8.389777707228063,3.287760857442021
1775751081099356200,8.170356201171876,3.857785435220599,-8.385984744685889,3.3110590231820938
1775751081109370000,8.1803701171875,3.846061679679155,-8.384482523429392,3.328453517836332
1775751081119384000,8.190384033203125,3.8322152328953143,-8.38586900935173,3.3409169858291743
1775751081129398000,8.20039794921875,3.815686707420647,-8.390088088351488,3.34923327101469
1775751081139411000,8.210410888671875,3.7966961757466193,-8.396641163256763,3.354384954689443
1775751081149425200,8.220425048828124,3.774624336931109,-8.405552199465037,3.3569764324873685
1775751081159439000,8.230439208984375,3.7498178124547,-8.415734570783377,3.3592630821198224
1775751081169453000,8.240453125,3.7221000767067074,-8.42631850863993,3.3635561031386256
1775751081179467000,8.250467041015625,3.692892979183793,-8.43695213085711,3.369085972476005
1775751081189481000,8.26048095703125,3.6647821524649857,-8.44662772169709,3.3755344179630278
1775751081199494100,8.270494140625,3.6399838112950325,-8.45437088316977,3.382971582226455
1775751081209507800,8.2805078125,3.619786534179747,-8.459801676046848,3.391058442570269
1775751081219522000,8.29052197265625,3.6039737557590006,-8.46309604141712,3.3996716648757457
1775751081229536000,8.300535888671876,3.5917414661735294,-8.464638594684004,3.408769748088717
1775751081239550200,8.31055029296875,3.5822967614799737,-8.46494722224176,3.4179283293172715
1775751081249564200,8.320564208984376,3.573839898779988,-8.465085753929614,3.4264249395057558
1775751081259577000,8.3305771484375,3.5639807680666444,-8.465675536516308,3.4352199481189247
1775751081269591000,8.340591064453125,3.5497102506518363,-8.46699772503078,3.4467207085594533
1775751081279605200,8.350605224609374,3.5259272240042683,-8.46979466227293,3.464214864195883
1775751081289619000,8.360618896484375,3.4887931328743695,-8.475263449072838,3.488349773021042
1775751081299633200,8.370633056640624,3.4373362096205353,-8.483826694756745,3.5184877216532824
1775751081309646000,8.38064599609375,3.3753763047918675,-8.494909229785204,3.551584520091116
1775751081319660000,8.390659912109374,3.305924290642142,-8.50909089987278,3.5828231234416363
1775751081329674000,8.400674072265625,3.2303757131829856,-8.525936820733547,3.611576047456264
1775751081339688000,8.41068798828125,3.151888159662485,-8.543710377833246,3.6388197359517216
1775751081349702100,8.4207021484375,3.0738065565943717,-8.561538879990577,3.6636283062547443
1775751081359715800,8.4307158203125,3.0000217739373443,-8.57837427945733,3.685343002195656
1775751081369729000,8.44072900390625,2.9350092035397886,-8.591915313553809,3.706086222755909
1775751081379743000,8.450742919921876,2.881533341678977,-8.600870773425697,3.7272242878526445
1775751081389757200,8.460757080078125,2.842085128387809,-8.604518190017343,3.749029584686458
1775751081399771000,8.47077099609375,2.8196064623370765,-8.60248873001635,3.770600195981562
1775751081409785000,8.48078515625,2.8170483022868633,-8.594138250300288,3.791497438059747
1775751081419798000,8.490798095703125,2.8340789320647715,-8.580001588398218,3.810768832501769
1775751081429812000,8.50081201171875,2.8672517183482644,-8.560998781764507,3.828644388671219
1775751081439826200,8.510826171875,2.9147844538956877,-8.537387604552507,3.8454382870838044
1775751081449840400,8.52084033203125,2.975874882413447,-8.50907336421609,3.8613805371031162
1775751081459854300,8.530854248046875,3.0478067306801675,-8.476143154516816,3.877664147906005
1775751081469868500,8.54086865234375,3.1260213124781844,-8.439681263560056,3.8948867931246753
1775751081479881200,8.550881103515625,3.2053228127300737,-8.401364684647321,3.9132273364573713
1775751081489895400,8.5608955078125,3.28241920415312,-8.362661152243614,3.932176659338176
1775751081499909400,8.570909423828125,3.3552719666570425,-8.324165709632634,3.952313730698824
1775751081509923300,8.58092333984375,3.4217782827436922,-8.28650204167068,3.9743770939469334
1775751081519937300,8.590937255859375,3.4805323772683736,-8.250308446261286,3.9985856525301933
1775751081529951200,8.600951171875,3.5309538199946284,-8.215125489199162,4.026723659516871
1775751081539964200,8.610964111328125,3.5750954517990348,-8.180123733922839,4.058902758587896
1775751081549978400,8.620978271484375,3.6152892227604982,-8.144375544193387,4.095019781629741
1775751081559992300,8.630992431640625,3.6541830170392986,-8.106775589117408,4.134910185730457
1775751081570006300,8.64100634765625,3.6948131335914134,-8.06658094137311,4.177198590883612
1775751081580020200,8.651020263671874,3.7398528832793234,-8.02213857305646,4.222464258281886
1775751081590033400,8.661033447265625,3.7918709475472565,-7.970085729736089,4.2743201177254315
1775751081600047400,8.67104736328125,3.849317466604709,-7.9095508892744775,4.334993489874899
1775751081610061300,8.681061279296875,3.9107191530287264,-7.84177265355587,4.4026463456481695
1775751081620075300,8.6910751953125,3.9739220436558127,-7.7701476792812345,4.47248911268115
1775751081630089200,8.701089111328125,4.033761595329642,-7.700135985422134,4.5395019169852135
1775751081640102400,8.711102294921876,4.087805320206284,-7.6355147524297236,4.599911085240542
1775751081650116000,8.7211162109375,4.135853896321356,-7.57804046858251,4.651708200234174
1775751081660130300,8.73113037109375,4.1764740760013455,-7.528654214122891,4.695402088271081
1775751081670144300,8.741144287109375,4.211436376050115,-7.4866884650528425,4.731142094694078
1775751081680158500,8.751158447265626,4.245138739165664,-7.449085587367415,4.760284310287237
1775751081690172200,8.761172119140625,4.27749407158643,-7.41339818791449,4.786956628635526
1775751081700185300,8.771185302734375,4.30803387901783,-7.379173846751451,4.812383330836892
1775751081710199300,8.78119921875,4.337188369570672,-7.346373985433578,4.836322717089951
1775751081720213500,8.791213623046875,4.363146986691653,-7.3146028826415534,4.861063190592825
1775751081730227200,8.801227294921874,4.384017925284803,-7.281719434693455,4.891559158882498
1775751081740241400,8.811241455078125,4.398911543034017,-7.247960372954607,4.928187054055929
1775751081750254300,8.82125439453125,4.407027044950425,-7.214000820207596,4.970584180280566
1775751081760268300,8.831268310546875,4.4086753966793415,-7.179319967448711,5.0190936519056555
1775751081770282200,8.8412822265625,4.403716605228185,-7.146480358642339,5.070057530945539
1775751081780296400,8.85129638671875,4.393199595127999,-7.119210658922791,5.117326062598824
1775751081790310400,8.861310302734376,4.379861097866296,-7.098951130226254,5.156753817623853
1775751081800324000,8.871323974609375,4.366699418476224,-7.085822184062003,5.18589164930284
1775751081810337300,8.881337158203126,4.358263890825212,-7.0787038764894,5.202680287018418
1775751081820351500,8.8913515625,4.357321057017147,-7.076107430255413,5.20700282639265
1775751081830365400,8.901365478515626,4.362052177192271,-7.077920032635331,5.200569578474759
1775751081840379100,8.911379150390625,4.371055275598168,-7.084501749113202,5.184024686387181
1775751081850393300,8.921393310546875,4.3805552176103,-7.091563358062506,5.166318933826685
1775751081860406300,8.93140625,4.385815914617479,-7.092361814963817,5.160753700914979
1775751081870420200,8.941420166015625,4.382039610949159,-7.084647879585623,5.174543741336465
1775751081880434200,8.95143408203125,4.368223267042636,-7.070081594094634,5.20605239380002
1775751081890448400,8.961448486328125,4.352210582135617,-7.051241284546256,5.244868738928437
1775751081900462300,8.97146240234375,4.3406528308108445,-7.031917575395107,5.280268553611636
1775751081910476300,8.981476318359375,4.33331298944205,-7.016548156827688,5.306680175197124
1775751081920489200,8.9914892578125,4.329100047922134,-7.008261389997601,5.32104713872373
1775751081930503400,9.00150341796875,4.325156278732419,-7.009191364324092,5.323032759582996
1775751081940517000,9.01151708984375,4.319932698865235,-7.01958416352272,5.3135681811451905
1775751081950531300,9.02153125,4.313578069141507,-7.035563822942971,5.2975739086776965
1775751081960545300,9.031545166015626,4.301425859054922,-7.049028284671902,5.289551930263638
1775751081970558500,9.041558349609375,4.283439828248322,-7.053031675094366,5.298796143949032
1775751081980572200,9.051572265625,4.263718644212186,-7.046535298812389,5.323291118258237
1775751081990586400,9.06158642578125,4.243061932891607,-7.032753441697358,5.357910596218705
1775751082000600300,9.071600341796875,4.2206776671260595,-7.016396181136369,5.396897037217021
1775751082010614300,9.0816142578125,4.196849340032041,-7.002437213888764,5.433479924204946
1775751082020628200,9.091628173828125,4.17496454822123,-6.992907753521203,5.462535338297486
1775751082030641400,9.101641357421874,4.159118159791827,-6.987339013478159,5.481714670541882
1775751082040655400,9.1116552734375,4.153129733031988,-6.985279742860794,5.488873894646764
1775751082050669300,9.12166943359375,4.158388676473498,-6.985545115798711,5.4845560314476485
1775751082060683300,9.131683349609375,4.174326834839582,-6.988101230022311,5.469173753398657
1775751082070697200,9.141697265625,4.196016396339237,-6.994067444950342,5.444892129579186
1775751082080710400,9.15171044921875,4.214505408231914,-7.003098892667889,5.418944618374109
1775751082090724400,9.161724365234376,4.224220162038505,-7.013823115777969,5.3974663615375755
1775751082100738300,9.17173828125,4.2267347752079365,-7.025360993358492,5.3804678804636
1775751082110752300,9.181752197265626,4.223049072432517,-7.039077968543768,5.3654129346728325
1775751082120766500,9.191766357421875,4.209995821852981,-7.05848701789081,5.350146976479888
1775751082130780200,9.2017802734375,4.185219692514837,-7.085867776769399,5.333364183983206
1775751082140793300,9.21179345703125,4.1519948837831615,-7.121435933756828,5.3119215829819435
1775751082150807300,9.221807373046875,4.112986815474927,-7.164664250108599,5.284063854241371
1775751082160821200,9.2318212890625,4.067980968056619,-7.212889059573412,5.253204605597257
1775751082170835200,9.241835205078125,4.020070046846568,-7.258367785200476,5.2273827665984625
1775751082180849400,9.251849365234374,3.9717940917164083,-7.296650461843609,5.210962377673387
1775751082190862300,9.2618623046875,3.9268350060492754,-7.327105805861949,5.2022974251806735
1775751082200876300,9.271876220703126,3.8880107698753474,-7.351196291023492,5.197465767240524
1775751082210890200,9.28189013671875,3.858274387781322,-7.368903797149658,5.194549003010988
1775751082220904400,9.291904541015626,3.8428234284102913,-7.380603002771735,5.189394688987732
1775751082230918400,9.30191845703125,3.842930103655159,-7.388049227124452,5.178709628844261
1775751082240931300,9.311931396484376,3.8554868028894065,-7.391755095905065,5.164064432898163
1775751082250945300,9.3219453125,3.8772777789369224,-7.391099846866727,5.1486646191924805
1775751082260959500,9.33195947265625,3.9071936092510815,-7.384916774317622,5.134906142953038
1775751082270973200,9.34197314453125,3.9403143730863928,-7.375406603172421,5.123247853863239
1775751082280987100,9.351987060546875,3.973693495596945,-7.366234870201349,5.110651407140493
1775751082291001300,9.36200146484375,4.007335945218801,-7.360107911753654,5.0931777097702025
1775751082301014500,9.3720146484375,4.03964013197422,-7.357563487967848,5.071288534045219
1775751082311028200,9.3820283203125,4.070734066157042,-7.357927645105123,5.045831436705589
1775751082321042200,9.392042236328125,4.102781940063834,-7.358769941148162,5.018571673858165
1775751082331056400,9.402056396484374,4.135995642879605,-7.360475576022267,4.988721894517541
1775751082341070300,9.4120703125,4.169755289140343,-7.364761875039338,4.954174312749505
1775751082351083300,9.422083251953126,4.1992365274295205,-7.373343240901828,4.91636100718379
1775751082361097200,9.43209716796875,4.221550942829251,-7.385973589894175,4.878143796992302
1775751082371111400,9.442111328125,4.233806905551255,-7.404417009079456,4.839404608753323
1775751082381125000,9.452125,4.238330812716484,-7.428315771061182,4.798654957474768
1775751082391139300,9.462139404296876,4.239476767881214,-7.453837750330567,4.75789010862708
1775751082401152300,9.47215234375,4.240962622524798,-7.4781474312007425,4.718254263809323
1775751082411166200,9.482166259765625,4.241121612478793,-7.500375045099854,4.68269487465024
1775751082421180200,9.49218017578125,4.241184740842878,-7.51938837312758,4.652046053886413
1775751082431194400,9.5021943359375,4.244915451803803,-7.535706470721959,4.622140160444379
1775751082441208800,9.512208740234374,4.253244596470892,-7.550055898591876,4.5909597170218825
1775751082451222000,9.522221923828125,4.268475191089511,-7.559850147375464,4.560605787551403
1775751082461235700,9.532235595703124,4.294278033126891,-7.560718162381648,4.534878933359682
1775751082471250000,9.54225,4.335650492478907,-7.549211264461278,4.514639278407395
1775751082481263900,9.552263916015624,4.394318077763915,-7.524377851977944,4.499347601251304
1775751082491277800,9.56227783203125,4.463931712216138,-7.488988558688759,4.489849412804841
1775751082501291800,9.572291748046876,4.537572994749247,-7.44680186034441,4.486194397428632
1775751082511305000,9.582304931640625,4.602004550388455,-7.403188928589224,4.49274279615879
1775751082521319000,9.59231884765625,4.6466734209373595,-7.365577283075451,4.508552359709143
1775751082531332600,9.60233251953125,4.6747722649574275,-7.338533793327212,4.523588016277551
1775751082541346800,9.612346923828126,4.691291730342805,-7.322357734552026,4.532688145317137
1775751082551360800,9.62236083984375,4.696861347168683,-7.316267600983381,4.536754371842742
1775751082561374000,9.6323740234375,4.693768349589408,-7.320137135893106,4.533710181841254
1775751082571387600,9.6423876953125,4.6876562964499,-7.3310963368028395,4.522312004992366
1775751082581401900,9.65240185546875,4.68126659541279,-7.3455661761820314,4.505416399770975
1775751082591415800,9.662415771484374,4.674157055668533,-7.360732181131839,4.4880181057244535
1775751082601430000,9.672429931640625,4.666656763041019,-7.37346891310811,4.474891497647762
1775751082611443700,9.682443603515624,4.653920323325694,-7.381422502461075,4.475042012034356
1775751082621457000,9.692456787109375,4.633124788056314,-7.384428698539733,4.4916269438713785
1775751082631470800,9.702470947265626,4.607499056151509,-7.38344787080884,4.51951477548927
1775751082641484800,9.71248486328125,4.580245430783927,-7.38169372061789,4.549976841509342
1775751082651498800,9.722498779296876,4.555565455296636,-7.382609666419029,4.573215093755722
1775751082661513000,9.732512939453125,4.537143078899383,-7.388018831986188,4.582779917697608
1775751082671526000,9.74252587890625,4.525285760106146,-7.398253810274601,4.577993560203909
1775751082681539800,9.752539794921875,4.51911408573389,-7.412938753709197,4.560298329037428
1775751082691553800,9.7625537109375,4.51467698006928,-7.432468799087405,4.532824338917434
1775751082701568000,9.772568115234375,4.505490049529075,-7.457029239848255,4.501514716157317
1775751082711582000,9.78258203125,4.488234963345527,-7.485230667459964,4.471846430863439
1775751082721595000,9.792594970703124,4.465849236275256,-7.515967166507243,4.442611276289821
1775751082731608800,9.80260888671875,4.440190186622739,-7.547445423832535,4.414881850104034
1775751082741623000,9.812623046875,4.41263202535063,-7.576588516208529,4.392532947912812
1775751082751636700,9.82263671875,4.385414932601154,-7.600460390183329,4.378531895089149
1775751082761650700,9.832650634765624,4.362252960461378,-7.617711384713649,4.371681883063912
1775751082771664000,9.842663818359375,4.345403824730218,-7.630767850163578,4.365691118216514
1775751082781678000,9.852677978515626,4.331670482932031,-7.642634229046106,4.358570764817297
1775751082791691800,9.86269189453125,4.313234370270371,-7.653532639679312,4.357734898515045
1775751082801705700,9.872705810546876,4.285912940363586,-7.663225766175985,4.367639037413895
1775751082811720000,9.882719970703125,4.247936260929704,-7.672711387401819,4.388041773973405
1775751082821734000,9.89273388671875,4.196679536423087,-7.685056489711999,4.415678261178732
1775751082831746800,9.902746826171875,4.133504702846706,-7.701558711701631,4.446406576919555
1775751082841760800,9.9127607421875,4.061062566970288,-7.722769257512688,4.476270969307422
1775751082851775000,9.92277490234375,3.986392233650386,-7.748488805180788,4.498889043828845
1775751082861788700,9.93278857421875,3.9146769507437944,-7.776667436438799,4.5132203515201805
1775751082871803000,9.942802978515624,3.8452053551107643,-7.807226240831613,4.520181714965402
1775751082881815800,9.95281591796875,3.7785666448161,-7.840255819252133,4.519209362801909
1775751082891829800,9.962829833984374,3.7164635321244597,-7.8737758115381,4.512424524967372
1775751082901843700,9.97284375,3.660630001221597,-7.905937374952435,4.501811361016333
1775751082911858000,9.98285791015625,3.6142698165848848,-7.935118461251259,4.487907338826358
1775751082921872000,9.992871826171875,3.581294598700106,-7.960903475371003,4.468639743776619
1775751082931884800,10.002884765625,3.5649957903280853,-7.983367820635437,4.441512959659099
1775751082941898800,10.012898681640625,3.5665003496721384,-8.002150847038626,4.406361566779017
1775751082951913000,10.022912841796876,3.5822912085220215,-8.016551712834834,4.36720064599663
1775751082961927000,10.032927001953125,3.608480711789429,-8.02614430156648,4.32784946333915
1775751082971940900,10.04294091796875,3.6409751604199405,-8.030699480652808,4.292039022028446
1775751082981953800,10.052953857421874,3.6746760622307657,-8.028758867979048,4.266872139807045
1775751082991968000,10.062968017578125,3.7039696689933534,-8.019830880635975,4.258323214909434
1775751083001981700,10.072981689453124,3.725589672388136,-8.00648975302577,4.264559771211445
1775751083011996000,10.082995849609375,3.738105455090105,-7.99348998619914,4.277974840840697
1775751083022009900,10.093009765625,3.7397833251744506,-7.985093913775682,4.292169078148901
1775751083032023000,10.10302294921875,3.7324370540648695,-7.982438430830836,4.30349068263024
1775751083042036700,10.11303662109375,3.7209111591830846,-7.984290196177363,4.310023299269378
1775751083052051000,10.123051025390625,3.7089740531519055,-7.988686385309696,4.312167910082638
1775751083062065000,10.13306494140625,3.6984190491288897,-7.993181358641386,4.312905576707423
1775751083072078800,10.143078857421875,3.690545247013867,-7.9943036406695835,4.317562462602556
1775751083082092800,10.1530927734375,3.684315704974532,-7.991353558692335,4.328335493290424
1775751083092106000,10.16310595703125,3.680563074442744,-7.9846549378365275,4.34385922563672
1775751083102120000,10.173119873046875,3.681070439442992,-7.9746356481254095,4.361794110777974
1775751083112133600,10.183133544921875,3.6862899276569485,-7.963157391777634,4.378329650515318
1775751083122147800,10.19314794921875,3.696345165464282,-7.952644765591621,4.38894661385864
1775751083132161800,10.203161865234375,3.7106089608773587,-7.9450284453690045,4.390704271180928
1775751083142175000,10.213175048828125,3.7280154382303357,-7.940350516685843,4.384416861474514
1775751083152188700,10.223188720703124,3.74633961495012,-7.937803754812479,4.373393363156914
1775751083162203000,10.233202880859375,3.7636885168969627,-7.9342171284973615,4.3650045972570775
1775751083172216800,10.243216796875,3.777062085472047,-7.9273074952393765,4.366006760036945
1775751083182231000,10.25323095703125,3.7849274120196696,-7.918802117222547,4.374617936515808
1775751083192243700,10.26324365234375,3.788753400048613,-7.910678431999683,4.385988640835881
1775751083202258000,10.2732578125,3.7904634188368913,-7.903923112520575,4.396678084893525
1775751083212271900,10.28327197265625,3.78945921023041,-7.900604197230934,4.403504131521284
1775751083222285800,10.293285888671875,3.785117089372873,-7.901612497490644,4.405430423408746
1775751083232299800,10.3032998046875,3.7785418026357886,-7.905845605015754,4.403478120297193
1775751083242313000,10.31331298828125,3.7710947015002367,-7.911963795635104,4.398872964589297
1775751083252327000,10.323326904296875,3.763449447444081,-7.918474200442433,4.393704037518799
1775751083262340900,10.3333408203125,3.7555937655076383,-7.9241978387862435,4.390099291025102
1775751083272354800,10.343354736328125,3.7475694490060207,-7.92825208261311,4.389640733602643
1775751083282369000,10.353369140625,3.73900065036416,-7.929583623477816,4.394534643124044
1775751083292381700,10.363381591796875,3.729416829460859,-7.928149791282415,4.405253313276171
1775751083302396000,10.37339599609375,3.719664958514273,-7.925035458654165,4.419079009532928
1775751083312409900,10.383409912109375,3.7111443829283117,-7.922185329920053,4.431344616866111
1775751083322423800,10.393423828125,3.7047359771907327,-7.921397978934645,4.43810841191262
1775751083332437800,10.403437744140625,3.700719727286696,-7.923259681153297,4.43812711661309
1775751083342451000,10.413450927734376,3.6982758412659167,-7.9276856809020035,4.432266407886147
1775751083352465000,10.42346484375,3.697145375931263,-7.9338821974545715,4.422104494833946
1775751083362478800,10.433478759765626,3.6957054062560197,-7.941166509243845,4.410221749338508
1775751083372492800,10.443492919921875,3.694178342819214,-7.9477511483311645,4.399620568086207
1775751083382506800,10.4535068359375,3.692545480920374,-7.95298320376575,4.39152990835011
1775751083392521000,10.46352099609375,3.6897196098446843,-7.957566439902782,4.3856040254324675
1775751083402534000,10.473533935546875,3.685349139675498,-7.961756292808055,4.381665809200704
1775751083412547800,10.4835478515625,3.680200086349249,-7.966423115575313,4.377507228216529
1775751083422561800,10.493561767578125,3.674563541767001,-7.972460057651996,4.371253720779717
1775751083432576000,10.503575927734374,3.6664407333269713,-7.979812758502364,4.3646556376889345
1775751083442589200,10.513589111328125,3.6548826897412536,-7.98854668457806,4.358363551807403
1775751083452602400,10.523602294921876,3.6403058828562496,-7.999161017572879,4.351094729848206
1775751083462616300,10.5336162109375,3.622902620373666,-8.010873082676529,4.344065854124724
1775751083472630300,10.54363037109375,3.6023829794362183,-8.022410960257053,4.3398295317292215
1775751083482644200,10.553644287109375,3.5781980939894913,-8.032415052399038,4.34133379881233
1775751083492658400,10.563658447265626,3.551646187150478,-8.040187439966202,4.348743782807887
1775751083502671400,10.57367138671875,3.5267458469107744,-8.044853678211568,4.360364077974856
1775751083512685300,10.583685302734375,3.506123622381687,-8.046305046063662,4.374294111388921
1775751083522699300,10.59369921875,3.488991870316863,-8.04527921014726,4.389849700178206
1775751083532713500,10.60371337890625,3.4733640930742022,-8.042267168849706,4.4077246718257665
1775751083542727200,10.61372705078125,3.459813998888433,-8.037444863259791,4.427135766999423
1775751083552740400,10.623740234375,3.4499133671209212,-8.030805279114842,4.446871271821856
1775751083562754300,10.63375439453125,3.444171900859475,-8.020939134138821,4.469070244148373
1775751083572768500,10.6437685546875,3.4398423472225663,-8.005870744344591,4.49931837515682
1775751083582782200,10.6537822265625,3.4376813697963953,-7.983190125980973,4.541082464174926
1775751083592796400,10.66379638671875,3.4429812297701834,-7.951506116950512,4.592368707036972
1775751083602809300,10.673809326171876,3.457938560405373,-7.9122098793506614,4.648656119187176
1775751083612823300,10.6838232421875,3.4830861534044146,-7.868206486973166,4.704237721155583
1775751083622837200,10.693837158203126,3.516373798239231,-7.8212477519214145,4.757479189738631
1775751083632851500,10.7038515625,3.5566716140970587,-7.770849105548858,4.80982224817723
1775751083642865400,10.713865478515626,3.60229676245749,-7.717232081651687,4.861912793159485
1775751083652878300,10.72387841796875,3.6499475714266296,-7.66010149667561,4.9164171212852
1775751083662892300,10.733892333984375,3.694285602585971,-7.598248559352755,4.978879130417108
1775751083672906500,10.743906494140624,3.7335935306236148,-7.531514864251017,5.050439807283878
1775751083682920400,10.75392041015625,3.767808227175474,-7.4624436661124225,5.126980026128888
1775751083692934400,10.763934326171874,3.7950808495044708,-7.395667300912738,5.203062564334273
1775751083702947300,10.773947265625,3.8188220828369257,-7.334092011487484,5.272388614016771
1775751083712961500,10.78396142578125,3.8435461897268888,-7.279179687082767,5.330207765778899
1775751083722975200,10.793975341796875,3.872940626515448,-7.232928808039427,5.371728109169006
1775751083732989200,10.8039892578125,3.907195070555806,-7.196202128666639,5.396191519296169
1775751083743003400,10.81400341796875,3.946183265119791,-7.168498713704944,5.404687544962764
1775751083753016300,10.824016357421876,3.9893382239744066,-7.1483812238276,5.399648381751775
1775751083763030300,10.8340302734375,4.029204078155756,-7.1328989925354715,5.390515227225422
1775751083773044200,10.844044189453125,4.056616108955443,-7.118948793116211,5.388395166331529
1775751083783058400,10.854058349609375,4.069385574157536,-7.103707969364524,5.398870383116603
1775751083793072400,10.864072265625,4.072029658925533,-7.086636423054337,5.419274288719892
1775751083803085300,10.874085205078124,4.070507856185734,-7.068966326329112,5.443445437902212
1775751083813099300,10.884099365234375,4.071594482378662,-7.052576917064189,5.463847589939832
1775751083823113500,10.894113525390624,4.0801679571956395,-7.040073409321904,5.473570527052879
1775751083833127200,10.904127197265625,4.0957957344383,-7.035340535581112,5.467981913265586
1775751083843141400,10.914141357421874,4.120343607978523,-7.041097491672635,5.442066550764441
1775751083853154300,10.924154296875,4.151852552703023,-7.057984913587569,5.3960465578675265
1775751083863168300,10.934168212890626,4.175501431576907,-7.0852844239234924,5.341753242143988
1775751083873182200,10.94418212890625,4.178078880849481,-7.119682952609658,5.293786791354417
1775751083883196400,10.954196533203126,4.1586376827985045,-7.155977670305967,5.260045849794149
1775751083893210400,10.96421044921875,4.123451510865986,-7.188082535097003,5.24394928599596
1775751083903223300,10.974223388671875,4.080010720807314,-7.21199707916975,5.245089103680849
1775751083913237200,10.9842373046875,4.031587173900008,-7.2292094952553505,5.258823030000925
1775751083923251500,10.99425146484375,3.9847909359335896,-7.242029813861847,5.2768233815938235
1775751083933265400,11.004265380859374,3.9449361876681444,-7.254562547698616,5.289537317216396
1775751083943279400,11.014279296875,3.912955826039612,-7.270828038322925,5.290960628017783
1775751083953292300,11.024292236328124,3.8858848637625574,-7.292282914283871,5.281375053548812
1775751083963306500,11.034306396484375,3.857826059491932,-7.317304542815685,5.267313210448623
1775751083973320200,11.0443203125,3.828448866099119,-7.344451492938399,5.25094250588417
1775751083983334400,11.05433447265625,3.8015772257864473,-7.373388833609223,5.229866984629631
1775751083993348400,11.064348388671876,3.780174956795573,-7.402796714401244,5.203771589386463
1775751084003361500,11.074361572265625,3.7673303805306553,-7.430704127502441,5.173225059953332
1775751084013375200,11.084375244140626,3.764986155492067,-7.453598680877685,5.1418976092755795
1775751084023389400,11.094389404296875,3.772865510565042,-7.469470203748345,5.113008783921599
1775751084033403400,11.1044033203125,3.7937534002929922,-7.4781959465175865,5.084724354201555
1775751084043417300,11.114417236328125,3.8274277063578364,-7.481724705165624,5.054205297297239
1775751084053430300,11.12443017578125,3.8717996397867798,-7.482780351698398,5.0187230650275945
1775751084063444500,11.134444580078124,3.926587168768048,-7.483605112084746,4.974734870219231
1775751084073458400,11.14445849609375,3.992019718143344,-7.4847361619412895,4.920660750204324
1775751084083472100,11.15447216796875,4.063658428682387,-7.487863354051113,4.856850249072909
1775751084093486300,11.164486328125,4.128717176309228,-7.500141236343979,4.78246194756478
1775751084103499500,11.17449951171875,4.165207416577637,-7.525742710590362,4.710059266915917
1775751084113513200,11.18451318359375,4.1574426277950405,-7.563665321749449,4.6558618127822875
1775751084123527200,11.194527099609376,4.109538428586721,-7.608207058787346,4.625715096321701
1775751084133541400,11.204541259765625,4.036021649216115,-7.652967407011985,4.61659772388637
1775751084143554600,11.214554443359376,3.948566360864043,-7.696397967937588,4.620031497727334
1775751084153568300,11.224568359375,3.8586183789134023,-7.737361261966824,4.6276007639378305
1775751084163582200,11.234582275390625,3.7806007809922098,-7.775795914301276,4.627572999148071
1775751084173596400,11.244596435546875,3.7225098265513776,-7.8130188527584075,4.611942883817851
1775751084183610400,11.2546103515625,3.682405487439036,-7.848100687533616,4.5844972430095075
1775751084193623300,11.264623291015624,3.6563118457615373,-7.878191289892793,4.553664590111374
1775751084203637200,11.27463720703125,3.6410087704285976,-7.899709878739714,4.52857895643264
1775751084213651500,11.2846513671875,3.635599312600493,-7.910964847725629,4.513251915702224
1775751084223665200,11.2946650390625,3.6390567595779895,-7.914410604265332,4.504418913166225
1775751084233679400,11.304679443359374,3.651629533164203,-7.912050889396667,4.498378463958203
1775751084243692300,11.3146923828125,3.6766549610882997,-7.90428726965785,4.491643018223345
1775751084253706500,11.32470654296875,3.7145872168585656,-7.891710696679353,4.482537920747697
1775751084263720200,11.33472021484375,3.7646909719377755,-7.877464729183912,4.465764772862196
1775751084273734400,11.344734375,3.82391472980082,-7.864351565110683,4.438471984528005
1775751084283748400,11.354748291015625,3.88824808576256,-7.851921707126498,4.404461578376591
1775751084293761300,11.36476123046875,3.9539191200688477,-7.838456076353788,4.369845899808406
1775751084303775200,11.374775146484374,4.016132122875749,-7.822635406887531,4.341361855863035
1775751084313789400,11.38478955078125,4.069808475744724,-7.806528906217217,4.3203181910514825
1775751084323803400,11.394803466796875,4.11134927740097,-7.7939646081984035,4.303638566668331
1775751084333817300,11.4048173828125,4.136957473649084,-7.787557079243659,4.290676501503587
1775751084343830300,11.414830322265624,4.151165447221696,-7.786654577445983,4.278578944213688
1775751084353844500,11.424844482421875,4.1634792776107785,-7.789025398230552,4.262270198969543
1775751084363858400,11.4348583984375,4.179932399761676,-7.792040362137556,4.240599342170357
1775751084373872400,11.444872314453125,4.199391717991233,-7.794021306821703,4.217663872262835
1775751084383886300,11.45488623046875,4.22173857435584,-7.7917106917917724,4.199591624477505
1775751084393899500,11.4648994140625,4.248792585498094,-7.780567951008677,4.192961392682791
1775751084403913200,11.474913330078126,4.281884707760811,-7.7594930142760274,4.198344839286804
1775751084413927400,11.484927490234375,4.318730337338149,-7.730680761289596,4.213728286379576
1775751084423941400,11.49494140625,4.35283046759963,-7.698848283699155,4.236858694337308
1775751084433955300,11.504955322265625,4.378320005904138,-7.667273580262065,4.267738108986616
1775751084443968300,11.51496826171875,4.390795164334774,-7.639412928912043,4.3047237315565345
1775751084453982500,11.524982421875,4.390291306465864,-7.6208233792543405,4.338062522056698
1775751084463996400,11.534996337890625,4.382168790286779,-7.614442738306522,4.35743708461225
1775751084474010000,11.545010009765624,4.37346730517596,-7.618718515929579,4.358699651893973
1775751084484024300,11.5550244140625,4.369118754577636,-7.6282257644653315,4.346416508904099
1775751084494037500,11.56503759765625,4.372621502001583,-7.637272409752011,4.32696186684966
1775751084504051200,11.57505126953125,4.383372028596699,-7.641467523354291,4.308647919262945
1775751084514065200,11.585065185546876,4.397960525919497,-7.637970913410187,4.299964262069762
1775751084524079400,11.595079345703125,4.418004073777794,-7.625778955835104,4.301059948351979
1775751084534092300,11.60509228515625,4.438484551748633,-7.606490317997336,4.314106476929783
1775751084544106200,11.615106201171875,4.449350813677906,-7.585298476886749,4.340150434246659
1775751084554120200,11.6251201171875,4.450477771881222,-7.567753467845916,4.369525874073803
1775751084564134400,11.635134521484375,4.446936153751611,-7.556418419361114,4.39268609264791
1775751084574148400,11.6451484375,4.442225199581682,-7.550667308488488,4.4073175523296
1775751084584161300,11.655161376953124,4.440084095899761,-7.547771587046981,4.414428261117637
1775751084594175200,11.66517529296875,4.438133254092931,-7.546930460047721,4.417828424949944
1775751084604189400,11.675189453125,4.432178437341749,-7.5497916946977375,4.4189206041008235
1775751084614203100,11.685203125,4.422238934868574,-7.555597750627994,4.4189486611515285
1775751084624217300,11.69521728515625,4.410969060574471,-7.561707757940888,4.419764069187641
1775751084634230300,11.705230224609375,4.402425396373868,-7.5669766382545225,4.419265472015738
1775751084644244200,11.715244140625,4.398660198621451,-7.571115637755393,4.415925513938069
1775751084654258200,11.725258056640625,4.397621795484423,-7.573608039093017,4.412683463276922
1775751084664272400,11.7352724609375,4.398351863324642,-7.574477807664871,4.410464325922727
1775751084674286300,11.745286376953125,4.401294638778269,-7.5743369378894565,4.407769095489383
1775751084684299300,11.75529931640625,4.406541599521041,-7.572479327324032,4.405716546873748
1775751084694313200,11.765313232421875,4.411274765522778,-7.569153982293606,4.406689775820076
1775751084704327400,11.775327392578125,4.41338751989305,-7.5658929346710435,4.410177910196781
1775751084714341400,11.78534130859375,4.41164476787895,-7.564470792913436,4.414358118490875
1775751084724355300,11.795355224609375,4.406742382790148,-7.564599972251057,4.419026694823801
1775751084734368300,11.8053681640625,4.400442405863106,-7.566447645944357,4.4221457036271685
1775751084744382500,11.815382568359375,4.3936903012543915,-7.5710349737346165,4.421008224029839
1775751084754396200,11.825396240234374,4.38668860579878,-7.5789505691647525,4.414390851716697
1775751084764410400,11.835410400390625,4.381065505219996,-7.5891761951029295,4.402392663148046
1775751084774423300,11.84542333984375,4.378187027174234,-7.599614002487063,4.387226950459182
1775751084784437500,11.8554375,4.375317024695873,-7.609819170159101,4.372370157589018
1775751084794451200,11.865451171875,4.3663314619466655,-7.621637618246674,4.3607551231190556
1775751084804465400,11.87546533203125,4.348986359392106,-7.634975238725542,4.354753544616699
1775751084814479400,11.885479248046876,4.323098761680722,-7.649240495443344,4.355492672546208
1775751084824492300,11.8954921875,4.290913817390799,-7.665005635330081,4.359603030474483
1775751084834506200,11.90550634765625,4.255442398776114,-7.682577532377839,4.363439832158386
1775751084844520400,11.9155205078125,4.2191520649939775,-7.702529602560401,4.363505298610032
1775751084854534400,11.925534423828125,4.183239916874468,-7.725123127162456,4.358134711487591
1775751084864548000,11.935548095703124,4.148665447099507,-7.7481275706529615,4.350342742437124
1775751084874561300,11.945561279296875,4.118592380397022,-7.767845247557759,4.343747581955791
1775751084884575500,11.955575439453124,4.096241724640131,-7.782981441891193,4.337786919985711
1775751084894589400,11.96558935546875,4.0823181209668515,-7.794743775877356,4.32978832244724
1775751084904603100,11.97560302734375,4.07508407806009,-7.804450346377491,4.319098293867707
1775751084914617300,11.985617431640625,4.072016507183015,-7.813326895794272,4.305923754996061
1775751084924630500,11.995630615234376,4.065765922355651,-7.823648967844248,4.293072164468467
1775751084934644200,12.005644287109375,4.050688764733076,-7.837492199757695,4.282058895283937
1775751084944658200,12.015658203125,4.024653575244546,-7.856628861904144,4.271522888222337
1775751084954672400,12.02567236328125,3.9869153807416557,-7.881708358103037,4.260694912476837
1775751084964685300,12.035685302734375,3.9412455164566635,-7.911507284039258,4.247940060321986
1775751084974699300,12.04569921875,3.891865983998775,-7.944132957834005,4.232552521575987
1775751084984713200,12.055713134765625,3.844938813129067,-7.976519562175869,4.21449371779412
1775751084994727400,12.0657275390625,3.8024870341077444,-8.00749805328548,4.194216945701838
1775751085004741000,12.0757412109375,3.762037827080488,-8.03752143562734,4.173213612900674
1775751085014754300,12.08575439453125,3.7204526017606256,-8.066949190163612,4.153670415779948
1775751085024768300,12.095768310546875,3.675315236917138,-8.095718188530206,4.137846239182353
1775751085034782500,12.105782470703126,3.6273292046442625,-8.124089127489924,4.124562979239225
1775751085044796200,12.115796142578125,3.5778625784248113,-8.152990227803587,4.110717701499164
1775751085054810400,12.125810302734376,3.525543485383689,-8.184196097928286,4.093876456813514
1775751085064823300,12.1358232421875,3.472506599462032,-8.218713284558058,4.069989677530527
1775751085074837200,12.145837158203125,3.4212019441604613,-8.255642208504677,4.038578055700659
1775751085084851200,12.155851318359375,3.3747701555922625,-8.292029865181446,4.0029385870426895
1775751085094865400,12.165865478515625,3.332780148863792,-8.3256866355896,3.9681066353753205
1775751085104879400,12.17587939453125,3.2935487931936978,-8.355817569959163,3.9374104683384297
1775751085114892300,12.185892333984375,3.2546523685663935,-8.383122925513982,3.911630130393803
1775751085124906200,12.19590625,3.2159187332853674,-8.407266017645597,3.8918072395488617
1775751085134920400,12.20592041015625,3.182356070901453,-8.42702928725779,3.8766204840719696
1775751085144934400,12.215934326171874,3.154655578549206,-8.4435893769145,3.8632042453989386
1775751085154947300,12.225947265625,3.131399498385191,-8.458707451069355,3.849023452094197
1775751085164961300,12.235961181640626,3.112631961812079,-8.473577103421091,3.8315050387993455
1775751085174975500,12.2459755859375,3.0990108482167122,-8.488114747339486,3.810309982818365
1775751085184989200,12.2559892578125,3.091482790799439,-8.501458797559142,3.786596222014725
1775751085195003400,12.26600341796875,3.0906501393675803,-8.513056880894302,3.7611364943265913
1775751085205016300,12.276016357421875,3.096364717622101,-8.521838737764954,3.7364699628427624
1775751085215030300,12.2860302734375,3.1080759059429166,-8.52619167227745,3.7167636841148135
1775751085225044200,12.296044189453125,3.124914812541008,-8.526344817012548,3.7022593579441305
1775751085235058400,12.306058349609375,3.1448642523750663,-8.523664199626445,3.691525490222871
1775751085245072400,12.316072265625,3.16491539901793,-8.519338737642764,3.684369480988383
1775751085255085300,12.326085205078124,3.182077253960073,-8.514947809207438,3.6797359759688377
1775751085265099300,12.336099365234375,3.1962092396870254,-8.51215087196529,3.6739544699579474
1775751085275113500,12.346113525390624,3.2095030210241675,-8.511593238082527,3.6636397044315934
1775751085285127400,12.35612744140625,3.2225673775196073,-8.512824241182207,3.6492823855161665
1775751085295140400,12.366140380859376,3.2349525195792315,-8.514809277519584,3.6336642528846856
1775751085305154300,12.376154296875,3.247298206411302,-8.516787884116173,3.617975100843608
1775751085315168300,12.386168212890626,3.2602924202799795,-8.517889123356342,3.603668635332584
1775751085325182200,12.39618212890625,3.274303117714822,-8.516603175199032,3.593991290926933
1775751085335196200,12.406196044921876,3.288966141578555,-8.512777479431033,3.589662614072859
1775751085345209300,12.416209228515624,3.3042727240428325,-8.506839321553707,3.589691255645454
1775751085355223300,12.426223388671875,3.318606369821727,-8.499338152143359,3.594232406206429
1775751085365237200,12.4362373046875,3.3296421430990097,-8.491630061984061,3.6022321727886792
1775751085375251200,12.446251220703125,3.33636560613513,-8.485807639440894,3.6097260356754064
1775751085385265400,12.456265380859374,3.3393945985674858,-8.483226975297928,3.6129900059074163
1775751085395278300,12.4662783203125,3.341282604271173,-8.483211193206905,3.611284078772366
1775751085405292300,12.476292236328124,3.343862391631305,-8.484648532533646,3.605517478069663
1775751085415306200,12.48630615234375,3.3483673018351197,-8.486329617488384,3.597361351881921
1775751085425320400,12.496320556640624,3.3562884502232073,-8.48626298199296,3.590134030976891
1775751085435334100,12.506334228515625,3.3675764446958896,-8.483682902371882,3.585658054606616
1775751085445347300,12.516347412109376,3.3819676658809184,-8.479037706914543,3.5830966796860095
1775751085455361300,12.526361328125,3.4000267619237303,-8.472733638334274,3.5809237195611
1775751085465375500,12.53637548828125,3.4202094259917732,-8.46569131860733,3.5783594220310446
1775751085475389200,12.54638916015625,3.440971643513441,-8.459233520770072,3.5737177337050436
1775751085485402400,12.55640234375,3.4613691193759437,-8.4538307849437,3.566799917140603
1775751085495416300,12.566416259765624,3.481367951309681,-8.44929840221107,3.558069498196244
1775751085505430300,12.57643017578125,3.5004397315263747,-8.44541834590733,3.548548513396084
1775751085515444200,12.5864443359375,3.5187767677277324,-8.441802493497729,3.539003855459392
1775751085525458400,12.59645849609375,3.536235852050781,-8.437683367741107,3.531414715504646
1775751085535471000,12.60647119140625,3.55160468609631,-8.432122811004518,3.5292826719120143
1775751085545485300,12.6164853515625,3.565535304032266,-8.424673079520463,3.5330230274841186
1775751085555499300,12.626499267578126,3.5788080425813793,-8.416267070224881,3.5396310474470254
1775751085565513500,12.636513427734375,3.590549918301403,-8.40830646660924,3.5466473559498786
1775751085575526100,12.646526123046876,3.6002287240117785,-8.401802491542696,3.552241814956069
1775751085585540400,12.656540283203125,3.6087855399549005,-8.396645839431882,3.5557521611645817
1775751085595554300,12.66655419921875,3.6175846402212977,-8.392239128905533,3.557216680759191
1775751085605568500,12.676568603515625,3.627690146911144,-8.387835925510526,3.5573148804366586
1775751085615582200,12.686582275390625,3.639685705131292,-8.382804945605994,3.5569138984203335
1775751085625595400,12.696595458984374,3.653758946408331,-8.376274082532525,3.557870176231861
1775751085635609300,12.706609375,3.668412617921829,-8.368748947724699,3.560503739605844
1775751085645623300,12.716623291015624,3.6809628874152898,-8.361777939668297,3.563929037879407
1775751085655637200,12.72663720703125,3.69066975017637,-8.355541675627231,3.5685099359288808
1775751085665650400,12.736650390625,3.6967242279097436,-8.351006954807042,3.5728558561787005
1775751085675664400,12.746664306640625,3.6993519460648296,-8.348909690266847,3.575039337697625
1775751085685678300,12.75667822265625,3.6996874616295097,-8.348433889448643,3.575798923893273
1775751085695692300,12.7666923828125,3.6990234447628256,-8.348268469753862,3.576872106082737
1775751085705706200,12.776706298828126,3.6966125842288133,-8.348433304926752,3.5789828146263956
1775751085715719200,12.78671923828125,3.6921643726482984,-8.348415184748172,3.5836078440785406
1775751085725733400,12.7967333984375,3.687471246396005,-8.347448970064521,3.5906846505969763
1775751085735747300,12.806747314453125,3.684224519559741,-8.345407819625734,3.5987557288497682
1775751085745761300,12.81676123046875,3.682665307419002,-8.342053833022714,3.6081180159568786
1775751085755775200,12.826775146484374,3.6830437853425737,-8.337382918602227,3.6185093538507815
1775751085765788400,12.836788330078125,3.6847102572500705,-8.332039219486713,3.6291108273640273
1775751085775802400,12.84680224609375,3.686816581879556,-8.326183479195834,3.6403941456615923
1775751085785816300,12.85681640625,3.688904786330461,-8.32003197082877,3.6523160541236397
1775751085795830300,12.866830322265624,3.6907419386297464,-8.31391728734076,3.6643718180984255
1775751085805843500,12.876843505859375,3.6919051371902225,-8.308168514555692,3.6762089708864685
1775751085815857400,12.886857421875,3.691357732440531,-8.303739007675647,3.6867578374296426
1775751085825871000,12.89687109375,3.6889638230413198,-8.300926872864364,3.6954745201095935
1775751085835885300,12.90688525390625,3.6844843395397064,-8.299367952984571,3.7034383385956287
1775751085845899300,12.916899169921875,3.6796035817608237,-8.29813694988489,3.711046767772734
1775751085855912200,12.926912109375,3.676273852816224,-8.296496196940542,3.7180037473037837
1775751085865926100,12.936926025390624,3.6742800486505027,-8.29429722559154,3.72487421759516
1775751085875940400,12.9469404296875,3.671887016034126,-8.292248476368188,3.731790572854876
1775751085885954300,12.956954345703124,3.668888126479089,-8.291177632266283,3.73710767622441
1775751085895967200,12.96696728515625,3.668248951792717,-8.289497131833434,3.7414711321309206
1775751085905981200,12.976981201171874,3.6719904764086007,-8.286599656826258,3.7442090326622126
1775751085915995400,12.986995361328125,3.6799744608998295,-8.282384084957837,3.745702486090362
1775751085926009300,12.99700927734375,3.690145434041321,-8.277176579442619,3.747205291868746
1775751085936023300,13.007023193359375,3.699377372767031,-8.272258996784686,3.7489652872785926
1775751085946036200,13.0170361328125,3.7059672725513577,-8.268609826627372,3.7505017030656336
