time,seconds_elapsed,z,y,x
1775751072975636500,0.046636474609375,0.04669693112373352,0.036853887140750885,-0.22978553175926208
1775751072985650400,0.056650390625,0.023374564945697784,0.050394997000694275,-0.2115418016910553
1775751072995664400,0.066664306640625,-0.013924071565270424,0.10636505484580994,-0.18118976056575775
1775751073005678300,0.07667822265625,-0.0159483402967453,0.219218909740448,-0.1559951901435852
1775751073015692500,0.086692626953125,0.03578942269086838,0.34753718972206116,-0.12291739881038666
1775751073025705200,0.096705322265625,0.09515874087810516,0.42030513286590576,-0.0736963227391243
1775751073035719400,0.106719482421875,0.1158195436000824,0.38479986786842346,-0.027604462578892708
1775751073045733400,0.1167333984375,0.07924741506576538,0.23367667198181152,0.01673663593828678
1775751073055747600,0.12674755859375,0.017829596996307373,0.09879635274410248,0.04313042759895325
1775751073065761300,0.13676123046875,-0.04126355051994324,0.04444682598114014,0.03795510530471802
1775751073075774500,0.1467744140625,-0.07902051508426666,0.03303225338459015,0.024478444829583168
1775751073085788400,0.156788330078125,-0.0956098809838295,0.061587195843458176,0.030900390818715096
1775751073095802600,0.166802734375,-0.0959978997707367,0.06576196849346161,0.04537227377295494
1775751073105816300,0.17681640625,-0.07593364268541336,0.044559743255376816,0.08039604127407074
1775751073115830500,0.18683056640625,-0.04369741305708885,0.022782277315855026,0.13727156817913055
1775751073125844500,0.196844482421875,-0.06223088502883911,0.05603024736046791,0.1816888302564621
1775751073135857400,0.206857421875,-0.12163136154413223,0.06995724886655807,0.2268587052822113
1775751073145871400,0.216871337890625,-0.2076815515756607,0.0013233247445896268,0.3070038855075836
1775751073155885600,0.226885498046875,-0.29337117075920105,-0.1916152387857437,0.46604785323143005
1775751073165899500,0.2368994140625,-0.4160342216491699,-0.4121617376804352,0.671410858631134
1775751073175913200,0.246913330078125,-0.5548352599143982,-0.5488724112510681,0.8496456146240234
1775751073185926400,0.256926513671875,-0.62941575050354,-0.7380692362785339,0.9181482195854187
1775751073195940600,0.266940673828125,-0.6368622183799744,-0.8699843883514404,0.90115886926651
1775751073205954300,0.276954345703125,-0.5992439985275269,-0.8576891422271729,0.8217146396636963
1775751073215968300,0.28696826171875,-0.5267130732536316,-0.7645586729049683,0.6837897896766663
1775751073225982500,0.296982421875,-0.4663029909133911,-0.6578860282897949,0.539453387260437
1775751073235995600,0.30699560546875,-0.4391046464443207,-0.5875332951545715,0.4264051020145416
1775751073246009300,0.31700927734375,-0.4415222704410553,-0.5762659907341003,0.3535442054271698
1775751073256023300,0.327023193359375,-0.46869611740112305,-0.5672804713249207,0.33796659111976624
1775751073266037500,0.33703759765625,-0.4701904058456421,-0.6057277321815491,0.3595736026763916
1775751073276051500,0.347051513671875,-0.46752244234085083,-0.6844276189804077,0.4221845269203186
1775751073286065400,0.3570654296875,-0.4981245696544647,-0.8049963712692261,0.48887327313423157
1775751073296078300,0.367078369140625,-0.5266238451004028,-0.8665359020233154,0.530565619468689
1775751073306092500,0.377092529296875,-0.5888126492500305,-0.8466463088989258,0.5775043368339539
1775751073316106200,0.387106201171875,-0.6519224047660828,-0.8447831869125366,0.5980285406112671
1775751073326120400,0.397120361328125,-0.6787976622581482,-0.817034900188446,0.5678999423980713
1775751073336134400,0.407134521484375,-0.6602551341056824,-0.7728993892669678,0.4917239248752594
1775751073346147600,0.417147705078125,-0.6347548365592957,-0.6831841468811035,0.42143484950065613
1775751073356161300,0.427161376953125,-0.6104298233985901,-0.6029220819473267,0.39362451434135437
1775751073366175500,0.437175537109375,-0.5770832896232605,-0.5510224103927612,0.3858185410499573
1775751073376189400,0.447189453125,-0.5361603498458862,-0.5911828875541687,0.37883812189102173
1775751073386203600,0.45720361328125,-0.5219505429267883,-0.6828733682632446,0.3694595396518707
1775751073396216300,0.46721630859375,-0.504267692565918,-0.7531738877296448,0.3340621292591095
1775751073406230500,0.47723046875,-0.482976496219635,-0.8059505820274353,0.27113136649131775
1775751073416244500,0.487244384765625,-0.4614192843437195,-0.768994927406311,0.18508677184581757
1775751073426258400,0.497258544921875,-0.40415385365486145,-0.6256558895111084,0.09139595925807953
1775751073436272400,0.5072724609375,-0.33075740933418274,-0.5116859078407288,0.06017785146832466
1775751073446286800,0.517286865234375,-0.28240054845809937,-0.48337119817733765,0.10001634806394577
1775751073456299800,0.5272998046875,-0.267673522233963,-0.5289192199707031,0.1359916627407074
1775751073466313700,0.537313720703125,-0.27447283267974854,-0.5271197557449341,0.1627817302942276
1775751073476328000,0.547327880859375,-0.2605583667755127,-0.44843345880508423,0.19463633000850677
1775751073486342000,0.557341796875,-0.21294794976711273,-0.40238818526268005,0.21841275691986084
1775751073496355800,0.56735595703125,-0.14506956934928894,-0.4007660746574402,0.24400600790977478
1775751073506368800,0.57736865234375,-0.10974114388227463,-0.48267504572868347,0.2655206322669983
1775751073516383000,0.587383056640625,-0.11383122950792313,-0.5607485175132751,0.2536759376525879
1775751073526396700,0.597396728515625,-0.10479165613651276,-0.5667158961296082,0.2511131763458252
1775751073536411000,0.607410888671875,-0.10121982544660568,-0.49232766032218933,0.23730842769145966
1775751073546424800,0.6174248046875,-0.0967252105474472,-0.4313327670097351,0.22569385170936584
1775751073556439000,0.62743896484375,-0.07864927500486374,-0.45115065574645996,0.22645550966262817
1775751073566451700,0.63745166015625,-0.0767562985420227,-0.43782928586006165,0.2010343074798584
1775751073576466000,0.6474658203125,-0.06380295008420944,-0.3525705635547638,0.1579776555299759
1775751073586479900,0.65747998046875,-0.046974699944257736,-0.15845835208892822,0.11476492881774902
1775751073596494000,0.667494140625,-0.05447522550821304,0.08175797760486603,0.02900209091603756
1775751073606507800,0.6775078125,-0.023906398564577103,0.24638447165489197,-0.06915696710348129
1775751073616521000,0.68752099609375,0.02081340178847313,0.3192072808742523,-0.134715735912323
1775751073626535000,0.697534912109375,0.04417092353105545,0.3270966410636902,-0.14993996918201447
1775751073636548900,0.707548828125,0.0663478672504425,0.23237252235412598,-0.17802166938781738
1775751073646562800,0.717562744140625,0.07114235311746597,0.163557767868042,-0.20780885219573975
1775751073656576800,0.72757666015625,0.08837273716926575,0.08433672040700912,-0.24888412654399872
1775751073666591000,0.737591064453125,0.0809803381562233,-0.04488225281238556,-0.28973886370658875
1775751073676604000,0.74760400390625,0.0569266639649868,-0.19308289885520935,-0.30061736702919006
1775751073686617900,0.757617919921875,0.000003994741746282671,-0.2930909991264343,-0.29765138030052185
1775751073696631800,0.7676318359375,-0.07055379450321198,-0.4153197109699249,-0.310303270816803
1775751073706646000,0.77764599609375,-0.1368209719657898,-0.47461044788360596,-0.2735300660133362
1775751073716659700,0.78765966796875,-0.19591091573238373,-0.49602094292640686,-0.2129458338022232
1775751073726673000,0.7976728515625,-0.21716134250164032,-0.47799161076545715,-0.1611156463623047
1775751073736686800,0.807686767578125,-0.2376895248889923,-0.2700328230857849,-0.12461782991886139
1775751073746700800,0.81770068359375,-0.2319730520248413,-0.03838413953781128,-0.1092631071805954
1775751073756714800,0.82771484375,-0.24176175892353058,0.1636515110731125,-0.09158371388912201
1775751073766729000,0.83772900390625,-0.22394467890262604,0.2392147183418274,-0.046660713851451874
1775751073776743000,0.847742919921875,-0.21061982214450836,0.23884427547454834,0.009668606333434582
1775751073786755800,0.857755859375,-0.21844898164272308,0.17692656815052032,0.041496310383081436
1775751073796769800,0.867769775390625,-0.21840131282806396,0.33537372946739197,0.12995266914367676
1775751073806784000,0.877783935546875,-0.3044283390045166,0.6189087629318237,0.34228968620300293
1775751073816797700,0.887797607421875,-0.195721834897995,0.2819856107234955,0.3291153013706207
1775751073826812000,0.89781201171875,-0.07280895859003067,-0.04072052985429764,0.2548879384994507
1775751073836824800,0.907824951171875,-0.02075960673391819,-0.17708849906921387,0.14911358058452606
1775751073846839000,0.917839111328125,0.10103287547826767,-0.06526262313127518,0.0945691168308258
1775751073856852700,0.927852783203125,0.21002061665058136,0.1247565820813179,0.04999818652868271
1775751073866867000,0.937866943359375,0.3652360439300537,0.3550869822502136,-0.028615133836865425
1775751073876881000,0.947880859375,0.5309717059135437,0.6881541609764099,-0.1703576147556305
1775751073886894800,0.957894775390625,0.5664597153663635,0.8778958916664124,-0.2589985430240631
1775751073896907800,0.96790771484375,0.42736703157424927,0.8909599781036377,-0.20221541821956635
1775751073906922000,0.977921875,0.19796527922153473,1.0161445140838623,0.06698808819055557
1775751073916936000,0.98793603515625,-0.038235537707805634,1.294693112373352,0.4015066921710968
1775751073926949600,0.99794970703125,-0.3979684114456177,1.6344165802001953,0.680450439453125
1775751073936963800,1.0079638671875,-0.8281884789466858,1.205053448677063,0.7459074854850769
1775751073946977000,1.01797705078125,-1.0851925611495972,0.6377719640731812,0.952124297618866
1775751073956991000,1.027990966796875,-0.7954095005989075,0.17775242030620575,1.0993568897247314
1775751073967004700,1.038004638671875,-0.2599673867225647,0.19944120943546295,1.072945475578308
1775751073977019000,1.048018798828125,0.12289396673440933,0.2556866407394409,0.8552246689796448
1775751073987032800,1.05803271484375,0.25994929671287537,0.19554713368415833,0.705629289150238
1775751073997047000,1.068047119140625,0.26832520961761475,0.16631200909614563,0.6325345635414124
1775751074007059700,1.078059814453125,0.23758645355701447,0.0866566002368927,0.5864874720573425
1775751074017074000,1.088073974609375,0.12644556164741516,-0.1315564215183258,0.6145766377449036
1775751074027088000,1.098087890625,-0.01477868016809225,-0.33951520919799805,0.6472362875938416
1775751074037101800,1.108101806640625,-0.0804133489727974,-0.31820034980773926,0.5975931286811829
1775751074047115800,1.11811572265625,-0.137013241648674,-0.25710955262184143,0.5150417685508728
1775751074057130000,1.1281298828125,-0.18691982328891754,-0.15238581597805023,0.43517357110977173
1775751074067143000,1.138142822265625,-0.19338543713092804,0.047994956374168396,0.34192830324172974
1775751074077156900,1.148156982421875,-0.15517893433570862,0.24649712443351746,0.24814775586128235
1775751074087170800,1.1581708984375,-0.052432313561439514,0.30797380208969116,0.17954179644584656
1775751074097185000,1.16818505859375,0.10806974768638611,0.2451018989086151,0.14645016193389893
1775751074107199000,1.178198974609375,0.2475528120994568,0.15867432951927185,0.12679283320903778
1775751074117212000,1.1882119140625,0.2951003611087799,0.10394664108753204,0.09348467737436295
1775751074127225900,1.198225830078125,0.25086072087287903,0.06650073081254959,0.06536329537630081
1775751074137239800,1.20823974609375,0.1420769840478897,0.012986904941499233,0.04908419027924538
1775751074147253800,1.218253662109375,0.015596536919474602,-0.016829313710331917,0.024836374446749687
1775751074157267700,1.228267822265625,-0.08488000184297562,0.029624205082654953,-0.005422195885330439
1775751074167282000,1.238281982421875,-0.11958285421133041,0.11649225652217865,-0.032284967601299286
1775751074177294800,1.248294921875,-0.09414833784103394,0.12433580309152603,-0.037520743906497955
1775751074187308800,1.258308837890625,-0.03515958413481712,0.06167827919125557,-0.03153369203209877
1775751074197322800,1.26832275390625,0.024710139259696007,-0.015354988165199757,-0.018566226586699486
1775751074207337000,1.2783369140625,0.04304707050323486,-0.04658880829811096,-0.025229455903172493
1775751074217351000,1.288350830078125,0.031859394162893295,-0.015249260701239109,-0.050155844539403915
1775751074227363800,1.29836376953125,-0.016712667420506477,0.006452040281146765,-0.08931496739387512
1775751074237377800,1.308377685546875,-0.04526228830218315,0.05657432973384857,-0.13485288619995117
1775751074247392000,1.31839208984375,-0.060439642518758774,0.09018848091363907,-0.16978104412555695
1775751074257405700,1.32840576171875,-0.06355047971010208,0.0903695747256279,-0.1975863128900528
1775751074267420000,1.338419921875,-0.04981336370110512,0.0846288651227951,-0.20605222880840302
1775751074277433900,1.348433837890625,-0.041678737848997116,0.05537537485361099,-0.19177502393722534
1775751074287446800,1.35844677734375,-0.05199901759624481,0.007423028815537691,-0.1615489423274994
1775751074297460700,1.368460693359375,-0.08455962687730789,-0.031992554664611816,-0.12402314692735672
1775751074307475000,1.378474853515625,-0.07952864468097687,0.03325915336608887,-0.08112521469593048
1775751074317489000,1.388489013671875,-0.055277369916439056,0.09435126930475235,-0.06314115226268768
1775751074327502800,1.3985029296875,-0.016442622989416122,0.11153718084096909,-0.029391178861260414
1775751074337516800,1.408516845703125,0.032463133335113525,0.12945705652236938,0.009070194326341152
1775751074347530000,1.418530029296875,0.07057909667491913,0.10452880710363388,0.030355243012309074
1775751074357544000,1.4285439453125,0.08315826952457428,0.08484724909067154,0.04548945277929306
1775751074367558000,1.438557861328125,0.08396200835704803,0.05429119989275932,0.07905380427837372
1775751074377571800,1.44857177734375,0.07985435426235199,-0.010003099218010902,0.1079922467470169
1775751074387585800,1.458585693359375,0.094702810049057,-0.003736947663128376,0.11517851799726486
1775751074397600000,1.46860009765625,0.1290072500705719,0.020319385454058647,0.08325600624084473
1775751074407613000,1.478613037109375,0.11203732341527939,0.031378693878650665,0.036493562161922455
1775751074417627000,1.488626953125,0.04610783979296684,0.03737720102071762,-0.02996615506708622
1775751074427640800,1.498640869140625,-0.012533102184534073,0.03400110825896263,-0.06907973438501358
1775751074437654800,1.50865478515625,-0.03245514631271362,0.07769586145877838,-0.07924076169729233
1775751074447668000,1.51866796875,-0.038127146661281586,0.08265679329633713,-0.06552894413471222
1775751074457681200,1.52868115234375,-0.05927131325006485,0.06143007054924965,-0.042990077286958694
1775751074467695000,1.538695068359375,-0.08160271495580673,0.04992441460490227,-0.02743215672671795
1775751074477709000,1.548708984375,-0.08378011733293533,0.04399462044239044,-0.01625007577240467
1775751074487723000,1.558722900390625,-0.052614476531744,-0.004477572627365589,0.0003486077766865492
1775751074497737200,1.5687373046875,-0.014737932942807674,-0.042937345802783966,0.0172698013484478
1775751074507751000,1.5787509765625,0.007754059974104166,-0.0644913762807846,0.01510065607726574
1775751074517764000,1.58876416015625,0.025285914540290833,-0.041800178587436676,-0.004064782522618771
1775751074527778000,1.598778076171875,0.04036819562315941,0.031259916722774506,-0.05675942078232765
1775751074537792300,1.608792236328125,0.03231719508767128,0.13440974056720734,-0.12077808380126953
1775751074547806000,1.618805908203125,0.037281859666109085,0.18425984680652618,-0.19044478237628937
1775751074557820200,1.628820068359375,0.058991946280002594,0.13564197719097137,-0.210627019405365
1775751074567834000,1.638834228515625,0.10131224244832993,0.03296247869729996,-0.20073096454143524
1775751074577847000,1.648846923828125,0.1314389854669571,-0.019638681784272194,-0.1792168915271759
1775751074587861000,1.658861083984375,0.13404995203018188,-0.02502572536468506,-0.16180993616580963
1775751074597875200,1.668875244140625,0.11045514047145844,-0.01022760383784771,-0.14145725965499878
1775751074607889200,1.67888916015625,0.08004742860794067,-0.014216486364603043,-0.10840636491775513
1775751074617903000,1.688903076171875,0.04948579519987106,-0.00036458674003370106,-0.06963153928518295
1775751074627917000,1.6989169921875,0.040718935430049896,0.043232426047325134,-0.05000590905547142
1775751074637930200,1.70893017578125,0.059963468462228775,0.08993681520223618,-0.031090274453163147
1775751074647944200,1.718944091796875,0.10102248936891556,0.0959441065788269,-0.013950170017778873
1775751074657958100,1.728958251953125,0.1195322573184967,0.04786233231425285,0.015902001410722733
1775751074667972000,1.73897216796875,0.09871432930231094,-0.031991489231586456,0.04603327065706253
1775751074677986000,1.748986083984375,0.059787165373563766,-0.11802756786346436,0.0961875170469284
1775751074688000300,1.759000244140625,-0.002757703186944127,-0.16121898591518402,0.1363152265548706
1775751074698013200,1.76901318359375,-0.06180264800786972,-0.13774508237838745,0.1533924788236618
1775751074708027100,1.779027099609375,-0.09705065190792084,-0.07902557402849197,0.14692579209804535
1775751074718041000,1.789041015625,-0.08886861801147461,-0.013323262333869934,0.11419182270765305
1775751074728055000,1.799054931640625,-0.05226719751954079,0.00624138442799449,0.08154252916574478
1775751074738069000,1.809069091796875,-0.005529255140572786,-0.047269243746995926,0.06483864784240723
1775751074748082200,1.819082275390625,0.014011156745254993,-0.09012962877750397,0.05967558175325394
1775751074758096000,1.829095947265625,0.003920705523341894,-0.09677634388208389,0.028836974874138832
1775751074768110000,1.839110107421875,-0.0076275598257780075,-0.022348448634147644,-0.011685684323310852
1775751074778124000,1.8491240234375,-0.011767176911234856,0.031093204393982887,-0.04555097222328186
1775751074788138200,1.85913818359375,0.00020772656716872007,0.04266916587948799,-0.05831017717719078
1775751074798152200,1.869152099609375,0.010949852876365185,0.014063088223338127,-0.05590347945690155
1775751074808165000,1.8791650390625,0.017854364588856697,-0.04249845817685127,-0.03615853562951088
1775751074818179000,1.889178955078125,0.023002786561846733,-0.06911887973546982,-0.012194881215691566
1775751074828193300,1.899193359375,0.03298724442720413,-0.04261856526136398,-0.003454119898378849
1775751074838207000,1.90920703125,0.034861575812101364,-0.010324808768928051,0.000010386328540334944
1775751074848221200,1.91922119140625,0.02406272478401661,0.007979096844792366,0.007093595806509256
1775751074858235100,1.929235107421875,0.0202751774340868,-0.0009691243176348507,0.01841389387845993
1775751074868248000,1.939248046875,0.04794861748814583,0.014652179554104805,0.02460574358701706
1775751074878262000,1.949261962890625,0.08833172917366028,0.014578676782548428,0.025471005588769913
1775751074888276200,1.959276123046875,0.14081516861915588,0.015471900813281536,-0.002822950715199113
1775751074898290200,1.969290283203125,0.18784579634666443,0.021939121186733246,-0.07428035885095596
1775751074908304100,1.97930419921875,0.20922991633415222,0.042941875755786896,-0.1585819274187088
1775751074918318000,1.989318115234375,0.20136719942092896,0.09611108899116516,-0.2264304757118225
1775751074928331300,1.999331298828125,0.16523076593875885,0.1313532292842865,-0.27227866649627686
1775751074938345200,2.00934521484375,0.10931503772735596,0.10428512841463089,-0.260795921087265
1775751074948359000,2.01935888671875,0.08531676232814789,-0.004476241301745176,-0.20606714487075806
1775751074958373000,2.029373046875,0.09975589066743851,-0.20023535192012787,-0.09783840924501419
1775751074968387000,2.039386962890625,0.08683343231678009,-0.4478166699409485,0.06332677602767944
1775751074978401300,2.0494013671875,0.045154161751270294,-0.6263453960418701,0.22635750472545624
1775751074988414000,2.0594140625,-0.0008934905636124313,-0.616054117679596,0.36447542905807495
1775751074998428200,2.06942822265625,-0.02593785710632801,-0.4356260299682617,0.4136238098144531
1775751075008442000,2.079442138671875,-0.04592807590961456,-0.25540193915367126,0.3928394317626953
1775751075018456000,2.0894560546875,-0.06209612637758255,-0.17311745882034302,0.35372796654701233
1775751075028470000,2.099469970703125,-0.09802616387605667,-0.1165844053030014,0.3007265329360962
1775751075038484200,2.109484130859375,-0.12817181646823883,-0.04983626678586006,0.23224015533924103
1775751075048497200,2.1194970703125,-0.14038826525211334,-0.031130222603678703,0.1900745928287506
1775751075058511000,2.129510986328125,-0.1424301117658615,-0.09716276824474335,0.1751111000776291
1775751075068525000,2.139525146484375,-0.1502600759267807,-0.22352497279644012,0.17463038861751556
1775751075078539000,2.1495390625,-0.1629638820886612,-0.2914281189441681,0.15176795423030853
1775751075088553200,2.15955322265625,-0.18735924363136292,-0.2426842749118805,0.08703077584505081
1775751075098567000,2.16956689453125,-0.16609416902065277,-0.08842440694570541,-0.01449958048760891
1775751075108580000,2.179580078125,-0.1295446753501892,-0.001704955706372857,-0.10660047829151154
1775751075118594000,2.189593994140625,-0.08094145357608795,0.0039049931801855564,-0.13014814257621765
1775751075128608000,2.19960791015625,-0.05495672672986984,-0.04813104495406151,-0.1130908653140068
1775751075138622000,2.2096220703125,-0.050829093903303146,-0.09467431157827377,-0.08246717602014542
1775751075148636200,2.21963623046875,-0.058033209294080734,-0.07763087749481201,-0.05317853391170502
1775751075158650000,2.229650146484375,-0.06892793625593185,-0.015993613749742508,-0.034334804862737656
1775751075168663000,2.2396630859375,-0.06431613862514496,0.025372467935085297,-0.02075747586786747
1775751075178677000,2.249677001953125,-0.04342816770076752,0.020605675876140594,-0.016078036278486252
1775751075188691200,2.259691162109375,-0.01913720928132534,-0.010939999483525753,-0.01733771152794361
1775751075198705200,2.269705078125,-0.003126284806057811,-0.01955053210258484,-0.0198645181953907
1775751075208719000,2.279718994140625,0.010630805976688862,0.001204814063385129,-0.04495842009782791
1775751075218733000,2.289733154296875,0.024760739877820015,0.03651566803455353,-0.07600980997085571
1775751075228746200,2.299746337890625,0.043233755975961685,0.06604745984077454,-0.09160981327295303
1775751075238760000,2.309760009765625,0.0605245977640152,0.06094324588775635,-0.08758391439914703
1775751075248774100,2.319774169921875,0.07516825199127197,0.024702416732907295,-0.07002915441989899
1775751075258788000,2.3297880859375,0.07834833115339279,0.0059745353646576405,-0.05319371446967125
1775751075268802000,2.339802001953125,0.07890227437019348,0.008506136015057564,-0.04116874188184738
1775751075278816000,2.34981591796875,0.08742758631706238,0.019478093832731247,-0.021507157012820244
1775751075288829200,2.3598291015625,0.10581005364656448,0.02526620775461197,-0.004637895151972771
1775751075298843100,2.369843017578125,0.13024935126304626,0.020668260753154755,0.0038871499709784985
1775751075308857000,2.379857177734375,0.1494416892528534,0.019572103396058083,0.011477159336209297
1775751075318871000,2.38987109375,0.15692782402038574,0.00273693073540926,-0.010478473268449306
1775751075328885000,2.399885009765625,0.16303445398807526,-0.0021459751296788454,-0.05855172500014305
1775751075338899200,2.409899169921875,0.15652649104595184,-0.0032559807877987623,-0.09545355290174484
1775751075348912000,2.419912109375,0.13718368113040924,-0.0007185208378359675,-0.12035837024450302
1775751075358926000,2.429926025390625,0.08569759130477905,-0.007447796408087015,-0.1400282084941864
1775751075368940000,2.43993994140625,0.028925390914082527,-0.031499069184064865,-0.14536331593990326
1775751075378954200,2.449954345703125,0.004418716765940189,-0.013471067883074284,-0.135574609041214
1775751075388968000,2.459968017578125,0.009228918701410294,0.02599697932600975,-0.12935373187065125
1775751075398982100,2.469982177734375,0.03484027087688446,0.03310708701610565,-0.12393233180046082
1775751075408995000,2.4799951171875,0.05438201501965523,0.01715049147605896,-0.08859191834926605
1775751075419009300,2.49000927734375,0.06131395697593689,-0.011417238041758537,-0.03712712973356247
1775751075429023000,2.50002294921875,0.06342877447605133,-0.03605227544903755,-0.00618199585005641
1775751075439037200,2.510037109375,0.06084630638360977,-0.050043992698192596,0.02527659386396408
1775751075449051400,2.520051513671875,0.04964345321059227,-0.05645768344402313,0.04310699179768562
1775751075459065300,2.5300654296875,0.03628263995051384,-0.05747580900788307,0.03875938057899475
1775751075469078500,2.54007861328125,0.022817431017756462,-0.07112530618906021,0.006494651082903147
1775751075479092500,2.550092529296875,0.01727486029267311,-0.07957632094621658,-0.04260258749127388
1775751075489106400,2.5601064453125,0.015092399902641773,-0.038591332733631134,-0.08233082294464111
1775751075499120400,2.570120361328125,0.027171699330210686,0.05597005784511566,-0.10587956011295319
1775751075509134600,2.580134521484375,0.04945063963532448,0.16763027012348175,-0.08918340504169464
1775751075519148300,2.590148193359375,0.07167685031890869,0.20722748339176178,-0.02936268225312233
1775751075529161500,2.600161376953125,0.044084638357162476,0.18187952041625977,0.038543663918972015
1775751075539175400,2.610175537109375,-0.002252235310152173,0.1206664964556694,0.0958932414650917
1775751075549189400,2.620189453125,-0.03315449133515358,0.04241776466369629,0.13315485417842865
1775751075559203300,2.630203369140625,-0.05380038172006607,-0.003102316288277507,0.17141862213611603
1775751075569217500,2.640217529296875,-0.0730193480849266,0.007676828186959028,0.18792329728603363
1775751075579231500,2.6502314453125,-0.0840991660952568,0.038730353116989136,0.16834692656993866
1775751075589244400,2.660244384765625,-0.09018981456756592,0.07225955277681351,0.13266350328922272
1775751075599258400,2.67025830078125,-0.10333144664764404,0.13356710970401764,0.11810293793678284
1775751075609272600,2.6802724609375,-0.09819900244474411,0.21577942371368408,0.10153035074472427
1775751075619286500,2.69028662109375,-0.06323143094778061,0.3013845980167389,0.07611127942800522
1775751075629300500,2.700300537109375,0.007849400863051414,0.40149176120758057,0.0751139223575592
1775751075639314400,2.710314453125,0.10328883677721024,0.46616291999816895,0.10475464165210724
1775751075649327600,2.72032763671875,0.20346230268478394,0.4378684163093567,0.12674888968467712
1775751075659341300,2.73034130859375,0.2835238575935364,0.3487803637981415,0.1420207917690277
1775751075669355500,2.74035546875,0.29203078150749207,0.20628659427165985,0.15227262675762177
1775751075679369500,2.750369384765625,0.18339751660823822,0.06879397481679916,0.14620673656463623
1775751075689383400,2.760383544921875,0.06663495302200317,-0.02311410754919052,0.15285585820674896
1775751075699397400,2.7703974609375,-0.009753827005624771,-0.08269514888525009,0.18241961300373077
1775751075709410300,2.780410400390625,-0.0642452985048294,-0.10165871679782867,0.20602001249790192
1775751075719424500,2.790424560546875,-0.07851052284240723,-0.07462470233440399,0.2097785323858261
1775751075729438500,2.8004384765625,-0.05373113974928856,0.027397269383072853,0.1736479550600052
1775751075739452400,2.810452392578125,-0.0005829659639857709,0.11932133138179779,0.1192382425069809
1775751075749466400,2.82046630859375,0.07523350417613983,0.15586122870445251,0.04128086194396019
1775751075759480600,2.83048046875,0.1648336946964264,0.17633375525474548,-0.04548945277929306
1775751075769493200,2.8404931640625,0.23066569864749908,0.15167555212974548,-0.09012376517057419
1775751075779507500,2.850507568359375,0.20555555820465088,0.07705936580896378,-0.08167967945337296
1775751075789521400,2.860521484375,0.07269870489835739,-0.1056947410106659,-0.01092481892555952
1775751075799535600,2.87053564453125,-0.10626944899559021,-0.3237583637237549,0.045600775629282
1775751075809549300,2.88054931640625,-0.23116983473300934,-0.4543728232383728,0.026125876232981682
1775751075819563300,2.890563232421875,-0.3179500102996826,-0.48133227229118347,-0.04717683419585228
1775751075829577500,2.900577392578125,-0.3562329411506653,-0.38951021432876587,-0.12309476733207703
1775751075839590700,2.910590576171875,-0.33398836851119995,-0.2291780561208725,-0.1565115749835968
1775751075849604400,2.920604248046875,-0.2615381181240082,-0.019777698442339897,-0.1569342166185379
1775751075859618300,2.930618408203125,-0.13243766129016876,0.22757457196712494,-0.14515160024166107
1775751075869632500,2.940632568359375,-0.012064119800925255,0.45049259066581726,-0.13952140510082245
1775751075879646500,2.950646484375,0.08328237384557724,0.5767703652381897,-0.0949329063296318
1775751075889660400,2.960660400390625,0.06130144000053406,0.6052795052528381,-0.013403955847024918
1775751075899673300,2.97067333984375,-0.06693269312381744,0.4801700711250305,0.07446304708719254
1775751075909687600,2.9806875,-0.27456071972846985,0.2142353355884552,0.1896495521068573
1775751075919701200,2.990701171875,-0.4791381061077118,-0.005526325665414333,0.23678484559059143
1775751075929715500,3.000715576171875,-0.6208566427230835,-0.17916229367256165,0.15197701752185822
1775751075939729400,3.0107294921875,-0.7078820466995239,-0.21629129350185394,-0.034761976450681686
1775751075949743600,3.02074365234375,-0.6846547722816467,-0.019811522215604782,-0.3013497292995453
1775751075959756300,3.03075634765625,-0.5826290845870972,0.2702826261520386,-0.5995454788208008
1775751075969770500,3.0407705078125,-0.5617442727088928,0.49548324942588806,-0.8681798577308655
1775751075979784400,3.050784423828125,-0.3737610876560211,0.506436824798584,-1.0687353610992432
1775751075989798700,3.060798583984375,-0.1865869164466858,0.2386232316493988,-1.1114017963409424
1775751075999812400,3.070812255859375,-0.09471612423658371,-0.2517816424369812,-1.0647001266479492
1775751076009826300,3.080826416015625,-0.026583673432469368,-0.5372767448425293,-0.9469318985939026
1775751076019839500,3.090839599609375,0.0007368966471403837,-0.506213903427124,-0.7534982562065125
1775751076029853400,3.100853515625,0.01901363767683506,-0.29916220903396606,-0.4789053499698639
1775751076039867400,3.110867431640625,0.05813494324684143,-0.10294715315103531,-0.1811213195323944
1775751076049881300,3.12088134765625,0.09362582117319107,-0.002304965863004327,0.07237619906663895
1775751076059895600,3.1308955078125,0.13793469965457916,-0.055694688111543655,0.30692851543426514
1775751076069909200,3.1409091796875,0.1962030678987503,-0.23950020968914032,0.49201953411102295
1775751076079922400,3.15092236328125,0.24299933016300201,-0.4834345877170563,0.6510435342788696
1775751076089936400,3.160936279296875,0.2915506362915039,-0.6869956851005554,0.7193903923034668
1775751076099950300,3.170950439453125,0.35087332129478455,-0.7512921094894409,0.6972925066947937
1775751076109964300,3.18096435546875,0.4111950099468231,-0.7326816916465759,0.6491652131080627
1775751076119978500,3.190978515625,0.4130544066429138,-0.5840304493904114,0.5915938019752502
1775751076129992400,3.200992431640625,0.3896644115447998,-0.307689905166626,0.5598851442337036
1775751076140005400,3.21100537109375,0.3702521026134491,-0.08878393471240997,0.6221604943275452
1775751076150019300,3.221019287109375,0.34441012144088745,-0.045646581798791885,0.773108184337616
1775751076160033500,3.231033447265625,0.3874715566635132,-0.22666004300117493,0.9818797707557678
1775751076170047500,3.241047607421875,0.43698930740356445,-0.531685471534729,1.1389445066452026
1775751076180061400,3.2510615234375,0.47593697905540466,-0.8737871646881104,1.1182152032852173
1775751076190075400,3.261075439453125,0.49413302540779114,-1.0370389223098755,0.890937089920044
1775751076200088600,3.271088623046875,0.478939414024353,-0.8265525102615356,0.5163515210151672
1775751076210102300,3.281102294921875,0.43197405338287354,-0.4521954357624054,0.1776251196861267
1775751076220116500,3.291116455078125,0.37233734130859375,-0.18051092326641083,-0.03686746954917908
1775751076230130400,3.30113037109375,0.28978440165519714,-0.04599199444055557,-0.1967942863702774
1775751076240144400,3.311144287109375,0.14762727916240692,0.11089082807302475,-0.21549420058727264
1775751076250158600,3.32115869140625,0.003260774305090308,0.1872955858707428,-0.10485664010047913
1775751076260171500,3.331171630859375,-0.12842242419719696,0.03730982169508934,0.09303779900074005
1775751076270185500,3.341185546875,-0.22154118120670319,-0.2034042477607727,0.3625473082065582
1775751076280199400,3.351199462890625,-0.2708485424518585,-0.47505414485931396,0.5667385458946228
1775751076290213400,3.36121337890625,-0.2975887954235077,-0.5640551447868347,0.6488336324691772
1775751076300227300,3.371227294921875,-0.29360711574554443,-0.380950003862381,0.6250209808349609
1775751076310241500,3.381241455078125,-0.31247666478157043,-0.12793372571468353,0.4711821675300598
1775751076320255500,3.39125537109375,-0.34860220551490784,0.17219573259353638,0.2387649118900299
1775751076330268400,3.401268310546875,-0.3779406249523163,0.3428923785686493,-0.004234958905726671
1775751076340282400,3.411282470703125,-0.41428694128990173,0.3641135096549988,-0.18392854928970337
1775751076350296600,3.421296630859375,-0.45377495884895325,0.34686368703842163,-0.2814958691596985
1775751076360310300,3.431310302734375,-0.43259936571121216,0.2548397481441498,-0.29656028747558594
1775751076370324500,3.441324462890625,-0.3773083984851837,0.10613176226615906,-0.21559274196624756
1775751076380338400,3.45133837890625,-0.3070680499076843,-0.05573676526546478,-0.06592495739459991
1775751076390351600,3.4613515625,-0.228282168507576,-0.18800266087055206,0.08422912657260895
1775751076400365300,3.471365234375,-0.18139083683490753,-0.23625248670578003,0.2162952870130539
1775751076410379500,3.481379638671875,-0.22058190405368805,-0.24346858263015747,0.310822069644928
1775751076420393500,3.4913935546875,-0.34695929288864136,-0.276937335729599,0.3039391040802002
1775751076430407400,3.501407470703125,-0.4232870936393738,-0.27182087302207947,0.14854685962200165
1775751076440421400,3.51142138671875,-0.4447915852069855,-0.20029394328594208,-0.05426723137497902
1775751076450434300,3.521434326171875,-0.4489154815673828,-0.13429495692253113,-0.2552616000175476
1775751076460448300,3.5314482421875,-0.34583890438079834,-0.08086422085762024,-0.4501495957374573
1775751076470462200,3.541462158203125,-0.12045051157474518,-0.01369290892034769,-0.5781754851341248
1775751076480476200,3.55147607421875,0.09067397564649582,0.039569780230522156,-0.6041990518569946
1775751076490490000,3.561489990234375,0.2430984079837799,0.055934906005859375,-0.5680597424507141
1775751076500504300,3.57150439453125,0.2875779867172241,0.11296197026968002,-0.4673999547958374
1775751076510517200,3.581517333984375,0.25834420323371887,0.09917931258678436,-0.3463965654373169
1775751076520531200,3.59153125,0.21939919888973236,-0.027664117515087128,-0.23212938010692596
1775751076530545200,3.601545166015625,0.17684534192085266,-0.1929907649755478,-0.14571991562843323
1775751076540559400,3.611559326171875,0.1337018758058548,-0.3863562345504761,-0.08374975621700287
1775751076550573000,3.621572998046875,0.08226078748703003,-0.5532309412956238,-0.016512131318449974
1775751076560587300,3.631587158203125,0.08731839060783386,-0.6054235696792603,-0.016056997701525688
1775751076570601200,3.641601318359375,0.14150945842266083,-0.5171278119087219,-0.08470343798398972
1775751076580614100,3.6516142578125,0.25433453917503357,-0.3481329381465912,-0.17439018189907074
1775751076590628000,3.661628173828125,0.38098809123039246,-0.15988154709339142,-0.2968332767486572
1775751076600642300,3.671642333984375,0.4824047386646271,0.017125191166996956,-0.42824214696884155
1775751076610656300,3.68165625,0.5086541771888733,0.13903085887432098,-0.4918301999568939
1775751076620670200,3.691670166015625,0.45227158069610596,0.17728610336780548,-0.5035622119903564
1775751076630684200,3.70168408203125,0.364883691072464,0.16847822070121765,-0.47765764594078064
1775751076640697300,3.711697265625,0.26192986965179443,0.17150171101093292,-0.4259108304977417
1775751076650711300,3.721711181640625,0.13052311539649963,0.16646620631217957,-0.37431102991104126
1775751076660725000,3.73172509765625,-0.02509656548500061,0.16469547152519226,-0.33931389451026917
1775751076670739200,3.7417392578125,-0.07189708948135376,0.16141152381896973,-0.3219101130962372
1775751076680753200,3.751753173828125,-0.060860153287649155,0.17377685010433197,-0.32899999618530273
1775751076690767400,3.761767333984375,-0.017600830644369125,0.20360292494297028,-0.3742276728153229
1775751076700780000,3.771780029296875,0.09911513328552246,0.184345081448555,-0.46948760747909546
1775751076710794200,3.781794189453125,0.20087026059627533,0.1530260294675827,-0.5870528221130371
1775751076720808200,3.79180810546875,0.24137160181999207,0.16572478413581848,-0.7036154270172119
1775751076730822100,3.801822265625,0.2535305321216583,0.24985350668430328,-0.8249894976615906
1775751076740836000,3.811836181640625,0.24679113924503326,0.29633018374443054,-0.9267629981040955
1775751076750850300,3.821850341796875,0.2159235030412674,0.23397600650787354,-0.9921521544456482
1775751076760863000,3.831863037109375,0.18785139918327332,0.12455364316701889,-1.0307053327560425
1775751076770877200,3.841877197265625,0.2090887725353241,0.06489058583974838,-1.0124856233596802
1775751076780891100,3.85189111328125,0.28046175837516785,0.06221223995089531,-0.9233693480491638
1775751076790905300,3.8619052734375,0.36885127425193787,0.16522784531116486,-0.8033430576324463
1775751076800919300,3.871919189453125,0.4369554817676544,0.2999292016029358,-0.6697964668273926
1775751076810933000,3.88193310546875,0.4513078033924103,0.3550108075141907,-0.5192450284957886
1775751076820947200,3.891947265625,0.3908785283565521,0.2848506569862366,-0.3704206645488739
1775751076830960400,3.90196044921875,0.2981683015823364,0.1671288013458252,-0.27262964844703674
1775751076840974000,3.91197412109375,0.1907435804605484,0.13067571818828583,-0.1934909075498581
1775751076850988000,3.921988037109375,0.1131015196442604,0.1612192541360855,-0.12174134701490402
1775751076861002200,3.932002197265625,0.09254218637943268,0.2171006202697754,-0.06987228989601135
1775751076871016200,3.94201611328125,0.10219427943229675,0.2533116340637207,-0.006321545224636793
1775751076881030100,3.952030029296875,0.1359596997499466,0.2520735263824463,0.06731858849525452
1775751076891043000,3.96204296875,0.1567363440990448,0.25101226568222046,0.13369335234165192
1775751076901057300,3.972057373046875,0.17587383091449738,0.24445794522762299,0.1795939952135086
1775751076911071000,3.982071044921875,0.18932785093784332,0.2082168459892273,0.20366284251213074
1775751076921085200,3.992085205078125,0.16052496433258057,0.147303968667984,0.19340860843658447
1775751076931099100,4.00209912109375,0.1250404715538025,0.06150543689727783,0.1449611783027649
1775751076941113300,4.01211328125,0.0921323224902153,0.03851144015789032,0.07943037897348404
1775751076951126000,4.0221259765625,0.0900939404964447,0.03495505452156067,0.027875838801264763
1775751076961140200,4.03214013671875,0.10814031958580017,0.0581892691552639,-0.015037539415061474
1775751076971154200,4.042154296875,0.11751864105463028,0.09513397514820099,-0.03862116113305092
1775751076981168400,4.05216845703125,0.12767034769058228,0.10401667654514313,-0.04797231778502464
1775751076991182000,4.06218212890625,0.13271170854568481,0.09995802491903305,-0.06354515254497528
1775751077001196000,4.072196044921875,0.12188542634248734,0.10540924966335297,-0.07773527503013611
1775751077011209200,4.082209228515625,0.09608525037765503,0.12001162767410278,-0.08862600475549698
1775751077021223200,4.09222314453125,0.03622564673423767,0.07400365173816681,-0.1289862096309662
1775751077031237000,4.102237060546875,-0.06841661036014557,0.00700757559388876,-0.19080989062786102
1775751077041251000,4.1122509765625,-0.17001141607761383,-0.05957305058836937,-0.2637496292591095
1775751077051265300,4.122265380859375,-0.22321577370166779,-0.10556477308273315,-0.3277736008167267
1775751077061279200,4.132279296875,-0.23260341584682465,-0.12914787232875824,-0.38230636715888977
1775751077071292200,4.142292236328125,-0.21242117881774902,-0.1632927805185318,-0.41986146569252014
1775751077081306000,4.15230615234375,-0.17290599644184113,-0.24564145505428314,-0.4149348735809326
1775751077091320300,4.1623203125,-0.12946318089962006,-0.3972160518169403,-0.35220226645469666
1775751077101334000,4.172333984375,-0.14637452363967896,-0.5911732912063599,-0.24963699281215668
1775751077111348200,4.18234814453125,-0.22700704634189606,-0.7220596671104431,-0.18116605281829834
1775751077121362200,4.192362060546875,-0.3500799834728241,-0.720344066619873,-0.16230767965316772
1775751077131376400,4.20237646484375,-0.4590831696987152,-0.5786979794502258,-0.17539632320404053
1775751077141389000,4.21238916015625,-0.5135900974273682,-0.4261430501937866,-0.24083977937698364
1775751077151403300,4.2224033203125,-0.4952627420425415,-0.3374089300632477,-0.30743077397346497
1775751077161417200,4.232417236328125,-0.43189334869384766,-0.2539103031158447,-0.32536691427230835
1775751077171431200,4.24243115234375,-0.3883410692214966,-0.20866133272647858,-0.27821776270866394
1775751077181445000,4.252445068359375,-0.3441541790962219,-0.19433699548244476,-0.19260406494140625
1775751077191459000,4.262458984375,-0.3210323452949524,-0.18853875994682312,-0.13311171531677246
1775751077201472300,4.27247216796875,-0.296552836894989,-0.18689212203025818,-0.07821837067604065
1775751077211486200,4.282486328125,-0.27898743748664856,-0.14805631339550018,-0.039387620985507965
1775751077221500200,4.292500244140625,-0.2967027723789215,-0.06435102969408035,0.005542837083339691
1775751077231514000,4.30251416015625,-0.3558550477027893,0.027753600850701332,0.027528829872608185
1775751077241528300,4.3125283203125,-0.41998928785324097,0.12930871546268463,0.06435209512710571
1775751077251542000,4.3225419921875,-0.46451762318611145,0.19678843021392822,0.13840395212173462
1775751077261555200,4.33255517578125,-0.4908043444156647,0.19647923111915588,0.26569053530693054
1775751077271569200,4.342569091796875,-0.5214970111846924,0.17392359673976898,0.4225746989250183
1775751077281583000,4.3525830078125,-0.5570923089981079,0.19455882906913757,0.6091059446334839
1775751077291597000,4.36259716796875,-0.5927147269248962,0.20494168996810913,0.8128063678741455
1775751077301611300,4.372611328125,-0.629934549331665,0.2340652197599411,0.9563019871711731
1775751077311625200,4.382625244140625,-0.6323676109313965,0.2741604447364807,0.9954118728637695
1775751077321638100,4.39263818359375,-0.6065847277641296,0.3602694869041443,0.8980956673622131
1775751077331652000,4.402652099609375,-0.590869665145874,0.5043070912361145,0.7154625058174133
1775751077341666300,4.412666259765625,-0.626123309135437,0.7334979176521301,0.5089130401611328
1775751077351680300,4.42268017578125,-0.6824366450309753,0.967452883720398,0.33707869052886963
1775751077361694200,4.432694091796875,-0.7482377290725708,1.1127253770828247,0.23635900020599365
1775751077371708200,4.442708251953125,-0.7622299790382385,1.1197502613067627,0.2682458460330963
1775751077381722000,4.45272216796875,-0.7255385518074036,1.0124411582946777,0.3941164016723633
1775751077391735000,4.462735107421875,-0.66669762134552,0.8528786897659302,0.5549279451370239
1775751077401749200,4.472749267578125,-0.5911959409713745,0.7080788612365723,0.7031075358390808
1775751077411763200,4.48276318359375,-0.5020069479942322,0.6025726795196533,0.8214949369430542
1775751077421777200,4.492777099609375,-0.37265533208847046,0.5190436840057373,0.9060249924659729
1775751077431791000,4.502791015625,-0.25275421142578125,0.39570099115371704,0.9368484020233154
1775751077441805000,4.51280517578125,-0.2165118008852005,0.26392433047294617,0.8929688334465027
1775751077451818000,4.52281787109375,-0.27234309911727905,0.17402665317058563,0.7756800055503845
1775751077461832000,4.53283203125,-0.3880976736545563,0.1676020473241806,0.6149092316627502
1775751077471846100,4.54284619140625,-0.5081793069839478,0.18701303005218506,0.43618956208229065
1775751077481860000,4.552860107421875,-0.5877170562744141,0.17541815340518951,0.27299797534942627
1775751077491874000,4.5628740234375,-0.5983039140701294,0.16665102541446686,0.15841521322727203
1775751077501888000,4.572887939453125,-0.5783988833427429,0.15585990250110626,0.10044990479946136
1775751077511901200,4.582901123046875,-0.5192658305168152,0.1690414845943451,0.08973148465156555
1775751077521915100,4.5929150390625,-0.4254993796348572,0.16285735368728638,0.09987333416938782
1775751077531929000,4.60292919921875,-0.3236427903175354,0.14210547506809235,0.10450297594070435
1775751077541943000,4.612943115234375,-0.2189350128173828,0.14410658180713654,0.09116186946630478
1775751077551957200,4.622957275390625,-0.13092125952243805,0.11461659520864487,0.07545054703950882
1775751077561971200,4.63297119140625,-0.09053682535886765,0.06986217200756073,0.06637129932641983
1775751077571984100,4.642984130859375,-0.09833056479692459,0.07543803006410599,0.04977501183748245
1775751077581998000,4.652998046875,-0.10151118040084839,0.1390143483877182,0.029623139649629593
1775751077592012300,4.66301220703125,-0.0917016938328743,0.17415741086006165,0.02364407666027546
1775751077602026000,4.67302587890625,-0.08468160033226013,0.11811252683401108,0.004366518929600716
1775751077612040000,4.6830400390625,-0.06360907107591629,0.05443554371595383,-0.01571504771709442
1775751077622054100,4.69305419921875,-0.03130519390106201,0.06278322637081146,-0.004800081718713045
1775751077632067300,4.7030673828125,0.012852681800723076,0.12177836894989014,0.02851473167538643
1775751077642081000,4.7130810546875,0.09648579359054565,0.17168574035167694,0.05113695189356804
1775751077652095000,4.723094970703125,0.20209237933158875,0.20403967797756195,0.06673455238342285
1775751077662109200,4.733109130859375,0.29212135076522827,0.21660473942756653,0.06959905475378036
1775751077672123100,4.743123046875,0.3491278886795044,0.23053812980651855,0.06626370549201965
1775751077682137000,4.75313720703125,0.3722582459449768,0.21623696386814117,0.056889913976192474
1775751077692150000,4.76314990234375,0.3565586507320404,0.16149409115314484,0.04030933976173401
1775751077702164200,4.773164306640625,0.308994323015213,0.04685778543353081,-0.009127185679972172
1775751077712178000,4.783177978515625,0.22779615223407745,-0.08184719830751419,-0.0907413512468338
1775751077722192100,4.793192138671875,0.12279409915208817,-0.14589808881282806,-0.17766080796718597
1775751077732206000,4.8032060546875,0.014936072751879692,-0.09746530652046204,-0.24751898646354675
1775751077742220300,4.81322021484375,-0.0537327378988266,-0.02267282083630562,-0.2764640748500824
1775751077752234000,4.82323388671875,-0.06889544427394867,0.06690632551908493,-0.2598390281200409
1775751077762247200,4.8332470703125,-0.016917996108531952,0.15028643608093262,-0.1933707892894745
1775751077772261000,4.84326123046875,0.07419274002313614,0.17070142924785614,-0.10191251337528229
1775751077782275000,4.853275146484375,0.18712860345840454,0.05916984751820564,-0.01780989021062851
1775751077792289000,4.8632890625,0.2831563353538513,-0.12126597762107849,0.005378253757953644
1775751077802303000,4.873302978515625,0.31426072120666504,-0.28918972611427307,-0.024987908080220222
1775751077812317200,4.883317138671875,0.2898419499397278,-0.4056556224822998,-0.08049244433641434
1775751077822330000,4.893330078125,0.2098219394683838,-0.4490838050842285,-0.12720748782157898
1775751077832344000,4.903343994140625,0.11517105996608734,-0.45937052369117737,-0.16861563920974731
1775751077842358000,4.91335791015625,0.0439717173576355,-0.42178425192832947,-0.23799152672290802
1775751077852372200,4.923372314453125,-0.020531905815005302,-0.33788084983825684,-0.3333286941051483
1775751077862386000,4.933385986328125,-0.07910094410181046,-0.17171156406402588,-0.4238588511943817
1775751077872400100,4.943400146484375,-0.11106500029563904,-0.002377670258283615,-0.49886414408683777
1775751077882413000,4.9534130859375,-0.15236930549144745,0.19465497136116028,-0.5512554049491882
1775751077892427300,4.96342724609375,-0.24173486232757568,0.41190260648727417,-0.5940436720848083
1775751077902441000,4.97344091796875,-0.3013814091682434,0.578312873840332,-0.6414393782615662
1775751077912455200,4.983455078125,-0.2920752763748169,0.6686113476753235,-0.6289941668510437
1775751077922469000,4.99346923828125,-0.23943708837032318,0.5505451560020447,-0.4971011281013489
1775751077932483000,5.003483154296875,-0.22708135843276978,0.21628037095069885,-0.3443576395511627
1775751077942496000,5.01349609375,-0.203008234500885,-0.06395900994539261,-0.19496682286262512
1775751077952510200,5.02351025390625,-0.1465500295162201,-0.12813346087932587,-0.022223014384508133
1775751077962524200,5.033524169921875,-0.05480998381972313,-0.11532286554574966,0.11823023855686188
1775751077972538000,5.0435380859375,0.018556373193860054,-0.02015054225921631,0.1828869879245758
1775751077982552000,5.053552001953125,0.0717274472117424,0.15536242723464966,0.17463332414627075
1775751077992566000,5.06356591796875,0.09485220909118652,0.3677673637866974,0.1648464798927307
1775751078002579200,5.0735791015625,0.09800539165735245,0.4516681134700775,0.18740184605121613
1775751078012593200,5.08359326171875,0.08903426676988602,0.38637086749076843,0.22388875484466553
1775751078022607000,5.093607177734375,0.028868932276964188,0.25065138936042786,0.3241117596626282
1775751078032621000,5.10362109375,-0.036257874220609665,0.03815723955631256,0.49899914860725403
1775751078042635300,5.11363525390625,-0.06350520253181458,-0.22760732471942902,0.7194297909736633
1775751078052649000,5.12364892578125,-0.03133661672472954,-0.5067404508590698,0.8789147734642029
1775751078062662100,5.133662109375,0.06818837672472,-0.6697565317153931,0.9034299850463867
1775751078072676000,5.143676025390625,0.1789042353630066,-0.6229394674301147,0.8089013695716858
1775751078082690000,5.15368994140625,0.20605383813381195,-0.43552324175834656,0.6374574303627014
1775751078092704000,5.1637041015625,0.19875676929950714,-0.22783076763153076,0.4661024510860443
1775751078102718200,5.17371826171875,0.19508880376815796,-0.10609394311904907,0.33498865365982056
1775751078112732200,5.183732177734375,0.1403467208147049,-0.09461545199155807,0.25374171137809753
1775751078122745000,5.1937451171875,0.1090649664402008,-0.16491225361824036,0.20479069650173187
1775751078132759000,5.203759033203125,0.14441204071044922,-0.24305365979671478,0.18796750903129578
1775751078142773200,5.213773193359375,0.2102712094783783,-0.31789034605026245,0.18908736109733582
1775751078152787200,5.223787109375,0.282809853553772,-0.3964506685733795,0.22380593419075012
1775751078162801200,5.23380126953125,0.3285169005393982,-0.3123522996902466,0.260130375623703
1775751078172815000,5.243815185546875,0.3385860323905945,-0.14981745183467865,0.25969576835632324
1775751078182828300,5.253828369140625,0.3083929717540741,0.10182436555624008,0.23607085645198822
1775751078192842000,5.263842041015625,0.23959234356880188,0.3333667814731598,0.18307608366012573
1775751078202856000,5.27385595703125,0.136807382106781,0.401870459318161,0.10157402604818344
1775751078212870100,5.2838701171875,0.006924751214683056,0.3557668924331665,0.06564132869243622
1775751078222884000,5.293884033203125,-0.07835020124912262,0.1574665904045105,0.05053241550922394
1775751078232898000,5.30389794921875,-0.06712497770786285,-0.014855378307402134,0.04983946308493614
1775751078242912000,5.313912109375,0.0007563377148471773,-0.05439666286110878,0.05956346169114113
1775751078252925200,5.32392529296875,0.059489160776138306,0.031829833984375,0.05083788186311722
1775751078262939100,5.333939208984375,0.07332561165094376,0.1571350246667862,0.04321857541799545
1775751078272953000,5.343953125,0.05800577998161316,0.18901705741882324,0.04277089983224869
1775751078282967000,5.353967041015625,0.040880586951971054,0.1552726775407791,0.07405958324670792
1775751078292981200,5.363981201171875,0.03137017413973808,0.09493210166692734,0.11514975875616074
1775751078302995200,5.3739951171875,0.02063337340950966,-0.027825506404042244,0.11061759293079376
1775751078313008000,5.384008056640625,0.013626862317323685,-0.16565607488155365,0.06466154754161835
1775751078323022000,5.39402197265625,0.00863103847950697,-0.24113911390304565,-0.024116521701216698
1775751078333036300,5.404036376953125,0.0334615521132946,-0.20093949139118195,-0.12187637388706207
1775751078343050000,5.414050048828125,0.07056551426649094,-0.07213784009218216,-0.21143501996994019
1775751078353064000,5.42406396484375,0.11085327714681625,0.03266819939017296,-0.26111841201782227
1775751078363078100,5.434078125,0.16933390498161316,0.11388688534498215,-0.27942925691604614
1775751078373091000,5.444091064453125,0.241972416639328,0.16004692018032074,-0.2778734266757965
1775751078383105000,5.45410498046875,0.28626158833503723,0.15520130097866058,-0.26034262776374817
1775751078393119000,5.464118896484375,0.28179386258125305,0.16192258894443512,-0.23658351600170135
1775751078403133200,5.47413330078125,0.2650068998336792,0.13612455129623413,-0.2233681082725525
1775751078413147100,5.484147216796875,0.20567911863327026,0.05513675510883331,-0.22406132519245148
1775751078423161000,5.4941611328125,0.1506670117378235,-0.05517164245247841,-0.22656495869159698
1775751078433174000,5.504174072265625,0.13247095048427582,-0.1090918630361557,-0.24020248651504517
1775751078443188200,5.514188232421875,0.1231863796710968,-0.11888696998357773,-0.2735833525657654
1775751078453203000,5.524202880859375,0.12353552132844925,-0.06911515444517136,-0.33559638261795044
1775751078463217000,5.534216796875,0.14524827897548676,0.04483778029680252,-0.3984927833080292
1775751078473230800,5.54423095703125,0.21013832092285156,0.20076346397399902,-0.44408372044563293
1775751078483244800,5.554244873046875,0.30245813727378845,0.31629377603530884,-0.4647250771522522
1775751078493257700,5.5642578125,0.382966548204422,0.27703824639320374,-0.4591633379459381
1775751078503272000,5.57427197265625,0.39542776346206665,0.2258365899324417,-0.40498849749565125
1775751078513286000,5.584285888671875,0.37316933274269104,0.22259552776813507,-0.3281880021095276
1775751078523299800,5.5942998046875,0.3491755723953247,0.19455376267433167,-0.24684414267539978
1775751078533313800,5.604313720703125,0.328754186630249,0.175303116440773,-0.19158248603343964
1775751078543327700,5.61432763671875,0.3347572088241577,0.11322322487831116,-0.17460429668426514
1775751078553341000,5.6243408203125,0.3503681421279907,0.0645425096154213,-0.18206673860549927
1775751078563354600,5.634354736328125,0.3432271480560303,0.03819878399372101,-0.21031461656093597
1775751078573368800,5.644368896484375,0.3265722692012787,-0.012751215137541294,-0.2603303790092468
1775751078583382800,5.6543828125,0.29626068472862244,-0.06695745885372162,-0.32870224118232727
1775751078593397000,5.66439697265625,0.2612222731113434,-0.13905268907546997,-0.4345381259918213
1775751078603411000,5.674410888671875,0.21341480314731598,-0.18150481581687927,-0.5579879283905029
1775751078613423900,5.684423828125,0.17716732621192932,-0.2300577014684677,-0.670819103717804
1775751078623437800,5.694437744140625,0.14696148037910461,-0.28579819202423096,-0.7716999053955078
1775751078633452000,5.7044521484375,0.12359091639518738,-0.4183626174926758,-0.8978932499885559
1775751078643465700,5.7144658203125,0.17188547551631927,-0.5516123175621033,-1.0269883871078491
1775751078653480000,5.72447998046875,0.3218957483768463,-0.5904576778411865,-1.1336357593536377
1775751078663494000,5.734493896484375,0.45206865668296814,-0.46211758255958557,-1.2387938499450684
1775751078673506800,5.7445068359375,0.5872176885604858,-0.17238295078277588,-1.3429884910583496
1775751078683520800,5.754520751953125,0.7111771702766418,0.12042521685361862,-1.435114860534668
1775751078693535000,5.764534912109375,0.7991325855255127,0.29738375544548035,-1.445549726486206
1775751078703549000,5.774548828125,0.8499060273170471,0.34885174036026,-1.32413911819458
1775751078713563000,5.78456298828125,0.7669259309768677,0.34479254484176636,-1.0630148649215698
1775751078723576800,5.794576904296875,0.564710795879364,0.2993693947792053,-0.7188803553581238
1775751078733589800,5.80458984375,0.35961222648620605,0.20708714425563812,-0.34595686197280884
1775751078743604000,5.81460400390625,0.1826808601617813,0.051543883979320526,0.006028331350535154
1775751078753617700,5.82461767578125,0.04758775979280472,-0.09219011664390564,0.28916284441947937
1775751078763631900,5.8346318359375,-0.021146031096577644,-0.19443951547145844,0.46594691276550293
1775751078773645800,5.844645751953125,-0.038672029972076416,-0.25209030508995056,0.5358439683914185
1775751078783660000,5.854659912109375,-0.014318752102553844,-0.22389647364616394,0.4917961061000824
1775751078793672700,5.864672607421875,0.018726816400885582,-0.10882608592510223,0.3645246922969818
1775751078803687000,5.87468701171875,0.028061462566256523,0.051900483667850494,0.20030832290649414
1775751078813700900,5.884700927734375,0.02912965603172779,0.2266770899295807,0.03942836448550224
1775751078823714800,5.89471484375,0.03912902623414993,0.32543349266052246,-0.08579160273075104
1775751078833728800,5.904728759765625,0.04773423448204994,0.3517654836177826,-0.12710575759410858
1775751078843742700,5.91474267578125,0.0501670315861702,0.3109227120876312,-0.10787160694599152
1775751078853756000,5.924755859375,0.026856914162635803,0.2684879004955292,-0.04159271717071533
1775751078863769900,5.934769775390625,0.010793792083859444,0.2169075459241867,0.07213731110095978
1775751078873783800,5.94478369140625,0.013039635494351387,0.13328509032726288,0.20363222062587738
1775751078883797800,5.9547978515625,0.034574221819639206,0.047877777367830276,0.30116063356399536
1775751078893812000,5.96481201171875,0.06621523946523666,-0.026396719738841057,0.363840788602829
1775751078903825700,5.97482568359375,0.08347518742084503,-0.044376518577337265,0.41027912497520447
1775751078913838800,5.9848388671875,0.08587443083524704,-0.015292136929929256,0.42521893978118896
1775751078923852800,5.994852783203125,0.10510244965553284,0.023326361551880836,0.42188385128974915
1775751078933866800,6.00486669921875,0.10928867012262344,0.006590258330106735,0.41279104351997375
1775751078943880700,6.014880615234375,0.08312737941741943,-0.0570443756878376,0.3729647994041443
1775751078953895000,6.02489501953125,0.004520716145634651,-0.1635628342628479,0.3043961226940155
1775751078963908900,6.034908935546875,-0.1008288785815239,-0.22955302894115448,0.2221478521823883
1775751078973921800,6.044921875,-0.18914276361465454,-0.23044945299625397,0.1352590173482895
1775751078983935700,6.054935791015625,-0.23648551106452942,-0.19942869246006012,0.05389172583818436
1775751078993950000,6.064949951171875,-0.25291508436203003,-0.15713796019554138,-0.036193691194057465
1775751079003964000,6.0749638671875,-0.23969781398773193,-0.09469082206487656,-0.11289273202419281
1775751079013977900,6.084977783203125,-0.18431870639324188,-0.05121045559644699,-0.1784546971321106
1775751079023991800,6.09499169921875,-0.11700305342674255,-0.04984505474567413,-0.2275862842798233
1775751079034005000,6.1050048828125,-0.07689718157052994,-0.06939638406038284,-0.25350895524024963
1775751079044018700,6.115018798828125,-0.047455932945013046,-0.06537740677595139,-0.25773167610168457
1775751079054033000,6.125032958984375,-0.03334357589483261,-0.09967705607414246,-0.2735135555267334
1775751079064046800,6.135046875,-0.03460324928164482,-0.12322179973125458,-0.2898600399494171
1775751079074060800,6.145060791015625,-0.009659817442297935,-0.13979358971118927,-0.2855566442012787
1775751079084074800,6.15507470703125,0.04402950778603554,-0.15669214725494385,-0.27402517199516296
1775751079094088000,6.165087890625,0.07775338739156723,-0.13404887914657593,-0.23791296780109406
1775751079104102000,6.175101806640625,0.13229945302009583,-0.11362642794847488,-0.18063262104988098
1775751079114115800,6.18511572265625,0.19895784556865692,-0.11523471027612686,-0.10941144824028015
1775751079124129800,6.1951298828125,0.26681652665138245,-0.12355735898017883,-0.039251264184713364
1775751079134143700,6.205143798828125,0.340114951133728,-0.12574142217636108,0.044322721660137177
1775751079144158000,6.215157958984375,0.374146431684494,-0.12471290677785873,0.13559111952781677
1775751079154170600,6.225170654296875,0.39069026708602905,-0.13509950041770935,0.1989985853433609
1775751079164184800,6.235184814453125,0.3873074948787689,-0.1489708423614502,0.21136923134326935
1775751079174198800,6.24519873046875,0.3787483870983124,-0.15851055085659027,0.19041894376277924
1775751079184213000,6.255212890625,0.3681631088256836,-0.14276860654354095,0.16869661211967468
1775751079194226700,6.265226806640625,0.36305516958236694,-0.10277857631444931,0.14382347464561462
1775751079204241000,6.275240966796875,0.36546531319618225,-0.039980705827474594,0.12017647176980972
1775751079214253800,6.28525390625,0.35566914081573486,0.05078275501728058,0.08325467258691788
1775751079224268000,6.29526806640625,0.31278905272483826,0.12837713956832886,0.05426669865846634
1775751079234281700,6.30528173828125,0.2479594647884369,0.1372031271457672,0.056469932198524475
1775751079244296000,6.3152958984375,0.17453984916210175,0.069597989320755,0.10609554499387741
1775751079254310000,6.325309814453125,0.08858579397201538,-0.04671797156333923,0.18927457928657532
1775751079264323800,6.33532373046875,-0.019543873146176338,-0.12912070751190186,0.25634709000587463
1775751079274336800,6.345336669921875,-0.13664546608924866,-0.1560274213552475,0.30189433693885803
1775751079284351000,6.35535107421875,-0.24959491193294525,-0.17425355315208435,0.3483281433582306
1775751079294365000,6.365364990234375,-0.35345259308815,-0.1486416757106781,0.4170669913291931
1775751079304378600,6.375378662109375,-0.4208311140537262,-0.13284167647361755,0.5116302371025085
1775751079314392800,6.385392822265625,-0.44550102949142456,-0.12413260340690613,0.6115257143974304
1775751079324406800,6.39540673828125,-0.4454669654369354,-0.08311699330806732,0.6593323945999146
1775751079334420000,6.405419921875,-0.4085046648979187,-0.0020149475894868374,0.6598399877548218
1775751079344433700,6.41543359375,-0.3331041932106018,0.06914284825325012,0.6392114162445068
1775751079354448000,6.42544775390625,-0.22513218224048615,0.10757119953632355,0.6172275543212891
1775751079364461800,6.4354619140625,-0.09259038418531418,0.0875740572810173,0.6018674969673157
1775751079374476000,6.44547607421875,0.010866229422390461,0.04867139831185341,0.6071799397468567
1775751079384489700,6.45548974609375,0.10372906178236008,-0.019409650936722755,0.6276596784591675
1775751079394503000,6.4655029296875,0.1591760665178299,-0.11486905813217163,0.6618890166282654
1775751079404516900,6.475516845703125,0.13316258788108826,-0.18225929141044617,0.6920351982116699
1775751079414530800,6.48553076171875,0.07839760184288025,-0.19177156686782837,0.7076423764228821
1775751079424544800,6.495544677734375,0.024477645754814148,-0.16690297424793243,0.7239885926246643
1775751079434559000,6.50555908203125,-0.04148193076252937,-0.16114148497581482,0.719753086566925
1775751079444572700,6.51557275390625,-0.13582946360111237,-0.23693132400512695,0.6488770842552185
1775751079454585900,6.5255859375,-0.2490159422159195,-0.28672364354133606,0.5372687578201294
1775751079464599800,6.535599853515625,-0.34250542521476746,-0.22749947011470795,0.4057941138744354
1775751079474614000,6.545614013671875,-0.40036606788635254,-0.12463860213756561,0.29006776213645935
1775751079484627700,6.555627685546875,-0.40524256229400635,-0.0008237157016992569,0.1851528137922287
1775751079494641700,6.5656416015625,-0.36940866708755493,0.1676071137189865,0.09594250470399857
1775751079504656000,6.57565576171875,-0.33968406915664673,0.27675703167915344,0.05561745539307594
1775751079514668800,6.585668701171875,-0.3755461871623993,0.3326075077056885,0.07107897102832794
1775751079524682800,6.595682861328125,-0.43826016783714294,0.3179726302623749,0.12234002351760864
1775751079534696700,6.60569677734375,-0.502998948097229,0.2438315749168396,0.22364507615566254
1775751079544711000,6.6157109375,-0.5922073721885681,0.15836966037750244,0.3370020091533661
1775751079554724600,6.625724609375,-0.6744820475578308,0.08163920044898987,0.4203062057495117
1775751079564738800,6.63573876953125,-0.7154850959777832,0.041304562240839005,0.442627489566803
1775751079574751700,6.645751708984375,-0.7227462530136108,0.05787235498428345,0.40498530864715576
1775751079584766000,6.655765869140625,-0.7278866767883301,0.17178693413734436,0.33848458528518677
1775751079594779600,6.665779541015625,-0.7276685237884521,0.374187171459198,0.2608228027820587
1775751079604793900,6.6757939453125,-0.6866273880004883,0.6514046788215637,0.21017986536026
1775751079614807800,6.685807861328125,-0.5774726271629333,0.8761150240898132,0.20902858674526215
1775751079624822000,6.695822021484375,-0.44990110397338867,0.9619218111038208,0.18716003000736237
1775751079634834700,6.705834716796875,-0.3659934401512146,0.8482383489608765,0.18370085954666138
1775751079644849000,6.715848876953125,-0.38180941343307495,0.6064944267272949,0.18402442336082458
1775751079654862800,6.72586279296875,-0.43945086002349854,0.32976245880126953,0.15867672860622406
1775751079664876800,6.735876708984375,-0.4938209056854248,0.12492542713880539,0.14391615986824036
1775751079674890800,6.745890869140625,-0.5246466994285583,0.056413739919662476,0.14628584682941437
1775751079684904700,6.75590478515625,-0.49622759222984314,0.11461473256349564,0.14938735961914062
1775751079694918000,6.76591796875,-0.4051602780818939,0.2964702844619751,0.15433204174041748
1775751079704931800,6.775931884765625,-0.28831353783607483,0.5284616947174072,0.19031934440135956
1775751079714945800,6.78594580078125,-0.15703995525836945,0.6332168579101562,0.2698594331741333
1775751079724959700,6.795959716796875,-0.03880039229989052,0.5093119740486145,0.34173548221588135
1775751079734974000,6.805973876953125,0.05276680737733841,0.2108754813671112,0.38775330781936646
1775751079744987600,6.815987548828125,0.06998094916343689,-0.17498379945755005,0.4462509751319885
1775751079755000800,6.826000732421875,-0.008382565341889858,-0.45128968358039856,0.5074344277381897
1775751079765014800,6.836014892578125,-0.09795799106359482,-0.509797990322113,0.5457879900932312
1775751079775028700,6.84602880859375,-0.14505545794963837,-0.4006635248661041,0.5082027912139893
1775751079785042700,6.856042724609375,-0.13557752966880798,-0.15777045488357544,0.3697485029697418
1775751079795057000,6.866056884765625,-0.1006523072719574,0.19839005172252655,0.17143486440181732
1775751079805070800,6.87607080078125,-0.04364175349473953,0.589677095413208,-0.0647643506526947
1775751079815083800,6.886083740234375,0.023751934990286827,0.8541849255561829,-0.26057353615760803
1775751079825097700,6.89609765625,0.10042806714773178,0.8809329271316528,-0.36731863021850586
1775751079835112000,6.90611181640625,0.1355074942111969,0.724378228187561,-0.384864866733551
1775751079845126000,6.9161259765625,0.0952487513422966,0.4222167432308197,-0.3378395438194275
1775751079855139800,6.926139892578125,-0.0009534116834402084,0.1311529576778412,-0.2531276047229767
1775751079865153800,6.93615380859375,-0.13908252120018005,-0.023090671747922897,-0.19156330823898315
1775751079875167000,6.9461669921875,-0.2557026147842407,0.051512461155653,-0.2094094157218933
1775751079885180700,6.9561806640625,-0.2961179316043854,0.20130595564842224,-0.2750139832496643
1775751079895195000,6.96619482421875,-0.3083746135234833,0.3491627871990204,-0.353753000497818
1775751079905208800,6.976208740234375,-0.27348026633262634,0.48637309670448303,-0.46011248230934143
1775751079915222800,6.986222900390625,-0.1767185777425766,0.6079668998718262,-0.5645898580551147
1775751079925235700,6.996235595703125,-0.06630152463912964,0.5396608114242554,-0.642944872379303
1775751079935250000,7.00625,-0.03948375955224037,0.23458454012870789,-0.6701019406318665
1775751079945263900,7.016263916015625,-0.0758042186498642,-0.09115094691514969,-0.6523218750953674
1775751079955277800,7.02627783203125,-0.07849986851215363,-0.29576799273490906,-0.6097304821014404
1775751079965291800,7.036291748046875,-0.03833753615617752,-0.34798726439476013,-0.561866819858551
1775751079975305700,7.0463056640625,0.017785388976335526,-0.2706213593482971,-0.5376016497612
1775751079985319000,7.05631884765625,0.05342487618327141,-0.11308448016643524,-0.4769631028175354
1775751079995332600,7.06633251953125,0.07416503876447678,-0.026705380529165268,-0.3626146912574768
1775751080005346800,7.076346923828125,0.10803858935832977,-0.050705522298812866,-0.20291262865066528
1775751080015360800,7.08636083984375,0.1536731868982315,-0.12333045899868011,-0.06680379807949066
1775751080025375000,7.096375,0.2062932550907135,-0.1871083676815033,0.07711182534694672
1775751080035388700,7.106388671875,0.21672165393829346,-0.24739913642406464,0.28102049231529236
1775751080045401900,7.11640185546875,0.2082248479127884,-0.291023850440979,0.43670567870140076
1775751080055415800,7.126415771484375,0.226115420460701,-0.29868629574775696,0.5273684859275818
1775751080065429800,7.1364296875,0.25553402304649353,-0.2762662172317505,0.5827100276947021
1775751080075443700,7.146443603515625,0.3051774799823761,-0.2344769537448883,0.5998727679252625
1775751080085458000,7.1564580078125,0.3303680717945099,-0.21195779740810394,0.5526400208473206
1775751080095471900,7.166471923828125,0.32030025124549866,-0.1615191251039505,0.4056582748889923
1775751080105484800,7.17648486328125,0.32513922452926636,-0.03689942881464958,0.21912676095962524
1775751080115498800,7.186498779296875,0.3465941548347473,0.0836205929517746,0.09475819766521454
1775751080125513000,7.196512939453125,0.3866875171661377,0.11116060614585876,0.001564873498864472
1775751080135527000,7.20652685546875,0.4565845727920532,0.10686386376619339,-0.06006786599755287
1775751080145540600,7.21654052734375,0.4483200013637543,0.03045670874416828,-0.061778146773576736
1775751080155554800,7.226554931640625,0.33819401264190674,0.006422479171305895,-0.028904352337121964
1775751080165568000,7.236568115234375,0.22008016705513,0.03388100117444992,0.019841082394123077
1775751080175581700,7.246581787109375,0.11457052081823349,0.037206489592790604,0.041490718722343445
1775751080185595600,7.256595703125,0.04920855909585953,0.04075302183628082,0.026880616322159767
1775751080195609900,7.26660986328125,0.040998298674821854,-0.022305306047201157,-0.018371017649769783
1775751080205623800,7.276623779296875,0.03536757826805115,-0.06052166596055031,-0.11636655777692795
1775751080215638000,7.286637939453125,0.02087279036641121,0.0011044129496440291,-0.20930474996566772
1775751080225650700,7.296650634765625,0.021455224603414536,0.11844568699598312,-0.2606489062309265
1775751080235665000,7.306664794921875,0.05462809279561043,0.25768452882766724,-0.284826397895813
1775751080245678800,7.316678955078125,0.0978195071220398,0.3417362868785858,-0.27583983540534973
1775751080255692800,7.32669287109375,0.1335735023021698,0.2993701994419098,-0.2345304787158966
1775751080265706800,7.336706787109375,0.14834712445735931,0.17030328512191772,-0.16321182250976562
1775751080275721000,7.346720947265625,0.14591512084007263,-0.046427685767412186,-0.10031941533088684
1775751080285733600,7.356733642578125,0.1354297250509262,-0.2118677794933319,-0.09619098156690598
1775751080295747800,7.366747802734375,0.1522529125213623,-0.2446073442697525,-0.15234559774398804
1775751080305761800,7.37676171875,0.20369720458984375,-0.1417747139930725,-0.23264868557453156
1775751080315775700,7.386775634765625,0.2896621823310852,0.029196234419941902,-0.3170011341571808
1775751080325789700,7.396789794921875,0.38005226850509644,0.14908136427402496,-0.3947172164916992
1775751080335803000,7.406802978515625,0.43852782249450684,0.24117612838745117,-0.43585294485092163
1775751080345816800,7.41681689453125,0.42589858174324036,0.3145486116409302,-0.41055718064308167
1775751080355830800,7.426830810546875,0.3880271017551422,0.358976811170578,-0.3233833909034729
1775751080365844700,7.4368447265625,0.32321906089782715,0.36665016412734985,-0.1880553960800171
1775751080375858700,7.446858642578125,0.23452942073345184,0.24101394414901733,-0.057615891098976135
1775751080385873000,7.456872802734375,0.18668599426746368,0.10647504031658173,0.02371624857187271
1775751080395885800,7.4668857421875,0.1922336220741272,0.1053309515118599,0.020745491608977318
1775751080405899800,7.476899658203125,0.2292821854352951,0.15618453919887543,-0.03566212207078934
1775751080415913700,7.486913818359375,0.3062930703163147,0.15914171934127808,-0.06240185722708702
1775751080425928000,7.496927978515625,0.386510968208313,0.15379860997200012,-0.07734272629022598
1775751080435941600,7.506941650390625,0.46999120712280273,0.1501210629940033,-0.09351930022239685
1775751080445955000,7.516955078125,0.4832308292388916,0.1466538906097412,-0.0958855152130127
1775751080455968300,7.52696826171875,0.40598317980766296,0.07840133458375931,-0.08891788870096207
1775751080465982000,7.53698193359375,0.33511194586753845,0.06782565265893936,-0.13377803564071655
1775751080475996000,7.546995849609375,0.2786060571670532,0.08635646104812622,-0.24919384717941284
1775751080486010000,7.557010009765625,0.29307740926742554,0.04986502602696419,-0.3938061594963074
1775751080496024000,7.567024169921875,0.3681955933570862,-0.012227104976773262,-0.4993829131126404
1775751080506038000,7.5770380859375,0.45005717873573303,-0.05288851633667946,-0.5728840231895447
1775751080516051000,7.587051025390625,0.4779452681541443,0.03160479664802551,-0.5493028163909912
1775751080526065200,7.597065185546875,0.4439779818058014,0.13438338041305542,-0.44946303963661194
1775751080536079000,7.6070791015625,0.38352662324905396,0.17037519812583923,-0.3137933313846588
1775751080546093000,7.617093017578125,0.28141143918037415,0.07954835146665573,-0.14253903925418854
1775751080556107000,7.62710693359375,0.18945780396461487,-0.152030810713768,-0.02822471410036087
1775751080566121200,7.637121337890625,0.13413970172405243,-0.28341174125671387,-0.0054754591546952724
1775751080576134000,7.6471337890625,0.06652096658945084,-0.2895793616771698,-0.09080047905445099
1775751080586148000,7.657148193359375,0.02310425415635109,-0.15946395695209503,-0.26030802726745605
1775751080596162000,7.667162109375,0.05281554535031319,0.02329147420823574,-0.3854483664035797
1775751080606176300,7.67717626953125,0.14813567698001862,0.16763906180858612,-0.4364931583404541
1775751080616190000,7.68718994140625,0.24277323484420776,0.3280750811100006,-0.40728920698165894
1775751080626204000,7.697203857421875,0.28546690940856934,0.35640233755111694,-0.29934224486351013
1775751080636217000,7.707217041015625,0.2984285056591034,0.2801792025566101,-0.18440765142440796
1775751080646231300,7.717231201171875,0.26701438426971436,0.18750891089439392,-0.06555423885583878
1775751080656245000,7.727244873046875,0.2487645447254181,0.02803056873381138,0.08594314008951187
1775751080666259000,7.737259033203125,0.2470465451478958,-0.17508339881896973,0.1757289469242096
1775751080676273200,7.747273193359375,0.23650281131267548,-0.36064234375953674,0.1899358481168747
1775751080686286000,7.7572861328125,0.25214648246765137,-0.3810802400112152,0.14045564830303192
1775751080696300000,7.767300048828125,0.23126357793807983,-0.15218527615070343,0.023247266188263893
1775751080706314000,7.77731396484375,0.18790093064308167,0.23671773076057434,-0.13575036823749542
1775751080716328200,7.787328125,0.15507933497428894,0.5520085692405701,-0.27669578790664673
1775751080726342000,7.797341796875,0.16046024858951569,0.6952314972877502,-0.3382912278175354
1775751080736356000,7.807356201171875,0.21427448093891144,0.7404850125312805,-0.2970234155654907
1775751080746369000,7.817369140625,0.24680764973163605,0.6212534308433533,-0.1488768309354782
1775751080756383000,7.827383056640625,0.2228836715221405,0.413189172744751,0.07825379073619843
1775751080766397000,7.83739697265625,0.1922679841518402,0.1937289834022522,0.30548855662345886
1775751080776411100,7.8474111328125,0.14209802448749542,0.04102812707424164,0.5131562352180481
1775751080786425000,7.857425048828125,0.09705491364002228,-0.008213188499212265,0.6414223313331604
1775751080796439300,7.867439208984375,0.08152522146701813,0.017424263060092926,0.6624162793159485
1775751080806452000,7.877451904296875,0.09897185117006302,0.0689212754368782,0.6131914854049683
1775751080816466200,7.887466064453125,0.11946114897727966,0.1316879838705063,0.521370530128479
1775751080826480000,7.897480224609375,0.12194854021072388,0.22117047011852264,0.37567323446273804
1775751080836494000,7.907494140625,0.13501480221748352,0.32091835141181946,0.19939273595809937
1775751080846508000,7.917508056640625,0.16693545877933502,0.39188069105148315,0.035579830408096313
1775751080856521200,7.927521240234375,0.17186124622821808,0.41701215505599976,-0.07612219452857971
1775751080866535000,7.937534912109375,0.15282149612903595,0.3952365517616272,-0.11079628765583038
1775751080876549000,7.947549072265625,0.13249120116233826,0.276228129863739,-0.08057846873998642
1775751080886563000,7.95756298828125,0.1062081977725029,0.11218033730983734,-0.025622272863984108
1775751080896577000,7.967576904296875,0.09036611765623093,0.02339933253824711,0.0306327436119318
1775751080906591000,7.977591064453125,0.076799176633358,0.05048714205622673,0.09232087433338165
1775751080916604200,7.987604248046875,0.07161825895309448,0.09494488686323166,0.13502386212348938
1775751080926618000,7.9976181640625,0.0518576055765152,0.10489392280578613,0.15363642573356628
1775751080936632000,8.007632080078125,0.0005222458858042955,0.0751299038529396,0.16095799207687378
1775751080946646000,8.01764599609375,-0.0686911791563034,0.012415390461683273,0.1621159315109253
1775751080956660000,8.027659912109375,-0.1284748911857605,-0.05748806148767471,0.13633812963962555
1775751080966674200,8.037674072265625,-0.15985916554927826,-0.08129538595676422,0.06645891815423965
1775751080976686800,8.047686767578124,-0.1845512092113495,-0.05630934610962868,-0.05836717039346695
1775751080986701000,8.057701171875,-0.2024013102054596,0.00023622238950338215,-0.20819847285747528
1775751080996715000,8.067715087890624,-0.20409508049488068,0.0947994813323021,-0.3444141149520874
1775751081006729200,8.077729248046875,-0.1973884403705597,0.18236315250396729,-0.45178183913230896
1775751081016743000,8.087742919921874,-0.17926882207393646,0.23875132203102112,-0.5017685890197754
1775751081026756000,8.097756103515625,-0.16296441853046417,0.27884921431541443,-0.482334166765213
1775751081036770000,8.10777001953125,-0.1633649617433548,0.2752113342285156,-0.43232905864715576
1775751081046784300,8.1177841796875,-0.1903659552335739,0.1740943044424057,-0.35338708758354187
1775751081056798000,8.1277978515625,-0.2044905573129654,-0.00803156103938818,-0.24003629386425018
1775751081066812200,8.137812255859375,-0.19568482041358948,-0.2013312429189682,-0.10961703956127167
1775751081076826000,8.147826171875,-0.17961370944976807,-0.35655677318573,-0.028301678597927094
1775751081086839000,8.157839111328125,-0.15057432651519775,-0.3765541911125183,-0.006651244591921568
1775751081096853000,8.16785302734375,-0.12343937903642654,-0.29118576645851135,-0.02106880024075508
1775751081106867200,8.1778671875,-0.10058332979679108,-0.1900831162929535,-0.0682658702135086
1775751081116881200,8.187881103515625,-0.08592662215232849,-0.09600909054279327,-0.13495515286922455
1775751081126894800,8.197894775390624,-0.10178228467702866,0.0365084744989872,-0.2184617668390274
1775751081136909000,8.207908935546875,-0.1281941831111908,0.1742359846830368,-0.3050275444984436
1775751081146922000,8.217921875,-0.12170326709747314,0.22771279513835907,-0.36152198910713196
1775751081156936200,8.227936279296875,-0.09494568407535553,0.15328063070774078,-0.3634572923183441
1775751081166950000,8.237949951171874,-0.05856504291296005,0.00980309583246708,-0.3426697254180908
1775751081176964000,8.247964111328125,-0.02317109890282154,-0.09131260216236115,-0.3118409812450409
1775751081186978000,8.25797802734375,-0.005788114387542009,-0.15914198756217957,-0.2619474530220032
1775751081196991000,8.267990966796875,0.00025992453447543085,-0.20053710043430328,-0.20017969608306885
1775751081207005000,8.2780048828125,-0.005776662845164537,-0.20239917933940887,-0.14206978678703308
1775751081217019100,8.28801904296875,-0.01552303321659565,-0.19782839715480804,-0.09642241150140762
1775751081227033000,8.298033203125,-0.027716582641005516,-0.18349845707416534,-0.059963200241327286
1775751081237047000,8.308047119140625,-0.04375972971320152,-0.14336036145687103,-0.047930508852005005
1775751081247061000,8.31806103515625,-0.05492530018091202,-0.09559363126754761,-0.061652179807424545
1775751081257074200,8.32807421875,-0.07207579165697098,-0.07360151410102844,-0.0930657610297203
1775751081267088100,8.338088134765625,-0.10364224016666412,-0.09782057255506516,-0.1465367078781128
1775751081277102000,8.34810205078125,-0.15322497487068176,-0.16903109848499298,-0.24648115038871765
1775751081287116000,8.358115966796875,-0.2117527276277542,-0.21213755011558533,-0.39170199632644653
1775751081297130000,8.3681298828125,-0.290352463722229,-0.19436681270599365,-0.5669707655906677
1775751081307144200,8.378144287109375,-0.366634726524353,-0.05590454488992691,-0.7311176061630249
1775751081317157000,8.3881572265625,-0.3979108929634094,0.11307249218225479,-0.8831958174705505
1775751081327171000,8.398171142578125,-0.4260613024234772,0.2530495822429657,-1.0085129737854004
1775751081337185000,8.40818505859375,-0.4409651458263397,0.3517604470252991,-1.0735561847686768
1775751081347199000,8.418198974609375,-0.42323487997055054,0.40813395380973816,-1.0801727771759033
1775751081357213000,8.428212890625,-0.3899557590484619,0.4205957055091858,-1.0224477052688599
1775751081367226000,8.43822607421875,-0.3667795956134796,0.3779448866844177,-0.8881778120994568
1775751081377240000,8.448239990234375,-0.34865838289260864,0.310146689414978,-0.719460129737854
1775751081387254000,8.45825390625,-0.34126943349838257,0.27177292108535767,-0.533477246761322
1775751081397268000,8.46826806640625,-0.3382115960121155,0.2824527323246002,-0.33268022537231445
1775751081407282200,8.4782822265625,-0.3410223126411438,0.3172064423561096,-0.10843033343553543
1775751081417296100,8.488296142578125,-0.3118460476398468,0.29694750905036926,0.12056263536214828
1775751081427309000,8.49830908203125,-0.2722967565059662,0.20919343829154968,0.3373410105705261
1775751081437323000,8.508322998046875,-0.23631027340888977,0.1386079490184784,0.5345765948295593
1775751081447337500,8.51833740234375,-0.21631047129631042,0.09725651144981384,0.709300696849823
1775751081457351200,8.52835107421875,-0.2172955721616745,0.07439753413200378,0.8417540788650513
1775751081467365400,8.538365478515624,-0.214887797832489,0.03123302012681961,0.9225221872329712
1775751081477378300,8.54837841796875,-0.21303291618824005,-0.011606588959693909,0.9445974230766296
1775751081487392300,8.558392333984376,-0.2107740193605423,-0.03158162906765938,0.9262945652008057
1775751081497406200,8.56840625,-0.22874316573143005,-0.0349113792181015,0.8747751712799072
1775751081507420400,8.57842041015625,-0.2606606185436249,-0.010230799205601215,0.7865175008773804
1775751081517434400,8.588434326171875,-0.3152008354663849,0.0461999848484993,0.666180431842804
1775751081527448300,8.5984482421875,-0.4144571125507355,0.14403574168682098,0.5178111791610718
1775751081537461200,8.608461181640624,-0.5212754011154175,0.2786899507045746,0.38551732897758484
1775751081547475500,8.618475341796875,-0.6175255179405212,0.3780199885368347,0.2934443950653076
1775751081557489400,8.628489501953124,-0.697265625,0.4446570873260498,0.25282347202301025
1775751081567503000,8.638503173828125,-0.7333173751831055,0.45642292499542236,0.2747058570384979
1775751081577517300,8.648517333984374,-0.7524093389511108,0.39045801758766174,0.37239938974380493
1775751081587530500,8.658530517578125,-0.787753164768219,0.24578313529491425,0.5417343378067017
1775751081597544200,8.668544189453126,-0.8178189396858215,0.05815012380480766,0.7052229046821594
1775751081607558100,8.67855810546875,-0.8395793437957764,-0.06967921555042267,0.8323472738265991
1775751081617572400,8.688572265625,-0.8425794243812561,-0.09936946630477905,0.8687753677368164
1775751081627586300,8.69858642578125,-0.8116087317466736,-0.07301828265190125,0.7988612651824951
1775751081637600500,8.7086005859375,-0.7518114447593689,-0.013102219440042973,0.6953535079956055
1775751081647613200,8.71861328125,-0.6835024356842041,0.06436167657375336,0.5715561509132385
1775751081657627400,8.72862744140625,-0.6228039264678955,0.13085734844207764,0.4304389953613281
1775751081667641300,8.738641357421875,-0.5674740672111511,0.21998243033885956,0.3145669996738434
1775751081677655300,8.7486552734375,-0.5438582301139832,0.30877915024757385,0.2553550601005554
1775751081687669200,8.758669189453125,-0.54679274559021,0.33848243951797485,0.20895615220069885
1775751081697682400,8.768682373046875,-0.5389279127120972,0.35214340686798096,0.17980438470840454
1775751081707696000,8.778696044921874,-0.5123346447944641,0.3364185094833374,0.17218321561813354
1775751081717710300,8.78871044921875,-0.4880724549293518,0.24238601326942444,0.17741206288337708
1775751081727724300,8.798724365234374,-0.5066823959350586,0.11501846462488174,0.1913989931344986
1775751081737738500,8.808738525390625,-0.5276068449020386,0.019029617309570312,0.17070676386356354
1775751081747752200,8.818752197265624,-0.5834797024726868,-0.03451962769031525,0.11301097273826599
1775751081757765400,8.828765380859375,-0.6661247611045837,-0.03954527899622917,0.02911234460771084
1775751081767779300,8.838779296875,-0.7054303288459778,-0.00290417717769742,-0.09092883765697479
1775751081777793300,8.848793212890625,-0.6857671737670898,0.07761117070913315,-0.2174481600522995
1775751081787807200,8.85880712890625,-0.6179457902908325,0.16246427595615387,-0.31088516116142273
1775751081797821200,8.8688212890625,-0.5310074090957642,0.2659035921096802,-0.3743933141231537
1775751081807834400,8.87883447265625,-0.4300682842731476,0.3942466378211975,-0.38522544503211975
1775751081817848300,8.888848388671875,-0.3202837407588959,0.49298495054244995,-0.3497186005115509
1775751081827862300,8.8988623046875,-0.2000124454498291,0.5407503247261047,-0.3122020959854126
1775751081837876200,8.908876220703124,-0.06717398017644882,0.5490759015083313,-0.26180896162986755
1775751081847890400,8.918890380859375,-0.016142750158905983,0.411693811416626,-0.1689232438802719
1775751081857904000,8.928904052734374,-0.06323888897895813,0.14250361919403076,-0.04988526925444603
1775751081867917300,8.938917236328125,-0.13881300389766693,-0.20763947069644928,0.05789126455783844
1775751081877931300,8.94893115234375,-0.21467767655849457,-0.4510984718799591,0.10723564028739929
1775751081887945500,8.958945556640625,-0.27802789211273193,-0.4506065845489502,0.11544323712587357
1775751081897959200,8.968959228515626,-0.2929932475090027,-0.2923240065574646,0.07537251710891724
1775751081907973400,8.978973388671875,-0.2602052092552185,-0.12431502342224121,0.0020988371688872576
1775751081917986300,8.988986328125,-0.17309720814228058,0.03323278948664665,-0.07440419495105743
1775751081928000300,8.999000244140625,-0.04923492297530174,0.10819091647863388,-0.14328499138355255
1775751081938014200,9.00901416015625,0.10139506310224533,0.12810230255126953,-0.17072966694831848
1775751081948028400,9.0190283203125,0.2091771811246872,0.05116118863224983,-0.1375056654214859
1775751081958042400,9.02904248046875,0.17517821490764618,-0.1771007478237152,-0.06615664809942245
1775751081968056300,9.039056396484375,0.046539537608623505,-0.392223984003067,0.026251044124364853
1775751081978069200,9.0490693359375,-0.09313580393791199,-0.4917636215686798,0.0904148519039154
1775751081988083500,9.05908349609375,-0.22049935162067413,-0.4899851381778717,0.07621407508850098
1775751081998097400,9.069097412109375,-0.30153533816337585,-0.42897719144821167,0.002001898130401969
1775751082008111400,9.079111328125,-0.313774436712265,-0.30639055371284485,-0.10315248370170593
1775751082018125300,9.089125244140625,-0.2846999168395996,-0.16236521303653717,-0.17449750006198883
1775751082028138500,9.099138427734376,-0.22694340348243713,-0.0057473680935800076,-0.19200991094112396
1775751082038152200,9.109152099609375,-0.15481089055538177,0.16993950307369232,-0.17925897240638733
1775751082048166400,9.11916650390625,-0.0915517508983612,0.33222028613090515,-0.14364024996757507
1775751082058180400,9.129180419921875,-0.02255617454648018,0.47818148136138916,-0.11150895059108734
1775751082068194300,9.1391943359375,0.05348186567425728,0.5410600304603577,-0.09892764687538147
1775751082078208300,9.149208251953125,0.10828306525945663,0.4305151700973511,-0.09570521861314774
1775751082088221200,9.15922119140625,0.13507047295570374,0.26021453738212585,-0.09171074628829956
1775751082098235400,9.1692353515625,0.15433257818222046,0.1259763091802597,-0.08086714893579483
1775751082108249000,9.1792490234375,0.2090482860803604,0.013369068503379822,-0.08276066184043884
1775751082118263300,9.18926318359375,0.2764957845211029,-0.09331982582807541,-0.15461353957653046
1775751082128277200,9.19927734375,0.3310982882976532,-0.13527846336364746,-0.28835323452949524
1775751082138290400,9.20929052734375,0.3643694221973419,-0.06566183269023895,-0.43999308347702026
1775751082148304100,9.21930419921875,0.3891781270503998,0.04812891408801079,-0.599607527256012
1775751082158318300,9.229318359375,0.3610471487045288,0.1282932609319687,-0.7372178435325623
1775751082168332300,9.239332275390625,0.24268294870853424,0.15590384602546692,-0.7767602205276489
1775751082178346500,9.249346435546874,0.12962722778320312,0.11881586909294128,-0.7448778748512268
1775751082188359200,9.259359130859375,0.04438797011971474,0.10479911416769028,-0.6690760850906372
1775751082198373400,9.269373291015626,0.015045261941850185,0.08302431553602219,-0.5657430291175842
1775751082208387300,9.27938720703125,0.008018244989216328,0.05477083846926689,-0.40269285440444946
1775751082218401300,9.2894013671875,0.060213007032871246,0.05414232984185219,-0.19351646304130554
1775751082228415200,9.299415283203125,0.16147224605083466,0.009343700483441353,0.04673900827765465
1775751082238429200,9.30942919921875,0.27410373091697693,-0.1218891516327858,0.289637953042984
1775751082248442400,9.3194423828125,0.3615427613258362,-0.28525570034980774,0.5246315598487854
1775751082258456300,9.329456298828125,0.41010549664497375,-0.4312632381916046,0.7285394072532654
1775751082268470300,9.33947021484375,0.4630584716796875,-0.5762497186660767,0.8515958189964294
1775751082278484200,9.349484130859375,0.5308305621147156,-0.6430761814117432,0.9004728198051453
1775751082288498400,9.35949853515625,0.5997366905212402,-0.6283701658248901,0.8907551765441895
1775751082298511400,9.369511474609375,0.6373948454856873,-0.5891074538230896,0.8347111344337463
1775751082308525300,9.379525390625,0.6328922510147095,-0.49602413177490234,0.7630268335342407
1775751082318539300,9.389539306640625,0.5940119624137878,-0.39136937260627747,0.7050191760063171
1775751082328553200,9.39955322265625,0.5882321000099182,-0.2943655848503113,0.6562907695770264
1775751082338567200,9.409567138671875,0.6235357522964478,-0.23678484559059143,0.6143214702606201
1775751082348580400,9.419580322265626,0.6931931376457214,-0.29944664239883423,0.5808668732643127
1775751082358594300,9.42959423828125,0.7468896508216858,-0.39733296632766724,0.5370733141899109
1775751082368608300,9.439608154296875,0.8153461813926697,-0.4951748549938202,0.4534452557563782
1775751082378622200,9.449622314453125,0.8439514636993408,-0.5001102089881897,0.3658349812030792
1775751082388636400,9.459636474609376,0.7741817235946655,-0.3993615210056305,0.26762107014656067
1775751082398650400,9.469650390625,0.645116925239563,-0.2059353142976761,0.15256717801094055
1775751082408663300,9.479663330078125,0.48659440875053406,-0.049375537782907486,0.024045415222644806
1775751082418677200,9.48967724609375,0.34429505467414856,0.09418002516031265,-0.05070978403091431
1775751082428691500,9.49969140625,0.2973951995372772,0.1902623474597931,-0.05242858827114105
1775751082438705200,9.509705078125,0.3274729251861572,0.16499614715576172,0.02521560713648796
1775751082448719600,9.5197197265625,0.3755517899990082,0.038594529032707214,0.2052210569381714
1775751082458732800,9.52973291015625,0.39032086730003357,-0.12082309275865555,0.4500475823879242
1775751082468747000,9.5397470703125,0.37459462881088257,-0.20682455599308014,0.7340244650840759
1775751082478761000,9.549760986328126,0.3268023431301117,-0.23738645017147064,0.9686561226844788
1775751082488774700,9.559774658203125,0.261170357465744,-0.24588407576084137,1.1055833101272583
1775751082498788900,9.569788818359376,0.19991923868656158,-0.2812122404575348,1.1558475494384766
1775751082508802000,9.579802001953125,0.1277017742395401,-0.4093020260334015,1.0640172958374023
1775751082518815700,9.589815673828125,0.07777761667966843,-0.49761056900024414,0.8349902033805847
1775751082528829700,9.59982958984375,0.06735800206661224,-0.38716262578964233,0.5780441761016846
1775751082538844000,9.609843994140626,0.028122181072831154,-0.20362263917922974,0.3125762939453125
1775751082548857900,9.61985791015625,-0.027046531438827515,-0.007274956908077002,0.04607588052749634
1775751082558871800,9.629871826171875,-0.024460069835186005,0.15366226434707642,-0.16224269568920135
1775751082568884700,9.639884765625,0.023271767422556877,0.2572621703147888,-0.24383503198623657
1775751082578899000,9.64989892578125,0.08386640250682831,0.2561766505241394,-0.24425847828388214
1775751082588913000,9.659912841796874,0.12313923984766006,0.18065179884433746,-0.20826531946659088
1775751082598926800,9.6699267578125,0.1266932338476181,0.05115293338894844,-0.13446752727031708
1775751082608940800,9.67994091796875,0.07691821455955505,-0.21373358368873596,-0.07127471268177032
1775751082618954000,9.6899541015625,0.010156231001019478,-0.4544825553894043,-0.02991022914648056
1775751082628967700,9.6999677734375,-0.04496028274297714,-0.5720992088317871,-0.00983372237533331
1775751082638982000,9.70998193359375,-0.05547044798731804,-0.564948320388794,-0.02376418560743332
1775751082648995800,9.719995849609376,-0.026462499052286148,-0.3978560268878937,-0.0712648555636406
1775751082659010000,9.730010009765625,0.018126273527741432,-0.15333735942840576,-0.12949994206428528
1775751082669022700,9.740022705078125,0.0810256078839302,0.058092065155506134,-0.17485517263412476
1775751082679037000,9.750036865234375,0.1440463811159134,0.22719107568264008,-0.20572972297668457
1775751082689051000,9.76005078125,0.22377663850784302,0.2936049997806549,-0.24165363609790802
1775751082699064800,9.77006494140625,0.291998028755188,0.2182721495628357,-0.2799528241157532
1775751082709078800,9.780078857421875,0.3384092152118683,0.09175175428390503,-0.3109823763370514
1775751082719092700,9.7900927734375,0.39109399914741516,0.010509099811315536,-0.31531640887260437
1775751082729106000,9.80010595703125,0.4074375331401825,-0.07899708300828934,-0.30413618683815
1775751082739119900,9.810119873046874,0.3694062829017639,-0.15789403021335602,-0.27352795004844666
1775751082749133800,9.8201337890625,0.2688061594963074,-0.1959383487701416,-0.241616889834404
1775751082759147800,9.830147705078126,0.15077513456344604,-0.1294354796409607,-0.2093292474746704
1775751082769162000,9.840161865234375,0.08744542300701141,0.0031348068732768297,-0.20062418282032013
1775751082779175000,9.8501748046875,0.044252946972846985,0.09121513366699219,-0.22831173241138458
1775751082789188900,9.86018896484375,-0.028546955436468124,0.020746823400259018,-0.27800604701042175
1775751082799202800,9.870202880859376,-0.09888636320829391,-0.11175902187824249,-0.3210669755935669
1775751082809216800,9.880216796875,-0.12966717779636383,-0.2984769642353058,-0.3625321090221405
1775751082819230700,9.890230712890625,-0.09715185314416885,-0.5032050609588623,-0.4229446053504944
1775751082829244000,9.900243896484374,-0.0731346607208252,-0.6086452007293701,-0.5037076473236084
1775751082839257900,9.9102578125,-0.05161179602146149,-0.6062350869178772,-0.6118969321250916
1775751082849271800,9.920271728515624,-0.017140371724963188,-0.46212050318717957,-0.6900473833084106
1775751082859285800,9.93028564453125,0.0032261533197015524,-0.31497710943222046,-0.7272597551345825
1775751082869300000,9.940300048828124,0.04174930974841118,-0.20586687326431274,-0.766228973865509
1775751082879312600,9.950312744140625,0.08809923380613327,-0.0955401062965393,-0.780657172203064
1775751082889326800,9.960326904296876,0.1317788064479828,-0.056526392698287964,-0.7407752871513367
1775751082899340800,9.9703408203125,0.18714086711406708,-0.08495324105024338,-0.6349604725837708
1775751082909355000,9.98035498046875,0.2601644694805145,-0.1545240581035614,-0.46146562695503235
1775751082919368700,9.99036865234375,0.3650301694869995,-0.21963489055633545,-0.2440377026796341
1775751082929383000,10.0003828125,0.4714575409889221,-0.22508397698402405,-0.022467492148280144
1775751082939395800,10.010395751953125,0.5496572852134705,-0.18882957100868225,0.17672604322433472
1775751082949410000,10.02041015625,0.5563924312591553,-0.13197055459022522,0.3086172342300415
1775751082959423700,10.030423828125,0.5084744095802307,-0.0406733937561512,0.3776106834411621
1775751082969438000,10.04043798828125,0.41796422004699707,0.03203063830733299,0.401268869638443
1775751082979452000,10.050451904296875,0.2541270852088928,0.0415668860077858,0.3938756585121155
1775751082989464800,10.06046484375,0.056719206273555756,-0.005607818253338337,0.34629589319229126
1775751082999478800,10.070478759765624,-0.09537046402692795,-0.03600620478391647,0.2641544044017792
1775751083009493000,10.080492919921875,-0.15607881546020508,-0.04468730837106705,0.148743137717247
1775751083019507000,10.0905068359375,-0.17389696836471558,0.004905809182673693,-0.01571478135883808
1775751083029520600,10.100520751953125,-0.18074314296245575,0.11893970519304276,-0.1798054426908493
1775751083039533800,10.110533935546876,-0.1891201287508011,0.27203497290611267,-0.2968921363353729
1775751083049548000,10.120548095703125,-0.1869126260280609,0.3765675127506256,-0.3523990511894226
1775751083059561700,10.130561767578126,-0.1863509714603424,0.38966894149780273,-0.33597373962402344
1775751083069575700,10.14057568359375,-0.21881116926670074,0.31422877311706543,-0.259456068277359
1775751083079590000,10.15058984375,-0.2323075383901596,0.1794523149728775,-0.1704218089580536
1775751083089603000,10.16060302734375,-0.2442004233598709,0.08389969170093536,-0.08224879950284958
1775751083099616800,10.17061669921875,-0.2401534765958786,0.037156954407691956,0.001796834752894938
1775751083109630700,10.180630615234374,-0.2024681568145752,0.01876969262957573,0.06935404241085052
1775751083119645000,10.19064501953125,-0.12547217309474945,0.045048169791698456,0.11572260409593582
1775751083129659000,10.200658935546874,-0.03389005735516548,0.09449587762355804,0.13998933136463165
1775751083139671800,10.210671875,0.04078258201479912,0.13820341229438782,0.1489865481853485
1775751083149685800,10.220685791015624,0.0944194495677948,0.12295574694871902,0.16561053693294525
1775751083159700000,10.230699951171875,0.0785968080163002,0.02315725013613701,0.19905903935432434
1775751083169713700,10.240713623046876,0.0016506272368133068,-0.09325537830591202,0.20216907560825348
1775751083179728000,10.250727783203125,-0.05702600255608559,-0.13511067628860474,0.15719947218894958
1775751083189740800,10.26074072265625,-0.09896146506071091,-0.09309505671262741,0.0907197818160057
1775751083199755000,10.270755126953125,-0.1337154507637024,0.013791445642709732,0.0073439329862594604
1775751083209768700,10.280768798828126,-0.1320488452911377,0.13746784627437592,-0.09999264031648636
1775751083219783000,10.290782958984375,-0.11839721351861954,0.23363804817199707,-0.1955346167087555
1775751083229796900,10.300796875,-0.0973406657576561,0.2854866087436676,-0.24800367653369904
1775751083239810800,10.310810791015625,-0.06335846334695816,0.27647340297698975,-0.24912726879119873
1775751083249823700,10.32082373046875,-0.042400188744068146,0.22696949541568756,-0.22274120151996613
1775751083259838000,10.330837890625,-0.03308471664786339,0.15908952057361603,-0.18668918311595917
1775751083269852000,10.340851806640625,-0.03483015298843384,0.06923606246709824,-0.1411808282136917
1775751083279865900,10.350865966796874,-0.06709008663892746,-0.02003895491361618,-0.10071329772472382
1775751083289879800,10.3608798828125,-0.11000719666481018,-0.08224081248044968,-0.07797975093126297
1775751083299893000,10.37089306640625,-0.1335359513759613,-0.08952987939119339,-0.07101985067129135
1775751083309907000,10.380906982421875,-0.12338291853666306,-0.03706081584095955,-0.08256039023399353
1775751083319921000,10.3909208984375,-0.08602569252252579,0.05355297401547432,-0.10166644304990768
1775751083329934800,10.400934814453125,-0.039636626839637756,0.1360854059457779,-0.12121856957674026
1775751083339948800,10.41094873046875,0.00595642626285553,0.18960987031459808,-0.13233301043510437
1775751083349961700,10.420961669921875,0.041798047721385956,0.21472695469856262,-0.13189785182476044
1775751083359976000,10.430975830078125,0.07305476814508438,0.17677398025989532,-0.11979804188013077
1775751083369990000,10.440989990234375,0.07984955608844757,0.10704150050878525,-0.07517970353364944
1775751083380003800,10.45100390625,0.08962362259626389,0.016745423898100853,-0.03193289786577225
1775751083390017800,10.461017822265624,0.09993165731430054,-0.062565378844738,-0.004818989895284176
1775751083400031000,10.471031005859375,0.09537738561630249,-0.09940328449010849,-0.0046568033285439014
1775751083410045000,10.481044921875,0.08886595815420151,-0.06580804288387299,-0.028489431366324425
1775751083420059000,10.491058837890625,0.09242580085992813,-0.008037153631448746,-0.0692395269870758
1775751083430072800,10.50107275390625,0.07800532132387161,0.011035873554646969,-0.11919243633747101
1775751083440086800,10.511086669921875,0.06897320598363876,0.03382134810090065,-0.1734900325536728
1775751083450099200,10.52109912109375,0.0724843218922615,0.056897636502981186,-0.2210271954536438
1775751083460113400,10.531113525390625,0.06410574913024902,0.05293352156877518,-0.25414279103279114
1775751083470127400,10.54112744140625,0.04362018033862114,0.00009747169679030776,-0.26699361205101013
1775751083480141300,10.551141357421875,0.007484814152121544,-0.09783495217561722,-0.25991228222846985
1775751083490155500,10.561155517578126,-0.03407354652881622,-0.1623028963804245,-0.24509470164775848
1775751083500168400,10.57116845703125,-0.08116063475608826,-0.1589377224445343,-0.21196311712265015
1775751083510182400,10.581182373046875,-0.12044012546539307,-0.1260380893945694,-0.17244447767734528
1775751083520196400,10.5911962890625,-0.14789491891860962,-0.10741247981786728,-0.1455012708902359
1775751083530210300,10.601210205078125,-0.17972315847873688,-0.1116679385304451,-0.1304890364408493
1775751083540224300,10.611224365234374,-0.19375242292881012,-0.10639701038599014,-0.10005629062652588
1775751083550237400,10.621237548828125,-0.18054740130901337,-0.14207059144973755,-0.03148815035820007
1775751083560251100,10.631251220703126,-0.1682574450969696,-0.26853930950164795,0.09135414659976959
1775751083570265300,10.641265380859375,-0.2164774388074875,-0.4424663782119751,0.19336892664432526
1775751083580279300,10.651279296875,-0.34983310103416443,-0.4762488305568695,0.2570885121822357
1775751083590293500,10.66129345703125,-0.5266236066818237,-0.3271123468875885,0.28173527121543884
1775751083600306200,10.67130615234375,-0.6765076518058777,-0.08682757616043091,0.27629444003105164
1775751083610320400,10.6813203125,-0.7473442554473877,0.12120738625526428,0.2764259874820709
1775751083620334300,10.691334228515625,-0.7728948593139648,0.23287825286388397,0.30804944038391113
1775751083630348500,10.7013486328125,-0.7753625512123108,0.2386258840560913,0.3919781744480133
1775751083640362200,10.7113623046875,-0.7409864664077759,0.15296664834022522,0.5059627890586853
1775751083650375400,10.72137548828125,-0.7242093682289124,0.0100198769941926,0.6151729226112366
1775751083660389400,10.731389404296875,-0.7615729570388794,-0.1795998513698578,0.6804152727127075
1775751083670403300,10.7414033203125,-0.8242917656898499,-0.297451913356781,0.7044489979743958
1775751083680417300,10.751417236328125,-0.8565727472305298,-0.3433448374271393,0.6697626113891602
1775751083690431200,10.76143115234375,-0.8409122824668884,-0.3320455849170685,0.578319787979126
1775751083700444400,10.7714443359375,-0.7939594388008118,-0.2234719693660736,0.4763500392436981
1775751083710458400,10.781458251953126,-0.7167450785636902,-0.04825647920370102,0.3851812481880188
1775751083720472300,10.791472412109375,-0.577111542224884,0.12905092537403107,0.32652750611305237
1775751083730486300,10.801486328125,-0.4306941330432892,0.2810212969779968,0.28212621808052063
1775751083740500500,10.81150048828125,-0.27695730328559875,0.39596304297447205,0.2609058916568756
1775751083750513400,10.821513427734375,-0.13562999665737152,0.4487610161304474,0.27618685364723206
1775751083760527400,10.83152734375,-0.05280941724777222,0.32411521673202515,0.28787198662757874
1775751083770541300,10.841541259765625,-0.05253990739583969,0.08192761987447739,0.2678186595439911
1775751083780555300,10.85155517578125,-0.1096082553267479,-0.13768143951892853,0.23585247993469238
1775751083790569200,10.8615693359375,-0.18493176996707916,-0.21931317448616028,0.176726832985878
1775751083800582400,10.87158251953125,-0.25117921829223633,-0.15749987959861755,0.09380372613668442
1775751083810596400,10.881596435546875,-0.2883217930793762,0.049849580973386765,-0.0024708807468414307
1775751083820610300,10.8916103515625,-0.3004109561443329,0.3633981943130493,-0.13100861012935638
1775751083830624300,10.901624267578125,-0.2543073892593384,0.6864755749702454,-0.2885332703590393
1775751083840638500,10.911638427734376,-0.167644664645195,1.0616600513458252,-0.4336201548576355
1775751083850651400,10.9216513671875,-0.043655335903167725,1.3019942045211792,-0.5368964672088623
1775751083860665300,10.931665283203126,0.11703260987997055,1.1167588233947754,-0.566200315952301
1775751083870679300,10.94167919921875,0.2285522222518921,0.6997562050819397,-0.5678988695144653
1775751083880693500,10.951693603515626,0.26494112610816956,0.26637256145477295,-0.5399715900421143
1775751083890707200,10.961707275390625,0.20110221207141876,-0.0645451694726944,-0.48389530181884766
1775751083900720400,10.971720458984375,0.0784521996974945,-0.2595735192298889,-0.43377888202667236
1775751083910734300,10.981734375,-0.03166098892688751,-0.3407014012336731,-0.43452349305152893
1775751083920748300,10.991748291015625,-0.09970049560070038,-0.2626665234565735,-0.43555253744125366
1775751083930762200,11.00176220703125,-0.07850252836942673,-0.11786618083715439,-0.4366289973258972
1775751083940776400,11.0117763671875,0.019526563584804535,0.016714265570044518,-0.4244160056114197
1775751083950789400,11.021789306640626,0.14934128522872925,0.03598969057202339,-0.38615062832832336
1775751083960803300,11.03180322265625,0.2506532669067383,-0.0957382470369339,-0.32476717233657837
1775751083970817300,11.0418173828125,0.3536054790019989,-0.22001305222511292,-0.24089249968528748
1775751083980831500,11.05183154296875,0.4387691020965576,-0.25335317850112915,-0.17214326560497284
1775751083990845400,11.061845458984376,0.4832199215888977,-0.213745579123497,-0.11345811933279037
1775751084000858400,11.0718583984375,0.5103458166122437,-0.15972468256950378,-0.02720498852431774
1775751084010872300,11.081872314453125,0.4747484028339386,-0.1074039563536644,0.07926446199417114
1775751084020886500,11.091886474609375,0.40807831287384033,-0.055720254778862,0.17802858352661133
1775751084030900200,11.101900146484375,0.3342299163341522,0.1004301980137825,0.2607783377170563
1775751084040914200,11.1119140625,0.26583248376846313,0.30177876353263855,0.2849169671535492
1775751084050927400,11.12192724609375,0.21130825579166412,0.5565567016601562,0.2529102861881256
1775751084060941600,11.131941650390624,0.18749293684959412,0.8364773392677307,0.210832878947258
1775751084070955300,11.141955322265625,0.19485338032245636,1.059639811515808,0.2097279280424118
1775751084080969200,11.15196923828125,0.2595290541648865,1.1665295362472534,0.2091071456670761
1775751084090983400,11.1619833984375,0.4795793890953064,1.0001567602157593,0.1819482296705246
1775751084100996400,11.171996337890626,0.6573318243026733,0.5058189630508423,0.04441513493657112
1775751084111010300,11.18201025390625,0.7339168787002563,-0.15736804902553558,-0.15832439064979553
1775751084121024300,11.192024169921876,0.6846665143966675,-0.6688041687011719,-0.3355036973953247
1775751084131038500,11.20203857421875,0.5321903824806213,-0.8795142769813538,-0.4939705729484558
1775751084141052200,11.21205224609375,0.3371386229991913,-0.7933812737464905,-0.6934341192245483
1775751084151065300,11.2220654296875,0.11734340339899063,-0.4236825704574585,-0.8983814120292664
1775751084161079300,11.232079345703125,-0.031974177807569504,0.1542111337184906,-1.0412957668304443
1775751084171093500,11.242093505859375,-0.059731774032115936,0.6636264324188232,-1.0690770149230957
1775751084181107200,11.252107177734375,-0.01441196259111166,0.8378235697746277,-0.9513272047042847
1775751084191121400,11.262121337890624,0.08402939140796661,0.6734468340873718,-0.6801958680152893
1775751084201134300,11.27213427734375,0.15992654860019684,0.2799552083015442,-0.32266965508461
1775751084211148300,11.282148193359374,0.22666136920452118,-0.1292157769203186,0.03851063922047615
1775751084221162200,11.292162353515625,0.3055466115474701,-0.45082202553749084,0.3226904273033142
1775751084231176400,11.302176513671874,0.3380480706691742,-0.5681047439575195,0.5174359679222107
1775751084241190400,11.3121904296875,0.33442431688308716,-0.522343635559082,0.6554598808288574
1775751084251203300,11.322203369140626,0.3034767806529999,-0.37010854482650757,0.7313610315322876
1775751084261217300,11.33221728515625,0.31186655163764954,-0.13331012427806854,0.7456291913986206
1775751084271231500,11.3422314453125,0.34297412633895874,0.07978324592113495,0.7325871586799622
1775751084281245200,11.3522451171875,0.36430951952934265,0.1742871105670929,0.7325837016105652
1775751084291259400,11.36225927734375,0.3901911675930023,0.09492198377847672,0.7826244831085205
1775751084301272300,11.372272216796874,0.3847183883190155,-0.08903693407773972,0.8253096342086792
1775751084311286500,11.38228662109375,0.39691513776779175,-0.27658551931381226,0.8085327744483948
1775751084321300200,11.39230029296875,0.40609797835350037,-0.3817252516746521,0.6963130235671997
1775751084331314400,11.402314453125,0.3566436171531677,-0.3748340606689453,0.4834446907043457
1775751084341328400,11.412328369140624,0.2476164549589157,-0.1595880687236786,0.2430315613746643
1775751084351341300,11.42234130859375,0.09535741060972214,0.255045622587204,0.024143420159816742
1775751084361355300,11.432355224609376,-0.02449389174580574,0.598853588104248,-0.10036255419254303
1775751084371369500,11.442369384765625,-0.06460189819335938,0.6726734638214111,-0.1094825491309166
1775751084381383400,11.452383544921876,-0.0756223201751709,0.5246256589889526,0.015136342495679855
1775751084391396400,11.462396240234375,-0.08317051827907562,0.23630468547344208,0.238066628575325
1775751084401410300,11.472410400390626,-0.08361127227544785,-0.031387485563755035,0.4640994966030121
1775751084411424500,11.482424560546875,-0.1251283586025238,-0.17801500856876373,0.5796409845352173
1775751084421438500,11.4924384765625,-0.15791186690330505,-0.28550684452056885,0.5795267224311829
1775751084431452200,11.5024521484375,-0.20875880122184753,-0.3840206265449524,0.5097479224205017
1775751084441465300,11.51246533203125,-0.27422967553138733,-0.3792881965637207,0.3316221535205841
1775751084451479300,11.522479248046874,-0.28444212675094604,-0.21210826933383942,0.07339059561491013
1775751084461493200,11.5324931640625,-0.23975905776023865,0.08116116374731064,-0.16649843752384186
1775751084471507200,11.542507080078124,-0.15007339417934418,0.3409610390663147,-0.3045505881309509
1775751084481521400,11.552521484375,-0.08087301254272461,0.48969566822052,-0.31672388315200806
1775751084491534300,11.562534423828126,-0.05697140842676163,0.580927848815918,-0.2515592575073242
1775751084501548300,11.57254833984375,-0.09548098593950272,0.5584845542907715,-0.15845036506652832
1775751084511562200,11.582562255859376,-0.20642800629138947,0.4984172582626343,-0.07835152745246887
1775751084521576400,11.592576416015625,-0.29001957178115845,0.4349522590637207,0.03917030617594719
1775751084531590100,11.602590087890626,-0.32808494567871094,0.19493593275547028,0.143738254904747
1775751084541603300,11.612603271484375,-0.31188705563545227,-0.10917655378580093,0.1634344607591629
1775751084551617300,11.6226171875,-0.2220088243484497,-0.2648470997810364,0.14202424883842468
1775751084561631200,11.63263134765625,-0.1315859854221344,-0.24550163745880127,0.08524751663208008
1775751084571645200,11.642645263671875,-0.09050353616476059,-0.11721663922071457,0.00942146498709917
1775751084581659400,11.652659423828124,-0.10265526920557022,0.05817196145653725,-0.050829093903303146
1775751084591672300,11.66267236328125,-0.1350473016500473,0.1746961772441864,-0.1331724375486374
1775751084601686300,11.672686279296874,-0.1432138830423355,0.2424997240304947,-0.23684610426425934
1775751084611700200,11.6827001953125,-0.17163008451461792,0.2959895730018616,-0.31459710001945496
1775751084621714400,11.69271435546875,-0.1984632909297943,0.3238648772239685,-0.3391317129135132
1775751084631727000,11.70272705078125,-0.16794106364250183,0.3218563199043274,-0.2852376103401184
1775751084641741300,11.7127412109375,-0.0989295095205307,0.26460662484169006,-0.18749693036079407
1775751084651755300,11.72275537109375,-0.031502000987529755,0.12693770229816437,-0.08242856711149216
1775751084661769500,11.73276953125,0.012929913587868214,0.032409604638814926,-0.0027268105186522007
1775751084671783200,11.742783203125,0.03292998671531677,0.017293237149715424,0.03893967717885971
1775751084681796400,11.75279638671875,0.016646621748805046,0.015735553577542305,0.06535077840089798
1775751084691810300,11.762810302734374,-0.015849802643060684,-0.010394051671028137,0.06362079083919525
1775751084701824300,11.77282421875,-0.024119984358549118,-0.040223054587841034,0.04230671003460884
1775751084711838200,11.782838134765624,-0.007442736066877842,-0.07884687930345535,0.00863237027078867
1775751084721852400,11.792852294921875,-0.0019001654582098126,-0.09845653176307678,-0.014769358560442924
1775751084731865300,11.802865234375,0.018004300072789192,-0.08010522276163101,-0.038963377475738525
1775751084741879300,11.81287939453125,0.0391165092587471,-0.007144195958971977,-0.08848512172698975
1775751084751893200,11.822893310546876,0.04748868942260742,0.1081504374742508,-0.15480075776576996
1775751084761907500,11.832907470703125,0.049797914922237396,0.22187301516532898,-0.19786860048770905
1775751084771921400,11.84292138671875,0.03876443952322006,0.2994737923145294,-0.19912055134773254
1775751084781934300,11.852934326171875,0.04177674278616905,0.26300153136253357,-0.19768564403057098
1775751084791948300,11.8629482421875,0.057325609028339386,0.15061800181865692,-0.2290739268064499
1775751084801962500,11.87296240234375,0.03711168095469475,0.0397050678730011,-0.27891260385513306
1775751084811976200,11.88297607421875,0.001996571896597743,-0.05126505345106125,-0.33461421728134155
1775751084821990100,11.892990234375,-0.007963384501636028,-0.08522354811429977,-0.3897634744644165
1775751084832003300,11.90300341796875,-0.004769455175846815,-0.0658021792769432,-0.43043234944343567
1775751084842017500,11.913017578125,0.02136707305908203,-0.0015121428295969963,-0.47035738825798035
1775751084852031200,11.92303125,0.06392545253038406,0.05319344624876976,-0.49298518896102905
1775751084862045200,11.933045166015624,0.07959789037704468,0.04790547490119934,-0.4657543897628784
1775751084872058400,11.943058349609375,0.052865613251924515,0.0524941012263298,-0.3977082073688507
1775751084882072300,11.953072265625,0.020846160128712654,0.11632128059864044,-0.32311972975730896
1775751084892086300,11.963086181640625,-0.011025752872228622,0.24030713737010956,-0.2856120467185974
1775751084902100200,11.973100341796876,-0.05192551389336586,0.38697195053100586,-0.2861340343952179
1775751084912114400,11.983114501953125,-0.07792222499847412,0.49318787455558777,-0.3021998107433319
1775751084922127400,11.99312744140625,-0.08705607056617737,0.47555214166641235,-0.36278992891311646
1775751084932141300,12.003141357421875,-0.07483801990747452,0.41722971200942993,-0.44875168800354004
1775751084942155300,12.0131552734375,-0.010310161858797073,0.28768131136894226,-0.5275972485542297
1775751084952169500,12.02316943359375,0.06656783819198608,0.1526302844285965,-0.5941283106803894
1775751084962183200,12.03318310546875,0.1393997073173523,0.06738303601741791,-0.634720504283905
1775751084972196400,12.0431962890625,0.17753244936466217,0.05620521679520607,-0.6575504541397095
1775751084982210300,12.053210205078125,0.15319781005382538,0.17602749168872833,-0.664539635181427
1775751084992224300,12.063224365234374,0.11023329943418503,0.3212589919567108,-0.6846500039100647
1775751085002238200,12.07323828125,0.07134874910116196,0.41255295276641846,-0.7155253291130066
1775751085012252400,12.08325244140625,0.04567081481218338,0.41652530431747437,-0.7370879054069519
1775751085022265000,12.09326513671875,0.043541353195905685,0.3111059367656708,-0.7313730120658875
1775751085032279300,12.103279296875,0.08153533935546875,0.18120627105236053,-0.6861016750335693
1775751085042293200,12.113293212890625,0.16809846460819244,0.02022005058825016,-0.6228516101837158
1775751085052307500,12.123307373046876,0.2759503722190857,-0.12510624527931213,-0.585632860660553
1775751085062320000,12.133320068359374,0.38538578152656555,-0.1525764912366867,-0.5661888718605042
1775751085072334300,12.143334228515625,0.4467894732952118,-0.10470803827047348,-0.564567506313324
1775751085082348300,12.153348388671875,0.4327189326286316,0.02256123535335064,-0.5503198504447937
1775751085092362500,12.163362548828125,0.36856603622436523,0.10888680070638657,-0.547305703163147
1775751085102376200,12.173376220703124,0.2935972511768341,0.16191034018993378,-0.5367143154144287
1775751085112389400,12.183389404296875,0.24898238480091095,0.11728294938802719,-0.5241622924804688
1775751085122403300,12.1934033203125,0.20257441699504852,0.04531794786453247,-0.4774392545223236
1775751085132417300,12.203417236328125,0.17559152841567993,-0.00748987402766943,-0.3732289671897888
1775751085142431200,12.21343115234375,0.19530877470970154,-0.09371130913496017,-0.2722355127334595
1775751085152445400,12.223445556640625,0.2289745956659317,-0.1435353308916092,-0.19626884162425995
1775751085162458400,12.233458251953126,0.2719052731990814,-0.14057442545890808,-0.1453811675310135
1775751085172472300,12.243472412109375,0.2941938042640686,-0.08817672729492188,-0.1041298657655716
1775751085182486300,12.253486328125,0.2824591100215912,0.015111308544874191,-0.0773448571562767
1775751085192500500,12.26350048828125,0.25773513317108154,0.1367804855108261,-0.05094973370432854
1775751085202513200,12.27351318359375,0.20962299406528473,0.20610655844211578,-0.006281598005443811
1775751085212527400,12.28352734375,0.1388857066631317,0.21358844637870789,0.06065722182393074
1775751085222541300,12.293541259765625,0.09264711290597916,0.18312481045722961,0.13300864398479462
1775751085232555300,12.30355517578125,0.08027992397546768,0.10544333606958389,0.19460757076740265
1775751085242569200,12.3135693359375,0.07744418829679489,-0.006453105714172125,0.23483461141586304
1775751085252582400,12.32358251953125,0.08751919865608215,-0.0892755538225174,0.22847232222557068
