time,seconds_elapsed,z,y,x
1775721969378903000,0.061903076171875,-0.06501520074605942,-0.2980609546252526,-0.032682664678990836
1775721969388917200,0.071917236328125,-0.2696305953621864,-0.2608682651759125,-0.2753415568875149
1775721969398930400,0.081930419921875,-0.32914661417007446,-0.25124128098431975,-0.2233127520298585
1775721969408943000,0.091943115234375,-0.07150514728724956,-0.24719978704117238,-0.0665536988923326
1775721969418956300,0.101956298828125,0.10452361979186535,-0.28263383278753607,-0.10118797256313264
1775721969428969200,0.11196923828125,0.16182780776917932,-0.3501016508501023,-0.2691288929177448
1775721969438982100,0.121982177734375,0.26326281389594075,-0.17799102532910183,-0.3641624710369855
1775721969448996400,0.131996337890625,0.12574702508449553,0.0620452678574482,-0.32433187083210796
1775721969459009300,0.14200927734375,0.18247896613180636,0.03633506340642925,-0.27640394368832927
1775721969469022200,0.152022216796875,0.23353578415215015,-0.131443775421381,-0.310681129283458
1775721969479035100,0.16203515625,0.22957857095897197,-0.19449596899878233,-0.20754443380534648
1775721969489048300,0.17204833984375,-0.09553718025982379,-0.08852569406256079,-0.32091011622250076
1775721969499062300,0.182062255859375,-0.14437339962124823,-0.006077689645602367,-0.33314839715734124
1775721969509075200,0.1920751953125,0.03540390633642673,0.0037476209965301675,-0.19451299319881946
1775721969519088400,0.20208837890625,-0.03851064018011093,0.05829284738821443,-0.13081373388953507
1775721969529101300,0.212101318359375,-0.01421615687906742,0.17589039978804066,-0.009509111699275673
1775721969539114200,0.2221142578125,-0.02788987744450569,0.21034801998399197,0.04586337756309658
1775721969549127400,0.23212744140625,-0.04189852905273437,0.13745678863320498,0.07324367978395893
1775721969559141000,0.24214111328125,0.09042202920317649,0.11576456938558258,0.06467747495798394
1775721969569154300,0.252154296875,0.11122808586657047,0.1639770216923207,0.05002530128182843
1775721969579167500,0.26216748046875,0.07676935142576694,0.1680400150812231,0.08513838971182704
1775721969589180200,0.27218017578125,0.11720832931995391,0.14318257326832973,0.06118336749821901
1775721969599193300,0.282193359375,0.1834925270885229,0.16474829832576215,0.050098786643147465
1775721969609207000,0.29220703125,0.2310983278721571,0.16355875974763184,0.11388177871312945
1775721969619220200,0.30222021484375,0.2657400176644325,0.17255042344406246,0.17691351402439176
1775721969629233400,0.3122333984375,0.29802491519749164,0.18905807052748277,0.18144377786517144
1775721969639246300,0.322246337890625,0.1449497382044792,0.15691468209065496,0.17392094461228697
1775721969649259300,0.33225927734375,0.07980652716457844,0.09187463916428387,0.18566837329026312
1775721969659272200,0.342272216796875,0.06637362961769104,0.06723509615208022,0.21007658263146875
1775721969669286100,0.3522861328125,-0.00969312649667263,0.054502994685154404,0.1986305480528623
1775721969679299300,0.36229931640625,-0.06204115337133407,0.052748497434332964,0.1803843319401145
1775721969689312300,0.372312255859375,-0.0234931037902832,0.004338814655598253,0.15066303781736642
1775721969699325400,0.382325439453125,0.0038420623809099193,-0.03445618629069067,0.08536587832476943
1775721969709338000,0.392338134765625,-0.06428396386206149,-0.027591186758875844,0.013113638997264206
1775721969719351300,0.402351318359375,-0.07255728668868541,-0.02784549944666214,-0.056656355060450726
1775721969729365200,0.412365234375,-0.010057283633947372,-0.04993386013871059,-0.06822868289984763
1775721969739378200,0.422378173828125,0.08923018907010555,-0.11128735090629197,-0.08479476390592754
1775721969749391400,0.432391357421875,0.05848375315070152,-0.1414204315671697,-0.0906008929014206
1775721969759404300,0.442404296875,0.038866614010930056,-0.15673717009928076,-0.09619564416855574
1775721969769417200,0.452417236328125,0.09589724574387073,-0.14080114889135584,-0.09894406609386205
1775721969779431700,0.462431640625,0.07214227614700794,-0.10488240663427859,-0.09794095346592366
1775721969789444400,0.4724443359375,0.006199439162015915,-0.10909840776096097,-0.11865330396387726
1775721969799457500,0.48245751953125,0.052421676632761954,-0.1028680346045643,-0.09311112215667962
1775721969809470700,0.492470703125,0.0352834948271513,-0.06621857605329715,-0.08738109060470015
1775721969819483400,0.5024833984375,-0.03529343169927597,-0.053432620940706686,-0.023743023430742322
1775721969829496600,0.51249658203125,-0.0044195700079202645,-0.04653124862099066,0.032489882053248584
1775721969839510500,0.522510498046875,-0.07709668368399143,-0.04243788749328814,0.09629442836791276
1775721969849523500,0.5325234375,-0.23254092789590358,-0.03151069829016924,0.09338091554138808
1775721969859536600,0.54253662109375,-0.3056675389051437,0.023643093020492233,0.08711147988308221
1775721969869549600,0.552549560546875,-0.1628665031671524,0.030842251843539996,0.06146134418938309
1775721969879562500,0.5625625,0.028520576563477514,0.012148226889566285,0.06482395249027759
1775721969889576400,0.572576416015625,0.059769701308012006,-0.009198438314907253,0.05633161661811173
1775721969899589600,0.582589599609375,0.09444529336988926,-0.03202056577475741,0.039220724678225814
1775721969909602600,0.5926025390625,0.12746318135261536,0.02369600595124066,0.062376815066486596
1775721969919615500,0.602615478515625,0.10092354947328568,0.041764819670468564,0.07348711488470434
1775721969929628700,0.612628662109375,0.04565115958452225,0.006254203839844558,0.0868637156670913
1775721969939641600,0.6226416015625,0.02913724715709686,0.015243166405824012,0.10648662696052343
1775721969949655600,0.632655517578125,0.009473346266150474,0.028854772387328555,0.129734487285465
1775721969959668700,0.642668701171875,-0.03386193759143352,0.047958326848619615,0.09437825601566582
1775721969969681400,0.652681396484375,-0.04295300654172897,0.04451068887908477,0.06209251823239028
1775721969979694600,0.662694580078125,-0.0034188685327768325,0.046473559050424953,0.06353588544111699
1775721969989707500,0.67270751953125,0.08277414479851722,0.07474223407891113,0.06757281280700117
1775721969999720400,0.682720458984375,0.12226795079708098,0.052378705140715465,0.06989146501291543
1775721970009734700,0.692734619140625,0.003774257841706276,0.03197172166435048,0.09048424425181001
1775721970019747600,0.70274755859375,-0.1624216820091009,0.013557263712072744,0.10453837896957993
1775721970029760500,0.712760498046875,-0.18050211310088635,0.012570650127786211,0.09472557161599397
1775721970039773400,0.7227734375,-0.1770358982950449,0.030314419443998483,0.11385313714053481
1775721970049786600,0.73278662109375,-0.19430910465717313,0.027623805820266713,0.1193942219916731
1775721970059800600,0.742800537109375,-0.1352121880441904,-0.0007981052748626098,0.140072706752643
1775721970069813500,0.7528134765625,-0.019999416455626487,-0.01859372807589825,0.10854122140277177
1775721970079826700,0.76282666015625,0.047906245034933084,0.0166351824532263,0.06645246700756251
1775721970089839400,0.77283935546875,0.024690789142251014,0.021483805227908305,0.070601439913176
1775721970099852500,0.7828525390625,0.026332711130380628,-0.011558687473111786,0.04264697279985994
1775721970109865700,0.79286572265625,0.08858546142578125,-0.02173378880044911,0.0353091407250613
1775721970119879400,0.80287939453125,0.11194003352820872,-0.03175255792175885,0.030551242140866814
1775721970129892600,0.812892578125,0.1300531978458166,-0.002638093418627977,0.009104732149466872
1775721970139905500,0.822905517578125,0.14726853654086589,0.009193821505294181,-0.03729519997574389
1775721970149918500,0.83291845703125,0.00036941783428192136,-0.0008390172405634075,-0.07981719468906522
1775721970159931600,0.842931640625,-0.17072481545209883,-0.05689241970549337,-0.06536803277172148
1775721970169944600,0.852944580078125,-0.1545312210202217,-0.08796849857121705,-0.12950995781458913
1775721970179958500,0.86295849609375,-0.18373335010707378,-0.0309531557389535,-0.1981521534187719
1775721970189971500,0.872971435546875,-0.21281272959709166,-0.04034252264923416,-0.1739555044690147
1775721970199984600,0.882984619140625,-0.1450853472828865,-0.024276509252935646,-0.07346300335675478
1775721970209997600,0.89299755859375,-0.09576514379680157,-0.002745033524977043,-0.020230010341107843
1775721970220010500,0.903010498046875,-0.12886720293164253,0.0006611673224717378,-0.00819956347066909
1775721970230024700,0.913024658203125,-0.1260229194164276,-0.007340151896048337,-0.0027889365987852216
1775721970240037400,0.923037353515625,0.014753917017579077,-0.006598649346362799,0.00693275840524584
1775721970250050600,0.933050537109375,0.09610124388337135,-0.01016950270361267,0.038767026093974706
1775721970260063700,0.943063720703125,0.1751958233863115,-0.0442535951457452,0.05871672165635973
1775721970270076400,0.953076416015625,0.23663491921126842,-0.04310427898014895,0.1033129653604701
1775721970280089600,0.963089599609375,0.19185060558915137,-0.06037468146383762,0.11509802263509482
1775721970290103600,0.973103515625,0.02798573903441429,-0.06485636605569162,0.11511508336775005
1775721970300116500,0.983116455078125,-0.0807926155924797,-0.045760483444202686,0.10404029325433074
1775721970310129700,0.993129638671875,-0.1527367388188839,-0.01025554615240544,0.09922934930864721
1775721970320142600,1.003142578125,-0.15671265671253204,-0.002581230398546904,0.10861647859606892
1775721970330155500,1.013155517578125,-0.09437690430879592,-0.03526603223569691,0.11657514598295092
1775721970340169500,1.02316943359375,-0.0272445652782917,-0.009660594200249761,0.07274919253159313
1775721970350182700,1.0331826171875,-0.03207973034977913,0.032570792669197546,0.026367709378525613
1775721970360195600,1.043195556640625,-0.042754853621125216,0.04338922426821664,0.00959814168959856
1775721970370208500,1.05320849609375,-0.04252630556225776,0.05927623696895316,0.0020856471676379443
1775721970380221700,1.0632216796875,-0.033329438149929044,0.030928907213686033,0.032785577064193785
1775721970390234400,1.073234375,0.04406827430725097,0.016957290547061712,0.04257609952073544
1775721970400248600,1.08324853515625,0.07190086860656737,0.01805398147627711,0.045186172421276566
1775721970410261500,1.093261474609375,0.07487433145940303,0.030068445326294747,0.03923237858340144
1775721970420274400,1.1032744140625,0.08128127589225768,0.011499920190311968,0.07476148220207542
1775721970430287600,1.11328759765625,-0.030195816299319264,0.00008175086616538465,0.14722495312746614
1775721970440300500,1.123300537109375,-0.19653554853498933,-0.02412950199767947,0.19171824791375547
1775721970450313500,1.1333134765625,-0.23071546603441237,-0.01946538264416158,0.19981446060780433
1775721970460327700,1.14332763671875,-0.19815233608186245,0.0019505769453477112,0.19098390575721857
1775721970470340600,1.153340576171875,-0.144797177991271,0.009604863691329955,0.1739292009839788
1775721970480353500,1.163353515625,-0.08292904309928417,-0.007060713900160044,0.18622480159662663
1775721970490366500,1.173366455078125,-0.12070610830783843,-0.02203513266746886,0.2259097097204998
1775721970500379600,1.183379638671875,-0.2718476868897676,-0.0448127542653121,0.2919651037018746
1775721970510392600,1.193392578125,-0.3777548699945211,-0.06681252335845492,0.2670830845701508
1775721970520406500,1.203406494140625,-0.47629590824544427,-0.05784141839286312,0.22110055587310343
1775721970530419700,1.213419677734375,-0.48547173286974427,-0.07927346146749333,0.164054068983905
1775721970540432400,1.223432373046875,-0.4525643195241689,-0.08138102820599451,0.10926232048524542
1775721970550445600,1.233445556640625,-0.5117980142593384,-0.09266788103436119,0.07111660462738946
1775721970560458800,1.243458740234375,-0.4863298110038042,-0.07921662584687583,0.06049536696774885
1775721970570472400,1.253472412109375,-0.36032208915650843,-0.06478207697677425,0.0657333954853937
1775721970580485600,1.263485595703125,-0.2776058120250702,-0.04228544601108879,0.03737918846476823
1775721970590498600,1.27349853515625,-0.3845218799114227,-0.02285914413514547,0.03169997378457337
1775721970600511500,1.283511474609375,-0.5881552777528762,-0.07202819391381926,0.05129575960906222
1775721970610524700,1.293524658203125,-0.8755003935039043,-0.15547051116432994,0.0733655891305767
1775721970620537600,1.30353759765625,-1.2258949628859757,-0.18201109289173037,0.08692088921442627
1775721970630551600,1.313551513671875,-1.5089374130070208,-0.1065975582554005,0.09058425229387357
1775721970640564500,1.323564453125,-1.4802894106715916,0.023141477341018617,-0.01643430785257369
1775721970650577700,1.33357763671875,-1.3141641979694365,0.16528101696297526,-0.26874047812204804
1775721970660590600,1.343590576171875,-1.2392279071897268,0.2050825006712228,-0.6235054080754519
1775721970670603500,1.353603515625,-1.2599690819233655,0.16360267195459455,-1.0016398519720882
1775721970680616700,1.36361669921875,-1.2598621144175528,0.1901253892317414,-1.2676618283830583
1775721970690630400,1.37363037109375,-1.5194634831964968,0.22271336136460304,-1.1575062671188265
1775721970700643600,1.3836435546875,-1.6502555167108772,0.1741412362994626,-0.7379783941473811
1775721970710656800,1.39365673828125,-1.5499761103600262,0.12711316233854741,-0.20665263606477527
1775721970720669400,1.40366943359375,-1.2445517325609923,0.12852989726867525,0.12354418127797544
1775721970730682600,1.4136826171875,-0.9701607909291982,0.16605046696551143,0.20852595565598456
1775721970740696300,1.4236962890625,-0.7514543271183968,0.1628848060088232,0.18726305860318243
1775721970750709500,1.43370947265625,-0.5888473516702651,0.09461376353828235,0.11844996341150253
1775721970760722700,1.44372265625,-0.4985165078818798,0.06572133058826439,-0.005544190123677253
1775721970770735600,1.453735595703125,-0.5144996744334698,0.04571385869034566,-0.18126831170041113
1775721970780748300,1.463748291015625,-0.7355290282338858,-0.0472341087938752,-0.30633970254566517
1775721970790761200,1.47376123046875,-1.1022738439142703,-0.16142894464470445,-0.34100053542982783
1775721970800775200,1.483775146484375,-1.5755986273944378,-0.2044038524909876,-0.18055599871259181
1775721970810788400,1.493788330078125,-1.680534335118532,-0.23786946597490458,0.12968831005617976
1775721970820801300,1.50380126953125,-1.449872060576081,-0.16483279827143996,0.3940500616373494
1775721970830814500,1.513814453125,-1.0514052419424056,-0.16156117445593698,0.45821273720730094
1775721970840827100,1.5238271484375,-0.6971721173107623,-0.13246885328595526,0.366855509513244
1775721970850840300,1.53384033203125,-0.31645021420419217,-0.04006765123060904,0.2616760196285322
1775721970860854300,1.543854248046875,-0.06142682086527347,0.07579733718899079,0.22354725490547717
1775721970870867200,1.5538671875,-0.06125263334214687,0.18876485973456875,0.25453294294085355
1775721970880880400,1.56388037109375,-0.08655424785912036,0.2634875442962162,0.20948318331558255
1775721970890893300,1.573893310546875,-0.11630232039093971,0.3416311980161816,0.06510061400718986
1775721970900906200,1.58390625,-0.29273616113960743,0.3434812828622758,-0.03687295597568154
1775721970910919200,1.593919189453125,-0.5270511129707097,0.20100805430654436,-0.08125614145100116
1775721970920933000,1.60393310546875,-0.7279273210585117,0.07084173320876434,-0.07821355888471007
1775721970930946300,1.6139462890625,-0.6622907735437155,0.1173273708560504,-0.1402815271977335
1775721970940959200,1.623959228515625,-0.3315963454097509,0.3125450965244323,-0.2819104138838127
1775721970950972400,1.633972412109375,-0.04690145190656185,0.5761822601580991,-0.22217490710634738
1775721970960985000,1.643985107421875,0.1913134299725294,0.7284094785522669,-0.049580534922704096
1775721970970999300,1.653999267578125,0.5267477461099624,0.7512998672090471,0.03233465495891869
1775721970981012200,1.66401220703125,0.7563023516714572,0.7796115502621979,-0.053190834374353284
1775721970991025200,1.674025146484375,0.6620388446092605,0.8039516993358731,-0.1352634798400104
1775721971001038300,1.684038330078125,0.7364736156076193,0.8008076291564852,-0.09908340149931609
1775721971011051500,1.694051513671875,0.8888280771106482,0.8106041429623961,-0.02864982896633446
1775721971021064200,1.704064208984375,0.7939514065861701,0.85627320352979,-0.05061572318933904
1775721971031078400,1.714078369140625,0.5495522831141948,0.8829661993399261,-0.08516425480544566
1775721971041091300,1.72409130859375,0.09505436517894267,0.8545081666186451,-0.06690042997077107
1775721971051104300,1.734104248046875,-0.25764731210172176,0.7900703273691236,0.03415653662383556
1775721971061117400,1.744117431640625,-0.30129063899517056,0.717198275642842,0.12564159194864333
1775721971071130400,1.75413037109375,-0.3226081523120403,0.6044903995472938,0.2252258556421846
1775721971081144300,1.764144287109375,-0.18705343444049358,0.46905061329230663,0.4141683186996728
1775721971091157200,1.7741572265625,0.10836042147576808,0.370267144587636,0.6022413419788702
1775721971101170200,1.784170166015625,0.3886480199307203,0.4775236599421128,0.6264129660852253
1775721971111183400,1.794183349609375,0.6083423257350922,0.7467275908574461,0.5062519244395196
1775721971121196300,1.8041962890625,0.7200450433760881,0.9001558190718293,0.34038145368341355
1775721971131209500,1.81420947265625,0.5256178652971982,0.8630525614716112,0.2638483221663162
1775721971141223200,1.82422314453125,0.4346691818714142,0.7437721020527184,0.1395198951754719
1775721971151236400,1.834236328125,0.3566384322077036,0.657840296940878,-0.0905409063424915
1775721971161249300,1.844249267578125,0.24090075996220112,0.5416889658605679,-0.28594072884581984
1775721971171262200,1.85426220703125,0.3613759821236133,0.38089989002197977,-0.36021493898760526
1775721971181275400,1.864275390625,0.5338619620293379,0.26561478384956716,-0.3210524838352576
1775721971191288300,1.874288330078125,0.47262861790955063,0.11455155860031954,-0.26963729909760875
1775721971201302300,1.88430224609375,0.3270487651079893,-0.014623860897123813,-0.18647943394482136
1775721971211315500,1.8943154296875,0.30699615716040135,-0.05657198297893628,-0.04728329083099961
1775721971221328400,1.904328369140625,0.36450843493044377,0.02265022322535515,0.04919197399653494
1775721971231341300,1.91434130859375,0.38809506222307677,0.09891633783672005,0.12195879351636395
1775721971241354200,1.924354248046875,0.4848778586298227,0.15147254583565517,0.1366971841712482
1775721971251367400,1.934367431640625,0.48535541301369667,0.18350845531001686,0.07894574561677872
1775721971261381400,1.94438134765625,0.41545594735741614,0.2427247970515862,0.0011617555220611393
1775721971271394300,1.954394287109375,0.3612076398193836,0.2613078073706478,0.006605499212257564
1775721971281407200,1.9644072265625,0.19149696984589099,0.15507584929093718,0.23070319107472895
1775721971291420200,1.974420166015625,0.053448097071051595,-0.03685962157007307,0.5177660558182746
1775721971301433300,1.984433349609375,0.019615970095992086,-0.2131931437494233,0.5423736236564815
1775721971311446300,1.9944462890625,-0.009596680384874344,-0.3753019969496876,0.3988220983447507
1775721971321460200,2.004460205078125,-0.044214989301562306,-0.5276075778096914,0.31613048073053357
1775721971331473400,2.014473388671875,-0.3022258740186691,-0.7330499247692525,0.4049993256749585
1775721971341486300,2.024486328125,-0.3952811743348837,-0.8324564938083291,0.5356732857676223
1775721971351499300,2.034499267578125,-0.25221359661519527,-0.7687037142135202,0.5902381484415382
1775721971361512200,2.04451220703125,0.2382832709401846,-0.6156998488910496,0.5226161992631853
1775721971371526100,2.054526123046875,0.8018634948849678,-0.46466545701064166,0.4346490889314562
1775721971381539300,2.064539306640625,1.20852414136827,-0.39984048160705715,0.3969089216671884
1775721971391552300,2.07455224609375,1.4085393487125635,-0.3947161243306473,0.4043208053588867
1775721971401565400,2.0845654296875,1.4459405663460492,-0.37903658036813137,0.2637824538558721
1775721971411578400,2.094578369140625,1.34591893414855,-0.3936623409613967,0.01832519049993716
1775721971421591300,2.10459130859375,1.086651327368617,-0.35797231115996836,-0.18093378251641987
1775721971431605200,2.114605224609375,0.8138777578055858,-0.3059253495911136,-0.3275420285176486
1775721971441618200,2.1246181640625,0.7229413493394852,-0.2228138260643929,-0.2883716823197901
1775721971451631400,2.13463134765625,0.8838596410483122,-0.20766113725388421,-0.18073299924731254
1775721971461644300,2.144644287109375,1.1394465134888887,-0.2640110384473577,-0.16225673723835496
1775721971471657200,2.1546572265625,1.3632014928609133,-0.2572654183783568,-0.2646826906312257
1775721971481670400,2.16467041015625,1.417738554212451,-0.2560335567621514,-0.33637685768455267
1775721971491684000,2.17468408203125,1.3141589372724294,-0.32265878652073443,-0.34009028871711344
1775721971501697300,2.184697265625,1.398133105510473,-0.34819194477126,-0.29976865359228105
1775721971511710500,2.19471044921875,1.5544482873380183,-0.2550348463146947,-0.2171828344400972
1775721971521723400,2.204723388671875,1.5995155095547438,-0.11482136111818253,-0.08266130467434413
1775721971531736300,2.214736328125,1.5040256755679844,-0.05612415244646836,0.017675183892296626
1775721971541750300,2.224750244140625,1.3128683129400014,-0.08420524618071504,0.03877016789913177
1775721971551763200,2.23476318359375,1.1125064841151238,-0.26210748811466617,0.012894315424468368
1775721971561776400,2.2447763671875,0.8755360493391752,-0.5488516605641692,0.01494032470146194
1775721971571789300,2.254789306640625,0.5664987417399883,-0.8348981878720223,0.03730798639208078
1775721971581802500,2.264802490234375,0.13588029656410217,-0.9974084249474108,-0.07700217380095273
1775721971591815200,2.274815185546875,-0.3338414939880371,-0.949758419695869,-0.2964057895630598
1775721971601829400,2.284829345703125,-0.6274725581407546,-0.7309544137947261,-0.41239392943829295
1775721971611842300,2.29484228515625,-0.6309755978256464,-0.5213640072450042,-0.36512751667685805
1775721971621855200,2.304855224609375,-0.5036778361678124,-0.47020102543644604,-0.1947273300692439
1775721971631868400,2.314868408203125,-0.30423312218785287,-0.5453409855620935,0.009385302656516431
1775721971641881300,2.32488134765625,-0.17587912947535514,-0.6083163875762373,0.12231566239632666
1775721971651894300,2.334894287109375,-0.23440613724589346,-0.6705871119197457,0.13559673038236797
1775721971661908500,2.344908447265625,-0.525157846570015,-0.7243448594618588,0.17997829015618189
1775721971671921200,2.354921142578125,-0.5161527023375034,-0.7017934204358607,0.20291869196714832
1775721971681934300,2.364934326171875,-0.35750352460443974,-0.5631324436446652,0.15287092312518508
1775721971691947300,2.374947265625,-0.20007833570837974,-0.419136827827245,0.0984417608612217
1775721971701960400,2.38496044921875,0.004923427876830101,-0.34399862126726655,0.10681750288270413
1775721971711973000,2.39497314453125,0.06365852544009686,-0.30867249287478626,0.09827805819949134
1775721971721987300,2.4049873046875,0.05843173070251941,-0.3095964758519083,0.05409224019348621
1775721971732000300,2.415000244140625,0.20187281790971756,-0.2877841647554189,0.036234073550254105
1775721971742013200,2.42501318359375,0.33508009587228293,-0.22640030624903737,0.053579614496231075
1775721971752026400,2.4350263671875,0.4281564389765262,-0.10648457200075499,0.0874313960198313
1775721971762039300,2.445039306640625,0.47947278471589083,0.007635561495914589,0.0825390208683908
1775721971772053200,2.45505322265625,0.5599778155386448,0.057890020474675105,0.047517391847819085
1775721971782066700,2.465066650390625,0.5977028582990169,0.09230892066201195,0.038548232244141396
1775721971792079600,2.47507958984375,0.5956693066447973,0.09191372906565666,0.0750873896881938
1775721971802092800,2.4850927734375,0.44451253049373624,0.07055138109321706,0.13991090378705412
1775721971812105700,2.495105712890625,0.21573709261119364,0.05719176341167185,0.12257555544152855
1775721971822118700,2.50511865234375,-0.02888590274453163,0.03094246309829177,0.058317712401412425
1775721971832132600,2.515132568359375,-0.27079613201022146,0.040857102841557934,0.025850699767097828
1775721971842145800,2.525145751953125,-0.46626726618409153,0.07056588910918217,0.11996610359549521
1775721971852158700,2.53515869140625,-0.5480763653427362,0.053538396569853645,0.3060776540759951
1775721971862171600,2.545171630859375,-0.35316228052973747,0.018630610037164295,0.41624673240892585
1775721971872184800,2.555184814453125,-0.0680307491749525,-0.005417029213206842,0.3423585989752784
1775721971882197500,2.565197509765625,0.11306640720963478,-0.053344517965568224,0.24064930595178155
1775721971892211700,2.575211669921875,0.17887772676944733,-0.06722673931568861,0.24892728668721392
1775721971902225000,2.585224853515625,0.06685235304534434,-0.05356201034088153,0.3358927274294197
1775721971912237600,2.595237548828125,-0.014554595053195953,0.017151532194239552,0.35294969722498204
1775721971922250800,2.605250732421875,0.023537527453899382,0.12623068041559307,0.3015608707712963
1775721971932263700,2.615263671875,0.029696634605526923,0.15387250138316302,0.24794877877756952
1775721971942276600,2.625276611328125,0.06499065082669257,0.10023430683379993,0.16839593411311507
1775721971952290800,2.635290771484375,0.08982230974435806,-0.04318108424313832,0.14303612313549965
1775721971962303700,2.6453037109375,0.223172211048007,-0.17454704062137752,0.15172431037332862
1775721971972316700,2.655316650390625,0.3622141865134239,-0.24376990392403675,0.09879125015232712
1775721971982329600,2.66532958984375,0.4049035736829042,-0.19122186096524818,0.009965294501557946
1775721971992342800,2.6753427734375,0.49980011795163154,-0.10968945072297938,-0.020555150642246008
1775721972002355500,2.68535546875,0.4334983845263719,-0.13205833625630475,0.03136683284007013
1775721972012369700,2.69536962890625,0.26198095739185806,-0.23556294259820132,0.16505480699166655
1775721972022382800,2.7053828125,0.07783785744011401,-0.3313748116135597,0.23409575612246988
1775721972032395500,2.7153955078125,0.0035609073519706725,-0.34334972890447824,0.17452990682348607
1775721972042408700,2.72540869140625,-0.022003742015361785,-0.3469869894282892,0.04074066425450146
1775721972052421600,2.735421630859375,0.15364976201057434,-0.35697160968482494,-0.07135938214100897
1775721972062435600,2.745435546875,0.3949889133900404,-0.3322704087464139,-0.09313366278205067
1775721972072448800,2.75544873046875,0.5351835660219192,-0.3083287209384143,-0.08177519688904285
1775721972082461700,2.765461669921875,0.5836731639027595,-0.32674112393092364,-0.1018013917537406
1775721972092474600,2.775474609375,0.5819529159814119,-0.3781652043610811,-0.13053396710008383
1775721972102487600,2.785487548828125,0.593361029702425,-0.4498034034434706,-0.0820739606399089
1775721972112500700,2.795500732421875,0.6799357358276844,-0.47870903380177915,-0.07466043298039585
1775721972122514700,2.8055146484375,0.673028440657258,-0.4516989713991061,-0.13981343476194888
1775721972132527600,2.815527587890625,0.5524941817849874,-0.4014990259364247,-0.16215060998275876
1775721972142540800,2.825540771484375,0.4386024296671152,-0.43295715378914024,-0.13800390112195163
1775721972152553500,2.835553466796875,0.3800292446672916,-0.5179318408392369,-0.19570395654905587
1775721972162566700,2.845566650390625,0.22992753052711484,-0.5546520904712379,-0.32275347906686364
1775721972172579800,2.855579833984375,0.2185194168061018,-0.6542858193296939,-0.502356962827593
1775721972182593500,2.865593505859375,0.36837329366505145,-0.7526886181537061,-0.6511701715271919
1775721972192606700,2.875606689453125,0.4894628483325243,-0.785053156794235,-0.6558482463408262
1775721972202620000,2.885619873046875,0.6220505330920219,-0.8064980228178202,-0.5749893240464851
1775721972212632600,2.895632568359375,0.7000351055264472,-0.834087090684846,-0.4520872400643304
1775721972222645800,2.905645751953125,0.5426414808124304,-0.8755144220292568,-0.323277612538822
1775721972232658700,2.91565869140625,0.484642296308279,-0.9754757754068821,-0.28708997194617986
1775721972242672600,2.925672607421875,0.4512281024843454,-1.0526458165880292,-0.2769899816816673
1775721972252685800,2.935685791015625,0.39420448501408095,-1.0173207476414738,-0.25569789506699886
1775721972262698800,2.94569873046875,0.5917606087684631,-0.9511640487100929,-0.24117661776151506
1775721972272711700,2.955711669921875,0.9345599007159471,-0.8234891973681747,-0.21630261753946542
1775721972282724600,2.965724609375,1.1566355486989022,-0.6670862641919404,-0.18483035156354308
1775721972292737800,2.97573779296875,1.0839707099825142,-0.5672550400000065,-0.08971220043338834
1775721972302751700,2.985751708984375,0.9638315879076719,-0.45401243597324936,-0.07700498681254685
1775721972312764700,2.9957646484375,1.0105448237657546,-0.2297247744966298,-0.0848714824039489
1775721972322777900,3.00577783203125,1.2787298964947462,-0.009623677989654243,-0.03395115024484694
1775721972332790500,3.01579052734375,1.628152405974269,0.27302600995413956,0.10473770093396305
1775721972342803700,3.0258037109375,1.7957266484409569,0.34349501912668345,0.3184556357424706
1775721972352817700,3.035817626953125,2.15712250430882,0.30579507427494973,0.45226467899046835
1775721972362830600,3.04583056640625,2.1667197692155837,0.3908926205197349,0.523835000468418
1775721972372843800,3.05584375,1.7824428039759397,0.37257067228965457,0.41637240461520847
1775721972382856700,3.065856689453125,1.3322218327075241,0.31430158480294046,0.22678616376146674
1775721972392869600,3.07586962890625,1.0052356114417313,0.38595183964930474,0.1350043905124068
1775721972402882600,3.085882568359375,0.9941828870296477,0.48325259551554917,0.13856032942831514
1775721972412896500,3.095896484375,1.1496914286494255,0.6897595760319382,0.21650347387380897
1775721972422909700,3.10590966796875,1.3338701844364405,0.7992802734587341,0.269090497136116
1775721972432922600,3.115922607421875,1.2937065163522958,0.6732296623177826,0.324461159767583
1775721972442935800,3.125935791015625,1.098262854707241,0.3519980590559542,0.29426198246739804
1775721972452948500,3.135948486328125,0.8724567880243063,0.05340571923404932,0.2713121917735785
1775721972462961700,3.145961669921875,0.4160264407217502,-0.08623619488589465,0.24402554091922937
1775721972472975600,3.1559755859375,-0.3414455392509699,-0.09491437218636274,0.2291898639023304
1775721972482988500,3.165988525390625,-0.8500783674776553,-0.025844306558929383,0.13283603349737821
1775721972493001700,3.176001708984375,-1.0774760872662066,0.01543773456327617,-0.022390110984444617
1775721972503014700,3.1860146484375,-0.6082593236267566,-0.09531674244217574,-0.3270463539551943
1775721972513027600,3.196027587890625,0.09359539854228496,-0.060482379622012375,-0.5291596295572817
1775721972523040800,3.206040771484375,0.7878893300682306,0.14683350612446666,-0.5782253468256443
1775721972533054500,3.216054443359375,1.1651783361166714,0.1503802388206124,-0.5386566489599645
1775721972543067600,3.226067626953125,1.0059434674501417,0.10713825926966965,-0.3064999711412936
1775721972553080600,3.23608056640625,0.9180740453392267,0.016962679108232258,-0.05060300983823836
1775721972563093800,3.24609375,1.0761977378934622,-0.030523148557543754,0.04449431769959628
1775721972573106700,3.256106689453125,1.1642431010931729,0.0700735801141709,0.05904372512102127
1775721972583119600,3.26611962890625,1.0178998627036808,0.12856332461424172,0.09636077160239219
1775721972593133600,3.276133544921875,0.6296949103653431,0.13759579524509608,0.16724011514149606
1775721972603146800,3.286146728515625,0.33240999988019465,0.19149477788880467,0.13462671630643308
1775721972613159700,3.29615966796875,0.290151989865303,0.2972436286266893,0.08799969742707908
1775721972623172900,3.3061728515625,0.4590215328395366,0.3790940827090293,0.1578325275879353
1775721972633185500,3.316185546875,0.4787660977512598,0.4332751702297479,0.36104127027653155
1775721972643198700,3.32619873046875,0.5165402403503656,0.4759063974712044,0.5253048538252711
1775721972653212700,3.336212646484375,0.6872691474556922,0.6540238804578781,0.4781247311078012
1775721972663225600,3.3462255859375,0.7771651069581508,0.8870058301195501,0.30403920705094933
1775721972673238800,3.35623876953125,0.5722112741678953,1.0851568510271608,0.23247231963910162
1775721972683251700,3.366251708984375,0.304941562718153,1.1647784500788896,0.28789347034879026
1775721972693264600,3.3762646484375,0.1821896277964115,1.1519853117402643,0.2700861571099609
1775721972703278800,3.38627880859375,-0.052012511309981344,1.1729696475800127,0.08976436901204288
1775721972713291500,3.39629150390625,-0.21054127753376958,1.1984415040973573,-0.2656920868694782
1775721972723304700,3.4063046875,-0.5336357520580292,1.2480242309771477,-0.6562341769184917
1775721972733317600,3.416317626953125,-0.791405813756585,1.2831839532941578,-0.9620982613090425
1775721972743330800,3.426330810546875,-0.6686328360468149,1.346409348013997,-1.1139760452110319
1775721972753343500,3.436343505859375,-0.6329097807586193,1.3628826361700892,-1.116976688331738
1775721972763357700,3.446357666015625,-0.776730222672224,1.2748279206201434,-1.0278202220849693
1775721972773370600,3.45637060546875,-1.159851003614068,1.2814777338981627,-0.9107407798416912
1775721972783383800,3.4663837890625,-1.6726947275340556,1.3707690055057407,-0.7258235537122935
1775721972793397000,3.47639697265625,-1.6538970880836248,1.4498665076181292,-0.546158366359584
1775721972803410000,3.486409912109375,-1.4744067823737859,1.5131636523999272,-0.4709143613375723
1775721972813422800,3.4964228515625,-1.6619488771140574,1.3694766276076435,-0.360676820878312
1775721972823437000,3.50643701171875,-1.821111265066266,1.0662048977978527,-0.18779040694553403
1775721972833449700,3.51644970703125,-1.782425268319249,0.7896529787398874,-0.0017279928363859653
1775721972843463000,3.526462890625,-2.0116408511847257,0.5536615085313096,0.06826421087095513
1775721972853475800,3.536475830078125,-2.4175223299890756,0.35149957148190586,0.18312687211390583
1775721972863489000,3.546489013671875,-2.4936200657635927,0.11960357215972617,0.38797808477990325
1775721972873502000,3.556501953125,-2.414919454014301,-0.23600118788499383,0.5936006106119602
1775721972883516000,3.566515869140625,-2.4865070188879965,-0.5812595634223893,0.7307286422148347
1775721972893528800,3.57652880859375,-2.5991326965928074,-0.8137614379495381,0.7992953248973935
1775721972903542000,3.5865419921875,-2.715473010906577,-0.881275177513063,0.9220702023033052
1775721972913555000,3.596554931640625,-2.4970167224645614,-0.8122720761746167,0.9748026253856718
1775721972923568000,3.606568115234375,-1.9824632720172404,-0.5996659385329112,0.8187916872017085
1775721972933580800,3.616580810546875,-1.4687263986498116,-0.41273258680813013,0.5873582821562886
1775721972943595000,3.626594970703125,-1.1324544626444577,-0.40567945342622697,0.4838741614799946
1775721972953608000,3.63660791015625,-0.8429343409419059,-0.44086303154285994,0.4400440798427909
1775721972963620900,3.646620849609375,-0.5117255335450173,-0.382743033670634,0.318177476388216
1775721972973634000,3.656634033203125,-0.45695875509083267,-0.3497708114605397,0.13806723041543736
1775721972983647000,3.66664697265625,-0.49707156977057454,-0.4661068879906088,0.14331888559963554
1775721972993660000,3.676659912109375,-0.3745534436047077,-0.6439281645096838,0.3182978148322552
1775721973003674000,3.686674072265625,-0.4115279602587223,-0.771088052066788,0.5359099440677091
1775721973013686800,3.696686767578125,-0.6056658000022173,-0.788507388901338,0.6935210474573076
1775721973023700000,3.706699951171875,-0.750163118264079,-0.6996950599171221,0.821244194920361
1775721973033713000,3.716712890625,-0.9643290160357951,-0.5932848226610571,0.906479249939695
1775721973043726000,3.72672607421875,-0.9827548995643853,-0.5026785229321569,0.8877814906671643
1775721973053738800,3.73673876953125,-0.6655097355902194,-0.4519190804231912,0.8262466793827712
1775721973063753000,3.7467529296875,-0.1822200229346752,-0.4507284823991358,0.6692625122524798
1775721973073766000,3.756765869140625,0.09951309815347194,-0.4114492689993232,0.4467280145861208
1775721973083778800,3.76677880859375,0.06661094550490379,-0.30131266816388813,0.22679175325203685
1775721973093792000,3.7767919921875,-0.0005856909334659576,-0.1971728417915292,0.13141769113205373
1775721973103805000,3.786804931640625,0.017037644040584565,-0.11408740255413577,0.15216314018201083
1775721973113817900,3.79681787109375,-0.10854922204613685,-0.042848523253947494,0.20049809549041092
1775721973123832000,3.80683203125,-0.34540625957548615,0.027182879952620715,0.16652645044680683
1775721973133844700,3.8168447265625,-0.3207277453929186,0.10549840137446298,-0.05916238306462764
1775721973143858000,3.82685791015625,-0.1165203470557928,0.15428380386410281,-0.3641977250134572
1775721973153870800,3.836870849609375,-0.02786591204702854,0.11296239884588867,-0.5935519126320258
1775721973163884000,3.846884033203125,0.028425884017348288,0.00684087887071073,-0.635473639897257
1775721973173898000,3.85689794921875,0.05019932440817356,-0.005095149448234588,-0.5154979647558182
1775721973183911000,3.866910888671875,0.01727788253724575,0.04427282043602317,-0.44599443961456414
1775721973193923800,3.876923828125,-0.07712590977847576,0.031153792877588418,-0.45940834020003674
1775721973203936800,3.886936767578125,-0.1278232468366623,0.005134129751753062,-0.5074444586923346
1775721973213950000,3.896949951171875,-0.2427098552107811,0.033592874859087164,-0.5536871544292197
1775721973223963100,3.906963134765625,-0.3445645480543375,0.029411351390741764,-0.5347437863651663
1775721973233976800,3.916976806640625,-0.30753567086458206,0.0011159801515750586,-0.5021120846884325
1775721973243990000,3.926989990234375,-0.2032563812226057,0.02026955690020695,-0.39385811926182357
1775721973254002700,3.937002685546875,-0.053610009634494776,0.05438440980678424,-0.2560645364223048
1775721973264016000,3.947015869140625,-0.018293197059631346,0.10397215992156415,-0.15900383638963103
1775721973274029000,3.957029052734375,-0.010333762487769127,0.13084694203939287,-0.0804389067839831
1775721973284042000,3.9670419921875,-0.0017775310665369033,0.10946805392410605,-0.05733213543016463
1775721973294056000,3.977055908203125,-0.07668693383932113,0.07642926928382367,-0.044998139035888014
1775721973304069000,3.987069091796875,-0.3134937024861574,0.06540321368295698,0.005260550876706838
1775721973314081800,3.997081787109375,-0.3315414003521204,0.0913941987035796,0.05083115603830665
1775721973324095000,4.007094970703125,-0.20751754579842088,0.14858835043516008,0.07369188020918518
1775721973334108000,4.01710791015625,-0.2564163090020418,0.14125026263203472,0.0916318433843553
1775721973344121000,4.02712109375,-0.16962649882137776,0.02506440822761506,0.09005809126161038
1775721973354135000,4.037135009765625,-0.09328735550642013,-0.07674173276647925,0.10938779176212847
1775721973364148000,4.04714794921875,-0.1377092655569315,-0.15796989023201166,0.11568163120932877
1775721973374161000,4.057160888671875,-0.28186522303521633,-0.20143274599201977,0.07249857877139002
1775721973384173800,4.067173828125,-0.2951186723619699,-0.1846717634683475,0.024094375885371118
1775721973394187000,4.07718701171875,-0.2779489263743162,-0.15999346848148852,-0.0001955591047182679
1775721973404200000,4.087199951171875,-0.26262334694862366,-0.1654008804829791,-0.010177147153951228
1775721973414214000,4.0972138671875,-0.09253098418116569,-0.1895297979587689,-0.05683417757907882
1775721973424227000,4.10722705078125,0.13495675197839735,-0.1553541182430461,-0.14912488673096522
1775721973434239700,4.11723974609375,0.18322364701926708,-0.08719725847039371,-0.20408764441497623
1775721973444253000,4.1272529296875,0.12261340323388575,-0.05044913445077836,-0.244788908240851
1775721973454265900,4.137265869140625,0.11128887614309788,-0.014381905367411673,-0.2519846284312196
1775721973464279000,4.147279052734375,0.03196691762506962,0.013802351913787423,-0.23588740704590452
1775721973474293000,4.15729296875,-0.0422808063685894,0.06924074601922184,-0.22726333455285055
1775721973484306000,4.167305908203125,-0.0575695609152317,0.07613532783854753,-0.19276585727054624
1775721973494318800,4.17731884765625,-0.011363105535507201,0.05161215034816414,-0.16338974158996716
1775721973504331800,4.187331787109375,0.07266717680394649,0.038086533016525204,-0.13338186734449117
1775721973514345000,4.197344970703125,0.08887187715172767,0.02113021058384329,-0.13377725987024605
1775721973524358100,4.207358154296875,0.0510077181816101,0.009796769534237682,-0.07188442892841994
1775721973534371800,4.217371826171875,0.03087619977891445,0.012099018594622611,0.09042721683494746
1775721973544385000,4.227385009765625,-0.05814122332334518,0.01795640285331756,0.22223909491635857
1775721973554397700,4.237397705078125,-0.1175660567164421,0.0114832613164559,0.2594222676186822
1775721973564411000,4.247410888671875,-0.2511784083485603,-0.04200030892677605,0.2826037664428353
1775721973574424000,4.257424072265625,-0.352238151422143,-0.07138137477710843,0.2638125932658091
1775721973584437000,4.26743701171875,-0.40667993570566174,-0.11379453882109374,0.22436357625704256
1775721973594451000,4.277450927734375,-0.5255179120540618,-0.10817921968996524,0.26382380877956746
1775721973604463900,4.2874638671875,-0.7078916642457246,-0.10509294411242008,0.324368622645922
1775721973614476800,4.297476806640625,-0.8313140457749366,-0.11429050564449279,0.3778763044171035
1775721973624490000,4.307489990234375,-0.7024573642373084,-0.0567128710206598,0.346573111397773
1775721973634503000,4.3175029296875,-0.4932341835647821,-0.03611165274698287,0.300151953821443
1775721973644516000,4.32751611328125,-0.2948416089862585,-0.0898043722288683,0.21641259898627174
1775721973654529800,4.33752978515625,-0.18722411483228205,-0.13739797111805527,0.12690293538765982
1775721973664543000,4.34754296875,-0.24870295814573765,-0.13839465400520712,0.056888976506236935
1775721973674556000,4.357555908203125,-0.4589665877819061,-0.15115147892143577,0.0005494505763053894
1775721973684568800,4.36756884765625,-0.667513476628065,-0.16472046047076583,-0.08244831037763506
1775721973694582000,4.37758203125,-0.8832494001954794,-0.1653394326193258,-0.1397581974433735
1775721973704595000,4.387594970703125,-1.0849994685083626,-0.24171050544250755,-0.1389083026157692
1775721973714609000,4.39760888671875,-1.0510247181922197,-0.279818958029896,-0.15184925192724913
1775721973724622000,4.4076220703125,-0.9004875352442264,-0.2022255038049072,-0.1378497700061649
1775721973734634800,4.417634765625,-0.8152040379732847,-0.1623070426534861,-0.13137220802251248
1775721973744648000,4.42764794921875,-0.7370552148878574,-0.17851495787166058,-0.15010555006507784
1775721973754660900,4.437660888671875,-0.8393260873168706,-0.17839129495937375,-0.13304368489868937
1775721973764674800,4.4476748046875,-1.0284043055832386,-0.1697281690975651,-0.09203205821570008
1775721973774688000,4.45768798828125,-1.1165618969857691,-0.07567706267703324,0.0332305808853358
1775721973784701000,4.467700927734375,-1.1320049653112887,0.09475092525295913,0.1714765106022358
1775721973794713900,4.4777138671875,-0.918769041866064,0.2185423958228901,0.25555567358471454
1775721973804726800,4.487726806640625,-0.6444622713863849,0.2818105702385306,0.2725358152844012
1775721973814739700,4.49773974609375,-0.5721703576356172,0.2666807508469559,0.21887761912662534
1775721973824753000,4.5077529296875,-0.725754068672657,0.22019862033100798,0.15978490376472473
1775721973834766800,4.517766845703125,-0.9350970763325691,0.20626360021457074,0.14264997336212545
1775721973844779800,4.52777978515625,-1.1982710429012775,0.19736812690161168,0.13403594733905047
1775721973854793000,4.53779296875,-1.178782498577237,0.2685843925111927,0.1393477169463411
1775721973864805600,4.5478056640625,-1.0202186610400676,0.3852548338284716,0.18915899188499896
1775721973874818800,4.55781884765625,-0.8472562957942485,0.4463311972882598,0.2434113180110231
1775721973884832800,4.567832763671875,-0.7092384026795625,0.467766345635429,0.2892250842787325
1775721973894845700,4.577845703125,-0.6169593474328517,0.485954401820153,0.2688184021964669
1775721973904859000,4.58785888671875,-0.5737649333506822,0.5443931467853487,0.16479754429496823
1775721973914871800,4.597871826171875,-0.6563052693933248,0.6406297805514186,0.046094738633558154
1775721973924884700,4.607884765625,-0.9197989694356917,0.6794293937407434,0.012654825846478342
1775721973934898000,4.61789794921875,-1.0741548338890075,0.6924224385656416,0.04633815546799451
1775721973944911600,4.62791162109375,-1.1746300550729036,0.6476229273743928,0.12135576785560696
1775721973954924800,4.6379248046875,-1.1617571294963358,0.6042971419975162,0.21471973226219415
1775721973964937700,4.647937744140625,-0.9772639009326696,0.5400718495201319,0.304312544099614
1775721973974951000,4.657950927734375,-0.845879162222147,0.525244173146598,0.2950488219961524
1775721973984963800,4.6679638671875,-0.6747352445751428,0.5050228941012174,0.31616814585980024
1775721973994976800,4.677976806640625,-0.3722334762245416,0.49237058900538827,0.29959052054639906
1775721974004990700,4.68799072265625,-0.10213818596005439,0.4841221814243123,0.22436686419267207
1775721974015003600,4.698003662109375,0.06378419764637946,0.5200309320103377,0.15671769821383058
1775721974025016800,4.708016845703125,0.23580606717169283,0.5581248446157202,0.21845921105146407
1775721974035030000,4.718030029296875,0.23359248277544975,0.5437866687921807,0.3227425558140501
1775721974045042700,4.728042724609375,0.4376724553406238,0.4576226623596623,0.3508187130782753
1775721974055056000,4.738055908203125,0.683643942695856,0.45779820158965884,0.2496997140981257
1775721974065069800,4.74806982421875,0.8329337559312582,0.44917661331463604,0.03534516188651323
1775721974075082800,4.758082763671875,0.9016384588450193,0.35666532021462916,-0.08947970685176551
1775721974085096000,4.768095947265625,0.866179607450962,0.23228041379619388,-0.036924357369355856
1775721974095108900,4.77810888671875,0.7319803958415985,0.15227002548943272,0.17433058485910297
1775721974105121800,4.788121826171875,0.595466477549076,0.16645526664042845,0.3396312563706189
1775721974115134700,4.798134765625,0.4800023615479469,0.20435405853250993,0.3176278431488201
1775721974125148700,4.808148681640625,0.5192781408816576,0.23390304656196384,0.16381854319497943
1775721974135161900,4.818161865234375,0.6292594415575266,0.2034302582184784,-0.008847761713713407
1775721974145174800,4.8281748046875,0.6523731906414032,0.14180965008046478,-0.1789977364199236
1775721974155188000,4.83818798828125,0.5746458078384399,0.15447448586430398,-0.2630104831026867
1775721974165200600,4.84820068359375,0.38882337649762627,0.18218111569639295,-0.2718326719837263
1775721974175213800,4.8582138671875,0.03864566473662853,0.2655794202752411,-0.23793142529521136
1775721974185227800,4.868227783203125,-0.3021165684252977,0.33568566054999827,-0.21509828325100241
1775721974195240700,4.87824072265625,-0.6091226624578238,0.306550020828098,-0.23351338965725152
1775721974205254000,4.88825390625,-0.9189408913016319,0.2043487065039575,-0.2841374422835186
1775721974215266800,4.898266845703125,-1.0177344430088997,0.09236583848102017,-0.3496818180028349
1775721974225279700,4.90827978515625,-0.8565379188805818,0.003698733503639232,-0.47040418332573025
1775721974235293000,4.91829296875,-0.6906225495368242,-0.03479856085442006,-0.500792197728902
1775721974245306600,4.928306640625,-0.4572451708167791,-0.07371023328320589,-0.38836142154168335
1775721974255319800,4.93831982421875,-0.1822591859012842,-0.09017680400414392,-0.1300667514471337
1775721974265332700,4.948332763671875,-0.00964344213604927,-0.14893546510608865,0.04721197916045785
1775721974275346000,4.958345947265625,0.1487310103088617,-0.2891831813657656,0.03405208986867219
1775721974285358800,4.96835888671875,0.12374620665609835,-0.3645898296035826,-0.07407521697096527
1775721974295371800,4.978371826171875,0.02103051306903362,-0.3444799750434235,-0.17728395477198064
1775721974305385700,4.9883857421875,-0.07038228073716163,-0.21798494460321963,-0.20276052399706093
1775721974315398700,4.998398681640625,-0.0656172582924366,-0.15341257398752495,-0.19659692333340645
1775721974325411800,5.008411865234375,-0.014198036700487136,-0.15722526414347812,-0.16557243765760213
1775721974335425000,5.018425048828125,0.018096213182806967,-0.2340297416815534,-0.10054382944069802
1775721974345437700,5.028437744140625,0.07281856797337531,-0.33292803240492935,-0.016088709285296498
1775721974355451000,5.038450927734375,0.12751228119134903,-0.38131643493361767,0.0775318967634812
1775721974365464600,5.048464599609375,-0.11480535983145236,-0.392180870231986,0.1925312082644552
1775721974375477800,5.058477783203125,-0.11032967572212218,-0.3177021139614284,0.1892361853070557
1775721974385491000,5.068490966796875,-0.1687619909465313,-0.1172365325011313,0.08800762500520795
1775721974395503900,5.07850390625,-0.30488194148540493,0.1294051822658628,-0.1086717524472624
1775721974405516800,5.088516845703125,-0.20956454145610331,0.28802374566495414,-0.3157422120653093
1775721974415529700,5.09852978515625,0.09054127166867255,0.30161674741068856,-0.41444019444361324
1775721974425543700,5.108543701171875,0.4601256946891546,0.2475988328287378,-0.4582843046061694
1775721974435556900,5.118556884765625,0.7400994048893451,0.2638409425774589,-0.5784191888973117
1775721974445569800,5.12856982421875,0.6877391030550003,0.40835060886424035,-0.6836377321507782
1775721974455583000,5.1385830078125,0.6465373240947723,0.4458968609916046,-0.5592404411748051
1775721974465595600,5.148595703125,0.6257219150811434,0.33051169197820124,-0.30041750942245127
1775721974475608800,5.15860888671875,0.6243289994180202,0.10026801730715669,-0.13973039612099528
1775721974485622800,5.168622802734375,0.5685299553066492,-0.03547043680057395,-0.03642565059959888
1775721974495635700,5.1786357421875,0.3998801925629377,-0.05954503483981825,0.06351867857798933
1775721974505649000,5.18864892578125,0.2500011812627315,0.04103646429672372,0.09138999745249747
1775721974515661800,5.198661865234375,0.21345921080708502,0.12630504255974664,0.013685630198940634
1775721974525674800,5.2086748046875,0.25018589017987247,0.07751799610229208,-0.0387635920278728
1775721974535687700,5.218687744140625,0.47354222562313075,-0.09845883986018597,-0.0018228315129876136
1775721974545701600,5.22870166015625,0.696104195818305,-0.3084919486761093,0.07149769463315606
1775721974555714800,5.23871484375,0.6476245348095894,-0.3593591989411041,0.12214900059252977
1775721974565727700,5.248727783203125,0.47005672159492967,-0.23590894302427767,0.10281024000272154
1775721974575741000,5.258740966796875,0.2935468930006027,-0.03637851438908837,0.19400887960158286
1775721974585753900,5.26875390625,0.10875438922941684,0.1570382536713965,0.2905424504876137
1775721974595766800,5.278766845703125,0.18706044870316982,0.23892220816453918,0.3092299075618386
1775721974605780700,5.28878076171875,0.26795886275768277,0.24639709235616028,0.29625432532839474
1775721974615793700,5.298793701171875,0.19839900431931018,0.18438216940462587,0.2502636315912008
1775721974625806800,5.308806884765625,0.1980535518825054,0.058959923861664716,0.2771658131726086
1775721974635820000,5.318820068359375,0.2394628361135721,-0.1341184745233506,0.33435441194623705
1775721974645832700,5.328832763671875,0.19847031598985193,-0.4243827656567096,0.30776611861959097
1775721974655846000,5.338845947265625,0.16269465373158454,-0.6149660547237843,0.04842405836395919
1775721974665859600,5.348859619140625,0.14875906735956668,-0.5345660186454654,-0.3802944714747369
1775721974675872800,5.358872802734375,0.12359072383344173,-0.2938732023455202,-0.592784325793013
1775721974685886000,5.368885986328125,0.17273323266506194,-0.039645946086663754,-0.45690885153450067
1775721974695899000,5.37889892578125,0.34299627582430836,0.05756464727809652,-0.14367409224547445
1775721974705911800,5.388911865234375,0.6235626912206411,-0.03964563555940986,0.17953005319833754
1775721974715924700,5.3989248046875,0.9614256958097219,-0.23659067821074276,0.502535753460601
1775721974725938700,5.408938720703125,1.1851426812589168,-0.4945221775487065,0.6939549818951636
1775721974735952000,5.418951904296875,1.3072346909672021,-0.76152615073435,0.6620098377104848
1775721974745964800,5.42896484375,1.3155834171175955,-0.8341577447682619,0.5699353285925463
1775721974755978000,5.43897802734375,1.259348904198408,-0.6824683230452239,0.40463169793896375
1775721974765990700,5.44899072265625,1.329411451461911,-0.4342205247884616,0.14082443843539805
1775721974776003800,5.45900390625,1.407353938320279,-0.24978454283736645,-0.08408109921123832
1775721974786017000,5.46901708984375,1.429193429684639,-0.20345910072047263,-0.20819511626642195
1775721974796030000,5.479030029296875,1.4811352138459681,-0.2334369999527931,-0.2703793679028749
1775721974806043100,5.489043212890625,1.6316893479287624,-0.33815226985923946,-0.18728158064056186
1775721974816056000,5.49905615234375,1.7237731728643177,-0.45846338750012217,-0.03872143338657915
1775721974826069000,5.509069091796875,1.6522902374088764,-0.5057329420667142,0.04592858828641474
1775721974836083000,5.5190830078125,1.4919219807982445,-0.46286556798182427,0.07763126548472792
1775721974846096100,5.52909619140625,1.241324002686143,-0.37235344934239983,0.06236680512912571
1775721974856109000,5.539109130859375,0.9613625674456358,-0.2803669838340953,0.058977966408431524
1775721974866122000,5.5491220703125,0.7531494405984878,-0.19237437373492866,0.02518021662700921
1775721974876135200,5.55913525390625,0.4961579620569944,-0.14249354069139808,-0.07871179073043168
1775721974886148000,5.569148193359375,0.35504093388319014,-0.09460161644276231,-0.18184074129350483
1775721974896161000,5.5791611328125,0.35716216382086274,-0.10393537157513201,-0.22278730338364838
1775721974906175200,5.58917529296875,0.34354105022549625,-0.16591434643045067,-0.146831204569526
1775721974916188000,5.59918798828125,0.29658523778319357,-0.2429286855932325,-0.04316708768382668
1775721974926201000,5.609201171875,0.19443185425400733,-0.3013251257866621,0.0901621361579746
1775721974936214000,5.619214111328125,0.03618015140593052,-0.2956665155030787,0.23280882158447055
1775721974946227200,5.629227294921875,-0.19961247176229951,-0.25319044229071586,0.35299872399847954
1775721974956241200,5.6392412109375,-0.4913701432585716,-0.20803232692014426,0.4218447716116905
1775721974966254000,5.649254150390625,-0.6951818202763795,-0.10414839327130467,0.35090405327416957
1775721974976267000,5.65926708984375,-0.5311790065556764,0.07191259557697921,0.23440401835404334
1775721974986280000,5.669280029296875,-0.23919512508809565,0.1872130819816142,0.12700283383186906
1775721974996293000,5.679293212890625,-0.05416179829835891,0.17368308073580263,0.0762763072118163
1775721975006306000,5.68930615234375,-0.044319618719816205,0.04198730331473052,0.11779380105771124
1775721975016320000,5.699320068359375,-0.03356090881824493,-0.02918199961427599,0.19379421393759547
1775721975026333200,5.709333251953125,-0.06625847880542278,-0.030775077491998672,0.2418890038145706
1775721975036345900,5.719345947265625,-0.10940437757074832,-0.03586012567132711,0.23411106328945605
1775721975046359000,5.729359130859375,-0.10864099198281764,-0.019103965453244744,0.23358861031793057
1775721975056372200,5.739372314453125,-0.001623217287659645,-0.020406535951793193,0.2680557107282802
1775721975066385200,5.74938525390625,0.17874854743182658,0.0066145227689296,0.26373642275705933
1775721975076399000,5.759399169921875,0.2808861488699913,0.03577273964881897,0.1422918441068381
1775721975086412000,5.769412109375,0.3082020258188248,0.029682971406355497,-0.05670991187859326
1775721975096425000,5.779425048828125,0.26898119154274464,-0.019600407200679182,-0.20377287937738
1775721975106438100,5.789438232421875,0.18707973792552948,-0.07810319384541362,-0.19675642474405466
1775721975116451000,5.799451171875,0.0829582691937685,-0.1376309761563316,-0.08386095365453511
1775721975126464300,5.80946435546875,0.02300911966562271,-0.18658596305921674,0.013699804854765534
1775721975136478000,5.81947802734375,-0.009052490505576133,-0.1558131505895406,0.04939531454890966
1775721975146491100,5.8294912109375,-0.09574819266200064,-0.1215970292655751,0.05414093817342072
1775721975156504000,5.839504150390625,-0.049022097322344776,-0.12181582311540841,0.03913282719906419
1775721975166517000,5.84951708984375,0.13284253630340098,-0.1464180206587538,-0.06317249548882245
1775721975176530200,5.8595302734375,0.22515958547294138,-0.1740553846469149,-0.19029234329648315
1775721975186543000,5.869543212890625,0.26555998492240906,-0.21222331233657896,-0.3201790254689753
1775721975196557000,5.87955712890625,0.358176309299469,-0.2155897200297564,-0.3602263736970722
1775721975206570200,5.8895703125,0.3718921154409647,-0.16275281365960836,-0.3596799553280696
1775721975216583000,5.8995830078125,0.3873807764738798,-0.16224745795335618,-0.33737467308286573
1775721975226596000,5.90959619140625,0.4480786985427141,-0.18616759151667356,-0.3150530242247507
1775721975236609000,5.919609130859375,0.555680410605669,-0.22824191552773115,-0.2773643679520115
1775721975246622200,5.929622314453125,0.5903092409163713,-0.3139210975853726,-0.23062596112005412
1775721975256635000,5.939634765625,0.510920062381029,-0.43158327162005006,-0.26523871707879004
1775721975266649000,5.949649169921875,0.35218846706151963,-0.5375273892017081,-0.29632775589078664
1775721975276662000,5.959662109375,0.122786421713233,-0.578422805626504,-0.23389424220100044
1775721975286675000,5.969675048828125,-0.029912323182821273,-0.573551728991419,-0.08616966898832469
1775721975296688000,5.979688232421875,0.024391513934731483,-0.5031050412485376,0.017528898156248033
1775721975306701000,5.989701171875,0.2250976261526346,-0.4213515447346493,0.022642039918899536
1775721975316715000,5.999715087890625,0.4973088856577873,-0.3822550674906,-0.03694127197153866
1775721975326728200,6.009728271484375,0.7408353179484606,-0.3845951278107241,-0.1541024011489004
1775721975336740900,6.019740966796875,0.9963929642945527,-0.38791378737203774,-0.26668657779954374
1775721975346754000,6.029754150390625,1.084508470121026,-0.3875189793681726,-0.2806302013475448
1775721975356767000,6.03976708984375,1.0331342567145825,-0.48117776200287043,-0.14889982753712683
1775721975366780200,6.0497802734375,0.8836983130067586,-0.539872235294804,-0.022978213070705533
1775721975376794000,6.059794189453125,0.6685480803728103,-0.5513658718748018,0.057097632554545995
1775721975386807000,6.06980712890625,0.5036527017265557,-0.5732175286009907,0.028510785821825264
1775721975396820000,6.079820068359375,0.41552024476528165,-0.5777554642915725,-0.013693375113978981
1775721975406833000,6.0898330078125,0.3853706056952476,-0.554151337874867,-0.02350625553280115
1775721975416846000,6.09984619140625,0.46296354846358295,-0.5164372548999264,0.0019958134597167373
1775721975426859300,6.109859375,0.5093342544943094,-0.46628633621074256,0.08357903144061565
1775721975436872000,6.119871826171875,0.5375964723825455,-0.4754834958840161,0.16232286127712578
1775721975446886100,6.12988623046875,0.700800244680047,-0.495424825476855,0.16672906034681945
1775721975456899000,6.139899169921875,0.8473352062493562,-0.47341231563314795,0.11477960433568805
1775721975466912000,6.149912109375,1.0649567974328995,-0.4213723683269694,-0.025009828496165572
1775721975476925200,6.15992529296875,1.3465151464760303,-0.41319337272029366,-0.14011961463429032
1775721975486938000,6.169938232421875,1.5269582228660583,-0.47488151140287516,-0.18370324722975492
1775721975496952000,6.1799521484375,1.5831424669027327,-0.5788731432098895,-0.17680859234519303
1775721975506965200,6.18996533203125,1.4450690442085266,-0.6298020240016281,-0.2107701178535819
1775721975516978000,6.19997802734375,1.2230524329364298,-0.6084296752249821,-0.21791290228031573
1775721975526991000,6.2099912109375,1.0140753359794616,-0.5627615645056591,-0.016013050233200193
1775721975537004000,6.220004150390625,0.8958785801440476,-0.5218892366955057,0.3328829511541873
1775721975547017200,6.230017333984375,0.9045897098660468,-0.414127146439068,0.6315741482406855
1775721975557030000,6.24002978515625,1.1173539241462944,-0.2873717480296269,0.6593459522634745
1775721975567044000,6.250044189453125,1.521568931043148,-0.11958572597578167,0.4513919147439301
1775721975577057000,6.26005712890625,1.8686387399166822,0.024690277685597537,0.11487805974148213
1775721975587070000,6.270070068359375,1.9554191977471111,0.11017360837757587,-0.19059563709199429
1775721975597083100,6.280083251953125,2.0970769086688756,0.13674714252650738,-0.38363859427087005
1775721975607096000,6.290095947265625,2.236364383327961,0.20835816134102642,-0.4636413746599108
1775721975617109000,6.30010888671875,2.2434429434120653,0.25511881653741003,-0.3671820380538702
1775721975627123200,6.310123291015625,2.2300001089930532,0.16204663815163076,-0.16572846846953032
1775721975637136000,6.320135986328125,2.180963983145356,-0.012256254982948302,-0.0046361353680491445
1775721975647149000,6.330149169921875,1.9884856010466814,-0.10387027044966816,0.07884184685088694
1775721975657162000,6.340161865234375,1.626633818104863,-0.07913030840344727,0.1348725808262825
1775721975667175200,6.350175048828125,1.4117401905804872,0.04135623886957764,0.10753821837268769
1775721975677188000,6.36018798828125,1.285593352523446,0.1729503825470805,0.10602781380973755
1775721975687202000,6.3702021484375,1.1582932527780532,0.26618513108342884,0.055732262485474346
1775721975697215000,6.380215087890625,1.1432698711693285,0.3001534516587853,-0.03166559659093618
1775721975707228000,6.390227783203125,1.445648305401206,0.41067558121308684,-0.10706446338109671
1775721975717241000,6.400240966796875,1.718664451548457,0.575658857338503,-0.1969686792552471
1775721975727254300,6.410254150390625,1.7814029395341873,0.6452531295031309,-0.22227555446922778
1775721975737267000,6.420266845703125,1.7496008570820092,0.6741583945352584,-0.12775624601505697
1775721975747281200,6.43028125,1.494628901669383,0.7133348782129585,0.07509579219035804
1775721975757293800,6.4402939453125,1.1885878532767296,0.8105044819802045,0.35109855293296277
1775721975767307000,6.45030712890625,0.9188017750918864,1.0774323942549526,0.5343705691386014
1775721975777320200,6.4603203125,0.6389589977949858,1.452705238175392,0.5062942292112856
1775721975787333400,6.47033349609375,0.3460714454859495,1.851326078327,0.4722225213266909
1775721975797346300,6.48034619140625,0.09962707992196082,2.165701385953277,0.457669679839164
1775721975807360300,6.4903603515625,-0.36033436411619185,2.4431106524929405,0.3651163376957178
1775721975817373200,6.500373291015625,-0.8607289408296346,2.5064845157727595,0.405223380221799
1775721975827386000,6.51038623046875,-1.8572627748996018,2.5684309765979645,0.3184536629810929
1775721975837399300,6.5203994140625,-2.7210055105924607,2.63066589897573,0.44451925249546764
1775721975847412200,6.530412109375,-3.594346095713973,2.4197585646085438,0.5735185573741793
1775721975857425200,6.540425048828125,-5.009537888053059,2.387109363807738,0.6772237734552472
1775721975867439400,6.550439453125,-5.713323286023735,2.3488009682014583,0.7457648102398962
1775721975877452300,6.560452392578125,-5.626913999593258,2.216712465135753,0.712268637220934
1775721975887465200,6.57046533203125,-5.251078699484467,1.9194011050350963,0.6061384590152651
1775721975897478400,6.580478515625,-4.728156064620614,1.4209922953113914,0.46082032588981087
1775721975907491300,6.5904912109375,-4.025252125659585,0.8441413786441088,0.3763087628394365
1775721975917504300,6.600504150390625,-3.3666853410750623,0.3463340419448912,0.2775275591570884
1775721975927518500,6.6105185546875,-2.8516905766010283,0.045269521589484066,0.20036891615279018
1775721975937531100,6.62053125,-2.4908488474845885,-0.20082491629198193,0.18000724225603043
1775721975947544300,6.63054443359375,-2.18481715144217,-0.49693055386468765,0.2221967901445925
1775721975957557200,6.64055712890625,-1.9696429534107445,-0.8635065888494252,0.29750176810622214
1775721975967570400,6.6505703125,-1.842448652127385,-1.2493683390624821,0.3116269587662071
1775721975977583000,6.6605830078125,-1.8402467581689357,-1.5877271643444895,0.3195929692093283
1775721975987597300,6.670597412109375,-2.006462571763992,-1.8209994752548635,0.3399024014621973
1775721975997610200,6.6806103515625,-1.9719179126054047,-1.9802581631883978,0.3533883078379556
1775721976007623200,6.690623046875,-1.7561141844987869,-2.0181220298975706,0.33904932829681783
1775721976017636400,6.70063623046875,-1.5089818366706371,-1.928239952789992,0.30603582422826436
1775721976027649300,6.710649169921875,-1.3273679629355668,-1.8116732823744415,0.3016862507166341
1775721976037662200,6.720662109375,-1.0988993990451097,-1.7135145214393734,0.260266445091553
1775721976047676400,6.730676513671875,-0.7670078700810671,-1.6187481794215737,0.1535036315381527
1775721976057689000,6.740689208984375,-0.5402414339333772,-1.4736559640064835,0.02027615103777498
1775721976067702300,6.750702392578125,-0.4937018010765314,-1.300817517401278,-0.15724785956777632
1775721976077715200,6.760715087890625,-0.3912982421785593,-1.1058994870655239,-0.29766704167053104
1775721976087728400,6.770728271484375,-0.1923112088382244,-0.8998402503166347,-0.41795528989247976
1775721976097741300,6.7807412109375,-0.13155951075553893,-0.684472210213542,-0.5371005420917645
1775721976107755300,6.79075537109375,-0.06749766521155834,-0.4648724142922088,-0.5743359747042879
1775721976117768200,6.800768310546875,0.07120879468917846,-0.24440204608142374,-0.5085268471015617
1775721976127781000,6.810781005859375,0.12968845618665217,-0.023774624145403503,-0.4376282508727163
1775721976137794300,6.820794189453125,0.24352292515933513,0.15168533006981014,-0.4360464615739882
1775721976147807200,6.83080712890625,0.3537491405069828,0.3382762250324711,-0.45311110321935266
1775721976157820200,6.840820068359375,0.3927355815052986,0.49978214390352366,-0.44735820224843914
1775721976167834400,6.85083447265625,0.22216975600719452,0.598202661047317,-0.3585424391981214
1775721976177847000,6.860846923828125,0.11420154871940612,0.64140587949045,-0.27644743577018377
1775721976187860200,6.870860107421875,0.1805038666665554,0.7241219374261796,-0.23595301962802184
1775721976197873400,6.880873291015625,0.33215164120495316,0.8789369438238441,-0.14058167918808756
1775721976207886300,6.89088623046875,0.516188942694664,1.0389985456380992,-0.06532762769609689
1775721976217899300,6.900899169921875,0.5776578491359948,1.0906897160392255,0.03288432473093271
1775721976227913200,6.910913330078125,0.5612900671809912,1.0705009144913404,0.13741187177924438
1775721976237926100,6.920926025390625,0.54027358263731,1.0242477704256772,0.23254880067510528
1775721976247939300,6.930939208984375,0.41215106059312817,0.9374581063754857,0.287313916895166
1775721976257952300,6.9409521484375,0.18746552237272263,0.8091660729832947,0.34169001553133127
1775721976267965400,6.95096533203125,-0.10196575200259685,0.6625516895022243,0.38921683279462155
1775721976277978000,6.96097802734375,-0.2982575549095869,0.5312911616932601,0.3989727953944355
1775721976287992300,6.970992431640625,-0.49699967357814306,0.43990967634078115,0.3747683649970218
1775721976298005200,6.981005126953125,-0.5172808295845985,0.34773068393506107,0.33677634186353533
1775721976308018200,6.99101806640625,-0.3452367482274771,0.21350164344301445,0.33025000883471217
1775721976318031400,7.00103125,-0.13159750467836856,0.006805204769130796,0.31459154419284313
1775721976328044300,7.011044189453125,0.02885316951870918,-0.14885220726942644,0.3144835172411054
1775721976338057200,7.02105712890625,-0.017129998499155044,-0.2891039238507859,0.30883195775281636
1775721976348071400,7.031071533203125,-0.23611995542645453,-0.47606516822949047,0.36384376047663386
1775721976358084000,7.041083984375,-0.3982598978847265,-0.5953452257895842,0.3272325972422957
1775721976368097300,7.05109716796875,-0.5391437018245459,-0.6738339118212461,0.23090755454041062
1775721976378110200,7.061110107421875,-0.6132815357029437,-0.7146483719643205,0.1097370435912162
1775721976388123400,7.071123291015625,-0.6241098037093877,-0.7622502272251993,-0.005655139684863388
1775721976398136000,7.081135986328125,-0.6714280197232961,-0.7803066929195076,-0.14533957777228207
1775721976408150300,7.091150390625,-0.8162205215394497,-0.7575812125008553,-0.25074180702958254
1775721976418163200,7.1011630859375,-0.7243512161374092,-0.6723062638625502,-0.3041391602940857
1775721976428176100,7.111176025390625,-0.5003220959991216,-0.5672003872033208,-0.32589681859388947
1775721976438189300,7.121189208984375,-0.3608206863284111,-0.46169484370201824,-0.3084455887837335
1775721976448202500,7.131202392578125,-0.20622867503166198,-0.3381870489116758,-0.2618118479026481
1775721976458215200,7.141215087890625,-0.020306290447711945,-0.17659549758378415,-0.24076522394903002
1775721976468229400,7.1512294921875,0.14378537060022353,-0.060852199315093454,-0.2524588400805369
1775721976478242000,7.161241943359375,0.14677052389085293,0.079038374069985,-0.23977109834514557
1775721976488255200,7.171255126953125,0.15332301427423953,0.164869897145126,-0.21953940750360487
1775721976498268400,7.181268310546875,0.25414018076360223,0.23101187343141064,-0.15507917375918476
1775721976508281300,7.19128125,0.3685790453702211,0.3024898952497169,-0.08625632435847073
1775721976518294300,7.201294189453125,0.35828619941473006,0.36427692772950976,-0.027646022218652068
1775721976528307200,7.21130712890625,0.4191261603027582,0.4092502245850861,0.06185779616106301
1775721976538321200,7.221321044921875,0.5139239203721284,0.47981239193379877,0.10775354162380099
1775721976548334300,7.231334228515625,0.5285165093481541,0.5303136584306135,0.11000263572484255
1775721976558347300,7.24134716796875,0.5507581517726182,0.5378134030688554,0.1323066027957946
1775721976568360400,7.2513603515625,0.5821481462925672,0.539495547469519,0.20528211489655077
1775721976578373000,7.261373046875,0.5046639245957136,0.5516286144642158,0.2568456037973985
1775721976588386300,7.27138623046875,0.287725639501214,0.5407608546975999,0.31288525173161175
1775721976598400300,7.281400146484375,0.18552958587408064,0.48450402034875,0.3057477645345032
1775721976608413200,7.2914130859375,0.20998890434801576,0.4363024821616709,0.2479776030132547
1775721976618426400,7.30142626953125,0.2982090395927429,0.42212048328053203,0.1336203888081014
1775721976628439300,7.311439208984375,0.42022623049914837,0.4376752683522179,0.03705134474989027
1775721976638452200,7.3214521484375,0.5228787957221269,0.4208893705829978,-0.03290200651809573
1775721976648465200,7.331465087890625,0.5007856218576431,0.36543073740713294,-0.027094197022169825
1775721976658479000,7.34147900390625,0.3659188862502575,0.2885508565452881,-0.004153612548112869
1775721976668492300,7.3514921875,0.21047347299456595,0.20379386736648156,0.01246065498124808
1775721976678505200,7.361505126953125,0.07590367450714111,0.1546826304559596,0.003592325403541326
1775721976688518400,7.371518310546875,0.022227613899111747,0.09510943810073658,-0.023283771888539195
1775721976698531000,7.381531005859375,-0.007409983995556831,0.02094908186327666,-0.041228630434535445
1775721976708544300,7.391544189453125,-0.09693769470751284,-0.05768151512341573,-0.033109219527989626
1775721976718558200,7.40155810546875,-0.22341478763222694,-0.15089598805671556,-0.014329517593048511
1775721976728571100,7.411571044921875,-0.26068916401565073,-0.2063158783910796,-0.016854652156494558
1775721976738584300,7.421584228515625,-0.10870528939068316,-0.24429420179277658,-0.01968775669056922
1775721976748597200,7.43159716796875,-0.027854806131124496,-0.2874671346955001,-0.05019223708026111
1775721976758610200,7.441610107421875,-0.0027332243561744686,-0.2894630394867621,-0.06111797411181032
1775721976768623400,7.451623291015625,0.03877952024936676,-0.31079978722706436,-0.016857830494269727
1775721976778637000,7.461636962890625,0.012301847690343856,-0.33940906498730183,0.04730038809627294
1775721976788650500,7.471650390625,-0.0951408744186163,-0.326974494295381,0.07948171565700322
1775721976798663700,7.48166357421875,-0.20856150189340114,-0.30581339538292956,0.12830639071110636
1775721976808676600,7.491676513671875,-0.28812311438620086,-0.3056084656616673,0.12030527242198585
1775721976818689500,7.501689453125,-0.2837093895971775,-0.32882446954362093,0.12575469693429767
1775721976828702500,7.511702392578125,-0.28540041142404077,-0.3175347945705056,0.10868015494942665
1775721976838716400,7.52171630859375,-0.2423345921576023,-0.297299669662863,0.07943791304789483
1775721976848729600,7.5317294921875,-0.3002700637757778,-0.2621174067204818,0.06444218663107604
1775721976858742500,7.541742431640625,-0.48026247378885745,-0.23929390928745267,0.020957447832822797
1775721976868755500,7.55175537109375,-0.433216644975543,-0.20225630080197005,-0.006463971849717199
1775721976878768400,7.561768310546875,-0.37400633111596104,-0.1449447697684169,0.03595569500029087
1775721976888781600,7.571781494140625,-0.2912731028497219,-0.08058993262723088,0.04465864141583442
1775721976898795500,7.58179541015625,-0.16890344524383544,-0.029691994963027536,0.04326192636042833
1775721976908808400,7.591808349609375,-0.06004559563994407,0.015685462246648966,0.025160854339413345
1775721976918821600,7.601821533203125,0.02866027729511261,0.0636372269237414,-0.009769260472804308
1775721976928834600,7.61183447265625,0.003339373555779457,0.13181728490889072,-0.0513067376608029
1775721976938847500,7.621847412109375,-0.11399170536100864,0.19455730726458131,-0.10279095078036188
1775721976948860400,7.6318603515625,-0.16871932084858415,0.22192411068305373,-0.1406222303941846
1775721976958873600,7.64187353515625,-0.20894377920925616,0.24925869233235715,-0.16712792347129432
1775721976968887600,7.651887451171875,-0.2557020232528448,0.2583267822658643,-0.18996314787473528
1775721976978900500,7.661900390625,-0.19884148738980292,0.24964020246323196,-0.15761756966300308
1775721976988913700,7.67191357421875,-0.12772329359352588,0.21318580069318413,-0.10026713139116764
1775721976998926300,7.68192626953125,-0.08402268355488776,0.16751202741805463,-0.08888725738395005
1775721977008939500,7.691939453125,-0.10158990442752837,0.1255233358638361,-0.09125884535349905
1775721977018952700,7.70195263671875,-0.19230185648798942,0.12411668393630533,-0.08260711766853929
1775721977028966400,7.71196630859375,-0.41084056251645085,0.09412165090609341,-0.03896773629784584
1775721977038979600,7.7219794921875,-0.5599526810973883,0.05758413742985576,0.05099781784210354
1775721977048992500,7.731992431640625,-0.593918663585186,0.002098689312301576,0.16583638582341373
1775721977059005400,7.74200537109375,-0.6485661995738744,-0.04221705694999545,0.27137393189817666
1775721977069018600,7.7520185546875,-0.6891787804692984,-0.05077869519870728,0.2860622363336384
1775721977079031600,7.762031494140625,-0.8511386901855468,-0.04916523212008178,0.23014343830011783
1775721977089045500,7.77204541015625,-0.8779688294440507,-0.059347639971040186,0.16850929482709615
1775721977099058400,7.782058349609375,-0.9498124149054288,-0.06841514538265764,0.1072722974454984
1775721977109071600,7.792071533203125,-0.9899702377706766,-0.10175726035106926,0.08661149447169154
1775721977119084500,7.80208447265625,-0.9331710767060518,-0.0878452375177294,0.09816814981792121
1775721977129097500,7.812097412109375,-0.7719231146514415,-0.06099661275446414,0.12449929004572331
1775721977139110700,7.822110595703125,-0.6685241149753332,-0.021563414369337258,0.14230031967423856
1775721977149124600,7.83212451171875,-0.6994254491955042,0.029019210267998276,0.10667097055148332
1775721977159137500,7.842137451171875,-0.6790858410000801,0.07877944913916289,0.10523096434362232
1775721977169150500,7.852150390625,-0.6639467240571976,0.1649822897447273,0.1531953327739611
1775721977179163400,7.862163330078125,-0.6577180588006973,0.20828383572949094,0.17525763657614588
1775721977189176600,7.872176513671875,-0.5718114611953496,0.2681714277961291,0.14751469332166015
1775721977199189500,7.882189453125,-0.43739597648680206,0.3531786471426487,0.09593315730746835
1775721977209203500,7.892203369140625,-0.3430558970570564,0.4314313689939677,0.029912688509002326
1775721977219216600,7.902216552734375,-0.286218742069602,0.4704160564266145,0.023556305219605563
1775721977229229600,7.9122294921875,-0.2914110500156879,0.45084494838565586,0.057864123415015636
1775721977239242500,7.922242431640625,-0.3336106078416109,0.43712563511282204,0.14437164605557917
1775721977249255400,7.93225537109375,-0.3762865510076284,0.370661550732702,0.2069735385822132
1775721977259268600,7.9422685546875,-0.3693640582680702,0.29670184990018605,0.18304295669011772
1775721977269282600,7.952282470703125,-0.38526422271132466,0.28046744853388517,0.1327785311564803
1775721977279295500,7.96229541015625,-0.3851894039094448,0.24356064508752895,0.08041735253930091
1775721977289308700,7.97230859375,-0.33965631774663924,0.23610198137834668,0.05530760733261704
1775721977299321300,7.9823212890625,-0.36560032182037827,0.2126951858983375,0.0349297860186547
1775721977309334500,7.99233447265625,-0.2795090152978897,0.13553818686185404,0.0177163470197469
1775721977319347700,8.00234765625,-0.13993278682529925,0.09275408887993544,-0.03298296279981732
1775721977329361400,8.012361328125,-0.05016425309479236,0.06619449192481115,-0.09681238782741129
1775721977339374600,8.02237451171875,-0.01681903285384178,0.03547929139388725,-0.14444566113986074
1775721977349387500,8.032387451171875,-0.1644558181852102,-0.034486024306528265,-0.1471484903577715
1775721977359400400,8.042400390625,-0.4056622830957174,-0.11221846687709912,-0.11612718301974237
1775721977369413600,8.05241357421875,-0.6542775629580021,-0.17291649854378774,-0.08988594956509768
1775721977379426600,8.062426513671875,-0.8052034529626368,-0.21704660430718212,-0.03745177877694368
1775721977389439500,8.072439453125,-0.752615772113204,-0.21508087545847518,-0.011558847303315996
1775721977399453400,8.082453369140625,-0.5442652826219797,-0.24315558968428522,0.00934869697317481
1775721977409466600,8.092466552734376,-0.3147527626365423,-0.23657601036457343,0.004319616764783859
1775721977419479600,8.1024794921875,-0.1979500915080309,-0.19219817691780625,-0.026752105586230753
1775721977429492500,8.112492431640625,-0.1279489190429449,-0.14242851263117046,-0.09982084892839192
1775721977439505700,8.122505615234376,-0.18166063548624514,-0.1059690145608969,-0.12564984832033516
1775721977449518300,8.132518310546875,-0.3027811698138714,-0.14673072160342707,-0.08630100375041365
1775721977459532500,8.142532470703125,-0.29711832174658775,-0.13517757338853553,0.014972089812904595
1775721977469545700,8.152545654296874,-0.3832762637645006,-0.08141683930489234,0.08488828740827739
1775721977479558400,8.162558349609375,-0.377654332229495,-0.048856120505137365,0.17737375194728375
1775721977489571600,8.172571533203126,-0.41491058843433853,-0.06335118565713055,0.29570202520787714
1775721977499584500,8.18258447265625,-0.5495622199863195,-0.11202178439437412,0.39629217800833283
1775721977509597400,8.192597412109375,-0.6849877585202455,-0.09445697467452846,0.5003104786265641
1775721977519611600,8.202611572265624,-0.7222638884693384,-0.03416412627524696,0.5063279853504151
1775721977529624600,8.21262451171875,-0.6439490611672402,0.011205430755764245,0.4391183432999998
1775721977539637500,8.222637451171876,-0.5107996508717536,0.11629412795132957,0.33689817814491685
1775721977549650400,8.232650390625,-0.21790391525626182,0.22059373886212705,0.2849213226702064
1775721977559663600,8.24266357421875,0.01866203037202358,0.23629277297640217,0.3351579103488475
1775721977569676300,8.25267626953125,0.0749538264364004,0.2181852894809097,0.41706192124933
1775721977579690500,8.2626904296875,0.19289689977169036,0.17453796226577833,0.4709208641435951
1775721977589703700,8.27270361328125,0.2826245169699192,0.21279354997258632,0.45088623024411495
1775721977599716400,8.28271630859375,0.385302801156044,0.26240303699513895,0.42334991547763345
1775721977609729500,8.2927294921875,0.47453532831370826,0.27775526696573943,0.34728155192807314
1775721977619742500,8.302742431640626,0.5685574278354645,0.2883639191384427,0.2907735558297485
1775721977629755400,8.31275537109375,0.6126683722406625,0.2879337110276334,0.21812705648764966
1775721977639769600,8.32276953125,0.5452443567872047,0.33039497026335446,0.07781579173877835
1775721977649782500,8.332782470703124,0.5472352383434772,0.37754798577819015,-0.06970584278032184
1775721977659795500,8.34279541015625,0.5327864417523145,0.4522252968281507,-0.14038842163830995
1775721977669808600,8.35280859375,0.5557599055826664,0.5418686698090285,-0.22253186731785535
1775721977679821600,8.362821533203125,0.4672743974000215,0.6057499711543322,-0.32569903099946673
1775721977689834500,8.37283447265625,0.20473171447217464,0.6059783730827272,-0.35837994211278856
1775721977699848400,8.382848388671874,0.2201093163460493,0.5414414939055219,-0.34413623963966966
1775721977709861600,8.392861572265625,0.33925533573031424,0.5195478246685117,-0.29948271279037
1775721977719874600,8.40287451171875,0.38673020361065863,0.515920720212534,-0.24496442920453845
1775721977729887500,8.412887451171875,0.4177420124679804,0.47293593029305336,-0.18741174635887145
1775721977739900700,8.422900634765625,0.3527461009442806,0.38377160953339184,-0.2308149078208953
1775721977749913300,8.432913330078126,0.3672890055596828,0.27105690183825787,-0.3422559788510203
1775721977759926500,8.442926513671875,0.3972147727459669,0.18822039586063474,-0.4352370448872447
1775721977769940700,8.452940673828126,0.34036066662371156,0.15447543571237474,-0.5467885174892843
1775721977779953400,8.462953369140624,0.213586052057147,0.12050989161599426,-0.5615452109858393
1775721977789966300,8.47296630859375,0.1171346795618534,0.13178198526664636,-0.46020372836142776
1775721977799979500,8.4829794921875,0.09507365440130233,0.11881132580349221,-0.2629910112172365
1775721977809992200,8.4929921875,0.044780806490778924,0.11063520714049227,-0.07421236041933298
1775721977820005400,8.50300537109375,0.025336101308465003,0.1518343831516802,0.040751039518043396
1775721977830019600,8.51301953125,0.14046937792003153,0.20313337589744476,0.04905117728635668
1775721977840032300,8.5230322265625,0.21368132912516594,0.15585216742567717,0.028162483840808272
1775721977850045400,8.53304541015625,0.07857143241167068,0.005583686450426466,-0.032969007339701054
1775721977860058400,8.543058349609375,-0.12280512641370296,-0.16122682793503626,-0.07562902228422462
1775721977870071300,8.5530712890625,-0.26374153732359407,-0.17310544524462892,-0.021592969257384537
1775721977880084200,8.563084228515624,-0.3975590561389923,-0.045295313617866484,0.18154037010744212
1775721977890098400,8.573098388671875,-0.5276338812947273,0.10367344183647073,0.409173944478482
1775721977900111400,8.583111328125,-0.5807037927031516,0.22061065346430986,0.5240582878302782
1775721977910124300,8.593124267578125,-0.5648690947115421,0.30909868239760396,0.4607786787051707
1775721977920137500,8.603137451171875,-0.42247021003365515,0.3538829229544848,0.25934461753889915
1775721977930150100,8.613150146484376,-0.18606091627180577,0.33451760315131396,0.022912746619060634
1775721977940163300,8.623163330078125,0.05697451763153076,0.25422036986034363,-0.14723434201031924
1775721977950177500,8.633177490234376,0.3016027736842632,0.11368288600700907,-0.290203281661123
1775721977960190200,8.643190185546874,0.4635580072253942,-0.020990413954085668,-0.3873774154730141
1775721977970203400,8.653203369140625,0.5239122304230928,-0.13175939897550268,-0.412083767510578
1775721977980216300,8.66321630859375,0.48491877516210075,-0.23315255698822437,-0.38115357252210375
1775721977990229200,8.673229248046875,0.40862580907642837,-0.28050427341293543,-0.24044914373718201
1775721978000242400,8.683242431640625,0.3201718650758266,-0.2361981352292001,-0.13134250700399278
1775721978010256400,8.69325634765625,0.38574294613897797,-0.14378340697200037,-0.15055004242956638
1775721978020269300,8.703269287109375,0.48118894098401066,-0.07062494865292683,-0.24889292775988578
1775721978030282500,8.713282470703126,0.42556817604899405,-0.03237137937326915,-0.3943510538779199
1775721978040295400,8.72329541015625,0.3880553147345781,-0.06558573064301162,-0.5362262069426477
1775721978050308400,8.733308349609375,0.47405718940794467,-0.16381207692157476,-0.6024108898594975
1775721978060321300,8.7433212890625,0.44883390082418917,-0.2941766788041219,-0.5693484320826828
1775721978070334500,8.75333447265625,0.295002937027812,-0.3538023319989443,-0.3948439519613981
1775721978080348400,8.763348388671876,0.21296178267896174,-0.34444494026266037,-0.1015320367604494
1775721978090361300,8.773361328125,0.21341011096835136,-0.20304936914211139,0.12575988456606865
1775721978100374500,8.78337451171875,0.22143267390429971,0.03561480914074927,0.21277546632662414
1775721978110387200,8.79338720703125,0.221068516767025,0.23132788057802245,0.28393369987234474
1775721978120400400,8.803400390625,0.24771277806460856,0.2544164586880244,0.3276036225117743
1775721978130413300,8.813413330078125,0.23214403753280638,0.17103324208045378,0.3481048510096967
1775721978140427300,8.82342724609375,0.12211422154009341,0.09481293937219307,0.34670930499806996
1775721978150440400,8.8334404296875,-0.09309738589227198,0.12068440793268381,0.278592777235806
1775721978160453400,8.843453369140626,-0.2582072840720415,0.22708200490288435,0.13086626779437063
1775721978170466300,8.85346630859375,-0.30556115592122074,0.37291922999899835,-0.03194295222759247
1775721978180479200,8.863479248046875,-0.2361947742283344,0.43694282589182254,-0.0916406112127006
1775721978190492400,8.873492431640624,-0.12417290763556957,0.3141619936691597,-0.01894420831426978
1775721978200506400,8.88350634765625,-0.08721592663824558,0.07115012330450117,0.16605068616122007
1775721978210519300,8.893519287109376,-0.024214988324046133,-0.11928204858778044,0.39971915678232905
1775721978220532500,8.903532470703125,0.013965396988391875,-0.20042148659024386,0.5591992323815822
1775721978230545400,8.91354541015625,0.010060206243395806,-0.18541458119228482,0.5469933924116194
1775721978240558300,8.923558349609374,-0.03972469214498996,-0.19257115668235344,0.4031052920892834
1775721978250571500,8.933571533203125,-0.14851532173156737,-0.2599042424493469,0.28041356292217967
1775721978260585200,8.943585205078126,-0.0767190825432539,-0.3665184961112216,0.17083412104547022
1775721978270598400,8.953598388671875,0.20685235988795755,-0.42239999434165654,0.04954436763077974
1775721978280611300,8.963611328125,0.5024228676706552,-0.4098362808447331,-0.08846424619890748
1775721978290624300,8.973624267578124,0.7148153260290623,-0.3917311537031084,-0.1691887649912387
1775721978300637400,8.983637451171875,0.8880763819605112,-0.32053320920150724,-0.07640943207219243
1775721978310650400,8.993650390625,1.0328232910692692,-0.2849928170038387,0.10685403550080955
1775721978320663600,9.00366357421875,1.131232227373123,-0.30533772242888807,0.21662673492729662
1775721978330677200,9.01367724609375,1.2674258276700974,-0.3384361283019185,0.2884311574220657
1775721978340690400,9.0236904296875,1.3505828343063593,-0.3821575619328767,0.2825837465681135
1775721978350703400,9.033703369140625,1.3470634280085563,-0.49293242413923144,0.24660978525876998
1775721978360716300,9.04371630859375,1.2661521544724703,-0.6753419782966374,0.23088702320903537
1775721978370729500,9.0537294921875,1.0275836368501186,-0.8350006983984262,0.28001630723290144
1775721978380742400,9.063742431640625,0.8472095340430736,-0.9208734667994082,0.29883506253659725
1775721978390756400,9.07375634765625,0.6831909382313489,-0.8610626297634094,0.28659400512278077
1775721978400769500,9.08376953125,0.5942091709643602,-0.7153439530130475,0.17344349982626736
1775721978410782500,9.093782470703125,0.6803413940191269,-0.5117086189428344,-0.04239982963837683
1775721978420795400,9.10379541015625,0.8645990602612494,-0.3055859981015324,-0.253893001069501
1775721978430808300,9.113808349609375,1.0339455730974674,-0.16435334419142453,-0.3732165689777583
1775721978440821500,9.123821533203126,1.050231521987915,-0.13749219787330366,-0.3313599793706089
1775721978450835500,9.13383544921875,0.8057727772831916,-0.21526014101551844,-0.1299983989186585
1775721978460848400,9.143848388671875,0.4193880261093378,-0.28553346321918066,0.09209478472098707
1775721978470861300,9.153861328125,0.221137490350008,-0.21758167929826303,0.13906535634100436
1775721978480874200,9.163874267578125,0.14370587562322615,-0.014425671443901954,0.050669280007481575
1775721978490887400,9.173887451171876,0.14778934554457662,0.1762286735653877,-0.0728778969451785
1775721978500900400,9.183900390625,0.1976876411795616,0.26585686724344265,-0.12407624232806265
1775721978510914300,9.193914306640625,0.19551672688126562,0.23424356709532437,-0.053932081195712085
1775721978520927500,9.203927490234374,0.04324643653035164,0.14819367029545827,0.041906858489662406
1775721978530940400,9.2139404296875,-0.0076899699807167045,0.06635023047579452,0.09664207276180387
1775721978540953300,9.223953369140625,-0.02170329776406288,0.04828507001837715,0.011769055987894534
1775721978550966500,9.233966552734374,-0.12493570870161055,0.03317789171687327,-0.17735227076783774
1775721978560979500,9.2439794921875,-0.278637493160367,-0.028786917615775016,-0.3503151474703103
1775721978570992400,9.253992431640626,-0.39301322940289973,-0.18791381412949412,-0.3929175139434635
1775721978581006300,9.26400634765625,-0.48929801315963267,-0.3410481739638373,-0.2846552190799266
1775721978591019500,9.27401953125,-0.6742202807903289,-0.41900235125999896,-0.13262195235528051
1775721978601032400,9.284032470703124,-0.7612257795482873,-0.40317086813878267,-0.08581497379913926
1775721978611045400,9.29404541015625,-0.7251344754695892,-0.39107005944587286,-0.16657156823016703
1775721978621058600,9.30405859375,-0.5471732790231705,-0.42686435333937406,-0.2914185757350176
1775721978631071200,9.3140712890625,-0.23091244991123674,-0.4244835591500625,-0.41836898525990546
1775721978641085400,9.32408544921875,0.0483066425293684,-0.40357272693794216,-0.45480091946981843
1775721978651098400,9.334098388671874,0.1440606804102659,-0.3564095553552732,-0.3501904251120984
1775721978661111300,9.344111328125,0.15932137790620327,-0.2990513539020903,-0.20085947614870964
1775721978671124500,9.35412451171875,0.1502659647911787,-0.29137910224115476,-0.1254489919859916
1775721978681137400,9.364137451171874,0.1581090795069933,-0.3336344636412337,-0.1197978343565017
1775721978691150300,9.374150390625,0.1753098051548004,-0.3204389915794134,-0.17730032138489185
1775721978701164500,9.38416455078125,0.2182008523762226,-0.1708441309828311,-0.2587617030844092
1775721978711177500,9.394177490234375,0.36266251480281353,-0.07800454664337449,-0.23536789495013652
1775721978721190400,9.4041904296875,0.522615760871768,-0.03345849875654094,-0.1367486768964678
1775721978731203300,9.414203369140624,0.6420072794497013,0.04198905688039958,-0.03468187567219138
1775721978741216500,9.424216552734375,0.6920353389441967,0.1348922262416687,-0.00683021134622395
1775721978751229200,9.434229248046876,0.7071680261462926,0.14415855129417032,-0.07377886437289416
1775721978761242400,9.444242431640625,0.7390554487943649,0.1315776218009647,-0.12709405577927826
1775721978771256300,9.45425634765625,0.7826204497545957,0.15972312710750847,-0.14442454528659582
1775721978781269200,9.464269287109374,0.6807061356782913,0.17728421050030738,-0.08594393394105136
1775721978791282700,9.47428271484375,0.5052233120441436,0.13168864442738704,0.021535101590305566
1775721978801296000,9.4842958984375,0.4617226084917783,0.05063866110693197,0.13983561006113887
1775721978811308500,9.49430859375,0.40772622988820073,-0.024743181483191438,0.1729280976500362
1775721978821321700,9.50432177734375,0.4532844504922628,-0.06278285228384192,0.03943111602589488
1775721978831335700,9.514335693359374,0.5647545284211635,-0.13926050445376895,-0.04116159308031201
1775721978841348600,9.5243486328125,0.5404577070325612,-0.2969831145269796,0.003087006229907274
1775721978851361800,9.53436181640625,0.409788423115015,-0.483872554044798,0.10422660960666835
1775721978861374700,9.544374755859375,0.24194003988206386,-0.6760056298371404,0.24617066318914294
1775721978871387600,9.5543876953125,0.06406710624098777,-0.8543192199178039,0.3450003091230988
1775721978881400600,9.564400634765626,-0.05988076046705246,-0.9445390776123851,0.3061745385792106
1775721978891414500,9.57441455078125,-0.01243628772497177,-0.9126986359111964,0.17291764932125805
1775721978901427700,9.584427734375,0.2681231134086847,-0.7965075938750058,0.006398688061162829
1775721978911440600,9.594440673828124,0.6529127043455839,-0.788552104825899,-0.14151698727682233
1775721978921453800,9.604453857421875,0.9353361457854509,-0.9218666425552219,-0.22493922072052955
1775721978931466500,9.614466552734376,1.007684758159518,-1.0694313124984502,-0.24825565276965497
1775721978941479700,9.624479736328125,0.9128349756419658,-1.0686410389035939,-0.22122641074247656
1775721978951493600,9.63449365234375,0.7056348252296447,-0.9997872829079627,-0.11728680138364433
1775721978961506600,9.644506591796874,0.5651911662727594,-0.9260511616982519,-0.026994097648560998
1775721978971519700,9.654519775390625,0.5278028081208467,-0.8772519864115863,0.043333091900497674
1775721978981532700,9.66453271484375,0.5720213045537471,-0.8205532900467515,0.06365282635167241
1775721978991545600,9.674545654296875,0.7384726804703473,-0.740695471086353,0.05355199583694339
1775721979001558800,9.684558837890625,0.9902730201095342,-0.6150968414966017,0.028398338423296806
1775721979011571700,9.69457177734375,1.1867267355799673,-0.4418786748588085,0.035046252005174756
1775721979021585700,9.704585693359375,1.4766162751168013,-0.34651469574142246,0.05594583217091858
1775721979031598600,9.7145986328125,1.7994991527169941,-0.33221151816602795,0.03516476381830871
1775721979041611800,9.72461181640625,2.0515987675637004,-0.3632745457539335,-0.0269259277831763
1775721979051624700,9.734624755859375,2.083961406508088,-0.2819802825159393,-0.12653254943899808
1775721979061637600,9.7446376953125,1.894008743494749,0.00006596877514384687,-0.1556950041025877
1775721979071650800,9.75465087890625,1.513558643066883,0.3450182831712067,-0.05745674819052219
1775721979081664500,9.76466455078125,1.1682108356803655,0.5810607894472778,0.1723737882355228
1775721979091677700,9.774677734375,0.9669809918493032,0.6001058277875184,0.3611008184440434
1775721979101691000,9.78469091796875,0.8335860823601484,0.4497575915403664,0.4258757806934416
1775721979111703600,9.79470361328125,0.8362836508810519,0.2186336177702993,0.33754268659353254
1775721979121716700,9.804716796875,0.9624620531201362,-0.004811236206628382,0.20881744941584765
1775721979131729700,9.814729736328125,1.0182008914768694,-0.1147334271064028,0.11841335772816092
1775721979141743600,9.82474365234375,0.9913573082149029,-0.07334125840691849,0.09332936801724136
1775721979151756800,9.8347568359375,0.9210428320169448,0.10463147321366705,0.1374609168190509
1775721979161769700,9.844769775390626,0.9265776697903871,0.316238069290854,0.2701182327486574
1775721979171782700,9.85478271484375,0.9221937556177378,0.49651956191100177,0.40329482331201433
1775721979181795600,9.864795654296875,0.8561848676592111,0.4185457300662994,0.4693865307157859
1775721979191808800,9.874808837890624,0.8863613947361707,0.18872182431044057,0.483685068648681
1775721979201822700,9.88482275390625,0.7756330750852822,-0.04247367119272239,0.38955892423056065
1775721979211835600,9.894835693359376,0.4148217411071062,-0.21523975581461563,0.32969456690903753
1775721979221848800,9.904848876953125,0.03943652285337448,-0.2775382997468114,0.37059798397719856
1775721979231861500,9.914861572265625,-0.08506956225931644,-0.259023623689916,0.5048583877218887
1775721979241874700,9.924874755859374,-0.09713877023756504,-0.06335760626476257,0.6727361066471785
1775721979251887600,9.9348876953125,-0.16153846943378447,0.2727642172127962,0.7792509733214974
1775721979261900500,9.944900634765625,-0.2495540220171213,0.5253531864790245,0.7323335931934416
1775721979271914800,9.954914794921875,-0.11237433329224586,0.5662564574167132,0.5226047280211001
1775721979281927700,9.964927734375,0.029477438896894453,0.456981039987877,0.29304150076173247
1775721979291940600,9.974940673828126,0.05876958435475826,0.378928663014248,0.12448803799934685
1775721979301953800,9.984953857421875,-0.009857961669564246,0.3790915984909981,0.060372599104605615
1775721979311966700,9.994966796875,0.0027057518273591995,0.36133484639562663,0.09526592557039111
1775721979321979600,10.004979736328124,0.18361118503212928,0.26919777516918253,0.1564038830243051
1775721979331993600,10.01499365234375,0.4780155716449022,0.14498225223459302,0.08359978196769953
1775721979342006800,10.0250068359375,0.7892319768488407,0.13097919011693446,-0.21338578024469315
1775721979352019700,10.035019775390625,0.9869581964731216,0.22987707898151127,-0.6491897382996976
1775721979362032600,10.04503271484375,1.079286351558566,0.32038653073981405,-1.0203655221648513
1775721979372045800,10.0550458984375,1.1842682365119457,0.3660465312179178,-1.2665252255685626
1775721979382058500,10.06505859375,1.2373305491358042,0.49860882580783217,-1.4307409513875842
1775721979392072700,10.07507275390625,1.1947054593741893,0.7067931284192949,-1.5839815480753778
1775721979402086000,10.0850859375,1.0029437011122704,1.0098153404474257,-1.7953611761294304
1775721979412098600,10.0950986328125,0.7511205651193856,1.2866273717463015,-1.9236542324349284
1775721979422111700,10.10511181640625,0.525267736685276,1.3754359744034708,-1.8445817186333238
1775721979432124700,10.115124755859375,0.21877719095945358,1.2921943582236766,-1.589818583665788
1775721979442137600,10.1251376953125,-0.16960545603334903,1.20489630625993,-1.2041017218161374
1775721979452150500,10.135150634765624,-0.6131880122005939,1.2723482326336204,-0.6353869114618748
1775721979462164700,10.145164794921875,-0.8478905020445585,1.4291121811419725,-0.048575851392187175
1775721979472177700,10.155177734375,-0.8118260859727859,1.4957606821782885,0.11917342798099853
1775721979482190600,10.165190673828125,-1.1617857710689306,1.5704510353729129,-0.132859176910948
1775721979492203800,10.175203857421875,-1.926553168746829,1.7305559648722408,-0.524872672953084
1775721979502216700,10.185216796875,-2.427713469135761,1.8498928306534885,-0.734747960858792
1775721979512229600,10.195229736328125,-2.5293366913110016,1.7392834612071513,-0.7694484681662171
1775721979522243800,10.205243896484374,-2.6180554237276312,1.6084448120720685,-0.6641993105787783
1775721979532256500,10.215256591796875,-2.596903330105543,1.494923500701785,-0.561762032074295
1775721979542269700,10.225269775390625,-2.4878718775004147,1.3131954990677535,-0.4699724408449605
1775721979552282600,10.23528271484375,-2.46639595875144,1.0591078522089867,-0.2918771148911677
1775721979562295600,10.245295654296875,-2.490036362057924,0.7775143587872385,-0.02200957353452686
1775721979572308700,10.255308837890626,-2.6235686341911553,0.4846165042798966,0.3185946423543617
1775721979582322700,10.26532275390625,-2.912445197293162,0.236710322535038,0.6830056447923183
1775721979592335600,10.275335693359375,-2.968483895379305,0.01114559032730758,1.011409696966782
1775721979602348500,10.2853486328125,-2.397959551385045,-0.12679127344042063,1.229143443287909
1775721979612361700,10.29536181640625,-1.7467986591428517,-0.25098098608031866,1.3214467561930416
1775721979622374700,10.305374755859376,-1.3033002741277218,-0.45875981316342945,1.2911758288308977
1775721979632387600,10.3153876953125,-1.0643091471791266,-0.6440015220068395,1.2802587134972214
1775721979642400800,10.32540087890625,-1.188641044768691,-0.7708555584851652,1.3266145142197607
1775721979652414500,10.33541455078125,-1.6247282767444848,-0.8636512580171227,1.3881633540295064
1775721979662427600,10.345427734375,-1.8160902220338582,-0.9160342100746929,1.4549500944927334
1775721979672440800,10.35544091796875,-1.7342407908648252,-0.9486378912333399,1.431200823984295
1775721979682453800,10.365453857421874,-1.550907253730297,-0.9975205070197581,1.213692995373532
1775721979692466700,10.375466796875,-1.1443716949313878,-1.0601965972937644,0.9595262188639492
1775721979702479600,10.385479736328126,-0.9439993447124958,-1.169716856329143,0.7544205565128475
1775721979712493600,10.39549365234375,-0.8836550583869218,-1.2482752831287682,0.5748854983458295
1775721979722506800,10.4055068359375,-0.6172977856069803,-1.2207771814808248,0.46913029093239456
1775721979732519700,10.415519775390624,-0.3889396963536739,-1.0972316119633614,0.37416970498412844
1775721979742532600,10.42553271484375,-0.2672258723080158,-0.9803919698253274,0.2703519319066778
1775721979752545500,10.435545654296876,-0.2100882730692625,-0.874492823896557,0.19881094612106678
1775721979762558700,10.445558837890625,-0.27870763578712937,-0.6942211585506797,0.10135755697637795
1775721979772572700,10.45557275390625,-0.31788287735581394,-0.47185982549414035,0.011120364554505794
1775721979782585600,10.465585693359374,-0.28977205063700673,-0.28180720923766495,-0.011651274827122688
1775721979792598300,10.475598388671875,-0.42893969830870626,-0.2055889158234,0.047217431653710076
1775721979802611200,10.485611083984375,-0.30419746635258194,-0.16594313413351774,0.2431269298453815
1775721979812624100,10.4956240234375,0.08912497512996197,-0.07895436731465161,0.35753019341565667
1775721979822637000,10.505636962890625,0.3416536290436983,0.05344568591825664,0.28576427630037066
1775721979832650200,10.515650146484376,0.4791361001074314,0.22160445027463138,0.07644530710317193
1775721979842664200,10.525664306640625,0.4699415707826614,0.4015438879914582,-0.12050923402886837
1775721979852677000,10.535677001953125,0.3804097684174776,0.5505241968862712,-0.22926692946022376
1775721979862690300,10.545690185546874,0.3372796517431736,0.6783066002558916,-0.2993374043018557
1775721979872703000,10.555702880859375,0.17271920413970945,0.7464048617091029,-0.3381069694127887
1775721979882716200,10.565716064453126,0.11501987936496734,0.713208913745731,-0.29657614116128533
1775721979892729000,10.57572900390625,0.3354793243229389,0.5795728159118443,-0.2033162399173714
1775721979902743000,10.585742919921875,0.38829263062179087,0.45825135218463836,-0.15197465013889594
1775721979912756200,10.595756103515624,0.2538578566908836,0.40258280258513984,-0.15639443934252484
1775721979922769200,10.60576904296875,0.12373393169641494,0.40901356628499924,-0.20641166691575197
1775721979932782000,10.615781982421876,0.11364800648987293,0.4101981729596853,-0.26481618081778285
1775721979942795000,10.625794921875,0.01619651704132557,0.4063569873616099,-0.292891972755827
1775721979952808200,10.63580810546875,-0.1748345888584852,0.3185124074310064,-0.27964880736107006
1775721979962822100,10.645822265625,-0.3874292917907238,0.17700601461343465,-0.13124766832739115
1775721979972835000,10.6558349609375,-0.2822796490550041,0.09286489231064915,0.02526878995960578
1775721979982848300,10.66584814453125,-0.11910276476442813,0.07127798746787012,0.024202695098053662
1775721979992861000,10.67586083984375,-0.0832066909968853,0.06285707286410033,-0.03748073087679222
1775721980002874000,10.6858740234375,0.011925415593385696,0.040659781038016075,-0.07899340241709724
1775721980012887300,10.69588720703125,0.08801087640821934,0.06212079447880387,-0.099852760170307
1775721980022900200,10.705900146484375,0.008103811478614806,0.16989800923913717,-0.13039496048819274
1775721980032914200,10.7159140625,-0.08205869000554085,0.24085575177669524,-0.11336164556285366
1775721980042927000,10.725927001953124,-0.11375088234245777,0.21276202232316135,-0.10391604582015425
1775721980052940000,10.73593994140625,-0.045804888841509815,0.13572890539467333,-0.12930849869204683
1775721980062953200,10.745953125,0.08147416811585426,0.1331321668997407,-0.16956130636436864
1775721980072966100,10.755966064453125,0.20917232726812363,0.06941314344406127,-0.1883134079063311
1775721980082979300,10.765979248046875,0.23915771568715571,-0.00891549318768084,-0.18693094057198612
1775721980092993000,10.775992919921874,0.17638415638804433,-0.08690181918777524,-0.1103770219951868
1775721980103006200,10.786006103515625,-0.005744096609950065,-0.14149031846560536,0.028056648846156895
1775721980113019100,10.79601904296875,-0.14200140979290007,-0.18625746175721286,0.15092318659089504
1775721980123032000,10.806031982421874,-0.1674631833076477,-0.15775968154743314,0.20932992898263036
1775721980133045200,10.816045166015625,-0.132754858019948,-0.10066431401520967,0.19616755547281353
1775721980143058200,10.82605810546875,-0.19771511370837688,-0.1559232599005103,0.19514588427487758
1775721980153072000,10.836072021484375,-0.17383680999279022,-0.22362156225070356,0.23235702269636094
1775721980163085300,10.846085205078126,-0.042915012618899344,-0.22499738064855335,0.25195768562536686
1775721980173098000,10.856097900390624,0.02323649868071079,-0.19308540808111427,0.2263263276973739
1775721980183111200,10.866111083984375,0.009714169284701347,-0.14537190913930534,0.18052695528119803
1775721980193124000,10.8761240234375,0.04773556464314461,-0.11017346224710345,0.19030454519093035
1775721980203137300,10.88613720703125,0.13264672147035597,-0.06392842842265962,0.1657957250194624
1775721980213150000,10.89614990234375,0.07621288658678531,-0.03842033154815435,0.05319383004903793
1775721980223164200,10.9061640625,0.006299976927042007,-0.04541968891620636,0.005162022405676543
1775721980233177000,10.916177001953125,0.049990650093555446,0.0036949089951813217,0.005878390514105558
1775721980243190000,10.92618994140625,0.08727963952422141,0.05557341866195201,0.04175846299491823
1775721980253203200,10.936203125,0.0057160395592451094,0.06272241363376378,0.0924196692937985
1775721980263216000,10.946216064453125,-0.047312955316901203,0.034520109239220616,0.16616923450697213
1775721980273229000,10.95622900390625,0.03134206372499466,0.03861921512112021,0.2621743610721081
1775721980283243300,10.9662431640625,0.08534604111313819,0.048828912837803364,0.31009901854656635
1775721980293256000,10.976255859375,-0.0040413843452930445,0.04691051199585199,0.32002233706992117
1775721980303269000,10.98626904296875,-0.12139642865955828,0.08819047075882554,0.2665103079171851
1775721980313282300,10.9962822265625,-0.21881752296984194,0.13789952743202447,0.2238885060911998
1775721980323295200,11.006295166015626,-0.20065175168216226,0.16008432510271667,0.2685209170872345
1775721980333308200,11.01630810546875,-0.20772388202548026,0.0957093219563365,0.26545681680887934
1775721980343321000,11.026321044921875,-0.2115910788476467,0.0031743922524154183,0.2741488034389913
1775721980353335000,11.0363349609375,-0.15854863996803759,-0.014501695822179316,0.26793613946922124
1775721980363348200,11.04634814453125,-0.04239069648385048,0.022639409570395945,0.283177584275417
1775721980373361200,11.056361083984376,0.03410919035077095,0.042917350706458086,0.2720906288001686
1775721980383374300,11.066374267578125,0.012110709032416343,0.0570611730016768,0.22733239946737885
1775721980393387000,11.076386962890625,0.09522212296128273,0.057998453851789235,0.11270703584533184
1775721980403400200,11.086400146484374,0.1476987446516752,0.04542684930935502,-0.05175817122273147
1775721980413414100,11.0964140625,0.16089140370190141,0.030468349630385635,-0.22534699780382214
1775721980423427000,11.106427001953126,0.22042963434159754,0.010080664509534836,-0.31704975099992005
1775721980433440300,11.116440185546875,0.14881167432963846,-0.026936814503371712,-0.31118476795665917
1775721980443453200,11.126453125,0.02175999638736248,-0.09777049226984381,-0.2427842356212437
1775721980453466000,11.136466064453124,-0.10349603030979633,-0.11433145870938896,-0.11055161137711256
1775721980463479000,11.14647900390625,-0.10638882914185524,-0.07274798695519566,-0.04906937053017318
1775721980473493000,11.156492919921876,-0.013064648756384849,-0.048916006599366665,-0.07034797660876065
1775721980483506200,11.166506103515625,0.04144377102255821,-0.05048983178734779,-0.13593630106765775
1775721980493519000,11.17651904296875,0.08231120346188545,-0.10853826226070523,-0.1998343708846718
1775721980503532300,11.1865322265625,0.07495674904584884,-0.19015344628244638,-0.1613556236801669
1775721980513545000,11.196544921875,-0.08472352530062198,-0.21810937470048664,-0.04288311964329332
1775721980523558100,11.20655810546875,-0.26125731929242607,-0.16657017999067902,0.07867569650374352
1775721980533571300,11.2165712890625,-0.3522580251663923,-0.10897636141702532,0.18742983000483363
1775721980543585000,11.2265849609375,-0.3579237958431244,-0.12354746921360492,0.19137907908726481
1775721980553598200,11.23659814453125,-0.3241775935858488,-0.1592743238940835,0.05023154617734253
1775721980563611100,11.246611083984375,-0.3152794168591499,-0.13975319247469306,-0.10738317394144832
1775721980573624000,11.2566240234375,-0.3721691788166761,-0.12363324780091643,-0.17483082599882036
1775721980583637200,11.26663720703125,-0.381410469892621,-0.08162482863292098,-0.11807802482657134
1775721980593650200,11.276650146484375,-0.34338206027150153,-0.031993367240577934,0.0037819662241265176
1775721980603664100,11.2866640625,-0.3950239847034216,-0.02128594913482666,0.06211871211957186
1775721980613677000,11.296677001953125,-0.45754503054618834,-0.06085267423912882,0.027055362849123774
1775721980623690200,11.306690185546875,-0.520524926072359,-0.08351341885849833,-0.050132944641076024
1775721980633703200,11.316703125,-0.5141594826936722,-0.051685032921284436,-0.1366129947528243
1775721980643716000,11.326716064453125,-0.4453548265367746,-0.002003156515955925,-0.19220537384357303
1775721980653729300,11.336729248046876,-0.41819969310760496,-0.018637772713601588,-0.19428477393351495
1775721980663743000,11.346742919921875,-0.4136842615097761,-0.0369692559570074,-0.18320534417759626
1775721980673756200,11.356756103515625,-0.41962943364977834,-0.0651332741677761,-0.2580474173352122
1775721980683769300,11.366769287109374,-0.5342518381297588,-0.07196940379813313,-0.3760021811082959
1775721980693782000,11.376781982421875,-0.7172013443827628,-0.06751651604250072,-0.3881954538576305
1775721980703795200,11.386795166015625,-0.769904176044464,-0.11476458942964672,-0.25597992687877263
1775721980713808100,11.39680810546875,-0.7872042704135179,-0.1525106749780476,-0.13431874633580446
1775721980723821000,11.406821044921875,-0.7797346651852131,-0.13360606802180408,-0.08462930767852812
1775721980733835300,11.416835205078126,-0.7431430103689431,-0.07813128742873668,-0.04826061143055558
1775721980743848200,11.42684814453125,-0.8015560363709926,0.0008403963468968867,0.05407587358057499
1775721980753861000,11.436861083984375,-0.8206991282582282,0.04171411239653826,0.08194671753104775
1775721980763874000,11.4468740234375,-0.7927303403586149,0.03195712688341737,0.014021182296238839
1775721980773887200,11.45688720703125,-0.8796399775266647,-0.046601446046680206,-0.04811375030577183
1775721980783900000,11.46689990234375,-0.9804267488777637,-0.10542655998095869,-0.06163238990735262
1775721980793914000,11.4769140625,-1.0463923822164536,-0.10506415640935302,-0.026185155885852872
1775721980803927300,11.48692724609375,-0.991461353111267,-0.07719700225330889,0.037113048341870306
1775721980813940200,11.496940185546874,-0.9106061936765909,-0.06461041933745146,0.09611647798512131
1775721980823953200,11.506953125,-0.8611176478862762,-0.06055515259727835,0.1657687639473006
1775721980833966300,11.51696630859375,-0.8133405821889639,-0.08970796264968812,0.1922100865513086
1775721980843979000,11.52697900390625,-0.671001318743825,-0.07703552808128297,0.15116572664249686
1775721980853993200,11.5369931640625,-0.5327823500990867,-0.017920929681137204,0.1075457075593993
1775721980864006400,11.54700634765625,-0.38374388127624987,0.048152036489546295,0.13300759067200124
1775721980874019000,11.55701904296875,-0.26164777991473676,0.14090959596820174,0.14844835744258014
1775721980884032300,11.5670322265625,-0.19546411991119383,0.20748883116059005,0.09786043557561934
1775721980894045200,11.577045166015624,-0.36412206596136093,0.1689342787735164,0.03766366796195507
1775721980904058000,11.58705810546875,-0.4996960730552673,0.1330721072755754,-0.0004388663413003087
1775721980914071000,11.597071044921876,-0.5955675998359918,0.16526348130628465,0.022042576188407836
1775721980924085200,11.607085205078125,-0.8531985453248023,0.2307169273391366,0.021672464234381912
1775721980934098200,11.61709814453125,-1.0091916555911302,0.3695360538341105,-0.03422408543471247
1775721980944111000,11.627111083984374,-1.1352093143105506,0.5101045082144439,-0.07086619179658592
1775721980954124300,11.637124267578125,-1.1062199511915445,0.61522587470375,-0.04028513903934508
1775721980964137000,11.647136962890626,-0.936641383165121,0.6779542066216468,0.03338843832816928
1775721980974150100,11.657150146484375,-0.7451344764471054,0.6350058031897992,0.10666819407250731
1775721980984164400,11.667164306640625,-0.40740298928320406,0.5583550366424024,0.11852755869235843
1775721980994177000,11.677177001953124,-0.160438983759284,0.5205367626406252,0.09158025932759047
1775721981004190200,11.687190185546875,-0.11360299830436706,0.5355414395488798,0.10229038084708153
1775721981014203100,11.697203125,-0.06876900032162665,0.6059591569256038,0.12616017246264963
1775721981024216000,11.707216064453124,0.016617957323789595,0.6532333876673132,0.15861257204972207
1775721981034229200,11.717229248046875,0.11662263838648795,0.6712482061769813,0.2913467891404405
1775721981044242200,11.7272421875,0.17878654135465621,0.6394189434569328,0.4939848923342302
1775721981054256000,11.737256103515625,0.13673954374194144,0.5955800209261477,0.6882296630509197
1775721981064269000,11.74726904296875,0.07887012309730053,0.545142576913163,0.7042739121399819
1775721981074282200,11.7572822265625,0.021213468420505522,0.44685697472803293,0.5251526954708621
1775721981084295200,11.767295166015625,-0.03895838394761085,0.3469213403135538,0.3077372578512877
1775721981094308000,11.77730810546875,0.05866203232705593,0.297626125138253,0.1425159717189148
1775721981104321300,11.7873212890625,0.12863280965387822,0.29284364010207353,0.05788596992064267
1775721981114335000,11.7973349609375,0.27205285407304763,0.2493486721707508,-0.016398140560649335
1775721981124348200,11.80734814453125,0.361973363494873,0.1927743328379467,-0.06221705792751163
1775721981134361300,11.817361328125,0.4094178362369537,0.19106252395138143,-0.0670822528110817
1775721981144374000,11.8273740234375,0.4786965396463871,0.23288016978763043,-0.07944401399511844
1775721981154387200,11.83738720703125,0.5470522829920054,0.31302805773578585,-0.08208331299014389
1775721981164400000,11.847400146484375,0.5459305854856967,0.39039669022895396,0.04985105895977467
1775721981174414000,11.8574140625,0.1561561918735504,0.4593886125862598,0.33038338942341505
1775721981184427300,11.86742724609375,-0.24414427192807195,0.46242089295424516,0.6253188872382044
1775721981194440200,11.877440185546876,-0.2343956158518791,0.3118923317041248,0.8836744937397539
1775721981204453000,11.887453125,-0.12431786906421184,0.09766951611340045,0.9478886072359979
1775721981214466000,11.897466064453125,-0.10072364298701286,-0.028176073974743483,0.7202139702022076
1775721981224479200,11.907479248046876,-0.11779226668775081,-0.07062251923382282,0.41877402239684014
1775721981234492200,11.9174921875,-0.11674421893954276,-0.11619571821130811,0.20396474868766962
1775721981244506000,11.927506103515626,-0.09028525108098984,-0.1237606005076319,0.15154398537036032
1775721981254519300,11.937519287109374,-0.09750175833106041,-0.04315554337650537,0.22137955547757446
1775721981264532000,11.947531982421875,-0.011946458381414412,0.006639876405894756,0.29532537391521035
1775721981274545200,11.957545166015626,-0.05699906755089759,-0.00025302491299808026,0.3565164497958496
1775721981284558000,11.96755810546875,-0.1877975308060646,-0.023450068366155027,0.3770634536642581
1775721981294571300,11.9775712890625,-0.13154022153317926,-0.08949092236552388,0.31918822433333843
1775721981304585200,11.987585205078124,-0.17248305729627608,-0.1532588264642283,0.14758637031838298
1775721981314598100,11.99759814453125,-0.11894611289799213,-0.1776644419895485,-0.07483191708978265
1775721981324611000,12.007611083984376,0.03110416331589222,-0.13147592412531375,-0.1782274826997891
1775721981334624300,12.017624267578125,0.061330959275364874,-0.11443886460661888,-0.1823652035590261
1775721981344637200,12.02763720703125,0.0550993714094162,-0.10388108410462736,-0.11063545373566448
1775721981354650400,12.037650390625,0.149433605620265,-0.07649020569082349,-0.01044726933222264
1775721981364663000,12.0476630859375,0.23072364934086798,0.022292459296248852,0.09290091347210108
1775721981374677200,12.05767724609375,0.33407530274391173,0.09694408791568129,0.11576952868849039
1775721981384690200,12.067690185546875,0.42891105673611163,0.11856821949630975,-0.006941891559772193
1775721981394703000,12.077703125,0.3014320932924747,0.11004435597471893,-0.16088358572162686
1775721981404716300,12.08771630859375,-0.015610826107859611,0.1069549751246348,-0.20618001358434557
1775721981414729200,12.097729248046875,-0.09160802411735057,0.026971045566536483,-0.1476262639373541
1775721981424742100,12.1077421875,-0.056254971185326574,-0.04655757037233561,-0.03842106220051646
1775721981434756400,12.11775634765625,-0.11616378870308398,-0.08491725777443498,-0.009343326678313314
1775721981444769000,12.12776904296875,-0.16826631638407707,-0.05136427653431892,-0.12296484702005982
1775721981454782200,12.1377822265625,-0.13783786037266255,0.0743410465666093,-0.25073932281155137
1775721981464795100,12.147795166015625,-0.10757248596847056,0.2577606180167757,-0.4078832470808178
1775721981474808300,12.157808349609375,-0.05359831919670105,0.41237164454124864,-0.53727089368999
1775721981484821000,12.167821044921874,-0.0237982242166996,0.47690096146650607,-0.5709099823109806
1775721981494834200,12.177834228515625,0.0074853873193264,0.45119171599671243,-0.5158142641633748
1775721981504848100,12.18784814453125,0.08217676342725753,0.34463662690985947,-0.4362125388558954
1775721981514861000,12.197861083984375,0.10851882690787315,0.22560491808764635,-0.29487258864641186
1775721981524874200,12.207874267578125,0.08329729188978671,0.164041593094822,-0.14330752395540475
1775721981534887200,12.21788720703125,0.006577040302753448,0.13776179032861255,-0.026988654288463292
1775721981544900000,12.227900146484375,-0.17922142564058302,0.1236442623852752,0.0210188956964761
1775721981554913300,12.237913330078126,-0.28590543833673,0.1697501069347374,0.03524944642707705
1775721981564927000,12.247927001953125,-0.27362054178118705,0.2778477492884733,0.07732475681882352
1775721981574940200,12.257940185546875,-0.3112549836486578,0.29912754267714914,0.12504026505462826
1775721981584953000,12.267953125,-0.3389695045262575,0.17190984225189312,0.1741952680416405
1775721981594966300,12.27796630859375,-0.2530786890119314,-0.0288544938261155,0.18271357860527931
1775721981604979200,12.287979248046875,-0.06863280672132968,-0.14601736743599175,0.12364815310910343
1775721981614992100,12.2979921875,0.23969547582566736,-0.1644637822959572,0.019194237552583218
1775721981625005300,12.30800537109375,0.5297825837612152,-0.16424588349526748,-0.07238287996985018
1775721981635019000,12.31801904296875,0.6953928326785564,-0.22318119807206094,-0.02989201104715466
1775721981645032200,12.3280322265625,0.7517699689388274,-0.3324669176992029,0.07798201515115798
1775721981655045400,12.33804541015625,0.7314151631742716,-0.4772205122770741,0.21987923391722142
1775721981665058000,12.34805810546875,0.6861608939528465,-0.5639276491429657,0.4141225067965686
1775721981675071200,12.3580712890625,0.6016214930474758,-0.5426550709463656,0.48023617030382154
1775721981685084200,12.368084228515626,0.3722147715240717,-0.38935386664513494,0.46860447696000335
1775721981695098000,12.37809814453125,0.20167934116423128,-0.2508434773057699,0.4571894220415503
1775721981705111300,12.388111328125,0.3849631939381361,-0.3088026951257139,0.41460890207402407
