time,seconds_elapsed,z,y,x
1775721969378903000,0.061903076171875,0.09622888267040253,-0.24804279208183289,-0.041625868529081345
1775721969388917200,0.071917236328125,0.07032491266727448,-0.24931783974170685,-0.0007834294810891151
1775721969398930400,0.081930419921875,0.05939209833741188,-0.25885117053985596,0.024713408201932907
1775721969408943000,0.091943115234375,0.06318146735429764,-0.251262366771698,0.023181069642305374
1775721969418956300,0.101956298828125,0.05736299604177475,-0.25801321864128113,0.003120009321719408
1775721969428969200,0.11196923828125,0.034351032227277756,-0.22915908694267273,-0.020688006654381752
1775721969438982100,0.121982177734375,0.013315785676240921,-0.18146108090877533,-0.028896667063236237
1775721969448996400,0.131996337890625,-0.0005551243666559458,-0.1531742662191391,-0.02558065578341484
1775721969459009300,0.14200927734375,-0.015995865687727928,-0.09135004878044128,-0.02888057939708233
1775721969469022200,0.152022216796875,-0.02647048979997635,-0.04973988234996796,-0.04158853366971016
1775721969479035100,0.16203515625,-0.024219585582613945,0.0039204191416502,-0.05780239403247833
1775721969489048300,0.17204833984375,-0.046747155487537384,-0.02394157275557518,-0.047170307487249374
1775721969499062300,0.182062255859375,-0.07169138640165329,-0.032693784683942795,-0.03180094063282013
1775721969509075200,0.1920751953125,-0.0905723050236702,-0.013190705329179764,-0.016818635165691376
1775721969519088400,0.20208837890625,-0.09444906562566757,0.013565274886786938,0.004580928478389978
1775721969529101300,0.212101318359375,-0.09075411409139633,0.0663885548710823,0.02843291126191616
1775721969539114200,0.2221142578125,-0.08761265128850937,0.09035514295101166,0.04493838548660278
1775721969549127400,0.23212744140625,-0.07897984981536865,0.0883420929312706,0.05619272589683533
1775721969559141000,0.24214111328125,-0.07375579327344894,0.09424232691526413,0.05531734600663185
1775721969569154300,0.252154296875,-0.07338825613260269,0.10416547954082489,0.05656476691365242
1775721969579167500,0.26216748046875,-0.07964242249727249,0.12246406078338623,0.05753948539495468
1775721969589180200,0.27218017578125,-0.08145531266927719,0.13997486233711243,0.058614954352378845
1775721969599193300,0.282193359375,-0.07980601489543915,0.13606427609920502,0.05273522809147835
1775721969609207000,0.29220703125,-0.062340252101421356,0.11879219859838486,0.03833635896444321
1775721969619220200,0.30222021484375,-0.04230901971459389,0.10345426201820374,0.013693597167730331
1775721969629233400,0.3122333984375,-0.025506097823381424,0.10113254934549332,-0.013590767979621887
1775721969639246300,0.322246337890625,-0.014183401130139828,0.08057853579521179,-0.02503783442080021
1775721969649259300,0.33225927734375,-0.003826386295258999,0.049144793301820755,-0.023582110181450844
1775721969659272200,0.342272216796875,0.006158337462693453,0.027481840923428535,-0.017031531780958176
1775721969669286100,0.3522861328125,0.018122587352991104,0.006170161534100771,-0.00797225721180439
1775721969679299300,0.36229931640625,0.024201519787311554,-0.019136792048811913,-0.0006680049700662494
1775721969689312300,0.372312255859375,0.029067382216453552,-0.02982432395219803,0.0013786342460662127
1775721969699325400,0.382325439453125,0.03288915753364563,-0.03177419677376747,0.005386005155742168
1775721969709338000,0.392338134765625,0.033591173589229584,-0.03422826901078224,0.010282528586685658
1775721969719351300,0.402351318359375,0.02605416253209114,-0.03144766017794609,0.004233690910041332
1775721969729365200,0.412365234375,0.029464807361364365,-0.026208801195025444,-0.007796309422701597
1775721969739378200,0.422378173828125,0.03575705736875534,-0.012358233332633972,-0.027207026258111
1775721969749391400,0.432391357421875,0.037445586174726486,-0.019412916153669357,-0.05059177801012993
1775721969759404300,0.442404296875,0.030507251620292664,-0.03250395134091377,-0.0682634487748146
1775721969769417200,0.452417236328125,0.020121904090046883,-0.03592667728662491,-0.08563384413719177
1775721969779431700,0.462431640625,0.015218492597341537,-0.04478248581290245,-0.10101999342441559
1775721969789444400,0.4724443359375,0.013484487310051918,-0.03837858512997627,-0.11080735921859741
1775721969799457500,0.48245751953125,0.015711423009634018,-0.017091140151023865,-0.11395734548568726
1775721969809470700,0.492470703125,0.017974557355046272,-0.008194521069526672,-0.10556117445230484
1775721969819483400,0.5024833984375,0.023114457726478577,-0.01143399067223072,-0.10038292407989502
1775721969829496600,0.51249658203125,0.035067275166511536,-0.014013857580721378,-0.1031198799610138
1775721969839510500,0.522510498046875,0.04726748168468475,-0.012952587567269802,-0.09717996418476105
1775721969849523500,0.5325234375,0.04668286070227623,-0.01346532441675663,-0.06868834048509598
1775721969859536600,0.54253662109375,0.03722091391682625,-0.019449980929493904,-0.030205657705664635
1775721969869549600,0.552549560546875,0.02531098946928978,-0.00980242807418108,-0.01169084757566452
1775721969879562500,0.5625625,0.022771665826439857,0.0061067636124789715,-0.010051672346889973
1775721969889576400,0.572576416015625,0.024426274001598358,0.008386257104575634,-0.02110692858695984
1775721969899589600,0.582589599609375,0.0282276701182127,0.013304316438734531,-0.02983064576983452
1775721969909602600,0.5926025390625,0.02578864060342312,0.01366705447435379,-0.04097643494606018
1775721969919615500,0.602615478515625,0.028972981497645378,0.01360446959733963,-0.04805458337068558
1775721969929628700,0.612628662109375,0.030643321573734283,0.012518465518951416,-0.0450851209461689
1775721969939641600,0.6226416015625,0.033419933170080185,0.011284355074167252,-0.042720500379800797
1775721969949655600,0.632655517578125,0.032684486359357834,0.018692877143621445,-0.032663486897945404
1775721969959668700,0.642668701171875,0.03061201423406601,0.02943127416074276,-0.019978586584329605
1775721969969681400,0.652681396484375,0.030324149876832962,0.034829191863536835,-0.012413880787789822
1775721969979694600,0.662694580078125,0.029560089111328125,0.03876321017742157,-0.012731862254440784
1775721969989707500,0.67270751953125,0.02578151412308216,0.04474039375782013,-0.022966569289565086
1775721969999720400,0.682720458984375,0.022395305335521698,0.04029691219329834,-0.041907504200935364
1775721970009734700,0.692734619140625,0.026336699724197388,0.0215652696788311,-0.054800596088171005
1775721970019747600,0.70274755859375,0.027063211426138878,0.021233439445495605,-0.04759860783815384
1775721970029760500,0.712760498046875,0.02192392572760582,0.03560947999358177,-0.021171599626541138
1775721970039773400,0.7227734375,0.019594991579651833,0.03133777156472206,0.010241717100143433
1775721970049786600,0.73278662109375,0.022872647270560265,0.012723293155431747,0.02891542762517929
1775721970059800600,0.742800537109375,0.02603435143828392,0.006244621239602566,0.03353521227836609
1775721970069813500,0.7528134765625,0.027556877583265305,0.009006302803754807,0.023308124393224716
1775721970079826700,0.76282666015625,0.024841517210006714,0.012173866853117943,0.007122496142983437
1775721970089839400,0.77283935546875,0.022443260997533798,0.00016459287144243717,-0.003373200073838234
1775721970099852500,0.7828525390625,0.01655847206711769,-0.0022588837891817093,-0.013887360692024231
1775721970109865700,0.79286572265625,0.0118993129581213,-0.007437792140990496,-0.028689520433545113
1775721970119879400,0.80287939453125,0.012937147170305252,-0.012530289590358734,-0.04444744065403938
1775721970129892600,0.812892578125,0.0062528797425329685,-0.013368384912610054,-0.06153534725308418
1775721970139905500,0.822905517578125,-0.0031142570078372955,-0.022830331698060036,-0.08106617629528046
1775721970149918500,0.83291845703125,-0.011141855269670486,-0.0450902059674263,-0.09322449564933777
1775721970159931600,0.842931640625,-0.006793180480599403,-0.04652271792292595,-0.08274868130683899
1775721970169944600,0.852944580078125,-0.005219664424657822,-0.013896709308028221,-0.055610138922929764
1775721970179958500,0.86295849609375,-0.012352408841252327,0.004245276562869549,-0.02404155768454075
1775721970189971500,0.872971435546875,-0.01783943921327591,0.016188865527510643,-0.000060195219703018665
1775721970199984600,0.882984619140625,-0.018960896879434586,0.020476022735238075,0.011178610846400261
1775721970209997600,0.89299755859375,-0.021721579134464264,0.023190127685666084,0.017610402777791023
1775721970220010500,0.903010498046875,-0.024683017283678055,0.00943969376385212,0.030975744128227234
1775721970230024700,0.913024658203125,-0.028662510216236115,0.015817541629076004,0.04566038399934769
1775721970240037400,0.923037353515625,-0.026079511269927025,0.02927129715681076,0.05508850887417793
1775721970250050600,0.933050537109375,-0.01849319413304329,0.028125451877713203,0.046722639352083206
1775721970260063700,0.943063720703125,-0.011984962038695812,0.025226334109902382,0.025000564754009247
1775721970270076400,0.953076416015625,-0.007809818256646395,0.012303860858082771,-0.0076346807181835175
1775721970280089600,0.963089599609375,-0.0039096190594136715,-0.001598372939042747,-0.03639601916074753
1775721970290103600,0.973103515625,-0.001855418086051941,-0.010798560455441475,-0.03967659920454025
1775721970300116500,0.983116455078125,-0.001894300221465528,-0.012244390323758125,-0.02322571724653244
1775721970310129700,0.993129638671875,-0.004293397068977356,-0.013874401338398457,0.0003758789971470833
1775721970320142600,1.003142578125,0.001217216020449996,-0.01867421716451645,0.015135650523006916
1775721970330155500,1.013155517578125,0.006385035812854767,-0.021621959283947945,0.01934480294585228
1775721970340169500,1.02316943359375,0.006324315443634987,-0.025341596454381943,0.012463195249438286
1775721970350182700,1.0331826171875,0.0006714672781527042,-0.030306214466691017,0.005703297909349203
1775721970360195600,1.043195556640625,-0.0011429444421082735,-0.022938048467040062,0.006553112529218197
1775721970370208500,1.05320849609375,-0.007051882799714804,-0.019510261714458466,0.011340075172483921
1775721970380221700,1.0632216796875,-0.00936137605458498,-0.015371177345514297,0.013390176929533482
1775721970390234400,1.073234375,-0.005347685422748327,-0.0035252952948212624,0.0030219140462577343
1775721970400248600,1.08324853515625,-0.0037420657463371754,0.0008137929253280163,-0.009678967297077179
1775721970410261500,1.093261474609375,-0.0009193811565637589,-0.000018444843590259552,-0.02587125264108181
1775721970420274400,1.1032744140625,0.0030236952006816864,-0.003948471508920193,-0.041026771068573
1775721970430287600,1.11328759765625,0.014031831175088882,-0.02134224958717823,-0.04434369131922722
1775721970440300500,1.123300537109375,0.025376630946993828,-0.033417023718357086,-0.02992560714483261
1775721970450313500,1.1333134765625,0.03582124039530754,-0.03105069324374199,-0.010486900806427002
1775721970460327700,1.14332763671875,0.04585842788219452,-0.02811376005411148,0.0014669636730104685
1775721970470340600,1.153340576171875,0.051769331097602844,-0.02598222903907299,-0.0043749683536589146
1775721970480353500,1.163353515625,0.056883133947849274,-0.02621552161872387,-0.021405884996056557
1775721970490366500,1.173366455078125,0.06324848532676697,-0.049105219542980194,-0.04324578121304512
1775721970500379600,1.183379638671875,0.06961530447006226,-0.07162783294916153,-0.048209384083747864
1775721970510392600,1.193392578125,0.07660835236310959,-0.08227124810218811,-0.039344631135463715
1775721970520406500,1.203406494140625,0.076519675552845,-0.08498527854681015,-0.015644893050193787
1775721970530419700,1.213419677734375,0.0692041665315628,-0.09071251004934311,0.009947599843144417
1775721970540432400,1.223432373046875,0.06319981068372726,-0.10124557465314865,0.021992277354002
1775721970550445600,1.233445556640625,0.061036087572574615,-0.1101946234703064,0.032578252255916595
1775721970560458800,1.243458740234375,0.06999736279249191,-0.11106414347887039,0.04339761286973953
1775721970570472400,1.253472412109375,0.08268789201974869,-0.10086649656295776,0.04382580146193504
1775721970580485600,1.263485595703125,0.09257753938436508,-0.09484535455703735,0.021738076582551003
1775721970590498600,1.27349853515625,0.0954081267118454,-0.09639418870210648,-0.01708722487092018
1775721970600511500,1.283511474609375,0.08553925156593323,-0.0911504253745079,-0.05436508730053902
1775721970610524700,1.293524658203125,0.07653237134218216,-0.07129478454589844,-0.07249237596988678
1775721970620537600,1.30353759765625,0.08465315401554108,-0.06326375901699066,-0.06095236539840698
1775721970630551600,1.313551513671875,0.11523766070604324,-0.051967114210128784,-0.02006937749683857
1775721970640564500,1.323564453125,0.14440061151981354,-0.007018814794719219,0.034295327961444855
1775721970650577700,1.33357763671875,0.1519889384508133,0.039319656789302826,0.0687793716788292
1775721970660590600,1.343590576171875,0.12294371426105499,0.06571504473686218,0.06947711855173111
1775721970670603500,1.353603515625,0.04961938410997391,0.0862388089299202,0.04722137749195099
1775721970680616700,1.36361669921875,-0.05867992341518402,0.11873656511306763,0.016429642215371132
1775721970690630400,1.37363037109375,-0.16253133118152618,0.1378277987241745,0.013120511546730995
1775721970700643600,1.3836435546875,-0.2374572455883026,0.13836468756198883,0.04757489264011383
1775721970710656800,1.39365673828125,-0.267706036567688,0.1342894434928894,0.0986112430691719
1775721970720669400,1.40366943359375,-0.27338603138923645,0.14892031252384186,0.1255086362361908
1775721970730682600,1.4136826171875,-0.26783573627471924,0.14920400083065033,0.10113541036844254
1775721970740696300,1.4236962890625,-0.25396278500556946,0.12469252198934555,0.033257026225328445
1775721970750709500,1.43370947265625,-0.22680708765983582,0.09956986457109451,-0.04668920487165451
1775721970760722700,1.44372265625,-0.20826350152492523,0.0901353508234024,-0.11938684433698654
1775721970770735600,1.453735595703125,-0.20380105078220367,0.10357112437486649,-0.1726464033126831
1775721970780748300,1.463748291015625,-0.20226334035396576,0.16289889812469482,-0.19740208983421326
1775721970790761200,1.47376123046875,-0.19848661124706268,0.20706792175769806,-0.18080562353134155
1775721970800775200,1.483775146484375,-0.1723804473876953,0.1884460300207138,-0.1027129516005516
1775721970810788400,1.493788330078125,-0.11935095489025116,0.1860419511795044,0.012289696373045444
1775721970820801300,1.50380126953125,-0.05177377536892891,0.19339041411876678,0.11874210834503174
1775721970830814500,1.513814453125,0.0047266217879951,0.1823585033416748,0.1737903505563736
1775721970840827100,1.5238271484375,0.03380274772644043,0.15812720358371735,0.16880278289318085
1775721970850840300,1.53384033203125,0.052350498735904694,0.1468977928161621,0.12629006803035736
1775721970860854300,1.543854248046875,0.06499891728162766,0.11918678879737854,0.0709807425737381
1775721970870867200,1.5538671875,0.08795313537120819,0.07306193560361862,0.03378605842590332
1775721970880880400,1.56388037109375,0.10123059153556824,0.06713427603244781,0.011813118122518063
1775721970890893300,1.573893310546875,0.10139592736959457,0.10442475974559784,-0.0001316663110628724
1775721970900906200,1.58390625,0.10079112648963928,0.13165239989757538,-0.0033498299308121204
1775721970910919200,1.593919189453125,0.11886346340179443,0.14872342348098755,0.02352667786180973
1775721970920933000,1.60393310546875,0.1482117474079132,0.16641665995121002,0.09084925800561905
1775721970930946300,1.6139462890625,0.15844881534576416,0.2075754702091217,0.1843934804201126
1775721970940959200,1.623959228515625,0.13448834419250488,0.2313566952943802,0.2629393935203552
1775721970950972400,1.633972412109375,0.09288608282804489,0.19434046745300293,0.2947840988636017
1775721970960985000,1.643985107421875,0.06605313718318939,0.13119161128997803,0.2751251757144928
1775721970970999300,1.653999267578125,0.05804571136832237,0.0925915390253067,0.22055155038833618
1775721970981012200,1.66401220703125,0.04600582644343376,0.048933807760477066,0.14467862248420715
1775721970991025200,1.674025146484375,0.0158553384244442,-0.03061257302761078,0.06644296646118164
1775721971001038300,1.684038330078125,-0.030257029458880424,-0.08661805093288422,-0.010304544121026993
1775721971011051500,1.694051513671875,-0.06234806030988693,-0.08590051531791687,-0.08917918801307678
1775721971021064200,1.704064208984375,-0.07549794763326645,-0.02385578863322735,-0.14885981380939484
1775721971031078400,1.714078369140625,-0.07533955574035645,0.014694721437990665,-0.17762349545955658
1775721971041091300,1.72409130859375,-0.06416386365890503,-0.026678020134568214,-0.1619558483362198
1775721971051104300,1.734104248046875,-0.04384191334247589,-0.048583004623651505,-0.1164388582110405
1775721971061117400,1.744117431640625,-0.028512760996818542,-0.06240667402744293,-0.06423290818929672
1775721971071130400,1.75413037109375,-0.017404962331056595,-0.11427472531795502,-0.022264180704951286
1775721971081144300,1.764144287109375,0.005688640289008617,-0.18085002899169922,-0.0012334638740867376
1775721971091157200,1.7741572265625,0.05221924930810928,-0.24381577968597412,-0.003504455555230379
1775721971101170200,1.784170166015625,0.10551975667476654,-0.29873600602149963,-0.02598739229142666
1775721971111183400,1.794183349609375,0.13500438630580902,-0.33270272612571716,-0.07566093653440475
1775721971121196300,1.8041962890625,0.1532081514596939,-0.3691992163658142,-0.13854055106639862
1775721971131209500,1.81420947265625,0.18630430102348328,-0.396356463432312,-0.1822078675031662
1775721971141223200,1.82422314453125,0.22966189682483673,-0.352460652589798,-0.20205187797546387
1775721971151236400,1.834236328125,0.26324111223220825,-0.2864327132701874,-0.20044167339801788
1775721971161249300,1.844249267578125,0.2722468674182892,-0.2533874213695526,-0.18844012916088104
1775721971171262200,1.85426220703125,0.2695154547691345,-0.20874041318893433,-0.18455052375793457
1775721971181275400,1.864275390625,0.26129961013793945,-0.17757102847099304,-0.19876408576965332
1775721971191288300,1.874288330078125,0.2583669126033783,-0.18131910264492035,-0.22735390067100525
1775721971201302300,1.88430224609375,0.25780418515205383,-0.18880391120910645,-0.25984951853752136
1775721971211315500,1.8943154296875,0.25755181908607483,-0.15750443935394287,-0.2834463119506836
1775721971221328400,1.904328369140625,0.2525797188282013,-0.1045496016740799,-0.30040374398231506
1775721971231341300,1.91434130859375,0.24322360754013062,-0.041421230882406235,-0.31197842955589294
1775721971241354200,1.924354248046875,0.2283937931060791,0.022245362401008606,-0.3190925121307373
1775721971251367400,1.934367431640625,0.19871367514133453,0.058602225035429,-0.3266948461532593
1775721971261381400,1.94438134765625,0.1519235372543335,0.09032154083251953,-0.334970086812973
1775721971271394300,1.954394287109375,0.1169048622250557,0.10395810008049011,-0.33860108256340027
1775721971281407200,1.9644072265625,0.1246781051158905,0.0732816830277443,-0.3303793966770172
1775721971291420200,1.974420166015625,0.17080670595169067,0.03659850358963013,-0.290650337934494
1775721971301433300,1.984433349609375,0.22212918102741241,0.00817837379872799,-0.23211607336997986
1775721971311446300,1.9944462890625,0.23841966688632965,0.009681430645287037,-0.1647215187549591
1775721971321460200,2.004460205078125,0.22303111851215363,0.0027774516493082047,-0.0931655764579773
1775721971331473400,2.014473388671875,0.2100820392370224,-0.04742393270134926,-0.004253550432622433
1775721971341486300,2.024486328125,0.2129143625497818,-0.12632103264331818,0.10604868829250336
1775721971351499300,2.034499267578125,0.2181471884250641,-0.20458701252937317,0.22217531502246857
1775721971361512200,2.04451220703125,0.20350566506385803,-0.2349659502506256,0.3232755661010742
1775721971371526100,2.054526123046875,0.17840510606765747,-0.22616234421730042,0.37449294328689575
1775721971381539300,2.064539306640625,0.15772134065628052,-0.23133908212184906,0.36481642723083496
1775721971391552300,2.07455224609375,0.14864997565746307,-0.22904765605926514,0.3091263771057129
1775721971401565400,2.0845654296875,0.14590825140476227,-0.1772017627954483,0.23681889474391937
1775721971411578400,2.094578369140625,0.13626669347286224,-0.1335468590259552,0.18838408589363098
1775721971421591300,2.10459130859375,0.11204496771097183,-0.11384080350399017,0.17889922857284546
1775721971431605200,2.114605224609375,0.06338100135326385,-0.0923764780163765,0.20888324081897736
1775721971441618200,2.1246181640625,0.009159311652183533,-0.0620739683508873,0.2663950026035309
1775721971451631400,2.13463134765625,-0.025475896894931793,-0.017624210566282272,0.32043665647506714
1775721971461644300,2.144644287109375,-0.04531257599592209,0.017465708777308464,0.3511345088481903
1775721971471657200,2.1546572265625,-0.07722292095422745,0.01489173248410225,0.3484323024749756
1775721971481670400,2.16467041015625,-0.15266121923923492,-0.014503173530101776,0.31334009766578674
1775721971491684000,2.17468408203125,-0.24095290899276733,-0.044633083045482635,0.2682068645954132
1775721971501697300,2.184697265625,-0.3186977803707123,-0.04061676934361458,0.22498032450675964
1775721971511710500,2.19471044921875,-0.36893123388290405,-0.01646946370601654,0.17357158660888672
1775721971521723400,2.204723388671875,-0.3863014578819275,0.01121329516172409,0.1077616885304451
1775721971531736300,2.214736328125,-0.37834274768829346,0.047124799340963364,0.020151806995272636
1775721971541750300,2.224750244140625,-0.35979515314102173,0.09796161204576492,-0.07008568197488785
1775721971551763200,2.23476318359375,-0.334276407957077,0.15220868587493896,-0.14186832308769226
1775721971561776400,2.2447763671875,-0.2996462881565094,0.17926134169101715,-0.18609224259853363
1775721971571789300,2.254789306640625,-0.24886968731880188,0.18367625772953033,-0.2026066929101944
1775721971581802500,2.264802490234375,-0.20021533966064453,0.17865407466888428,-0.197238028049469
1775721971591815200,2.274815185546875,-0.1784105747938156,0.17266549170017242,-0.17376750707626343
1775721971601829400,2.284829345703125,-0.1988482028245926,0.18005762994289398,-0.13783800601959229
1775721971611842300,2.29484228515625,-0.22908706963062286,0.1857544183731079,-0.08808853477239609
1775721971621855200,2.304855224609375,-0.2412092387676239,0.18179349601268768,-0.041364435106515884
1775721971631868400,2.314868408203125,-0.2274160087108612,0.17825627326965332,-0.017333049327135086
1775721971641881300,2.32488134765625,-0.19754278659820557,0.17349639534950256,-0.02319014072418213
1775721971651894300,2.334894287109375,-0.1559460610151291,0.1284116804599762,-0.03442817181348801
1775721971661908500,2.344908447265625,-0.1042996421456337,0.060845423489809036,-0.01806730404496193
1775721971671921200,2.354921142578125,-0.06487267464399338,0.02979581616818905,0.02871784195303917
1775721971681934300,2.364934326171875,-0.03780749812722206,0.0034097484312951565,0.09318311512470245
1775721971691947300,2.374947265625,-0.016899844631552696,-0.0022518187761306763,0.13884302973747253
1775721971701960400,2.38496044921875,0.004361502360552549,0.014344468712806702,0.14622557163238525
1775721971711973000,2.39497314453125,0.024655034765601158,0.027183897793293,0.1315515637397766
1775721971721987300,2.4049873046875,0.0354890413582325,0.0386008657515049,0.11231635510921478
1775721971732000300,2.415000244140625,0.04456816986203194,0.05547449737787247,0.10931511223316193
1775721971742013200,2.42501318359375,0.06268805265426636,0.06600917130708694,0.12055471539497375
1775721971752026400,2.4350263671875,0.08786031603813171,0.06710568815469742,0.12932924926280975
1775721971762039300,2.445039306640625,0.10282780975103378,0.05899902433156967,0.12054400891065598
1775721971772053200,2.45505322265625,0.10052075237035751,0.051168669015169144,0.09084279835224152
1775721971782066700,2.465066650390625,0.08177236467599869,0.03624564781785011,0.047568824142217636
1775721971792079600,2.47507958984375,0.06077788397669792,0.015375440940260887,-0.0034935972653329372
1775721971802092800,2.4850927734375,0.0475345216691494,-0.005322380922734737,-0.045852772891521454
1775721971812105700,2.495105712890625,0.02280215360224247,-0.013724811375141144,-0.07497430592775345
1775721971822118700,2.50511865234375,-0.010636230930685997,-0.018702790141105652,-0.07833361625671387
1775721971832132600,2.515132568359375,-0.04479245841503143,-0.027777135372161865,-0.06140909716486931
1775721971842145800,2.525145751953125,-0.0589868426322937,-0.0470254011452198,-0.020545288920402527
1775721971852158700,2.53515869140625,-0.046057216823101044,-0.06585443764925003,0.03769432008266449
1775721971862171600,2.545171630859375,-0.02557937242090702,-0.06289086490869522,0.08494918048381805
1775721971872184800,2.555184814453125,-0.010323822498321533,-0.059623122215270996,0.09829732030630112
1775721971882197500,2.565197509765625,-0.007942955940961838,-0.04666711017489433,0.07391741126775742
1775721971892211700,2.575211669921875,-0.00013849837705492973,-0.027241386473178864,0.029615148901939392
1775721971902225000,2.585224853515625,0.02601826936006546,-0.009491951204836369,0.003194992896169424
1775721971912237600,2.595237548828125,0.05847649276256561,0.010814495384693146,0.005460141226649284
1775721971922250800,2.605250732421875,0.08419463783502579,0.032362133264541626,0.03052261844277382
1775721971932263700,2.615263671875,0.0926859974861145,0.04984427988529205,0.05709095671772957
1775721971942276600,2.625276611328125,0.09438695758581161,0.05487419292330742,0.07042087614536285
1775721971952290800,2.635290771484375,0.09229691326618195,0.0388755202293396,0.06673692911863327
1775721971962303700,2.6453037109375,0.08577962219715118,0.035242967307567596,0.05187542364001274
1775721971972316700,2.655316650390625,0.07662750780582428,0.03285086899995804,0.027381423860788345
1775721971982329600,2.66532958984375,0.0535845085978508,0.03123459592461586,0.0001551301102153957
1775721971992342800,2.6753427734375,0.02365802228450775,0.045116156339645386,-0.027296949177980423
1775721972002355500,2.68535546875,0.0007849298417568207,0.05583031848073006,-0.044269006699323654
1775721972012369700,2.69536962890625,0.0018749120645225048,0.05499470606446266,-0.038640137761831284
1775721972022382800,2.7053828125,0.01774042844772339,0.08580455183982849,-0.005129049066454172
1775721972032395500,2.7153955078125,0.023492690175771713,0.10812871903181076,0.04654788598418236
1775721972042408700,2.72540869140625,0.015062985941767693,0.11795604974031448,0.08945966511964798
1775721972052421600,2.735421630859375,0.008588168770074844,0.11448745429515839,0.1085650697350502
1775721972062435600,2.745435546875,0.005345769692212343,0.10859521478414536,0.10438044369220734
1775721972072448800,2.75544873046875,0.006352193187922239,0.1016051173210144,0.08146362006664276
1775721972082461700,2.765461669921875,0.007270451169461012,0.09301935136318207,0.05596198886632919
1775721972092474600,2.775474609375,0.009300398640334606,0.06707754731178284,0.03901331126689911
1775721972102487600,2.785487548828125,0.018238764256238937,0.04728280380368233,0.02723761275410652
1775721972112500700,2.795500732421875,0.03457627445459366,0.043708059936761856,0.014216532930731773
1775721972122514700,2.8055146484375,0.04296070337295532,0.030813565477728844,-0.003423446323722601
1775721972132527600,2.815527587890625,0.04784040153026581,0.0055394480004906654,-0.018770407885313034
1775721972142540800,2.825540771484375,0.04851923882961273,0.010866568423807621,-0.02517664059996605
1775721972152553500,2.835553466796875,0.04161902517080307,0.02357238531112671,-0.01565721444785595
1775721972162566700,2.845566650390625,0.019045010209083557,0.04939332604408264,0.023493649438023567
1775721972172579800,2.855579833984375,-0.01722104102373123,0.08492841571569443,0.07361236959695816
1775721972182593500,2.865593505859375,-0.0654681995511055,0.11534544825553894,0.11634891480207443
1775721972192606700,2.875606689453125,-0.11590084433555603,0.14241601526737213,0.1443609595298767
1775721972202620000,2.885619873046875,-0.149248406291008,0.1673181653022766,0.142451211810112
1775721972212632600,2.895632568359375,-0.17007963359355927,0.17974594235420227,0.12170515209436417
1775721972222645800,2.905645751953125,-0.1707102656364441,0.16500428318977356,0.11663874983787537
1775721972232658700,2.91565869140625,-0.16822510957717896,0.19671911001205444,0.14775176346302032
1775721972242672600,2.925672607421875,-0.17804577946662903,0.20961253345012665,0.21382904052734375
1775721972252685800,2.935685791015625,-0.19384710490703583,0.2215205878019333,0.2963811755180359
1775721972262698800,2.94569873046875,-0.21015849709510803,0.2544909715652466,0.36257651448249817
1775721972272711700,2.955711669921875,-0.21817024052143097,0.2907465994358063,0.3929412066936493
1775721972282724600,2.965724609375,-0.22667796909809113,0.3016511797904968,0.38639622926712036
1775721972292737800,2.97573779296875,-0.22623306512832642,0.2675577998161316,0.37427791953086853
1775721972302751700,2.985751708984375,-0.22711405158042908,0.25588753819465637,0.3875713646411896
1775721972312764700,2.9957646484375,-0.2376175820827484,0.25837719440460205,0.44163835048675537
1775721972322777900,3.00577783203125,-0.25422346591949463,0.27550745010375977,0.49759215116500854
1775721972332790500,3.01579052734375,-0.26424461603164673,0.2591027319431305,0.503032386302948
1775721972342803700,3.0258037109375,-0.23633921146392822,0.2109418362379074,0.4555881917476654
1775721972352817700,3.035817626953125,-0.1710781455039978,0.15804867446422577,0.3886836767196655
1775721972362830600,3.04583056640625,-0.13110250234603882,0.1033894270658493,0.29665759205818176
1775721972372843800,3.05584375,-0.11454693973064423,0.08945435285568237,0.21814385056495667
1775721972382856700,3.065856689453125,-0.1020846739411354,0.05592861771583557,0.17726460099220276
1775721972392869600,3.07586962890625,-0.08931225538253784,0.009885553270578384,0.16455106437206268
1775721972402882600,3.085882568359375,-0.06817394495010376,-0.013090335763990879,0.1472618281841278
1775721972412896500,3.095896484375,-0.05674741044640541,-0.009342140518128872,0.09575790166854858
1775721972422909700,3.10590966796875,-0.04921465739607811,0.03142765909433365,0.015460404567420483
1775721972432922600,3.115922607421875,-0.044821325689554214,0.08566370606422424,-0.06356190890073776
1775721972442935800,3.125935791015625,-0.05148695036768913,0.09698213636875153,-0.12749694287776947
1775721972452948500,3.135948486328125,-0.050417523831129074,0.10280919075012207,-0.17887718975543976
1775721972462961700,3.145961669921875,-0.023825591430068016,0.11124662309885025,-0.20436817407608032
1775721972472975600,3.1559755859375,0.02553381957113743,0.0753292366862297,-0.20187106728553772
1775721972482988500,3.165988525390625,0.07397724688053131,0.05912550538778305,-0.12345509231090546
1775721972493001700,3.176001708984375,0.10298191756010056,0.10729994624853134,0.07629352807998657
1775721972503014700,3.1860146484375,0.08827674388885498,0.20094841718673706,0.2827231287956238
1775721972513027600,3.196027587890625,0.023740772157907486,0.27721986174583435,0.3535263240337372
1775721972523040800,3.206040771484375,-0.05234360694885254,0.30695271492004395,0.29085975885391235
1775721972533054500,3.216054443359375,-0.09880375862121582,0.3184916079044342,0.18089887499809265
1775721972543067600,3.226067626953125,-0.11784856021404266,0.2926751971244812,0.10222510248422623
1775721972553080600,3.23608056640625,-0.09789761155843735,0.26606976985931396,0.06856579333543777
1775721972563093800,3.24609375,-0.0657505914568901,0.23642663657665253,0.04012216627597809
1775721972573106700,3.256106689453125,-0.046632662415504456,0.20462802052497864,-0.006065725814551115
1775721972583119600,3.26611962890625,-0.028891215100884438,0.1643889844417572,-0.04425226151943207
1775721972593133600,3.276133544921875,-0.013351977802813053,0.1352032721042633,-0.04037092626094818
1775721972603146800,3.286146728515625,-0.011816665530204773,0.1061154156923294,0.010363091714680195
1775721972613159700,3.29615966796875,-0.02420196495950222,0.08105506002902985,0.06817923486232758
1775721972623172900,3.3061728515625,-0.02852747216820717,0.045650459825992584,0.09606652706861496
1775721972633185500,3.316185546875,-0.002795763313770294,-0.04448656365275383,0.09280763566493988
1775721972643198700,3.32619873046875,0.04983682185411453,-0.13849800825119019,0.06630625575780869
1775721972653212700,3.336212646484375,0.09787677973508835,-0.2222408503293991,0.024622725322842598
1775721972663225600,3.3462255859375,0.12987838685512543,-0.3153478801250458,-0.023419635370373726
1775721972673238800,3.35623876953125,0.14828501641750336,-0.4070131182670593,-0.054422203451395035
1775721972683251700,3.366251708984375,0.18405872583389282,-0.48577237129211426,-0.07222437113523483
1775721972693264600,3.3762646484375,0.22762459516525269,-0.5356497168540955,-0.08967474102973938
1775721972703278800,3.38627880859375,0.2413737028837204,-0.5825929641723633,-0.104713074862957
1775721972713291500,3.39629150390625,0.2145027369260788,-0.5823220610618591,-0.1097199022769928
1775721972723304700,3.4063046875,0.1576908528804779,-0.6019368171691895,-0.10611824691295624
1775721972733317600,3.416317626953125,0.08859972655773163,-0.5888320207595825,-0.09938794374465942
1775721972743330800,3.426330810546875,0.025290796533226967,-0.5832495093345642,-0.1172281950712204
1775721972753343500,3.436343505859375,-0.009911419823765755,-0.5740306973457336,-0.17441077530384064
1775721972763357700,3.446357666015625,-0.03533874824643135,-0.5674713253974915,-0.2419980764389038
1775721972773370600,3.45637060546875,-0.07273022085428238,-0.6098811626434326,-0.29147279262542725
1775721972783383800,3.4663837890625,-0.09936529397964478,-0.6384222507476807,-0.30275392532348633
1775721972793397000,3.47639697265625,-0.12519997358322144,-0.5609357357025146,-0.2897418141365051
1775721972803410000,3.486409912109375,-0.1666584610939026,-0.4975365698337555,-0.2996186912059784
1775721972813422800,3.4964228515625,-0.20892247557640076,-0.4991243779659271,-0.352662056684494
1775721972823437000,3.50643701171875,-0.22821947932243347,-0.4692287743091583,-0.42113351821899414
1775721972833449700,3.51644970703125,-0.2195671945810318,-0.3600589334964752,-0.4759969413280487
1775721972843463000,3.526462890625,-0.20418238639831543,-0.21844960749149323,-0.49851876497268677
1775721972853475800,3.536475830078125,-0.18690821528434753,-0.11384548991918564,-0.49070703983306885
1775721972863489000,3.546489013671875,-0.15375718474388123,-0.045947398990392685,-0.4809721112251282
1775721972873502000,3.556501953125,-0.10306854546070099,0.014255267567932606,-0.480228990316391
1775721972883516000,3.566515869140625,-0.05735858529806137,0.06678132712841034,-0.47132259607315063
1775721972893528800,3.57652880859375,-0.012553460896015167,0.07853833585977554,-0.42331016063690186
1775721972903542000,3.5865419921875,0.03624363988637924,0.06313381344079971,-0.33360928297042847
1775721972913555000,3.596554931640625,0.08667192608118057,0.08772091567516327,-0.2386913150548935
1775721972923568000,3.606568115234375,0.11570437252521515,0.09839832782745361,-0.17500048875808716
1775721972933580800,3.616580810546875,0.113332599401474,0.08764221519231796,-0.16941456496715546
1775721972943595000,3.626594970703125,0.10677856206893921,0.07658396661281586,-0.2008579820394516
1775721972953608000,3.63660791015625,0.10811689496040344,0.11552982777357101,-0.24279506504535675
1775721972963620900,3.646620849609375,0.10543588548898697,0.1763087660074234,-0.2655355632305145
1775721972973634000,3.656634033203125,0.09041868895292282,0.19757111370563507,-0.27773988246917725
1775721972983647000,3.66664697265625,0.07299495488405228,0.20993110537528992,-0.28979095816612244
1775721972993660000,3.676659912109375,0.07237386703491211,0.21888665854930878,-0.30454719066619873
1775721973003674000,3.686674072265625,0.08294688165187836,0.19788549840450287,-0.3174629807472229
1775721973013686800,3.696686767578125,0.1015915721654892,0.1699281930923462,-0.31506258249282837
1775721973023700000,3.706699951171875,0.11943208426237106,0.1650191843509674,-0.2738613486289978
1775721973033713000,3.716712890625,0.13999854028224945,0.14402814209461212,-0.203030526638031
1775721973043726000,3.72672607421875,0.1621967852115631,0.1348372995853424,-0.11678804457187653
1775721973053738800,3.73673876953125,0.1765541285276413,0.12295515090227127,-0.05148250237107277
1775721973063753000,3.7467529296875,0.18606960773468018,0.1199556291103363,-0.04040827974677086
1775721973073766000,3.756765869140625,0.18385116755962372,0.10619565844535828,-0.05965094640851021
1775721973083778800,3.76677880859375,0.17180542647838593,0.07114206254482269,-0.07766003906726837
1775721973093792000,3.7767919921875,0.1681772768497467,0.038975998759269714,-0.08040694147348404
1775721973103805000,3.786804931640625,0.1812043935060501,0.016405178233981133,-0.07808493077754974
1775721973113817900,3.79681787109375,0.1993667632341385,-0.021722940728068352,-0.06952328979969025
1775721973123832000,3.80683203125,0.20933552086353302,-0.05096205323934555,-0.05065053328871727
1775721973133844700,3.8168447265625,0.19546838104724884,-0.045587074011564255,-0.024697696790099144
1775721973143858000,3.82685791015625,0.15018664300441742,-0.01872083730995655,-0.004762603901326656
1775721973153870800,3.836870849609375,0.0934884324669838,-0.01790127344429493,-0.008404981344938278
1775721973163884000,3.846884033203125,0.05329760164022446,-0.015460752882063389,-0.03079657442867756
1775721973173898000,3.85689794921875,0.038200899958610535,-0.002805818570777774,-0.05249383673071861
1775721973183911000,3.866910888671875,0.03558434545993805,-0.008282342925667763,-0.06450123339891434
1775721973193923800,3.876923828125,0.03342609480023384,-0.017492305487394333,-0.06815002113580704
1775721973203936800,3.886936767578125,0.023902365937829018,-0.014405435882508755,-0.06380454450845718
1775721973213950000,3.896949951171875,0.011668437160551548,-0.011702374555170536,-0.050112541764974594
1775721973223963100,3.906963134765625,-0.005231982097029686,0.005041184835135937,-0.02696807309985161
1775721973233976800,3.916976806640625,-0.024231256917119026,0.007280449382960796,-0.004818790592253208
1775721973243990000,3.926989990234375,-0.037819236516952515,-0.004665692336857319,-0.0039178431034088135
1775721973254002700,3.937002685546875,-0.037713199853897095,-0.017653504386544228,-0.025421563535928726
1775721973264016000,3.947015869140625,-0.03808790445327759,-0.03640002757310867,-0.049190010875463486
1775721973274029000,3.957029052734375,-0.044072214514017105,-0.05706081539392471,-0.07001867890357971
1775721973284042000,3.9670419921875,-0.05060255154967308,-0.07062909007072449,-0.08968771994113922
1775721973294056000,3.977055908203125,-0.05680308863520622,-0.10452185571193695,-0.09943180531263351
1775721973304069000,3.987069091796875,-0.0593530647456646,-0.154615119099617,-0.10038229078054428
1775721973314081800,3.997081787109375,-0.060439467430114746,-0.175612211227417,-0.09054524451494217
1775721973324095000,4.007094970703125,-0.06227598339319229,-0.194553405046463,-0.08198051899671555
1775721973334108000,4.01710791015625,-0.06882431358098984,-0.21308301389217377,-0.08011352270841599
1775721973344121000,4.02712109375,-0.07889585196971893,-0.21224065124988556,-0.08788276463747025
1775721973354135000,4.037135009765625,-0.0893111452460289,-0.19001887738704681,-0.09930111467838287
1775721973364148000,4.04714794921875,-0.0907798781991005,-0.1680816262960434,-0.1008705198764801
1775721973374161000,4.057160888671875,-0.08968999981880188,-0.13977740705013275,-0.08357689529657364
1775721973384173800,4.067173828125,-0.09056271612644196,-0.09923584014177322,-0.049608539789915085
1775721973394187000,4.07718701171875,-0.08418751507997513,-0.08134986460208893,-0.013341977261006832
1775721973404200000,4.087199951171875,-0.07020485401153564,-0.08283697068691254,0.00878090225160122
1775721973414214000,4.0972138671875,-0.06103315204381943,-0.07238207757472992,0.012627512216567993
1775721973424227000,4.10722705078125,-0.06105925142765045,-0.05630244314670563,-0.0012435619719326496
1775721973434239700,4.11723974609375,-0.05463402345776558,-0.05228316783905029,-0.021280989050865173
1775721973444253000,4.1272529296875,-0.046434685587882996,-0.0330335758626461,-0.03201832249760628
1775721973454265900,4.137265869140625,-0.04155817627906799,0.0049348315224051476,-0.031566668301820755
1775721973464279000,4.147279052734375,-0.046565718948841095,0.03927469626069069,-0.02058831788599491
1775721973474293000,4.15729296875,-0.05267944931983948,0.053822245448827744,-0.01070326752960682
1775721973484306000,4.167305908203125,-0.052843499928712845,0.061283357441425323,-0.0052832020446658134
1775721973494318800,4.17731884765625,-0.04894527047872543,0.07799499481916428,0.002491722349077463
1775721973504331800,4.187331787109375,-0.04214249178767204,0.09345623850822449,0.0012400365667417645
1775721973514345000,4.197344970703125,-0.04112469032406807,0.08811759948730469,-0.00651767011731863
1775721973524358100,4.207358154296875,-0.036099039018154144,0.08444483578205109,-0.023956581950187683
1775721973534371800,4.217371826171875,-0.020434485748410225,0.08205462247133255,-0.03968343883752823
1775721973544385000,4.227385009765625,-0.004773499444127083,0.0790734812617302,-0.04989372938871384
1775721973554397700,4.237397705078125,0.004503908567130566,0.07720733433961868,-0.05424163118004799
1775721973564411000,4.247410888671875,0.00762886181473732,0.05638621374964714,-0.049097735434770584
1775721973574424000,4.257424072265625,-0.001736334292218089,0.03952999785542488,-0.04016532748937607
1775721973584437000,4.26743701171875,-0.023147616535425186,0.02904726378619671,-0.031040538102388382
1775721973594451000,4.277450927734375,-0.044396284967660904,0.009112735278904438,-0.015275334939360619
1775721973604463900,4.2874638671875,-0.04483890160918236,-0.018728217110037804,0.026038017123937607
1775721973614476800,4.297476806640625,-0.038795873522758484,-0.026611264795064926,0.0877290666103363
1775721973624490000,4.307489990234375,-0.040072858333587646,-0.03849535435438156,0.1380407065153122
1775721973634503000,4.3175029296875,-0.04541889578104019,-0.04700044170022011,0.15080468356609344
1775721973644516000,4.32751611328125,-0.055185239762067795,-0.04254604130983353,0.12130139023065567
1775721973654529800,4.33752978515625,-0.0753919929265976,-0.016564711928367615,0.06453054398298264
1775721973664543000,4.34754296875,-0.09382133185863495,0.017596453428268433,0.025279011577367783
1775721973674556000,4.357555908203125,-0.10574530810117722,0.052291929721832275,0.02075823023915291
1775721973684568800,4.36756884765625,-0.11551006138324738,0.08632712811231613,0.038969460874795914
1775721973694582000,4.37758203125,-0.12557922303676605,0.10656002163887024,0.06547911465167999
1775721973704595000,4.387594970703125,-0.12659521400928497,0.11590772122144699,0.10184910893440247
1775721973714609000,4.39760888671875,-0.124813012778759,0.14710472524166107,0.13650932908058167
1775721973724622000,4.4076220703125,-0.1271163821220398,0.15766815841197968,0.15969054400920868
1775721973734634800,4.417634765625,-0.1238306537270546,0.15528301894664764,0.15731669962406158
1775721973744648000,4.42764794921875,-0.12873592972755432,0.16492977738380432,0.13838641345500946
1775721973754660900,4.437660888671875,-0.13895082473754883,0.15737490355968475,0.12434791773557663
1775721973764674800,4.4476748046875,-0.14969667792320251,0.15367497503757477,0.13693854212760925
1775721973774688000,4.45768798828125,-0.14977595210075378,0.13197655975818634,0.16229785978794098
1775721973784701000,4.467700927734375,-0.1356865018606186,0.10761503130197525,0.18026140332221985
1775721973794713900,4.4777138671875,-0.11850619316101074,0.10777221620082855,0.1730210930109024
1775721973804726800,4.487726806640625,-0.10377652198076248,0.12236393988132477,0.1424730271100998
1775721973814739700,4.49773974609375,-0.09933676570653915,0.11989705264568329,0.10418130457401276
1775721973824753000,4.5077529296875,-0.0969654843211174,0.10743799060583115,0.07494325935840607
1775721973834766800,4.517766845703125,-0.09569837152957916,0.07572460174560547,0.07252086699008942
1775721973844779800,4.52777978515625,-0.09145249426364899,0.043913669884204865,0.0975218266248703
1775721973854793000,4.53779296875,-0.08844107389450073,0.03616224229335785,0.13131500780582428
1775721973864805600,4.5478056640625,-0.08229875564575195,0.033622920513153076,0.15358249843120575
1775721973874818800,4.55781884765625,-0.06539560854434967,0.018551934510469437,0.1493600308895111
1775721973884832800,4.567832763671875,-0.03935335576534271,-0.011377733200788498,0.1176614910364151
1775721973894845700,4.577845703125,-0.013870339840650558,-0.02918713539838791,0.07570070773363113
1775721973904859000,4.58785888671875,0.0021078279241919518,-0.037886351346969604,0.03381451219320297
1775721973914871800,4.597871826171875,-0.0017090688925236464,-0.03519382327795029,0.0051285396330058575
1775721973924884700,4.607884765625,-0.01082666777074337,-0.02781233750283718,0.0001332485699094832
1775721973934898000,4.61789794921875,-0.01282655168324709,0.005498074926435947,0.01511607225984335
1775721973944911600,4.62791162109375,0.0017236287239938974,0.03809276968240738,0.050201620906591415
1775721973954924800,4.6379248046875,0.03092006780207157,0.053276970982551575,0.08702601492404938
1775721973964937700,4.647937744140625,0.07248669117689133,0.05783950164914131,0.11252018809318542
1775721973974951000,4.657950927734375,0.1071750745177269,0.052653759717941284,0.14263767004013062
1775721973984963800,4.6679638671875,0.1440659761428833,0.021722475066781044,0.17172366380691528
1775721973994976800,4.677976806640625,0.17458181083202362,0.00478876568377018,0.18449191749095917
1775721974004990700,4.68799072265625,0.18949364125728607,-0.022202905267477036,0.1854887306690216
1775721974015003600,4.698003662109375,0.19364114105701447,-0.05127998813986778,0.17007875442504883
1775721974025016800,4.708016845703125,0.20144392549991608,-0.08439186960458755,0.1497441828250885
1775721974035030000,4.718030029296875,0.22385084629058838,-0.09354879707098007,0.14266879856586456
1775721974045042700,4.728042724609375,0.2549791932106018,-0.07677674293518066,0.15244632959365845
1775721974055056000,4.738055908203125,0.26682788133621216,-0.0441705696284771,0.15402695536613464
1775721974065069800,4.74806982421875,0.2611047327518463,-0.022236507385969162,0.1347624510526657
1775721974075082800,4.758082763671875,0.2508118450641632,-0.013099029660224915,0.09611310064792633
1775721974085096000,4.768095947265625,0.2502075731754303,-0.008528245612978935,0.058649081736803055
1775721974095108900,4.77810888671875,0.2725500464439392,-0.016227398067712784,0.028336025774478912
1775721974105121800,4.788121826171875,0.3074808418750763,-0.03646955266594887,0.011127743870019913
1775721974115134700,4.798134765625,0.329230397939682,-0.04980273172259331,0.007761486805975437
1775721974125148700,4.808148681640625,0.3243948817253113,-0.04192696511745453,0.004539861343801022
1775721974135161900,4.818161865234375,0.2882706820964813,-0.018849829211831093,-0.011299016885459423
1775721974145174800,4.8281748046875,0.2323184609413147,-0.004673822782933712,-0.050337497144937515
1775721974155188000,4.83818798828125,0.1758785992860794,-0.008113248273730278,-0.108101986348629
1775721974165200600,4.84820068359375,0.13916319608688354,-0.032527778297662735,-0.1603044718503952
1775721974175213800,4.8582138671875,0.11753638833761215,-0.04306430742144585,-0.1885373294353485
1775721974185227800,4.868227783203125,0.09463027864694595,-0.04147786274552345,-0.1884385347366333
1775721974195240700,4.87824072265625,0.06475699692964554,-0.040456898510456085,-0.15973760187625885
1775721974205254000,4.88825390625,0.032841410487890244,-0.06254835426807404,-0.11597520112991333
1775721974215266800,4.898266845703125,0.000014387303963303566,-0.05708003789186478,-0.07299380749464035
1775721974225279700,4.90827978515625,-0.04792837053537369,-0.03362611308693886,-0.02357565611600876
1775721974235293000,4.91829296875,-0.09892880171537399,-0.0219598226249218,0.018353525549173355
1775721974245306600,4.928306640625,-0.12662994861602783,-0.020024502649903297,0.03416471555829048
1775721974255319800,4.93831982421875,-0.11799576133489609,-0.026988744735717773,0.017207099124789238
1775721974265332700,4.948332763671875,-0.08859739452600479,-0.004686370026320219,0.0017189545324072242
1775721974275346000,4.958345947265625,-0.06429299712181091,0.04679244011640549,-0.006099402438849211
1775721974285358800,4.96835888671875,-0.05862872302532196,0.09168161451816559,-0.01729586534202099
1775721974295371800,4.978371826171875,-0.05516156181693077,0.14019399881362915,-0.040936511009931564
1775721974305385700,4.9883857421875,-0.051033660769462585,0.17839597165584564,-0.061032723635435104
1775721974315398700,4.998398681640625,-0.050813738256692886,0.206854447722435,-0.0627618283033371
1775721974325411800,5.008411865234375,-0.0543791800737381,0.23275502026081085,-0.04901272803544998
1775721974335425000,5.018425048828125,-0.05463984236121178,0.23552611470222473,-0.028066769242286682
1775721974345437700,5.028437744140625,-0.04900885373353958,0.22321352362632751,-0.020996874198317528
1775721974355451000,5.038450927734375,-0.04123539477586746,0.16778235137462616,-0.032903824001550674
1775721974365464600,5.048464599609375,-0.025975482538342476,0.11158619821071625,-0.04259959235787392
1775721974375477800,5.058477783203125,-0.006381641607731581,0.09328126907348633,-0.035284847021102905
1775721974385491000,5.068490966796875,-0.006789637729525566,0.07715582847595215,0.0022233787458389997
1775721974395503900,5.07850390625,-0.02765224315226078,0.06380096822977066,0.06660790741443634
1775721974405516800,5.088516845703125,-0.058908965438604355,0.05140555277466774,0.13974124193191528
1775721974415529700,5.09852978515625,-0.09114836156368256,0.037878699600696564,0.2009803205728531
1775721974425543700,5.108543701171875,-0.11274206638336182,0.036073874682188034,0.22229333221912384
1775721974435556900,5.118556884765625,-0.13630813360214233,0.05795044079422951,0.196523517370224
1775721974445569800,5.12856982421875,-0.15688185393810272,0.075897216796875,0.1400301456451416
1775721974455583000,5.1385830078125,-0.17441871762275696,0.11918547749519348,0.08606703579425812
1775721974465595600,5.148595703125,-0.17639638483524323,0.15328192710876465,0.050829678773880005
1775721974475608800,5.15860888671875,-0.1576104313135147,0.1714390218257904,0.028883080929517746
1775721974485622800,5.168622802734375,-0.1294325888156891,0.1689809262752533,0.019661087542772293
1775721974495635700,5.1786357421875,-0.09559283405542374,0.13152076303958893,0.02654077298939228
1775721974505649000,5.18864892578125,-0.06959158927202225,0.10512378066778183,0.03620564937591553
1775721974515661800,5.198661865234375,-0.05219518393278122,0.10710913687944412,0.044505566358566284
1775721974525674800,5.2086748046875,-0.04636845365166664,0.11382296681404114,0.05343833938241005
1775721974535687700,5.218687744140625,-0.04054379090666771,0.13536588847637177,0.06321313977241516
1775721974545701600,5.22870166015625,-0.018122373148798943,0.1550019085407257,0.06175266578793526
1775721974555714800,5.23871484375,0.022858887910842896,0.14316684007644653,0.04251427203416824
1775721974565727700,5.248727783203125,0.05568021535873413,0.1029653549194336,0.017119165509939194
1775721974575741000,5.258740966796875,0.07003403455018997,0.02445799484848976,-0.0019098471384495497
1775721974585753900,5.26875390625,0.06171991676092148,-0.059343427419662476,-0.00973661057651043
1775721974595766800,5.278766845703125,0.043139729648828506,-0.09530327469110489,-0.01870286464691162
1775721974605780700,5.28878076171875,0.02896691858768463,-0.11778275668621063,-0.03382829204201698
1775721974615793700,5.298793701171875,0.0235921498388052,-0.15287527441978455,-0.05150609090924263
1775721974625806800,5.308806884765625,0.036821939051151276,-0.1811726987361908,-0.06685815006494522
1775721974635820000,5.318820068359375,0.06871873885393143,-0.2019454538822174,-0.0665794312953949
1775721974645832700,5.328832763671875,0.11947033554315567,-0.20763182640075684,-0.036911286413669586
1775721974655846000,5.338845947265625,0.1514362245798111,-0.1678193062543869,0.022053010761737823
1775721974665859600,5.348859619140625,0.14504383504390717,-0.1036757379770279,0.10132412612438202
1775721974675872800,5.358872802734375,0.11597589403390884,-0.05628514662384987,0.192148357629776
1775721974685886000,5.368885986328125,0.0942748636007309,-0.02879706583917141,0.27804461121559143
1775721974695899000,5.37889892578125,0.0979011133313179,-0.033978745341300964,0.345075786113739
1775721974705911800,5.388911865234375,0.11722500622272491,-0.04665938392281532,0.38582801818847656
1775721974715924700,5.3989248046875,0.1451684832572937,-0.08323046565055847,0.37707844376564026
1775721974725938700,5.408938720703125,0.1824154555797577,-0.12350331991910934,0.3252040445804596
1775721974735952000,5.418951904296875,0.2249002754688263,-0.16239912807941437,0.2626403272151947
1775721974745964800,5.42896484375,0.25667524337768555,-0.19946099817752838,0.21684622764587402
1775721974755978000,5.43897802734375,0.2685159146785736,-0.23182420432567596,0.20715393126010895
1775721974765990700,5.44899072265625,0.2605075240135193,-0.23738515377044678,0.2207786738872528
1775721974776003800,5.45900390625,0.23842571675777435,-0.2293902337551117,0.2511562407016754
1775721974786017000,5.46901708984375,0.2070603370666504,-0.22265376150608063,0.28778696060180664
1775721974796030000,5.479030029296875,0.1723865121603012,-0.21675623953342438,0.3020489513874054
1775721974806043100,5.489043212890625,0.13915479183197021,-0.20594140887260437,0.27545303106307983
1775721974816056000,5.49905615234375,0.11488991975784302,-0.19696655869483948,0.21167778968811035
1775721974826069000,5.509069091796875,0.09303047508001328,-0.20264743268489838,0.12147810310125351
1775721974836083000,5.5190830078125,0.06405423581600189,-0.21722939610481262,0.027896186336874962
1775721974846096100,5.52909619140625,0.02931622788310051,-0.2349415421485901,-0.046588968485593796
1775721974856109000,5.539109130859375,0.008233103901147842,-0.22517965734004974,-0.08518331497907639
1775721974866122000,5.5491220703125,-0.005293357186019421,-0.17457853257656097,-0.08373907953500748
1775721974876135200,5.55913525390625,-0.019069449976086617,-0.11740943789482117,-0.05772731453180313
1775721974886148000,5.569148193359375,-0.040836796164512634,-0.05083493888378143,-0.014075173996388912
1775721974896161000,5.5791611328125,-0.06540870666503906,0.015183411538600922,0.02475873939692974
1775721974906175200,5.58917529296875,-0.07939296215772629,0.06200498342514038,0.04074516147375107
1775721974916188000,5.59918798828125,-0.0832943245768547,0.08228233456611633,0.03055255487561226
1775721974926201000,5.609201171875,-0.07688569277524948,0.10128425806760788,0.006677314173430204
1775721974936214000,5.619214111328125,-0.06214698776602745,0.12478989362716675,-0.007547421380877495
1775721974946227200,5.629227294921875,-0.037372931838035583,0.1240956038236618,-0.007394822314381599
1775721974956241200,5.6392412109375,-0.009414409287273884,0.08187881857156754,0.018666226416826248
1775721974966254000,5.649254150390625,0.007680421695113182,0.05602165684103966,0.06197508051991463
1775721974976267000,5.65926708984375,-0.006908584386110306,0.05011110007762909,0.09691141545772552
1775721974986280000,5.669280029296875,-0.042404793202877045,0.05623796582221985,0.09799159318208694
1775721974996293000,5.679293212890625,-0.06685293465852737,0.057651493698358536,0.07017707079648972
1775721975006306000,5.68930615234375,-0.07205994427204132,0.04724838584661484,0.03649207577109337
1775721975016320000,5.699320068359375,-0.06604822725057602,0.039515431970357895,0.01696084439754486
1775721975026333200,5.709333251953125,-0.053974784910678864,0.03201436996459961,0.015290243551135063
1775721975036345900,5.719345947265625,-0.04118948429822922,0.017258327454328537,0.020117489621043205
1775721975046359000,5.729359130859375,-0.028254244476556778,-0.015115590766072273,0.023546576499938965
1775721975056372200,5.739372314453125,-0.014149348251521587,-0.05098971724510193,0.016174396499991417
1775721975066385200,5.74938525390625,0.002943352097645402,-0.06499048322439194,-0.007686194498091936
1775721975076399000,5.759399169921875,0.0039879335090518,-0.060284364968538284,-0.043378204107284546
1775721975086412000,5.769412109375,-0.01414872519671917,-0.04709399491548538,-0.07486476004123688
1775721975096425000,5.779425048828125,-0.042058683931827545,-0.031509947031736374,-0.08906500041484833
1775721975106438100,5.789438232421875,-0.06267554312944412,-0.019899100065231323,-0.0880306288599968
1775721975116451000,5.799451171875,-0.0632404014468193,-0.01632939837872982,-0.07251851260662079
1775721975126464300,5.80946435546875,-0.04896905645728111,-0.006365979090332985,-0.054881736636161804
1775721975136478000,5.81947802734375,-0.033505573868751526,-0.015797611325979233,-0.03809860348701477
1775721975146491100,5.8294912109375,-0.02142920345067978,-0.03118002973496914,-0.024658959358930588
1775721975156504000,5.839504150390625,-0.010519580915570259,-0.018025534227490425,-0.013248342089354992
1775721975166517000,5.84951708984375,-0.0032677932176738977,0.01019997987896204,-0.008539874106645584
1775721975176530200,5.8595302734375,-0.01291810441762209,0.02559143677353859,-0.018268046900629997
1775721975186543000,5.869543212890625,-0.02786296419799328,0.0479326955974102,-0.03994671255350113
1775721975196557000,5.87955712890625,-0.03111298568546772,0.0812264233827591,-0.06282071024179459
1775721975206570200,5.8895703125,-0.02148512564599514,0.09997108578681946,-0.07156573235988617
1775721975216583000,5.8995830078125,-0.008111510425806046,0.09630996733903885,-0.0726184993982315
1775721975226596000,5.90959619140625,0.01169628370553255,0.08787227421998978,-0.07559351623058319
1775721975236609000,5.919609130859375,0.0341348722577095,0.08341671526432037,-0.09276676177978516
1775721975246622200,5.929622314453125,0.051413729786872864,0.09611014276742935,-0.1148744598031044
1775721975256635000,5.939634765625,0.05428239703178406,0.1089358776807785,-0.1307620257139206
1775721975266649000,5.949649169921875,0.04707428440451622,0.11362064629793167,-0.13275140523910522
1775721975276662000,5.959662109375,0.041973575949668884,0.10098596662282944,-0.11168716102838516
1775721975286675000,5.969675048828125,0.045460451394319534,0.07890729606151581,-0.07124759256839752
1775721975296688000,5.979688232421875,0.052505187690258026,0.06096194311976433,-0.02052225172519684
1775721975306701000,5.989701171875,0.05437126383185387,0.042177069932222366,0.0196017324924469
1775721975316715000,5.999715087890625,0.04369998350739479,0.02927808091044426,0.031152693554759026
1775721975326728200,6.009728271484375,0.020736880600452423,0.03475886955857277,0.008781607262790203
1775721975336740900,6.019740966796875,-0.011803656816482544,0.05061686411499977,-0.03411991149187088
1775721975346754000,6.029754150390625,-0.043513648211956024,0.050932448357343674,-0.09516409039497375
1775721975356767000,6.03976708984375,-0.058450087904930115,0.04146655648946762,-0.16623549163341522
1775721975366780200,6.0497802734375,-0.0656571313738823,0.030250653624534607,-0.2149875909090042
1775721975376794000,6.059794189453125,-0.06968018412590027,0.015321489423513412,-0.2227085381746292
1775721975386807000,6.06980712890625,-0.08147745579481125,0.0031867956276983023,-0.18462613224983215
1775721975396820000,6.079820068359375,-0.09580098092556,-0.001900969771668315,-0.12178140878677368
1775721975406833000,6.0898330078125,-0.10318432748317719,0.015727024525403976,-0.05866130068898201
1775721975416846000,6.09984619140625,-0.10482487827539444,0.04307357221841812,-0.0053655290976166725
1775721975426859300,6.109859375,-0.0962926372885704,0.057358235120773315,0.03621919825673103
1775721975436872000,6.119871826171875,-0.07783269137144089,0.06418609619140625,0.07087624818086624
1775721975446886100,6.12988623046875,-0.0565793402493,0.08138692378997803,0.10639563202857971
1775721975456899000,6.139899169921875,-0.038838181644678116,0.10116226971149445,0.14099888503551483
1775721975466912000,6.149912109375,-0.03638514503836632,0.1384419947862625,0.1764194667339325
1775721975476925200,6.15992529296875,-0.04094040021300316,0.19344961643218994,0.19702692329883575
1775721975486938000,6.169938232421875,-0.036886002868413925,0.24084270000457764,0.19844479858875275
1775721975496952000,6.1799521484375,-0.02518550306558609,0.2897556722164154,0.18524521589279175
1775721975506965200,6.18996533203125,-0.02139555849134922,0.3199990689754486,0.1802067905664444
1775721975516978000,6.19997802734375,-0.03156883642077446,0.3316245675086975,0.19829684495925903
1775721975526991000,6.2099912109375,-0.03384237363934517,0.3245304524898529,0.24012525379657745
1775721975537004000,6.220004150390625,0.0006407829932868481,0.32662415504455566,0.29419854283332825
1775721975547017200,6.230017333984375,0.06293531507253647,0.31053680181503296,0.3593634366989136
1775721975557030000,6.24002978515625,0.12533405423164368,0.2842160165309906,0.41861552000045776
1775721975567044000,6.250044189453125,0.1630271077156067,0.25267353653907776,0.4423040747642517
1775721975577057000,6.26005712890625,0.16641457378864288,0.21743135154247284,0.41736283898353577
1775721975587070000,6.270070068359375,0.14375241100788116,0.1777569055557251,0.3650663495063782
1775721975597083100,6.280083251953125,0.10599615424871445,0.17151737213134766,0.3071972727775574
1775721975607096000,6.290095947265625,0.06273150444030762,0.15610885620117188,0.25688934326171875
1775721975617109000,6.30010888671875,0.03423948958516121,0.12078843265771866,0.20168113708496094
1775721975627123200,6.310123291015625,0.020788395777344704,0.08139282464981079,0.14110833406448364
1775721975637136000,6.320135986328125,0.005019346252083778,0.04885173588991165,0.08099807053804398
1775721975647149000,6.330149169921875,-0.023389125242829323,0.01719101145863533,0.04297931492328644
1775721975657162000,6.340161865234375,-0.056336790323257446,-0.011980675160884857,0.04282842203974724
1775721975667175200,6.350175048828125,-0.08353644609451294,-0.006125981919467449,0.06556382775306702
1775721975677188000,6.36018798828125,-0.1014583557844162,-0.009485856629908085,0.10316596925258636
1775721975687202000,6.3702021484375,-0.11358212679624557,-0.05195555090904236,0.14323750138282776
1775721975697215000,6.380215087890625,-0.11568694561719894,-0.07487913221120834,0.175725519657135
1775721975707228000,6.390227783203125,-0.12322954833507538,-0.046835511922836304,0.18975238502025604
1775721975717241000,6.400240966796875,-0.1324608027935028,-0.007550614885985851,0.16711120307445526
1775721975727254300,6.410254150390625,-0.14578327536582947,0.030732057988643646,0.11032221466302872
1775721975737267000,6.420266845703125,-0.14257770776748657,0.07214737683534622,0.03789496049284935
1775721975747281200,6.43028125,-0.10611078143119812,0.10512769222259521,-0.020405365154147148
1775721975757293800,6.4402939453125,-0.043826423585414886,0.16172990202903748,-0.05346871167421341
1775721975767307000,6.45030712890625,0.033855851739645004,0.22917978465557098,-0.07547254115343094
1775721975777320200,6.4603203125,0.09577813744544983,0.30182236433029175,-0.1123288944363594
1775721975787333400,6.47033349609375,0.14021563529968262,0.3833353519439697,-0.1740330010652542
1775721975797346300,6.48034619140625,0.16958285868167877,0.4501921832561493,-0.26228830218315125
1775721975807360300,6.4903603515625,0.17740723490715027,0.4364606440067291,-0.36363330483436584
1775721975817373200,6.500373291015625,0.18191778659820557,0.40303730964660645,-0.5119391083717346
1775721975827386000,6.51038623046875,0.14660745859146118,0.26297155022621155,-0.6862126588821411
1775721975837399300,6.5203994140625,0.10637924820184708,0.12886224687099457,-0.8275443315505981
1775721975847412200,6.530412109375,0.10426123440265656,-0.04310685396194458,-0.9178225994110107
1775721975857425200,6.540425048828125,0.0974179282784462,-0.25805553793907166,-0.9187842011451721
1775721975867439400,6.550439453125,0.08944815397262573,-0.39418941736221313,-0.8213780522346497
1775721975877452300,6.560452392578125,0.0834268257021904,-0.4712202847003937,-0.6847332119941711
1775721975887465200,6.57046533203125,0.060168638825416565,-0.5333454012870789,-0.5883472561836243
1775721975897478400,6.580478515625,0.01695113256573677,-0.5817076563835144,-0.5545791387557983
1775721975907491300,6.5904912109375,-0.026957469061017036,-0.598180890083313,-0.5603872537612915
1775721975917504300,6.600504150390625,-0.06359978765249252,-0.5768976807594299,-0.575567901134491
1775721975927518500,6.6105185546875,-0.09436915814876556,-0.5301434993743896,-0.5923069715499878
1775721975937531100,6.62053125,-0.11872618645429611,-0.472229540348053,-0.6044362783432007
1775721975947544300,6.63054443359375,-0.12480298429727554,-0.40218016505241394,-0.6123828887939453
1775721975957557200,6.64055712890625,-0.1095166876912117,-0.3322637379169464,-0.6061870455741882
1775721975967570400,6.6505703125,-0.07913268357515335,-0.27687743306159973,-0.5878567695617676
1775721975977583000,6.6605830078125,-0.04793887957930565,-0.24902060627937317,-0.5387033224105835
1775721975987597300,6.670597412109375,-0.022347498685121536,-0.24918386340141296,-0.44948235154151917
1775721975997610200,6.6806103515625,-0.0014375634491443634,-0.2503941059112549,-0.3387722074985504
1775721976007623200,6.690623046875,0.013616221025586128,-0.23568837344646454,-0.23688951134681702
1775721976017636400,6.70063623046875,0.020427227020263672,-0.2466115653514862,-0.16585983335971832
1775721976027649300,6.710649169921875,0.02391144074499607,-0.2892993688583374,-0.12004014104604721
1775721976037662200,6.720662109375,0.026944482699036598,-0.323813259601593,-0.08004364371299744
1775721976047676400,6.730676513671875,0.023904750123620033,-0.3280913531780243,-0.04094790667295456
1775721976057689000,6.740689208984375,0.013935006223618984,-0.3345520794391632,-0.008805735968053341
1775721976067702300,6.750702392578125,0.002813379280269146,-0.35193586349487305,0.01939287967979908
1775721976077715200,6.760715087890625,-0.012320324778556824,-0.34373223781585693,0.05117052420973778
1775721976087728400,6.770728271484375,-0.028833787888288498,-0.302516371011734,0.07793475687503815
1775721976097741300,6.7807412109375,-0.04949848726391792,-0.26671499013900757,0.10158591717481613
1775721976107755300,6.79075537109375,-0.06692088395357132,-0.205713152885437,0.12172979861497879
1775721976117768200,6.800768310546875,-0.08133787661790848,-0.1358443796634674,0.13842540979385376
1775721976127781000,6.810781005859375,-0.09262755513191223,-0.07739091664552689,0.14542128145694733
1775721976137794300,6.820794189453125,-0.1049041673541069,-0.023319585248827934,0.14530402421951294
1775721976147807200,6.83080712890625,-0.11478156596422195,0.02280663140118122,0.13638882339000702
1775721976157820200,6.840820068359375,-0.11755015701055527,0.04745973274111748,0.12363920360803604
1775721976167834400,6.85083447265625,-0.108622707426548,0.0377434566617012,0.12101412564516068
1775721976177847000,6.860846923828125,-0.09136857837438583,0.023705292493104935,0.14027966558933258
1775721976187860200,6.870860107421875,-0.08097905665636063,0.011896571144461632,0.167350172996521
1775721976197873400,6.880873291015625,-0.07866060733795166,0.015761397778987885,0.1769285947084427
1775721976207886300,6.89088623046875,-0.09129916876554489,0.0317816436290741,0.1510261595249176
1775721976217899300,6.900899169921875,-0.11444848030805588,0.040161918848752975,0.1041758581995964
1775721976227913200,6.910913330078125,-0.13368208706378937,0.050861433148384094,0.054919369518756866
1775721976237926100,6.920926025390625,-0.14363783597946167,0.06519152224063873,0.021221648901700974
1775721976247939300,6.930939208984375,-0.14190304279327393,0.07546812295913696,-0.0012461085570976138
1775721976257952300,6.9409521484375,-0.12782025337219238,0.06786424666643143,-0.00279528321698308
1775721976267965400,6.95096533203125,-0.10346191376447678,0.06224764138460159,0.016394123435020447
1775721976277978000,6.96097802734375,-0.07831677794456482,0.06495975703001022,0.04839562252163887
1775721976287992300,6.970992431640625,-0.0685586929321289,0.06079963594675064,0.08736353367567062
1775721976298005200,6.981005126953125,-0.06332598626613617,0.05648575350642204,0.11564858257770538
1775721976308018200,6.99101806640625,-0.0557389035820961,0.04685549437999725,0.11321897804737091
1775721976318031400,7.00103125,-0.050923071801662445,0.02817089669406414,0.08050946146249771
1775721976328044300,7.011044189453125,-0.04793686792254448,0.021622981876134872,0.028616968542337418
1775721976338057200,7.02105712890625,-0.0428980253636837,0.0020621579606086016,-0.02625575289130211
1775721976348071400,7.031071533203125,-0.02388492040336132,-0.018806638196110725,-0.061074718832969666
1775721976358084000,7.041083984375,0.0000867245253175497,-0.024947356432676315,-0.06971827149391174
1775721976368097300,7.05109716796875,0.025449339300394058,-0.02275850437581539,-0.062397778034210205
1775721976378110200,7.061110107421875,0.051482271403074265,-0.015471828170120716,-0.04552612081170082
1775721976388123400,7.071123291015625,0.07213721424341202,-0.004109717905521393,-0.025093017145991325
1775721976398136000,7.081135986328125,0.085543692111969,0.0002295435406267643,-0.00014463916886597872
1775721976408150300,7.091150390625,0.09064338356256485,-0.006952735595405102,0.03499550372362137
1775721976418163200,7.1011630859375,0.09261796623468399,0.00782636646181345,0.07818732410669327
1775721976428176100,7.111176025390625,0.09225205332040787,0.022690534591674805,0.11082196235656738
1775721976438189300,7.121189208984375,0.08906890451908112,0.02523830346763134,0.12428919970989227
1775721976448202500,7.131202392578125,0.08315402269363403,0.03500065207481384,0.11997195333242416
1775721976458215200,7.141215087890625,0.07095891237258911,0.05832420662045479,0.1072118878364563
1775721976468229400,7.1512294921875,0.054673947393894196,0.08770047873258591,0.09641063958406448
1775721976478242000,7.161241943359375,0.03839295357465744,0.09419171512126923,0.08968962728977203
1775721976488255200,7.171255126953125,0.030855145305395126,0.09238822013139725,0.0914268046617508
1775721976498268400,7.181268310546875,0.03300359845161438,0.08945823460817337,0.09112287312746048
1775721976508281300,7.19128125,0.03350267559289932,0.07709743827581406,0.08447562158107758
1775721976518294300,7.201294189453125,0.032943353056907654,0.04472131282091141,0.07594478130340576
1775721976528307200,7.21130712890625,0.03395482152700424,0.03883572667837143,0.06277065724134445
1775721976538321200,7.221321044921875,0.028499025851488113,0.03275584056973457,0.046302758157253265
1775721976548334300,7.231334228515625,0.025426004081964493,0.02430376596748829,0.028207113966345787
1775721976558347300,7.24134716796875,0.020952964201569557,0.011958700604736805,0.008489883504807949
1775721976568360400,7.2513603515625,0.030964320525527,0.0024892983492463827,-0.012671327218413353
1775721976578373000,7.261373046875,0.04088131710886955,-0.03409828990697861,-0.028758598491549492
1775721976588386300,7.27138623046875,0.05381789058446884,-0.07613096386194229,-0.02899455465376377
1775721976598400300,7.281400146484375,0.07283084839582443,-0.09544244408607483,-0.013405072502791882
1775721976608413200,7.2914130859375,0.0894433856010437,-0.09889177232980728,0.0068770297802984715
1775721976618426400,7.30142626953125,0.09312395006418228,-0.09819800406694412,0.012191280722618103
1775721976628439300,7.311439208984375,0.08141668885946274,-0.09765338897705078,-0.00985250249505043
1775721976638452200,7.3214521484375,0.0630912333726883,-0.09370371699333191,-0.055375803261995316
1775721976648465200,7.331465087890625,0.04865477234125137,-0.08528706431388855,-0.09918719530105591
1775721976658479000,7.34147900390625,0.036530956625938416,-0.07609797269105911,-0.1251966506242752
1775721976668492300,7.3514921875,0.028114303946495056,-0.0606822595000267,-0.12945504486560822
1775721976678505200,7.361505126953125,0.019797910004854202,-0.04641127213835716,-0.12836620211601257
1775721976688518400,7.371518310546875,0.017275895923376083,-0.033123962581157684,-0.12658481299877167
1775721976698531000,7.381531005859375,0.017655210569500923,-0.02096794918179512,-0.1226748377084732
1775721976708544300,7.391544189453125,0.019938604906201363,-0.013870359398424625,-0.11272793263196945
1775721976718558200,7.40155810546875,0.02008872665464878,-0.01696842908859253,-0.09685034304857254
1775721976728571100,7.411571044921875,0.020954521372914314,-0.0044182827696204185,-0.08022502809762955
1775721976738584300,7.421584228515625,0.02063024789094925,0.01709015667438507,-0.07109635323286057
1775721976748597200,7.43159716796875,0.017893584445118904,0.03417273610830307,-0.07239251583814621
1775721976758610200,7.441610107421875,0.004827687982469797,0.04160212725400925,-0.08370570838451385
1775721976768623400,7.451623291015625,-0.0010640230029821396,0.04775189980864525,-0.10065700113773346
1775721976778637000,7.461636962890625,0.001403456088155508,0.04484567046165466,-0.11268576234579086
1775721976788650500,7.471650390625,-0.0006109587848186493,0.036061499267816544,-0.11763951182365417
1775721976798663700,7.48166357421875,-0.005703706294298172,0.02934838831424713,-0.1099315658211708
1775721976808676600,7.491676513671875,-0.011224438436329365,0.02447959966957569,-0.09903470426797867
1775721976818689500,7.501689453125,-0.016460148617625237,0.025885574519634247,-0.08651550114154816
1775721976828702500,7.511702392578125,-0.017601845785975456,0.02620595321059227,-0.07237731665372849
1775721976838716400,7.52171630859375,-0.01941375434398651,0.033563170582056046,-0.06466622650623322
1775721976848729600,7.5317294921875,-0.022459613159298897,0.03205262869596481,-0.05756064131855965
1775721976858742500,7.541742431640625,-0.022944100201129913,0.040466275066137314,-0.03406883403658867
1775721976868755500,7.55175537109375,-0.027241377159953117,0.055167991667985916,-0.005372741259634495
1775721976878768400,7.561768310546875,-0.021404452621936798,0.06156463176012039,0.014801401644945145
1775721976888781600,7.571781494140625,-0.012732135131955147,0.06529971957206726,0.021419091150164604
1775721976898795500,7.58179541015625,-0.004781403578817844,0.0682339146733284,0.016532355919480324
1775721976908808400,7.591808349609375,-0.0031776479445397854,0.06648261845111847,-0.0019140293588861823
1775721976918821600,7.601821533203125,-0.010722905397415161,0.07960817217826843,-0.028042886406183243
1775721976928834600,7.61183447265625,-0.021762240678071976,0.08968264609575272,-0.054410845041275024
1775721976938847500,7.621847412109375,-0.03215433657169342,0.1076800674200058,-0.06783562898635864
1775721976948860400,7.6318603515625,-0.03989188373088837,0.12088402360677719,-0.06072631850838661
1775721976958873600,7.64187353515625,-0.04342885687947273,0.13016463816165924,-0.04126368463039398
1775721976968887600,7.651887451171875,-0.04816768690943718,0.12534618377685547,-0.0213826522231102
1775721976978900500,7.661900390625,-0.05365082621574402,0.1153179407119751,-0.012481596320867538
1775721976988913700,7.67191357421875,-0.062000103294849396,0.11067339032888412,-0.012441382743418217
1775721976998926300,7.68192626953125,-0.07064361870288849,0.11270499229431152,-0.02144690416753292
1775721977008939500,7.691939453125,-0.08521057665348053,0.11694234609603882,-0.03790790215134621
1775721977018952700,7.70195263671875,-0.09473797678947449,0.12507545948028564,-0.05470956861972809
1775721977028966400,7.71196630859375,-0.0999085009098053,0.10894922912120819,-0.05576125159859657
1775721977038979600,7.7219794921875,-0.09091247618198395,0.08104586601257324,-0.037841491401195526
1775721977048992500,7.731992431640625,-0.07473297417163849,0.04605139419436455,-0.017435550689697266
1775721977059005400,7.74200537109375,-0.05724555626511574,0.003054265631362796,-0.008393097668886185
1775721977069018600,7.7520185546875,-0.0481623113155365,-0.056149136275053024,-0.010849330574274063
1775721977079031600,7.762031494140625,-0.04262957721948624,-0.1024586409330368,-0.00548334838822484
1775721977089045500,7.77204541015625,-0.04783232882618904,-0.10405334085226059,0.0138200419023633
1775721977099058400,7.782058349609375,-0.056625571101903915,-0.08370725810527802,0.03936217352747917
1775721977109071600,7.792071533203125,-0.06537219136953354,-0.05310514569282532,0.068799689412117
1775721977119084500,7.80208447265625,-0.06371444463729858,-0.03637392818927765,0.09921543300151825
1775721977129097500,7.812097412109375,-0.04732108488678932,-0.016117660328745842,0.11601811647415161
1775721977139110700,7.822110595703125,-0.020482055842876434,0.003924350719898939,0.11847066879272461
1775721977149124600,7.83212451171875,0.00855012983083725,0.018547769635915756,0.12321428954601288
1775721977159137500,7.842137451171875,0.030406983569264412,0.04722091555595398,0.14009793102741241
1775721977169150500,7.852150390625,0.045762501657009125,0.07728453725576401,0.15771180391311646
1775721977179163400,7.862163330078125,0.05831480398774147,0.09223439544439316,0.17228247225284576
1775721977189176600,7.872176513671875,0.06374658644199371,0.1051640436053276,0.17587748169898987
1775721977199189500,7.882189453125,0.05904022604227066,0.11844369769096375,0.16631275415420532
1775721977209203500,7.892203369140625,0.04554519057273865,0.1215667873620987,0.14624184370040894
1775721977219216600,7.902216552734375,0.03166143223643303,0.11918213963508606,0.1176907867193222
1775721977229229600,7.9122294921875,0.018439635634422302,0.11474132537841797,0.08923623710870743
1775721977239242500,7.922242431640625,0.00794718973338604,0.10671517997980118,0.06749776750802994
1775721977249255400,7.93225537109375,-0.0024655035231262445,0.10686565190553665,0.05517851561307907
1775721977259268600,7.9422685546875,-0.017215687781572342,0.12107440829277039,0.05127112567424774
1775721977269282600,7.952282470703125,-0.040640853345394135,0.12453865259885788,0.04788199067115784
1775721977279295500,7.96229541015625,-0.06540121138095856,0.12754188477993011,0.04411885887384415
1775721977289308700,7.97230859375,-0.08222360163927078,0.12341532111167908,0.036415934562683105
1775721977299321300,7.9823212890625,-0.08790300786495209,0.10637247562408447,0.038022540509700775
1775721977309334500,7.99233447265625,-0.09134727716445923,0.0880318209528923,0.0355742946267128
1775721977319347700,8.00234765625,-0.10049044340848923,0.07626542448997498,0.019448041915893555
1775721977329361400,8.012361328125,-0.10573527216911316,0.06564953178167343,-0.011983383446931839
1775721977339374600,8.02237451171875,-0.11273577809333801,0.05856403708457947,-0.050209201872348785
1775721977349387500,8.032387451171875,-0.11600267887115479,0.07086091488599777,-0.0770445466041565
1775721977359400400,8.042400390625,-0.12064267694950104,0.10284250229597092,-0.07214433699846268
1775721977369413600,8.05241357421875,-0.12196812778711319,0.1442863494157791,-0.027479661628603935
1775721977379426600,8.062426513671875,-0.11688894778490067,0.1830981820821762,0.03999551758170128
1775721977389439500,8.072439453125,-0.10210645943880081,0.21547506749629974,0.10351289808750153
1775721977399453400,8.082453369140625,-0.07136348634958267,0.2411714345216751,0.13864320516586304
1775721977409466600,8.092466552734376,-0.03318227827548981,0.26668238639831543,0.13526178896427155
1775721977419479600,8.1024794921875,-0.003812700044363737,0.2952573299407959,0.10127850621938705
1775721977429492500,8.112492431640625,0.006261239293962717,0.33011651039123535,0.06048047915101051
1775721977439505700,8.122505615234376,-0.0011717148590832949,0.3517152965068817,0.03507057577371597
1775721977449518300,8.132518310546875,-0.013098947703838348,0.384834885597229,0.02969924733042717
1775721977459532500,8.142532470703125,-0.029630504548549652,0.400546133518219,0.03761972114443779
1775721977469545700,8.152545654296874,-0.05012965574860573,0.3827517032623291,0.046190038323402405
1775721977479558400,8.162558349609375,-0.06464114785194397,0.3641836941242218,0.049293648451566696
1775721977489571600,8.172571533203126,-0.07866775244474411,0.3422999680042267,0.05113176256418228
1775721977499584500,8.18258447265625,-0.09004798531532288,0.30942296981811523,0.06002988666296005
1775721977509597400,8.192597412109375,-0.09776289761066437,0.2534233629703522,0.08376318216323853
1775721977519611600,8.202611572265624,-0.09829738736152649,0.20163632929325104,0.1260792315006256
1775721977529624600,8.21262451171875,-0.09972617030143738,0.16089050471782684,0.1778007447719574
1775721977539637500,8.222637451171876,-0.1154487207531929,0.13992461562156677,0.21455451846122742
1775721977549650400,8.232650390625,-0.14336664974689484,0.13581694662570953,0.22458718717098236
1775721977559663600,8.24266357421875,-0.16859978437423706,0.11189233511686325,0.20885638892650604
1775721977569676300,8.25267626953125,-0.16950339078903198,0.071966752409935,0.18438434600830078
1775721977579690500,8.2626904296875,-0.14705294370651245,0.028441647067666054,0.16761335730552673
1775721977589703700,8.27270361328125,-0.11311015486717224,-0.01778949797153473,0.15691782534122467
1775721977599716400,8.28271630859375,-0.08333614468574524,-0.06270948797464371,0.14819341897964478
1775721977609729500,8.2927294921875,-0.05602462589740753,-0.09807786345481873,0.13917063176631927
1775721977619742500,8.302742431640626,-0.02881956659257412,-0.11763335019350052,0.1217963919043541
1775721977629755400,8.31275537109375,-0.002308598021045327,-0.14096982777118683,0.10012785345315933
1775721977639769600,8.32276953125,0.025164199993014336,-0.1602710634469986,0.08044798672199249
1775721977649782500,8.332782470703124,0.05225174501538277,-0.16877080500125885,0.06469778716564178
1775721977659795500,8.34279541015625,0.0739038735628128,-0.1629321426153183,0.04662067070603371
1775721977669808600,8.35280859375,0.08958669751882553,-0.12185926735401154,0.03399835154414177
1775721977679821600,8.362821533203125,0.09268129616975784,-0.09609556943178177,0.02663259580731392
1775721977689834500,8.37283447265625,0.08731129765510559,-0.11239251494407654,0.03216744214296341
1775721977699848400,8.382848388671874,0.08377990126609802,-0.10593981295824051,0.03716357797384262
1775721977709861600,8.392861572265625,0.08889157325029373,-0.10126809775829315,0.04099586606025696
1775721977719874600,8.40287451171875,0.09785472601652145,-0.0783546045422554,0.03633290156722069
1775721977729887500,8.412887451171875,0.10415337234735489,-0.04948674142360687,0.01978827826678753
1775721977739900700,8.422900634765625,0.11265168339014053,-0.027955301105976105,-0.00024817115627229214
1775721977749913300,8.432913330078126,0.12407104671001434,-0.001668036449700594,-0.019445834681391716
1775721977759926500,8.442926513671875,0.12729625403881073,0.03815518319606781,-0.03751949220895767
1775721977769940700,8.452940673828126,0.11278443783521652,0.07930128276348114,-0.04673163220286369
1775721977779953400,8.462953369140624,0.08396636694669724,0.1032516285777092,-0.05362309515476227
1775721977789966300,8.47296630859375,0.055990662425756454,0.11718901246786118,-0.05654032155871391
1775721977799979500,8.4829794921875,0.050164543092250824,0.1244639903306961,-0.06475172936916351
1775721977809992200,8.4929921875,0.06358900666236877,0.1038210317492485,-0.07310952991247177
1775721977820005400,8.50300537109375,0.08201314508914948,0.06978465616703033,-0.08392635732889175
1775721977830019600,8.51301953125,0.1011761873960495,0.07113833725452423,-0.10019826889038086
1775721977840032300,8.5230322265625,0.11253981292247772,0.09393712878227234,-0.13083916902542114
1775721977850045400,8.53304541015625,0.11650606244802475,0.09950366616249084,-0.1625523567199707
1775721977860058400,8.543058349609375,0.11252979189157486,0.08973860740661621,-0.19280704855918884
1775721977870071300,8.5530712890625,0.10703196376562119,0.09564310312271118,-0.20485039055347443
1775721977880084200,8.563084228515624,0.10483809560537338,0.11863457411527634,-0.19978375732898712
1775721977890098400,8.573098388671875,0.12009614706039429,0.13545244932174683,-0.17647656798362732
1775721977900111400,8.583111328125,0.1481938362121582,0.12098953127861023,-0.13651083409786224
1775721977910124300,8.593124267578125,0.17287121713161469,0.10249893367290497,-0.078571617603302
1775721977920137500,8.603137451171875,0.17867250740528107,0.07726035267114639,-0.021619757637381554
1775721977930150100,8.613150146484376,0.1531330645084381,0.04861565679311752,0.017921259626746178
1775721977940163300,8.623163330078125,0.11099785566329956,0.02336592599749565,0.028658028692007065
1775721977950177500,8.633177490234376,0.060363441705703735,0.008595502935349941,0.011034028604626656
1775721977960190200,8.643190185546874,0.006133210379630327,0.009281346574425697,-0.02639559842646122
1775721977970203400,8.653203369140625,-0.04767116531729698,0.029284348711371422,-0.059455811977386475
1775721977980216300,8.66321630859375,-0.09001246094703674,0.05215302109718323,-0.0760340690612793
1775721977990229200,8.673229248046875,-0.1113814041018486,0.05408541113138199,-0.07039055973291397
1775721978000242400,8.683242431640625,-0.11103696376085281,0.036771997809410095,-0.046258099377155304
1775721978010256400,8.69325634765625,-0.09655895829200745,0.031774312257766724,-0.01483146846294403
1775721978020269300,8.703269287109375,-0.0942271277308464,0.04471740126609802,0.0069436440244317055
1775721978030282500,8.713282470703126,-0.10610109567642212,0.04362763464450836,0.015768028795719147
1775721978040295400,8.72329541015625,-0.1290794461965561,0.0507403127849102,0.021586285904049873
1775721978050308400,8.733308349609375,-0.15518535673618317,0.0793120339512825,0.027077192440629005
1775721978060321300,8.7433212890625,-0.17437389492988586,0.10244006663560867,0.03953033313155174
1775721978070334500,8.75333447265625,-0.17626447975635529,0.09119459986686707,0.06260848790407181
1775721978080348400,8.763348388671876,-0.15254351496696472,0.06365670263767242,0.08437592536211014
1775721978090361300,8.773361328125,-0.1114746481180191,0.04100572317838669,0.09576040506362915
1775721978100374500,8.78337451171875,-0.06848833709955215,0.024931536987423897,0.0816827192902565
1775721978110387200,8.79338720703125,-0.02417067438364029,0.01183917187154293,0.04467089846730232
1775721978120400400,8.803400390625,0.021611668169498444,-0.01308383233845234,0.0035365764051675797
1775721978130413300,8.813413330078125,0.06202460452914238,-0.03358431160449982,-0.028629615902900696
1775721978140427300,8.82342724609375,0.09194028377532959,-0.05665723606944084,-0.03987039998173714
1775721978150440400,8.8334404296875,0.11202584952116013,-0.08080944418907166,-0.03712095320224762
1775721978160453400,8.843453369140626,0.11995147168636322,-0.09848742187023163,-0.025157300755381584
1775721978170466300,8.85346630859375,0.11262378841638565,-0.10328856855630875,-0.0033795670606195927
1775721978180479200,8.863479248046875,0.09653249382972717,-0.10169167071580887,0.018494507297873497
1775721978190492400,8.873492431640624,0.08726122975349426,-0.10602383315563202,0.01839144341647625
1775721978200506400,8.88350634765625,0.09897467494010925,-0.1367904543876648,0.014691449701786041
1775721978210519300,8.893519287109376,0.12754452228546143,-0.1552554816007614,0.01848006248474121
1775721978220532500,8.903532470703125,0.16204193234443665,-0.16996216773986816,0.019941704347729683
1775721978230545400,8.91354541015625,0.1875065416097641,-0.17836152017116547,0.020571809262037277
1775721978240558300,8.923558349609374,0.19953884184360504,-0.18901671469211578,0.02585218846797943
1775721978250571500,8.933571533203125,0.20367074012756348,-0.19764269888401031,0.0343221090734005
1775721978260585200,8.943585205078126,0.20813702046871185,-0.18771350383758545,0.059983670711517334
1775721978270598400,8.953598388671875,0.20277847349643707,-0.15768104791641235,0.10563744604587555
1775721978280611300,8.963611328125,0.179356187582016,-0.12190108001232147,0.1458006054162979
1775721978290624300,8.973624267578124,0.14507144689559937,-0.08539100736379623,0.16121631860733032
1775721978300637400,8.983637451171875,0.11774434894323349,-0.0597136989235878,0.14087843894958496
1775721978310650400,8.993650390625,0.10869386047124863,-0.044764310121536255,0.10425359010696411
1775721978320663600,9.00366357421875,0.10512448847293854,-0.03883283585309982,0.07590630650520325
1775721978330677200,9.01367724609375,0.08853060007095337,-0.03161700442433357,0.065119169652462
1775721978340690400,9.0236904296875,0.06354276835918427,-0.027169527485966682,0.06053284555673599
1775721978350703400,9.033703369140625,0.039290957152843475,-0.022626973688602448,0.0488322451710701
1775721978360716300,9.04371630859375,0.02676435187458992,-0.021301280707120895,0.022872190922498703
1775721978370729500,9.0537294921875,0.027397917583584785,-0.02741749957203865,-0.0027769797015935183
1775721978380742400,9.063742431640625,0.0411250963807106,-0.017763305455446243,-0.002799810841679573
1775721978390756400,9.07375634765625,0.04952603951096535,-0.010697406716644764,0.031121138483285904
1775721978400769500,9.08376953125,0.05070409178733826,-0.011239549145102501,0.08575545251369476
1775721978410782500,9.093782470703125,0.036374688148498535,0.004961525555700064,0.1366806924343109
1775721978420795400,9.10379541015625,-0.0013511916622519493,0.04037972167134285,0.15029382705688477
1775721978430808300,9.113808349609375,-0.04038833826780319,0.0754207968711853,0.12510883808135986
1775721978440821500,9.123821533203126,-0.061041731387376785,0.09668625146150589,0.0688549131155014
1775721978450835500,9.13383544921875,-0.05365625396370888,0.07184375077486038,0.008737780153751373
1775721978460848400,9.143848388671875,-0.023920556530356407,0.015850583091378212,-0.025303155183792114
1775721978470861300,9.153861328125,0.0015978522133082151,-0.040522411465644836,-0.024329770356416702
1775721978480874200,9.163874267578125,-0.0005401386879384518,-0.08180221915245056,-0.0011339171323925257
1775721978490887400,9.173887451171876,-0.017718592658638954,-0.09730181843042374,0.016228027641773224
1775721978500900400,9.183900390625,-0.03561653196811676,-0.08848041296005249,0.01136285811662674
1775721978510914300,9.193914306640625,-0.03632253780961037,-0.07289505749940872,-0.01570897363126278
1775721978520927500,9.203927490234374,-0.023774279281497,-0.07712917029857635,-0.055259570479393005
1775721978530940400,9.2139404296875,0.0035811790730804205,-0.06652766466140747,-0.08711444586515427
1775721978540953300,9.223953369140625,0.02601724863052368,-0.039981793612241745,-0.10630276799201965
1775721978550966500,9.233966552734374,0.03533245623111725,-0.03471192717552185,-0.10730598121881485
1775721978560979500,9.2439794921875,0.028825493529438972,-0.0597102977335453,-0.09811641275882721
1775721978570992400,9.253992431640626,0.007583321072161198,-0.05648840591311455,-0.08712607622146606
1775721978581006300,9.26400634765625,-0.012815818190574646,-0.03509247675538063,-0.08487851917743683
1775721978591019500,9.27401953125,-0.021892670542001724,-0.018633611500263214,-0.08036419004201889
1775721978601032400,9.284032470703124,-0.025903411209583282,-0.020831720903515816,-0.06033720448613167
1775721978611045400,9.29404541015625,-0.031999122351408005,-0.03993723541498184,-0.02934919483959675
1775721978621058600,9.30405859375,-0.041931964457035065,-0.055759407579898834,0.011680342257022858
1775721978631071200,9.3140712890625,-0.055003561079502106,-0.05300383269786835,0.046754974871873856
1775721978641085400,9.32408544921875,-0.07188905775547028,-0.04311443120241165,0.058993805199861526
1775721978651098400,9.334098388671874,-0.07974671572446823,-0.023033665493130684,0.044784244149923325
1775721978661111300,9.344111328125,-0.07601652294397354,-0.01616409234702587,0.018892521038651466
1775721978671124500,9.35412451171875,-0.06674685329198837,-0.031477004289627075,-0.00044735416304320097
1775721978681137400,9.364137451171874,-0.05686924606561661,-0.03816106542944908,-0.0014315807493403554
1775721978691150300,9.374150390625,-0.06050818786025047,-0.021346131339669228,0.01767713390290737
1775721978701164500,9.38416455078125,-0.07137726992368698,-0.004379116930067539,0.042927276343107224
1775721978711177500,9.394177490234375,-0.07777231186628342,0.014050490222871304,0.056963466107845306
1775721978721190400,9.4041904296875,-0.07736817747354507,0.04107978940010071,0.05523171275854111
1775721978731203300,9.414203369140624,-0.06894034147262573,0.07343452423810959,0.041741471737623215
1775721978741216500,9.424216552734375,-0.06460417062044144,0.08845772594213486,0.02289484068751335
1775721978751229200,9.434229248046876,-0.06938880681991577,0.08456072211265564,0.0034260679967701435
1775721978761242400,9.444242431640625,-0.08011682331562042,0.09344207495450974,-0.007369068451225758
1775721978771256300,9.45425634765625,-0.09070128947496414,0.10955367237329483,-0.02136264741420746
1775721978781269200,9.464269287109374,-0.09413756430149078,0.09898358583450317,-0.043678876012563705
1775721978791282700,9.47428271484375,-0.08759710937738419,0.0776900127530098,-0.06791816651821136
1775721978801296000,9.4842958984375,-0.07587442547082901,0.06716232746839523,-0.08352053910493851
1775721978811308500,9.49430859375,-0.07313776016235352,0.053414300084114075,-0.0836089551448822
1775721978821321700,9.50432177734375,-0.08913277089595795,0.059369046241045,-0.07576002180576324
1775721978831335700,9.514335693359374,-0.11788158863782883,0.09301356226205826,-0.08328132331371307
1775721978841348600,9.5243486328125,-0.13242922723293304,0.11673043668270111,-0.10736070573329926
1775721978851361800,9.53436181640625,-0.12160641700029373,0.11520977318286896,-0.13621819019317627
1775721978861374700,9.544374755859375,-0.08392610400915146,0.10044988989830017,-0.142396479845047
1775721978871387600,9.5543876953125,-0.0434148944914341,0.08301550149917603,-0.11204524338245392
1775721978881400600,9.564400634765626,-0.014451300725340843,0.05617232620716095,-0.05660181865096092
1775721978891414500,9.57441455078125,-0.0039049170445650816,0.019332289695739746,-0.001693030004389584
1775721978901427700,9.584427734375,-0.012730000540614128,-0.016550391912460327,0.032417695969343185
1775721978911440600,9.594440673828124,-0.03240889683365822,-0.050659891217947006,0.025555526837706566
1775721978921453800,9.604453857421875,-0.058480869978666306,-0.09839921444654465,-0.017168594524264336
1775721978931466500,9.614466552734376,-0.08209245651960373,-0.16438621282577515,-0.07803540676832199
1775721978941479700,9.624479736328125,-0.10091645270586014,-0.2324068695306778,-0.12548601627349854
1775721978951493600,9.63449365234375,-0.10364938527345657,-0.2930222749710083,-0.1270703375339508
1775721978961506600,9.644506591796874,-0.08691719174385071,-0.33818453550338745,-0.07845314592123032
1775721978971519700,9.654519775390625,-0.059224046766757965,-0.36226749420166016,0.004832151811569929
1775721978981532700,9.66453271484375,-0.03529727831482887,-0.39631450176239014,0.10175807029008865
1775721978991545600,9.674545654296875,-0.022983888164162636,-0.41043323278427124,0.18430514633655548
1775721979001558800,9.684558837890625,-0.008498447015881538,-0.41777101159095764,0.23539337515830994
1775721979011571700,9.69457177734375,0.01390406396239996,-0.4262782037258148,0.25748559832572937
1775721979021585700,9.704585693359375,0.051240626722574234,-0.4178115129470825,0.25119832158088684
1775721979031598600,9.7145986328125,0.09366425126791,-0.38633134961128235,0.226484477519989
1775721979041611800,9.72461181640625,0.12315615266561508,-0.3462786376476288,0.1851164549589157
1775721979051624700,9.734624755859375,0.1351901888847351,-0.31516945362091064,0.13449110090732574
1775721979061637600,9.7446376953125,0.12895214557647705,-0.2910456359386444,0.06953674554824829
1775721979071650800,9.75465087890625,0.12210354954004288,-0.26974061131477356,0.009259018115699291
1775721979081664500,9.76466455078125,0.13107115030288696,-0.22820310294628143,-0.025740712881088257
1775721979091677700,9.774677734375,0.15957523882389069,-0.18705007433891296,-0.027651797980070114
1775721979101691000,9.78469091796875,0.1836373656988144,-0.15746907889842987,-0.006970689166337252
1775721979111703600,9.79470361328125,0.1806301325559616,-0.12074302136898041,0.014087190851569176
1775721979121716700,9.804716796875,0.1584995985031128,-0.06705448031425476,0.014117198996245861
1775721979131729700,9.814729736328125,0.1300455927848816,-0.024409016594290733,-0.0021805474534630775
1775721979141743600,9.82474365234375,0.11461404711008072,-0.005323114804923534,-0.029466381296515465
1775721979151756800,9.8347568359375,0.10656917095184326,0.021614760160446167,-0.05717923492193222
1775721979161769700,9.844769775390626,0.12061355262994766,0.0663728192448616,-0.08853364735841751
1775721979171782700,9.85478271484375,0.15299785137176514,0.09829080104827881,-0.1246676817536354
1775721979181795600,9.864795654296875,0.1915961652994156,0.12215583026409149,-0.16719678044319153
1775721979191808800,9.874808837890624,0.2277728170156479,0.1617567539215088,-0.2170407772064209
1775721979201822700,9.88482275390625,0.24083107709884644,0.18585407733917236,-0.2413245588541031
1775721979211835600,9.894835693359376,0.23272840678691864,0.14878074824810028,-0.23592446744441986
1775721979221848800,9.904848876953125,0.19757063686847687,0.08779560774564743,-0.21565908193588257
1775721979231861500,9.914861572265625,0.170776829123497,0.05657324194908142,-0.19036251306533813
1775721979241874700,9.924874755859374,0.1578311324119568,0.051735881716012955,-0.17652569711208344
1775721979251887600,9.9348876953125,0.1497204750776291,0.02889607660472393,-0.18994349241256714
1775721979261900500,9.944900634765625,0.14981462061405182,-0.015134057030081749,-0.21917898952960968
1775721979271914800,9.954914794921875,0.15367352962493896,-0.03798903897404671,-0.2467626929283142
1775721979281927700,9.964927734375,0.13530905544757843,-0.05484309047460556,-0.25576674938201904
1775721979291940600,9.974940673828126,0.10990091413259506,-0.09979165345430374,-0.23872651159763336
1775721979301953800,9.984953857421875,0.08138611912727356,-0.18853971362113953,-0.19981978833675385
1775721979311966700,9.994966796875,0.06573818624019623,-0.2771143317222595,-0.15255479514598846
1775721979321979600,10.004979736328124,0.043999943882226944,-0.35139837861061096,-0.11235260963439941
1775721979331993600,10.01499365234375,0.010732535272836685,-0.37948301434516907,-0.09087022393941879
1775721979342006800,10.0250068359375,-0.04781964421272278,-0.36955156922340393,-0.09601207822561264
1775721979352019700,10.035019775390625,-0.13247168064117432,-0.36128005385398865,-0.11004932969808578
1775721979362032600,10.04503271484375,-0.22422616183757782,-0.35294339060783386,-0.12082868814468384
1775721979372045800,10.0550458984375,-0.30004769563674927,-0.33159467577934265,-0.13126374781131744
1775721979382058500,10.06505859375,-0.3639075458049774,-0.28770336508750916,-0.16019855439662933
1775721979392072700,10.07507275390625,-0.412649005651474,-0.2240207940340042,-0.18875563144683838
1775721979402086000,10.0850859375,-0.4707140028476715,-0.150235116481781,-0.2266613245010376
1775721979412098600,10.0950986328125,-0.5433804392814636,-0.12044712901115417,-0.2642230689525604
1775721979422111700,10.10511181640625,-0.608741044998169,-0.1600435972213745,-0.3080577552318573
1775721979432124700,10.115124755859375,-0.6292396783828735,-0.25122755765914917,-0.36052337288856506
1775721979442137600,10.1251376953125,-0.5950972437858582,-0.3575970530509949,-0.4109067916870117
1775721979452150500,10.135150634765624,-0.51628577709198,-0.4277239441871643,-0.431803822517395
1775721979462164700,10.145164794921875,-0.3997940123081207,-0.3723798394203186,-0.40668731927871704
1775721979472177700,10.155177734375,-0.2708738446235657,-0.2355186492204666,-0.3626181185245514
1775721979482190600,10.165190673828125,-0.18188253045082092,-0.15565554797649384,-0.3458814024925232
1775721979492203800,10.175203857421875,-0.15682272613048553,-0.16030888259410858,-0.35611167550086975
1775721979502216700,10.185216796875,-0.15924924612045288,-0.146988183259964,-0.3607041835784912
1775721979512229600,10.195229736328125,-0.15306299924850464,-0.11394314467906952,-0.3536912798881531
1775721979522243800,10.205243896484374,-0.13884013891220093,-0.08323675394058228,-0.3522711992263794
1775721979532256500,10.215256591796875,-0.12460795789957047,-0.025878923013806343,-0.3489515781402588
1775721979542269700,10.225269775390625,-0.12064642459154129,0.052515216171741486,-0.34885820746421814
1775721979552282600,10.23528271484375,-0.1172061562538147,0.1019139215350151,-0.3589656949043274
1775721979562295600,10.245295654296875,-0.1016894280910492,0.12824596464633942,-0.3716786503791809
1775721979572308700,10.255308837890626,-0.07588605582714081,0.10698248445987701,-0.37151166796684265
1775721979582322700,10.26532275390625,-0.042774103581905365,0.020936014130711555,-0.3446252644062042
1775721979592335600,10.275335693359375,0.007523687090724707,-0.02339283563196659,-0.2905287444591522
1775721979602348500,10.2853486328125,0.0678698942065239,-0.0020131045021116734,-0.23571215569972992
1775721979612361700,10.29536181640625,0.12525568902492523,0.032122496515512466,-0.2245817333459854
1775721979622374700,10.305374755859376,0.1782940775156021,0.04259771481156349,-0.27213427424430847
1775721979632387600,10.3153876953125,0.2270357757806778,0.04076545685529709,-0.33979880809783936
1775721979642400800,10.32540087890625,0.2564074695110321,-0.000351731083355844,-0.38606026768684387
1775721979652414500,10.33541455078125,0.2704785466194153,-0.06372031569480896,-0.38225090503692627
1775721979662427600,10.345427734375,0.2724841833114624,-0.08421099185943604,-0.3279109597206116
1775721979672440800,10.35544091796875,0.25601574778556824,-0.08731117844581604,-0.2509349584579468
1775721979682453800,10.365453857421874,0.22266574203968048,-0.08427242934703827,-0.191030815243721
1775721979692466700,10.375466796875,0.17875127494335175,-0.06176499277353287,-0.1567077338695526
1775721979702479600,10.385479736328126,0.1278405338525772,-0.06456322222948074,-0.1292826235294342
1775721979712493600,10.39549365234375,0.08241499960422516,-0.05336702615022659,-0.10028238594532013
1775721979722506800,10.4055068359375,0.04325872287154198,-0.006906348746269941,-0.06256742775440216
1775721979732519700,10.415519775390624,0.012928245589137077,0.052035264670848846,-0.03024544008076191
1775721979742532600,10.42553271484375,-0.009305893443524837,0.09612663835287094,-0.0062448326498270035
1775721979752545500,10.435545654296876,-0.028922736644744873,0.12669546902179718,0.009970090351998806
1775721979762558700,10.445558837890625,-0.05162167549133301,0.13842037320137024,0.03418118879199028
1775721979772572700,10.45557275390625,-0.08364804834127426,0.16809998452663422,0.07814997434616089
1775721979782585600,10.465585693359374,-0.119627945125103,0.18787813186645508,0.12711119651794434
1775721979792598300,10.475598388671875,-0.14675864577293396,0.16510838270187378,0.17862392961978912
1775721979802611200,10.485611083984375,-0.1439685821533203,0.14211684465408325,0.21769526600837708
1775721979812624100,10.4956240234375,-0.11305459588766098,0.14025048911571503,0.22870077192783356
1775721979822637000,10.505636962890625,-0.07547885179519653,0.1387886255979538,0.2091810405254364
1775721979832650200,10.515650146484376,-0.05216421186923981,0.12769868969917297,0.16999341547489166
1775721979842664200,10.525664306640625,-0.04660501331090927,0.11207220703363419,0.13096758723258972
1775721979852677000,10.535677001953125,-0.04774484783411026,0.11868803203105927,0.10098066180944443
1775721979862690300,10.545690185546874,-0.04506859928369522,0.1262986958026886,0.08940518647432327
1775721979872703000,10.555702880859375,-0.049614615738391876,0.08386361598968506,0.08658383786678314
1775721979882716200,10.565716064453126,-0.04408752918243408,0.048096418380737305,0.07669023424386978
1775721979892729000,10.57572900390625,-0.02403233014047146,0.04350965470075607,0.05062561109662056
1775721979902743000,10.585742919921875,0.007060608360916376,0.03162822872400284,0.014027652330696583
1775721979912756200,10.595756103515624,0.03395693749189377,0.0040863510221242905,-0.014689479023218155
1775721979922769200,10.60576904296875,0.05185430496931076,-0.01449514925479889,-0.029716746881604195
1775721979932782000,10.615781982421876,0.059217147529125214,-0.017917577177286148,-0.04087512567639351
1775721979942795000,10.625794921875,0.05322609841823578,-0.021631088107824326,-0.05232565477490425
1775721979952808200,10.63580810546875,0.0351172499358654,-0.03985549509525299,-0.052219003438949585
1775721979962822100,10.645822265625,0.027089443057775497,-0.0529702790081501,-0.0351627953350544
1775721979972835000,10.6558349609375,0.029352864250540733,-0.025539452210068703,-0.013960838317871094
1775721979982848300,10.66584814453125,0.03304557874798775,-0.0004050248535349965,-0.006404377520084381
1775721979992861000,10.67586083984375,0.025159426033496857,0.017943356186151505,-0.02349654585123062
1775721980002874000,10.6858740234375,0.017822422087192535,0.05659249797463417,-0.04928844794631004
1775721980012887300,10.69588720703125,0.013874818570911884,0.10340394824743271,-0.06578193604946136
1775721980022900200,10.705900146484375,0.007842492312192917,0.13081160187721252,-0.07042249292135239
1775721980032914200,10.7159140625,0.017153169959783554,0.1424509584903717,-0.06924830377101898
1775721980042927000,10.725927001953124,0.03520974516868591,0.15267296135425568,-0.06792028993368149
1775721980052940000,10.73593994140625,0.053872112184762955,0.1474827229976654,-0.06832509487867355
1775721980062953200,10.745953125,0.06621886044740677,0.14895740151405334,-0.0761559009552002
1775721980072966100,10.755966064453125,0.06835044920444489,0.16898038983345032,-0.08944027870893478
1775721980082979300,10.765979248046875,0.061218734830617905,0.1912032663822174,-0.10958649963140488
1775721980092993000,10.775992919921874,0.0561523400247097,0.191510871052742,-0.12135101854801178
1775721980103006200,10.786006103515625,0.06105079501867294,0.16790509223937988,-0.12376900762319565
1775721980113019100,10.79601904296875,0.08352521061897278,0.1577688306570053,-0.11195096373558044
1775721980123032000,10.806031982421874,0.10022832453250885,0.15192201733589172,-0.08711782842874527
1775721980133045200,10.816045166015625,0.09679551422595978,0.13224977254867554,-0.06582532078027725
1775721980143058200,10.82605810546875,0.08905960619449615,0.09798115491867065,-0.052958834916353226
1775721980153072000,10.836072021484375,0.08545181900262833,0.08877860754728317,-0.03896605595946312
1775721980163085300,10.846085205078126,0.07979027181863785,0.08910094201564789,-0.021931732073426247
1775721980173098000,10.856097900390624,0.08014660328626633,0.0892905592918396,-0.011593607254326344
1775721980183111200,10.866111083984375,0.07876945286989212,0.06791260838508606,-0.012644214555621147
1775721980193124000,10.8761240234375,0.08420044183731079,0.04650825262069702,-0.017440035939216614
1775721980203137300,10.88613720703125,0.08324870467185974,0.045256298035383224,-0.03207207843661308
1775721980213150000,10.89614990234375,0.06813979148864746,0.025683660060167313,-0.03690784424543381
1775721980223164200,10.9061640625,0.045317962765693665,0.0021822534035891294,-0.027210308238863945
1775721980233177000,10.916177001953125,0.01965893805027008,0.015757450833916664,-0.014709965325891972
1775721980243190000,10.92618994140625,-0.004232259467244148,0.042136531323194504,-0.007043011486530304
1775721980253203200,10.936203125,-0.0253098476678133,0.04468251392245293,-0.008706687949597836
1775721980263216000,10.946216064453125,-0.037175703793764114,0.03386705741286278,-0.019194597378373146
1775721980273229000,10.95622900390625,-0.032557517290115356,0.032942406833171844,-0.035682227462530136
1775721980283243300,10.9662431640625,-0.01616930030286312,0.03458130359649658,-0.056166112422943115
1775721980293256000,10.976255859375,0.004342898726463318,0.023879123851656914,-0.06652341783046722
1775721980303269000,10.98626904296875,0.02236863411962986,0.009042710065841675,-0.062202610075473785
1775721980313282300,10.9962822265625,0.03884321451187134,-0.0015827695606276393,-0.04853100702166557
1775721980323295200,11.006295166015626,0.05765726789832115,-0.0034891990944743156,-0.03514954447746277
1775721980333308200,11.01630810546875,0.07435502111911774,-0.009417396038770676,-0.02210485003888607
1775721980343321000,11.026321044921875,0.08513951301574707,-0.022743649780750275,-0.010494819842278957
1775721980353335000,11.0363349609375,0.09416017681360245,-0.03895217925310135,-0.002811600686982274
1775721980363348200,11.04634814453125,0.10207151621580124,-0.05350339785218239,-0.004025641828775406
1775721980373361200,11.056361083984376,0.11350899189710617,-0.06749404966831207,-0.012151479721069336
1775721980383374300,11.066374267578125,0.12269733846187592,-0.07637856900691986,-0.018751217052340508
1775721980393387000,11.076386962890625,0.12348403036594391,-0.05741154029965401,-0.02056562900543213
1775721980403400200,11.086400146484374,0.10866571962833405,-0.03424984961748123,-0.018432987853884697
1775721980413414100,11.0964140625,0.08129055798053741,-0.01601518504321575,-0.02050519362092018
1775721980423427000,11.106427001953126,0.05335589125752449,0.006525381468236446,-0.03190838545560837
1775721980433440300,11.116440185546875,0.02795892022550106,0.007355755195021629,-0.043513376265764236
1775721980443453200,11.126453125,0.017569702118635178,-0.00226983311586082,-0.04387401044368744
1775721980453466000,11.136466064453124,0.016994725912809372,-0.012758960016071796,-0.029412511736154556
1775721980463479000,11.14647900390625,0.02000076323747635,-0.0130735719576478,-0.01106611080467701
1775721980473493000,11.156492919921876,0.014399603009223938,-0.004054244142025709,-0.004643632099032402
1775721980483506200,11.166506103515625,0.00021673692390322685,0.009734101593494415,-0.010425406508147717
1775721980493519000,11.17651904296875,-0.02310429885983467,0.01710866019129753,-0.0212402381002903
1775721980503532300,11.1865322265625,-0.03981461375951767,0.0222952738404274,-0.03605271130800247
1775721980513545000,11.196544921875,-0.040938735008239746,0.025335539132356644,-0.03833077847957611
1775721980523558100,11.20655810546875,-0.030868783593177795,0.022005541250109673,-0.025453848764300346
1775721980533571300,11.2165712890625,-0.011738499626517296,0.02083747833967209,-0.006654593627899885
1775721980543585000,11.2265849609375,0.004138528369367123,0.03181270882487297,0.0055921548046171665
1775721980553598200,11.23659814453125,0.009317577816545963,0.05065404251217842,0.011544851586222649
1775721980563611100,11.246611083984375,0.006674264557659626,0.051140427589416504,0.01238492876291275
1775721980573624000,11.2566240234375,0.00047069694846868515,0.03541392832994461,0.01352769136428833
1775721980583637200,11.26663720703125,0.0008981742430478334,0.03267979994416237,0.013812074437737465
1775721980593650200,11.276650146484375,0.011362533085048199,0.04015928879380226,0.013015521690249443
1775721980603664100,11.2866640625,0.020959991961717606,0.03181786462664604,0.01133484486490488
1775721980613677000,11.296677001953125,0.02683306112885475,0.018824566155672073,0.013415572233498096
1775721980623690200,11.306690185546875,0.01968318037688732,0.011699610389769077,0.022952737286686897
1775721980633703200,11.316703125,0.0006474365945905447,0.002922896994277835,0.03795991837978363
1775721980643716000,11.326716064453125,-0.02220301702618599,-0.014188711531460285,0.042148005217313766
1775721980653729300,11.336729248046876,-0.03804323449730873,-0.03091070055961609,0.038108255714178085
1775721980663743000,11.346742919921875,-0.04857553541660309,-0.026727112010121346,0.03248578682541847
1775721980673756200,11.356756103515625,-0.061312634497880936,0.0027303777169436216,0.03289458155632019
1775721980683769300,11.366769287109374,-0.08540540933609009,0.025219865143299103,0.04814834147691727
1775721980693782000,11.376781982421875,-0.11346686631441116,0.034021344035863876,0.07630115002393723
1775721980703795200,11.386795166015625,-0.1338646560907364,0.036900538951158524,0.10504661500453949
1775721980713808100,11.39680810546875,-0.14369943737983704,0.040398601442575455,0.11749263107776642
1775721980723821000,11.406821044921875,-0.14735640585422516,0.037466127425432205,0.12103771418333054
1775721980733835300,11.416835205078126,-0.15168243646621704,0.02335137315094471,0.12809056043624878
1775721980743848200,11.42684814453125,-0.14469735324382782,0.002980184508487582,0.13372702896595
1775721980753861000,11.436861083984375,-0.13546417653560638,0.007242840714752674,0.13425379991531372
1775721980763874000,11.4468740234375,-0.1335425078868866,0.013759581372141838,0.1379319578409195
1775721980773887200,11.45688720703125,-0.1341145634651184,0.014090344309806824,0.14772173762321472
1775721980783900000,11.46689990234375,-0.13777315616607666,0.004534716717898846,0.16717445850372314
1775721980793914000,11.4769140625,-0.13767889142036438,-0.0034041665494441986,0.18498888611793518
1775721980803927300,11.48692724609375,-0.13556434214115143,0.0015892605297267437,0.19564658403396606
1775721980813940200,11.496940185546874,-0.12970884144306183,0.013121812604367733,0.20614662766456604
1775721980823953200,11.506953125,-0.11988832801580429,0.016288815066218376,0.21874196827411652
1775721980833966300,11.51696630859375,-0.10409551858901978,0.025227447971701622,0.23241382837295532
1775721980843979000,11.52697900390625,-0.09961599856615067,0.030461905524134636,0.23478582501411438
1775721980853993200,11.5369931640625,-0.1022607833147049,0.03364145755767822,0.22629006206989288
1775721980864006400,11.54700634765625,-0.1057741791009903,0.039941396564245224,0.20051005482673645
1775721980874019000,11.55701904296875,-0.10568017512559891,0.05308675765991211,0.1578882932662964
1775721980884032300,11.5670322265625,-0.10350527614355087,0.05321171134710312,0.11036640405654907
1775721980894045200,11.577045166015624,-0.0998985543847084,0.01591467298567295,0.07124217599630356
1775721980904058000,11.58705810546875,-0.09830143302679062,-0.006949160248041153,0.05403760075569153
1775721980914071000,11.597071044921876,-0.09775921702384949,-0.02504720352590084,0.05911997705698013
1775721980924085200,11.607085205078125,-0.10087697952985764,-0.005960878916084766,0.08331025391817093
1775721980934098200,11.61709814453125,-0.11475418508052826,0.029289519414305687,0.12952490150928497
1775721980944111000,11.627111083984374,-0.1269397884607315,0.051186155527830124,0.18708676099777222
1775721980954124300,11.637124267578125,-0.12057456374168396,0.06886102259159088,0.24367733299732208
1775721980964137000,11.647136962890626,-0.09850193560123444,0.0588504821062088,0.2865184545516968
1775721980974150100,11.657150146484375,-0.07894448190927505,0.02285093627870083,0.3135806918144226
1775721980984164400,11.667164306640625,-0.0629018247127533,0.013507642783224583,0.31877782940864563
1775721980994177000,11.677177001953124,-0.05373655632138252,0.0005489669274538755,0.30360153317451477
1775721981004190200,11.687190185546875,-0.04537709429860115,0.00037142960354685783,0.2820245325565338
1775721981014203100,11.697203125,-0.03352922201156616,-0.007441752590239048,0.26668739318847656
1775721981024216000,11.707216064453124,-0.023723335936665535,-0.014012928120791912,0.2502172291278839
1775721981034229200,11.717229248046875,-0.005156310275197029,-0.01448217686265707,0.22576861083507538
1775721981044242200,11.7272421875,0.029354210942983627,-0.0027300899382680655,0.19121545553207397
1775721981054256000,11.737256103515625,0.07580267637968063,0.014852100051939487,0.1624075025320053
1775721981064269000,11.74726904296875,0.11312934011220932,0.03150387480854988,0.15033000707626343
1775721981074282200,11.7572822265625,0.1347414255142212,0.024319466203451157,0.15285655856132507
1775721981084295200,11.767295166015625,0.14248308539390564,0.02785896137356758,0.15580719709396362
1775721981094308000,11.77730810546875,0.14094990491867065,0.036381613463163376,0.15094426274299622
1775721981104321300,11.7873212890625,0.13576428592205048,0.04362519457936287,0.13820046186447144
1775721981114335000,11.7973349609375,0.1271766573190689,0.05200163647532463,0.11603150516748428
1775721981124348200,11.80734814453125,0.10508183389902115,0.053782954812049866,0.07730795443058014
1775721981134361300,11.817361328125,0.07690319418907166,0.05109769105911255,0.02269797772169113
1775721981144374000,11.8273740234375,0.0365968681871891,0.04834960773587227,-0.030103525146842003
1775721981154387200,11.83738720703125,-0.0065588573925197124,0.05846882238984108,-0.08120319992303848
1775721981164400000,11.847400146484375,-0.04101409763097763,0.05843625217676163,-0.12642545998096466
1775721981174414000,11.8574140625,-0.05643007159233093,-0.007780584506690502,-0.1482095867395401
1775721981184427300,11.86742724609375,-0.0485013872385025,-0.07865796983242035,-0.12997564673423767
1775721981194440200,11.877440185546876,-0.028843795880675316,-0.11239808797836304,-0.08420815318822861
1775721981204453000,11.887453125,-0.0027544714976102114,-0.10691206902265549,-0.03512923792004585
1775721981214466000,11.897466064453125,-0.0013142339885234833,-0.07442150264978409,0.0034620938822627068
1775721981224479200,11.907479248046876,-0.03440636768937111,-0.04602514207363129,0.03078342042863369
1775721981234492200,11.9174921875,-0.07255961000919342,-0.026169415563344955,0.04565584287047386
1775721981244506000,11.927506103515626,-0.09383317828178406,-0.018632180988788605,0.049624744802713394
1775721981254519300,11.937519287109374,-0.08452516794204712,-0.0169778261333704,0.05027775093913078
1775721981264532000,11.947531982421875,-0.04455495625734329,-0.021402105689048767,0.052205707877874374
1775721981274545200,11.957545166015626,0.010149568319320679,-0.06761301308870316,0.06887097656726837
1775721981284558000,11.96755810546875,0.06834366917610168,-0.1240958720445633,0.1038813591003418
1775721981294571300,11.9775712890625,0.11207117885351181,-0.15020602941513062,0.1568652093410492
1775721981304585200,11.987585205078124,0.12308769673109055,-0.15667986869812012,0.21155130863189697
1775721981314598100,11.99759814453125,0.10391027480363846,-0.14106574654579163,0.25633180141448975
1775721981324611000,12.007611083984376,0.0773468017578125,-0.10992182046175003,0.2801533043384552
1775721981334624300,12.017624267578125,0.06232338026165962,-0.10706984251737595,0.2803613245487213
1775721981344637200,12.02763720703125,0.07448966056108475,-0.12302321195602417,0.2615157961845398
1775721981354650400,12.037650390625,0.10571069270372391,-0.1346322000026703,0.23327164351940155
1775721981364663000,12.0476630859375,0.1438247710466385,-0.13637623190879822,0.2026895433664322
1775721981374677200,12.05767724609375,0.17152483761310577,-0.1104050949215889,0.1753479242324829
1775721981384690200,12.067690185546875,0.18196533620357513,-0.07610919326543808,0.14370201528072357
1775721981394703000,12.077703125,0.17482219636440277,-0.05684894695878029,0.11931118369102478
1775721981404716300,12.08771630859375,0.1717691719532013,-0.044337235391139984,0.11908026039600372
1775721981414729200,12.097729248046875,0.18364819884300232,-0.024430105462670326,0.1488240361213684
1775721981424742100,12.1077421875,0.2148490995168686,-0.0002862004330381751,0.19597280025482178
1775721981434756400,12.11775634765625,0.24600568413734436,0.006879567168653011,0.23709334433078766
1775721981444769000,12.12776904296875,0.2648681700229645,0.00974962580949068,0.2549910247325897
1775721981454782200,12.1377822265625,0.25356972217559814,0.01609620451927185,0.24560630321502686
1775721981464795100,12.147795166015625,0.22338180243968964,0.03916554152965546,0.22274404764175415
1775721981474808300,12.157808349609375,0.18098774552345276,0.07671745121479034,0.1961798071861267
1775721981484821000,12.167821044921874,0.14050887525081635,0.10530583560466766,0.18001295626163483
1775721981494834200,12.177834228515625,0.11026230454444885,0.1259181648492813,0.17323733866214752
1775721981504848100,12.18784814453125,0.08925674110651016,0.14545156061649323,0.1678970605134964
