time,seconds_elapsed,z,y,x
1775721969367640300,0.050640380859375,0.1086103692650795,-0.29506412148475647,-0.08149512857198715
1775721969377653200,0.0606533203125,0.10113061219453812,-0.24953925609588623,-0.04830574616789818
1775721969387666200,0.070666259765625,0.07649903744459152,-0.24538153409957886,-0.00691915862262249
1775721969397679400,0.080679443359375,0.06172914430499077,-0.2568882405757904,0.021771607920527458
1775721969407692300,0.0906923828125,0.06380347907543182,-0.2502165138721466,0.0234691072255373
1775721969417706200,0.100706298828125,0.061649248003959656,-0.2561873197555542,0.005132444202899933
1775721969427719400,0.110719482421875,0.0408204011619091,-0.23406149446964264,-0.020118318498134613
1775721969437732000,0.120732177734375,0.017769142985343933,-0.1836899369955063,-0.030113426968455315
1775721969447745300,0.130745361328125,0.004739894066005945,-0.15530437231063843,-0.02750805765390396
1775721969457758200,0.14075830078125,-0.011928298510611057,-0.09805706143379211,-0.029204225167632103
1775721969467771400,0.150771484375,-0.02286643348634243,-0.05085918679833412,-0.03994235768914223
1775721969477785300,0.160785400390625,-0.021565480157732964,0.002665557898581028,-0.05884760245680809
1775721969487798300,0.17079833984375,-0.040226515382528305,-0.016752082854509354,-0.050097789615392685
1775721969497811200,0.180811279296875,-0.0664336159825325,-0.03280162066221237,-0.034983016550540924
1775721969507824000,0.19082421875,-0.08692824095487595,-0.01264175958931446,-0.019998475909233093
1775721969517837300,0.20083740234375,-0.09155601263046265,0.010244115255773067,0.0009086705395020545
1775721969527851300,0.210851318359375,-0.08795542269945145,0.06270413100719452,0.023859260603785515
1775721969537864200,0.2208642578125,-0.08456175774335861,0.09207426756620407,0.04284200444817543
1775721969547877400,0.23087744140625,-0.07701195776462555,0.09020686149597168,0.05482436716556549
1775721969557890300,0.240890380859375,-0.0719359740614891,0.09531001001596451,0.053943924605846405
1775721969567903200,0.2509033203125,-0.06982222199440002,0.105033740401268,0.05549122020602226
1775721969577916200,0.260916259765625,-0.07517677545547485,0.1219051331281662,0.05604276433587074
1775721969587930000,0.27093017578125,-0.0788724422454834,0.1411837488412857,0.05777302011847496
1775721969597943300,0.280943359375,-0.07782049477100372,0.1398061066865921,0.05260169133543968
1775721969607956200,0.290956298828125,-0.06253848224878311,0.12306919693946838,0.039927974343299866
1775721969617969200,0.30096923828125,-0.04230830818414688,0.10658583045005798,0.016220515593886375
1775721969627982000,0.310982177734375,-0.024868598207831383,0.1042742058634758,-0.010792460292577744
1775721969637996300,0.320996337890625,-0.012337892316281796,0.08614500612020493,-0.025713086128234863
1775721969648009200,0.33100927734375,-0.003543602069839835,0.05543582886457443,-0.025309883058071136
1775721969658022100,0.341022216796875,0.006872553378343582,0.031621843576431274,-0.019237076863646507
1775721969668035300,0.351035400390625,0.019288210198283195,0.010971690528094769,-0.009899502620100975
1775721969678048300,0.36104833984375,0.026683542877435684,-0.013526194728910923,-0.0034908715169876814
1775721969688061200,0.371061279296875,0.030696926638484,-0.02755599468946457,0.0005038700764998794
1775721969698075400,0.381075439453125,0.03456197306513786,-0.029101425781846046,0.0034916705917567015
1775721969708088000,0.391088134765625,0.03638836741447449,-0.032032500952482224,0.009193232282996178
1775721969718101200,0.401101318359375,0.02882099524140358,-0.029807696118950844,0.004316717851907015
1775721969728114400,0.411114501953125,0.03057708404958248,-0.025713086128234863,-0.006069077644497156
1775721969738127000,0.421127197265625,0.03720515966415405,-0.01104679238051176,-0.025910692289471626
1775721969748140300,0.431140380859375,0.0406893715262413,-0.014973356388509274,-0.049127597361803055
1775721969758154200,0.441154296875,0.034090593457221985,-0.02937466651201248,-0.0673806369304657
1775721969768167200,0.451167236328125,0.02339800074696541,-0.03346208482980728,-0.08500783145427704
1775721969778180400,0.461180419921875,0.01762453280389309,-0.041620414704084396,-0.10029251873493195
1775721969788193500,0.471193603515625,0.016559801995754242,-0.03863128274679184,-0.11188419163227081
1775721969798206500,0.48120654296875,0.01769191212952137,-0.01774810440838337,-0.11478064209222794
1775721969808220700,0.491220703125,0.020552946254611015,-0.006710100453346968,-0.10828439891338348
1775721969818233600,0.501233642578125,0.024892034009099007,-0.009225722402334213,-0.10146111249923706
1775721969828246500,0.51124658203125,0.03641313314437866,-0.010841995477676392,-0.10363451391458511
1775721969838259500,0.521259521484375,0.04920216649770737,-0.01233522966504097,-0.10023579001426697
1775721969848272600,0.531272705078125,0.04974278807640076,-0.009529323317110538,-0.07412242889404297
1775721969858285600,0.54128564453125,0.04092399775981903,-0.018062889575958252,-0.03591565787792206
1775721969868299500,0.551299560546875,0.02997680753469467,-0.010076070204377174,-0.013650031760334969
1775721969878312700,0.561312744140625,0.02570163458585739,0.007161506451666355,-0.010306699201464653
1775721969888325400,0.571325439453125,0.026968499645590782,0.008717325516045094,-0.020487165078520775
1775721969898338600,0.581338623046875,0.03045590966939926,0.014218350872397423,-0.029834061861038208
1775721969908351700,0.591351806640625,0.02929583750665188,0.015535550191998482,-0.041200168430805206
1775721969918365400,0.601365478515625,0.031310517340898514,0.014956312254071236,-0.0480910949409008
1775721969928378600,0.611378662109375,0.03358166292309761,0.014750449918210506,-0.04693901166319847
1775721969938391600,0.6213916015625,0.03575560078024864,0.013294233940541744,-0.04427452012896538
1775721969948404500,0.631404541015625,0.03560886159539223,0.019208582118153572,-0.03509220853447914
1775721969958417700,0.641417724609375,0.03376409038901329,0.030427947640419006,-0.021732991561293602
1775721969968430600,0.6514306640625,0.033430393785238266,0.03708212077617645,-0.013163738884031773
1775721969978444500,0.661444580078125,0.032039426267147064,0.039439283311367035,-0.012415390461683273
1775721969988457500,0.67145751953125,0.028902487829327583,0.04629186540842056,-0.021443240344524384
1775721969998470700,0.681470703125,0.02522439695894718,0.04339274764060974,-0.04072852060198784
1775721970008483600,0.691483642578125,0.029741384088993073,0.025462482124567032,-0.054656852036714554
1775721970018496500,0.70149658203125,0.029206886887550354,0.022825688123703003,-0.05065225809812546
1775721970028509700,0.711509765625,0.025778600946068764,0.03672978654503822,-0.02594105340540409
1775721970038523400,0.7215234375,0.02195802889764309,0.03537822887301445,0.005062669049948454
1775721970048536600,0.73153662109375,0.024407338351011276,0.016818394884467125,0.02660391293466091
1775721970058549800,0.7415498046875,0.029023129492998123,0.008623315952718258,0.03261120617389679
1775721970068562400,0.7515625,0.02918345108628273,0.010261425748467445,0.024822259321808815
1775721970078575600,0.76157568359375,0.0285810437053442,0.014432468451559544,0.007900266908109188
1775721970088589300,0.77158935546875,0.025683792307972908,0.003240001853555441,-0.0037502634804695845
1775721970098602500,0.7816025390625,0.019473565742373466,0.0001294296234846115,-0.014847389422357082
1775721970108615700,0.79161572265625,0.015063105151057243,-0.00501100393012166,-0.028796227648854256
1775721970118628600,0.801628662109375,0.016148343682289124,-0.009468602947890759,-0.04367664083838463
1775721970128641500,0.8116416015625,0.009848369285464287,-0.010760501958429813,-0.059719521552324295
1775721970138654500,0.821654541015625,0.0009515474666841328,-0.018626147881150246,-0.08026980608701706
1775721970148668400,0.83166845703125,-0.007754858583211899,-0.03989974409341812,-0.09400931745767593
1775721970158681600,0.841681640625,-0.00458836043253541,-0.04743995517492294,-0.08582409471273422
1775721970168694500,0.851694580078125,-0.00239151855930686,-0.015105715952813625,-0.05980314686894417
1775721970178707700,0.861707763671875,-0.009110674262046814,0.00407543545588851,-0.028852952644228935
1775721970188720400,0.871720458984375,-0.014708106406033039,0.017492707818746567,-0.003772101365029812
1775721970198733600,0.881733642578125,-0.016881778836250305,0.02257215417921543,0.008741027675569057
1775721970208747500,0.89174755859375,-0.018914569169282913,0.02696317434310913,0.015549398958683014
1775721970218760400,0.901760498046875,-0.021400364115834236,0.013547500595450401,0.027599403634667397
1775721970228773600,0.911773681640625,-0.026186596602201462,0.01655447483062744,0.04253680631518364
1775721970238786600,0.92178662109375,-0.022647256031632423,0.0304521806538105,0.05342114716768265
1775721970248799500,0.931799560546875,-0.016627445816993713,0.030964041128754616,0.04712516814470291
1775721970258813700,0.941813720703125,-0.01101483404636383,0.027848675847053528,0.02816612459719181
1775721970268826400,0.951826416015625,-0.005388640332967043,0.015566176734864712,-0.003932956140488386
1775721970278839600,0.961839599609375,-0.0011163970921188593,0.003153715282678604,-0.03497369587421417
1775721970288852500,0.9718525390625,0.0016397082945331931,-0.008531169965863228,-0.041861698031425476
1775721970298865700,0.98186572265625,0.0013451626291498542,-0.009812151081860065,-0.027178891003131866
1775721970308878600,0.991878662109375,-0.0023787354584783316,-0.010625746101140976,-0.00367143377661705
1775721970318892500,1.001892578125,0.0037971350830048323,-0.016329437494277954,0.013225790113210678
1775721970328905500,1.011905517578125,0.008110124617815018,-0.01883707009255886,0.017584852874279022
1775721970338918400,1.02191845703125,0.009813748300075531,-0.02250237949192524,0.012093414552509785
1775721970348931600,1.031931640625,0.0042144525796175,-0.02834402397274971,0.004354801028966904
1775721970358944800,1.04194482421875,0.0018482337472960353,-0.02148185670375824,0.005471464246511459
1775721970368957400,1.05195751953125,-0.0037856835406273603,-0.01780642755329609,0.009496832266449928
1775721970378971600,1.0619716796875,-0.007284810766577721,-0.013745639473199844,0.013118465431034565
1775721970388984300,1.071984375,-0.002719087526202202,-0.002344646956771612,0.0037936728913336992
1775721970398997500,1.08199755859375,-0.0010833739070221782,0.0028242822736501694,-0.008717591874301434
1775721970409010700,1.0920107421875,0.002148372121155262,0.0022154836915433407,-0.02521560713648796
1775721970419023600,1.102023681640625,0.005597698036581278,-0.00016112125013023615,-0.040223851799964905
1775721970429037600,1.11203759765625,0.01492169126868248,-0.01757393404841423,-0.04587375000119209
1775721970439050500,1.122050537109375,0.025837190449237823,-0.03098934143781662,-0.03299150615930557
1775721970449063400,1.1320634765625,0.03701021522283554,-0.029329925775527954,-0.013450561091303825
1775721970459076600,1.14207666015625,0.048163000494241714,-0.026449717581272125,-0.0007257114048115909
1775721970469089500,1.152089599609375,0.053521815687417984,-0.022963905707001686,-0.004462392535060644
1775721970479102700,1.162102783203125,0.059597551822662354,-0.022525548934936523,-0.02040833607316017
1775721970489116400,1.172116455078125,0.06433451175689697,-0.043422307819128036,-0.0418182872235775
1775721970499129600,1.182129638671875,0.0710454136133194,-0.06734362244606018,-0.0489712692797184
1775721970509142500,1.192142578125,0.07830678671598434,-0.07872118055820465,-0.04186302796006203
1775721970519155500,1.202155517578125,0.07960827648639679,-0.08271272480487823,-0.020306870341300964
1775721970529168600,1.212168701171875,0.07300789654254913,-0.0879325196146965,0.0056893108412623405
1775721970539181600,1.222181640625,0.06640538573265076,-0.09737928211688995,0.01992630399763584
1775721970549195500,1.232195556640625,0.06391453742980957,-0.1076739951968193,0.030068419873714447
1775721970559208700,1.242208740234375,0.07104674726724625,-0.10930757969617844,0.04027924686670303
1775721970569221400,1.252221435546875,0.08484750986099243,-0.10024458169937134,0.04368675872683525
1775721970579234600,1.262234619140625,0.0951659306883812,-0.0932423323392868,0.024640897288918495
1775721970589247500,1.27224755859375,0.09823761880397797,-0.09396617859601974,-0.013467338867485523
1775721970599260700,1.2822607421875,0.08967822045087814,-0.09005691856145859,-0.05138116702437401
1775721970609274600,1.292274658203125,0.07929562032222748,-0.07279351353645325,-0.07303985208272934
1775721970619287600,1.30228759765625,0.08408398181200027,-0.06040661782026291,-0.0660349428653717
1775721970629300500,1.312300537109375,0.11373242735862732,-0.053530335426330566,-0.026972228661179543
1775721970639313400,1.3223134765625,0.14404292404651642,-0.010250506922602654,0.025907231494784355
1775721970649326600,1.33232666015625,0.15533845126628876,0.03669117018580437,0.06454383581876755
1775721970659340500,1.342340576171875,0.13243260979652405,0.06560484319925308,0.06982941180467606
1775721970669353500,1.352353515625,0.06372891366481781,0.08409623801708221,0.0503489226102829
1775721970679366700,1.36236669921875,-0.04175783321261406,0.11759640276432037,0.018567025661468506
1775721970689379300,1.37237939453125,-0.14871011674404144,0.1381046026945114,0.010211891494691372
1775721970699392500,1.382392578125,-0.22954504191875458,0.14172837138175964,0.04091334342956543
1775721970709405700,1.39240576171875,-0.2626262903213501,0.1362004429101944,0.09135681390762329
1775721970719419400,1.40241943359375,-0.2703540027141571,0.14966246485710144,0.12304896116256714
1775721970729432600,1.4124326171875,-0.26560503244400024,0.15339088439941406,0.10592536628246307
1775721970739445500,1.422445556640625,-0.2541007101535797,0.13001897931098938,0.04178233444690704
1775721970749458400,1.43245849609375,-0.22755086421966553,0.10480497777462006,-0.037453632801771164
1775721970759471600,1.4424716796875,-0.20634810626506805,0.09186787158250809,-0.11227807402610779
1775721970769484500,1.452484619140625,-0.20148544013500214,0.10152556002140045,-0.1692313700914383
1775721970779498500,1.46249853515625,-0.20039594173431396,0.15686950087547302,-0.19723370671272278
1775721970789511200,1.47251123046875,-0.19700494408607483,0.20788262784481049,-0.18675363063812256
1775721970799524400,1.4825244140625,-0.17437632381916046,0.19259528815746307,-0.11662515252828598
1775721970809537500,1.49253759765625,-0.125227153301239,0.1878146380186081,-0.0032658344134688377
1775721970819550200,1.50255029296875,-0.057793524116277695,0.1952909380197525,0.10673070698976517
1775721970829564400,1.512564453125,0.0017291904659941792,0.18731236457824707,0.16930434107780457
1775721970839577000,1.5225771484375,0.03430497646331787,0.16234204173088074,0.17105217278003693
1775721970849590300,1.53259033203125,0.052933257073163986,0.15064916014671326,0.13196521997451782
1775721970859603500,1.542603515625,0.065013088285923,0.1269608736038208,0.07625162601470947
1775721970869616400,1.552616455078125,0.08839058130979538,0.08008284866809845,0.035477299243211746
1775721970879629300,1.56262939453125,0.10292664915323257,0.06732843816280365,0.012652412056922913
1775721970889643300,1.572643310546875,0.10373864322900772,0.10148508101701736,-0.0004540689697023481
1775721970899656200,1.58265625,0.10273809731006622,0.13159210979938507,-0.005801429972052574
1775721970909669400,1.59266943359375,0.11822570860385895,0.1489202380180359,0.0172591470181942
1775721970919682300,1.602682373046875,0.14787548780441284,0.1658630073070526,0.0790729820728302
1775721970929695500,1.612695556640625,0.1610163152217865,0.20353181660175323,0.1722671091556549
1775721970939708200,1.622708251953125,0.14221839606761932,0.2346726953983307,0.25469326972961426
1775721970949722400,1.632722412109375,0.10063100606203079,0.20349159836769104,0.2921549081802368
1775721970959735300,1.6427353515625,0.07034686952829361,0.14186498522758484,0.27772030234336853
1775721970969748200,1.652748291015625,0.06150224432349205,0.09786158055067062,0.227457657456398
1775721970979761400,1.662761474609375,0.05104241147637367,0.05867023766040802,0.15332484245300293
1775721970989774300,1.6727744140625,0.023208117112517357,-0.019532421603798866,0.07565641403198242
1775721970999788300,1.682788330078125,-0.022653913125395775,-0.07962532341480255,-0.00159443449229002
1775721971009801500,1.692801513671875,-0.05663824453949928,-0.08859404921531677,-0.0802258625626564
1775721971019814100,1.702814208984375,-0.07250509411096573,-0.030130738392472267,-0.14311720430850983
1775721971029827300,1.712827392578125,-0.07385824620723724,0.01606978103518486,-0.17838704586029053
1775721971039840300,1.72284033203125,-0.06417099386453629,-0.01793239451944828,-0.1665509045124054
1775721971049853400,1.732853515625,-0.043907538056373596,-0.04580024629831314,-0.12301567196846008
1775721971059867400,1.742867431640625,-0.027045466005802155,-0.05712267383933067,-0.07137111574411392
1775721971069880300,1.75288037109375,-0.01684635877609253,-0.10404171049594879,-0.027956534177064896
1775721971079893200,1.762893310546875,0.003171292133629322,-0.17015255987644196,-0.004070907831192017
1775721971089906200,1.77290625,0.049022138118743896,-0.2338937222957611,-0.0034322820138186216
1775721971099919400,1.78291943359375,0.10264142602682114,-0.29092052578926086,-0.022397451102733612
1775721971109932300,1.792932373046875,0.13544650375843048,-0.3270052969455719,-0.06911835074424744
1775721971119946200,1.8029462890625,0.15294188261032104,-0.36104607582092285,-0.13190583884716034
1775721971129959400,1.81295947265625,0.18366436660289764,-0.39514943957328796,-0.17910930514335632
1775721971139972000,1.82297216796875,0.22624778747558594,-0.35922926664352417,-0.20208998024463654
1775721971149985300,1.8329853515625,0.2631802260875702,-0.29070907831192017,-0.20258106291294098
1775721971159998500,1.84299853515625,0.274476557970047,-0.25491058826446533,-0.1906469166278839
1775721971170011400,1.853011474609375,0.2728341817855835,-0.21208536624908447,-0.18532457947731018
1775721971180025300,1.863025390625,0.2654135525226593,-0.17746372520923615,-0.1974928379058838
1775721971190038300,1.873038330078125,0.26209232211112976,-0.17756040394306183,-0.22373563051223755
1775721971200051200,1.88305126953125,0.2608960270881653,-0.18776564300060272,-0.25705310702323914
1775721971210064400,1.893064453125,0.26059430837631226,-0.16087649762630463,-0.2822021245956421
1775721971220077300,1.903077392578125,0.2558610737323761,-0.10949213802814484,-0.29968392848968506
1775721971230091300,1.91309130859375,0.2471807599067688,-0.0487813875079155,-0.3108004927635193
1775721971240104200,1.923104248046875,0.2336210161447525,0.017910024151206017,-0.3191390931606293
1775721971250117400,1.933117431640625,0.20680004358291626,0.057610031217336655,-0.32767000794410706
1775721971260130300,1.94313037109375,0.15959419310092926,0.08809097856283188,-0.3340011537075043
1775721971270143200,1.953143310546875,0.12140525877475739,0.1078076884150505,-0.33901241421699524
1775721971280156400,1.963156494140625,0.12400024384260178,0.08045249432325363,-0.3349092900753021
1775721971290170000,1.973170166015625,0.16658525168895721,0.042939744889736176,-0.2977190315723419
1775721971300183300,1.983183349609375,0.2200639247894287,0.012531237676739693,-0.24149571359157562
1775721971310196500,1.993196533203125,0.24146881699562073,0.009426791220903397,-0.17373770475387573
1775721971320209200,2.003209228515625,0.2287314534187317,0.009791644290089607,-0.1040843203663826
1775721971330222300,2.013222412109375,0.2135346531867981,-0.03737267106771469,-0.018084194511175156
1775721971340235300,2.0232353515625,0.21495118737220764,-0.11260830610990524,0.0904819592833519
1775721971350249200,2.033249267578125,0.22196409106254578,-0.19495190680027008,0.20644478499889374
1775721971360262400,2.043262451171875,0.20798276364803314,-0.23092083632946014,0.3114481568336487
1775721971370275300,2.053275390625,0.18416477739810944,-0.22502726316452026,0.3698688745498657
1775721971380288300,2.063288330078125,0.16325363516807556,-0.2284797728061676,0.36796072125434875
1775721971390301200,2.07330126953125,0.1524907350540161,-0.22926834225654602,0.3160855174064636
1775721971400314400,2.083314453125,0.14859266579151154,-0.18223638832569122,0.24404755234718323
1775721971410328300,2.093328369140625,0.1414996087551117,-0.1342933624982834,0.19107142090797424
1775721971420341200,2.10334130859375,0.11902093142271042,-0.11422670632600784,0.1770291030406952
1775721971430354400,2.1133544921875,0.07308991998434067,-0.09328094124794006,0.20191341638565063
1775721971440367000,2.1233671875,0.017434917390346527,-0.06526502221822739,0.25737428665161133
1775721971450380300,2.13338037109375,-0.019507121294736862,-0.021404091268777847,0.31334248185157776
1775721971460394500,2.14339453125,-0.0401865690946579,0.01684555970132351,0.3476482331752777
1775721971470407200,2.1534072265625,-0.06833112239837646,0.018792329356074333,0.34958064556121826
1775721971480420400,2.16342041015625,-0.13820794224739075,-0.0070832096971571445,0.3169558346271515
1775721971490433300,2.173433349609375,-0.22735272347927094,-0.040701091289520264,0.27281689643859863
1775721971500446200,2.1834462890625,-0.307280570268631,-0.03982358053326607,0.2291245311498642
1775721971510459100,2.193459228515625,-0.3612423539161682,-0.018451444804668427,0.17963100969791412
1775721971520473300,2.203473388671875,-0.38249650597572327,0.010184993036091328,0.1163306012749672
1775721971530486300,2.213486328125,-0.37832972407341003,0.04332670196890831,0.031029820442199707
1775721971540499200,2.223499267578125,-0.359916090965271,0.09277281165122986,-0.06016480177640915
1775721971550512400,2.233512451171875,-0.33599746227264404,0.14840571582317352,-0.13420094549655914
1775721971560525300,2.243525390625,-0.3021731674671173,0.17884404957294464,-0.18341164290905
1775721971570538200,2.253538330078125,-0.25253504514694214,0.18507425487041473,-0.20273233950138092
1775721971580552400,2.263552490234375,-0.20260636508464813,0.18188990652561188,-0.1995203047990799
1775721971590565000,2.273565185546875,-0.17784082889556885,0.17525756359100342,-0.17932873964309692
1775721971600578300,2.283578369140625,-0.19262324273586273,0.18114368617534637,-0.1438772827386856
1775721971610591500,2.293591552734375,-0.22267381846904755,0.18728254735469818,-0.096160888671875
1775721971620604200,2.303604248046875,-0.23822295665740967,0.1854790449142456,-0.047622378915548325
1775721971630618400,2.313618408203125,-0.2266741544008255,0.18098363280296326,-0.019508719444274902
1775721971640631300,2.32363134765625,-0.1997820883989334,0.17740514874458313,-0.02231702394783497
1775721971650644200,2.333644287109375,-0.15937606990337372,0.1393139511346817,-0.035352665930986404
1775721971660657400,2.343657470703125,-0.1069277822971344,0.06858678162097931,-0.022973226383328438
1775721971670670300,2.35367041015625,-0.0660455971956253,0.03549061715602875,0.02028343454003334
1775721971680683300,2.363683349609375,-0.037999313324689865,0.008330101147294044,0.0841795951128006
1775721971690697200,2.373697265625,-0.01679602451622486,-0.0005904228310100734,0.13442838191986084
1775721971700710400,2.38371044921875,0.004524976946413517,0.01375123206526041,0.14618490636348724
1775721971710723300,2.393723388671875,0.025246500968933105,0.028204472735524178,0.13339801132678986
1775721971720736300,2.403736328125,0.03825071454048157,0.03893940895795822,0.11335771530866623
1775721971730749400,2.41374951171875,0.04565057530999184,0.05579641833901405,0.10794378072023392
1775721971740762000,2.42376220703125,0.06241490691900253,0.06748396903276443,0.11799854040145874
1775721971750776300,2.4337763671875,0.08749762177467346,0.07000385224819183,0.1279614269733429
1775721971760789500,2.44378955078125,0.10446622222661972,0.06314142048358917,0.12113308161497116
1775721971770802200,2.45380224609375,0.10504253208637238,0.05443341284990311,0.09492864459753036
1775721971780815400,2.4638154296875,0.08695966750383377,0.0403604730963707,0.0519912950694561
1775721971790828800,2.473828857421875,0.06518379598855972,0.020478643476963043,0.0015614113071933389
1775721971800841500,2.483841552734375,0.05169834941625595,-0.000758734589908272,-0.042571693658828735
1775721971810855700,2.493855712890625,0.029861493036150932,-0.011243066750466824,-0.0731533095240593
1775721971820868600,2.50386865234375,-0.004288488067686558,-0.016223710030317307,-0.08065596222877502
1775721971830881500,2.513881591796875,-0.03906244784593582,-0.024173513054847717,-0.06644560396671295
1775721971840894700,2.523894775390625,-0.05522144213318825,-0.04176182672381401,-0.028235899284482002
1775721971850907600,2.53390771484375,-0.04605484381318092,-0.06228867545723915,0.029345372691750526
1775721971860920600,2.543920654296875,-0.02503025159239769,-0.0625121146440506,0.07986979931592941
1775721971870934800,2.553934814453125,-0.0088776471093297,-0.05838900804519653,0.09753028303384781
1775721971880947700,2.56394775390625,-0.0047028763219714165,-0.04619412496685982,0.07762075960636139
1775721971890960600,2.573960693359375,0.001041562296450138,-0.027368508279323578,0.03425384312868118
1775721971900973600,2.5839736328125,0.024827318266034126,-0.009177785366773605,0.0035547874867916107
1775721971910986800,2.59398681640625,0.057488858699798584,0.010437194257974625,0.0028274781070649624
1775721971921000700,2.604000732421875,0.0839790552854538,0.0315704420208931,0.025347167626023293
1775721971931013600,2.614013671875,0.09515368193387985,0.049244243651628494,0.052620332688093185
1775721971941026600,2.624026611328125,0.09693720191717148,0.05732933431863785,0.06792791932821274
1775721971951039700,2.634039794921875,0.09536407142877579,0.043301135301589966,0.06650526076555252
1775721971961052700,2.644052734375,0.08823372423648834,0.03768186643719673,0.0539521798491478
1775721971971065900,2.65406591796875,0.08022719621658325,0.03593030571937561,0.029875606298446655
1775721971981079600,2.66407958984375,0.060935523360967636,0.03199015557765961,0.0028826056513935328
1775721971991092700,2.6740927734375,0.029815420508384705,0.04571342468261719,-0.02532932534813881
1775721972001105700,2.684105712890625,0.005109807010740042,0.05618603900074959,-0.04348995164036751
1775721972011118600,2.69411865234375,0.0026732811238616705,0.05580361187458038,-0.04272669181227684
1775721972021131800,2.7041318359375,0.018381403759121895,0.08329648524522781,-0.011345598846673965
1775721972031144700,2.714144775390625,0.025775937363505363,0.10833393037319183,0.03898761421442032
1775721972041158700,2.72415869140625,0.019329756498336792,0.1185748502612114,0.08378571271896362
1775721972051171800,2.734171875,0.01332672405987978,0.11703953891992569,0.10663589835166931
1775721972061184800,2.744184814453125,0.008686166256666183,0.112122543156147,0.10515891015529633
1775721972071197700,2.75419775390625,0.008191617205739021,0.10400097072124481,0.08299608528614044
1775721972081210600,2.764210693359375,0.010099506005644798,0.09725145250558853,0.05716182291507721
1775721972091223800,2.774223876953125,0.010462494567036629,0.07299644500017166,0.0396595299243927
1775721972101237800,2.78423779296875,0.01944720186293125,0.05024212971329689,0.027587419375777245
1775721972111250700,2.794250732421875,0.03493987396359444,0.04664633050560951,0.015395734459161758
1775721972121263600,2.804263671875,0.044803690165281296,0.035529233515262604,-0.0027571707032620907
1775721972131276500,2.814276611328125,0.050510577857494354,0.009706422686576843,-0.017897507175803185
1775721972141289700,2.824289794921875,0.05103069171309471,0.011124290525913239,-0.026208966970443726
1775721972151303700,2.8343037109375,0.046293195337057114,0.023441143333911896,-0.018618691712617874
1775721972161316600,2.844316650390625,0.02515169233083725,0.04803517088294029,0.016563264653086662
1775721972171329800,2.854329833984375,-0.009636381641030312,0.08260433375835419,0.06652869284152985
1775721972181342700,2.8643427734375,-0.05672772601246834,0.11504589766263962,0.11082105338573456
1775721972191355600,2.874355712890625,-0.10790462791919708,0.14220614731311798,0.14068786799907684
1775721972201368600,2.88436865234375,-0.14251454174518585,0.16605527698993683,0.1422487497329712
1775721972211382500,2.894382568359375,-0.16646727919578552,0.1831194907426834,0.12276959419250488
1775721972221395700,2.904395751953125,-0.16800259053707123,0.16632665693759918,0.11518730968236923
1775721972231408600,2.91440869140625,-0.1655234545469284,0.195627823472023,0.14059306681156158
1775721972241421800,2.924421875,-0.17294594645500183,0.21150319278240204,0.20305804908275604
1775721972251434500,2.9344345703125,-0.18930521607398987,0.22151294350624084,0.28486475348472595
1775721972261447700,2.94444775390625,-0.20569324493408203,0.2520277202129364,0.3551602363586426
1775721972271461600,2.954461669921875,-0.21484385430812836,0.2888064980506897,0.3905413746833801
1775721972281474600,2.964474609375,-0.22311457991600037,0.30525925755500793,0.3872894048690796
1775721972291487700,2.97448779296875,-0.2235284298658371,0.2731468379497528,0.37361353635787964
1775721972301500700,2.984500732421875,-0.22351378202438354,0.25958284735679626,0.38235774636268616
1775721972311513600,2.994513671875,-0.23357520997524261,0.2586853504180908,0.4324057400226593
1775721972321526800,3.00452685546875,-0.24862419068813324,0.2762361168861389,0.49162086844444275
1775721972331540500,3.01454052734375,-0.26129603385925293,0.26621997356414795,0.5054588913917542
1775721972341553700,3.0245537109375,-0.24079476296901703,0.2191760241985321,0.4612400531768799
1775721972351566800,3.03456689453125,-0.17659181356430054,0.16703905165195465,0.3969212472438812
1775721972361579800,3.044579833984375,-0.13248826563358307,0.11091000586748123,0.3077476918697357
1775721972371592700,3.0545927734375,-0.11280697584152222,0.0929563045501709,0.2257702797651291
1775721972381605600,3.064605712890625,-0.1019228994846344,0.06531429290771484,0.17975671589374542
1775721972391619600,3.07461962890625,-0.08874664455652237,0.014816762879490852,0.16496631503105164
1775721972401632800,3.0846328125,-0.06733536720275879,-0.008804410696029663,0.14832980930805206
1775721972411645700,3.094645751953125,-0.0549524649977684,-0.010850250720977783,0.10321240872144699
1775721972421659000,3.104658935546875,-0.04663141816854477,0.027169302105903625,0.024649154394865036
1775721972431671600,3.114671630859375,-0.042745064944028854,0.08274867385625839,-0.05534794554114342
1775721972441684700,3.124684814453125,-0.04832226037979126,0.09895268082618713,-0.12124333530664444
1775721972451698700,3.13469873046875,-0.049441851675510406,0.1031801775097847,-0.1736958920955658
1775721972461711600,3.144711669921875,-0.026671824976801872,0.11544137448072433,-0.20375552773475647
1775721972471724800,3.154724853515625,0.020611535757780075,0.08106689155101776,-0.20598672330379486
1775721972481737700,3.16473779296875,0.07141106575727463,0.06058930978178978,-0.1408229023218155
1775721972491750700,3.174750732421875,0.10432080924510956,0.09954869747161865,0.04610251262784004
1775721972501764900,3.184764892578125,0.09596594423055649,0.19114652276039124,0.26143187284469604
1775721972511777500,3.194777587890625,0.0362168587744236,0.27220460772514343,0.35241663455963135
1775721972521790700,3.204790771484375,-0.042147453874349594,0.3045543134212494,0.3024815618991852
1775721972531803600,3.2148037109375,-0.09088143706321716,0.3222198486328125,0.19317291676998138
1775721972541816800,3.22481689453125,-0.1147494837641716,0.2983379662036896,0.10788439214229584
1775721972551829500,3.23482958984375,-0.09962166845798492,0.27127811312675476,0.06976602971553802
1775721972561843700,3.24484375,-0.06675985455513,0.24295832216739655,0.04278767853975296
1775721972571856600,3.254856689453125,-0.046059105545282364,0.21203050017356873,-0.0010418286547064781
1775721972581869600,3.26486962890625,-0.028790369629859924,0.17246045172214508,-0.042216427624225616
1775721972591882800,3.2748828125,-0.012116317637264729,0.1402987837791443,-0.04506867378950119
1775721972601895700,3.284895751953125,-0.00788668543100357,0.11174970120191574,0.001683916780166328
1775721972611908600,3.29490869140625,-0.019709521904587746,0.08587922155857086,0.06081328168511391
1775721972621922800,3.3049228515625,-0.026039589196443558,0.054972440004348755,0.09424766898155212
1775721972631935500,3.314935546875,-0.005409945268183947,-0.029219403862953186,0.09389400482177734
1775721972641948700,3.32494873046875,0.046005841344594955,-0.12607884407043457,0.06973540782928467
1775721972651961600,3.334961669921875,0.09524955600500107,-0.2103220820426941,0.029034314677119255
1775721972661974800,3.344974853515625,0.1291409432888031,-0.3015366792678833,-0.01901070959866047
1775721972671987700,3.35498779296875,0.14783473312854767,-0.39347004890441895,-0.05313831940293312
1775721972682001700,3.365001708984375,0.18195222318172455,-0.4758400321006775,-0.07092849910259247
1775721972692014600,3.3750146484375,0.2260536402463913,-0.5274180173873901,-0.08901029825210571
1775721972702027500,3.385027587890625,0.24409468472003937,-0.5766705274581909,-0.10380709171295166
1775721972712040700,3.395040771484375,0.22240057587623596,-0.5805525779724121,-0.1104908213019371
1775721972722054000,3.405053955078125,0.16753147542476654,-0.5988562703132629,-0.10908547788858414
1775721972732066600,3.415066650390625,0.10096549242734909,-0.5893857479095459,-0.10139612853527069
1775721972742080800,3.425080810546875,0.034561172127723694,-0.5808407664299011,-0.11377716809511185
1775721972752093700,3.43509375,-0.0038461373187601566,-0.5740126967430115,-0.16676181554794312
1775721972762106600,3.445106689453125,-0.029979737475514412,-0.563673734664917,-0.23546871542930603
1775721972772119800,3.455119873046875,-0.0653289407491684,-0.6002898216247559,-0.2882128953933716
1775721972782132700,3.4651328125,-0.09318959712982178,-0.6396704912185669,-0.305292010307312
1775721972792146000,3.47514599609375,-0.11904622614383698,-0.5707460641860962,-0.29147472977638245
1775721972802160000,3.48516015625,-0.15731452405452728,-0.49828463792800903,-0.29712915420532227
1775721972812172800,3.4951728515625,-0.2016146034002304,-0.49702176451683044,-0.3443765640258789
1775721972822186000,3.50518603515625,-0.2249196618795395,-0.4750722348690033,-0.41426509618759155
1775721972832199000,3.515198974609375,-0.21891556680202484,-0.37543246150016785,-0.47142186760902405
1775721972842211800,3.5252119140625,-0.2031312733888626,-0.23251765966415405,-0.49941274523735046
1775721972852224800,3.535224853515625,-0.18682101368904114,-0.12285108864307404,-0.4927998483181
1775721972862239000,3.545239013671875,-0.15605272352695465,-0.050878893584012985,-0.4824793040752411
1775721972872252000,3.555251953125,-0.10648010671138763,0.008905344642698765,-0.4807812571525574
1775721972882264800,3.565264892578125,-0.05970833823084831,0.06432146579027176,-0.47559821605682373
1775721972892278000,3.575278076171875,-0.016020512208342552,0.08176703751087189,-0.4328094720840454
1775721972902291000,3.585291015625,0.032578449696302414,0.0644114762544632,-0.3474077582359314
1775721972912305000,3.595304931640625,0.08372445404529572,0.08645126968622208,-0.25066179037094116
1775721972922318000,3.605318115234375,0.11653327196836472,0.10074072331190109,-0.18150827288627625
1775721972932330800,3.615330810546875,0.11733594536781311,0.09157732129096985,-0.16778847575187683
1775721972942344000,3.625343994140625,0.11043968796730042,0.0779390037059784,-0.1974094808101654
1775721972952356900,3.63535693359375,0.11013049632310867,0.10958801209926605,-0.23890791833400726
1775721972962369800,3.645369873046875,0.10919492691755295,0.17188920080661774,-0.26519811153411865
1775721972972384000,3.655384033203125,0.09561946988105774,0.19870510697364807,-0.2781466543674469
1775721972982397000,3.66539697265625,0.07705669850111008,0.2102339267730713,-0.28885072469711304
1775721972992409900,3.675409912109375,0.07445426285266876,0.22174251079559326,-0.3038187325000763
1775721973002422800,3.6854228515625,0.08352099359035492,0.20377948880195618,-0.3169494569301605
1775721973012436000,3.69543603515625,0.10190372914075851,0.1729709804058075,-0.3181878328323364
1775721973022449000,3.705448974609375,0.11963638663291931,0.16953976452350616,-0.28154540061950684
1775721973032462800,3.715462890625,0.1396055668592453,0.14872317016124725,-0.21442094445228577
1775721973042476000,3.72547607421875,0.16221287846565247,0.13776691257953644,-0.1282530426979065
1775721973052489000,3.735489013671875,0.17730633914470673,0.1260490119457245,-0.0587456040084362
1775721973062502000,3.745501953125,0.18866951763629913,0.1229376420378685,-0.0403175950050354
1775721973072515000,3.75551513671875,0.18835419416427612,0.11068417131900787,-0.058282215148210526
1775721973082528000,3.765528076171875,0.17575743794441223,0.07813874632120132,-0.07757788151502609
1775721973092542000,3.7755419921875,0.1699264496564865,0.04490888491272926,-0.08160511404275894
1775721973102555100,3.78555517578125,0.18188297748565674,0.02184351347386837,-0.07843462377786636
1775721973112567800,3.79556787109375,0.19965079426765442,-0.01392620149999857,-0.07241854071617126
1775721973122581000,3.8055810546875,0.21212424337863922,-0.046542201191186905,-0.05433114990592003
1775721973132594000,3.815593994140625,0.20201434195041656,-0.04707323759794235,-0.02907213196158409
1775721973142606800,3.82560693359375,0.16080325841903687,-0.018859175965189934,-0.007456052117049694
1775721973152621000,3.83562109375,0.10296659171581268,-0.01599707640707493,-0.007382815238088369
1775721973162634000,3.845634033203125,0.060747768729925156,-0.013934191316366196,-0.029451897367835045
1775721973172647000,3.85564697265625,0.04266304150223732,-0.0017297230660915375,-0.05108582228422165
1775721973182659800,3.865659912109375,0.03876816853880882,-0.004882373381406069,-0.06513132899999619
1775721973192673000,3.875673095703125,0.03554920479655266,-0.014065485447645187,-0.06899984180927277
1775721973202686000,3.88568603515625,0.02725851908326149,-0.013020194135606289,-0.06597528606653214
1775721973212700000,3.895699951171875,0.016945960000157356,-0.010545052587985992,-0.05390850454568863
1775721973222713000,3.905713134765625,-0.0007922904333099723,0.004807538352906704,-0.03130865469574928
1775721973232725800,3.915725830078125,-0.01805916242301464,0.010773818008601665,-0.007254184223711491
1775721973242739000,3.925739013671875,-0.03410417586565018,-0.0009214537567459047,-0.0033156354911625385
1775721973252752000,3.935751953125,-0.03494333475828171,-0.013945376500487328,-0.022836074233055115
1775721973262765000,3.94576513671875,-0.03477875143289566,-0.03175419941544533,-0.047757137566804886
1775721973272779000,3.955779052734375,-0.03984648361802101,-0.0535721480846405,-0.06932953745126724
1775721973282792000,3.9657919921875,-0.047618649899959564,-0.0665832906961441,-0.08842786401510239
1775721973292804900,3.975804931640625,-0.05330396816134453,-0.09582852572202682,-0.09985815733671188
1775721973302817800,3.98581787109375,-0.056404419243335724,-0.14787068963050842,-0.1011471226811409
1775721973312831000,3.9958310546875,-0.05770084634423256,-0.17210544645786285,-0.09282287955284119
1775721973322844000,4.005843994140625,-0.05862043797969818,-0.18842104077339172,-0.08301685750484467
1775721973332857900,4.01585791015625,-0.06560271233320236,-0.21013273298740387,-0.0806674137711525
1775721973342871000,4.02587109375,-0.07479088753461838,-0.2112259566783905,-0.08763877302408218
1775721973352883700,4.0358837890625,-0.08521129935979843,-0.19249407947063446,-0.09977586567401886
1775721973362897000,4.04589697265625,-0.08778311312198639,-0.16823294758796692,-0.10325128585100174
1775721973372910000,4.05591015625,-0.08713996410369873,-0.14285223186016083,-0.08781959861516953
1775721973382923000,4.065923095703125,-0.08780068904161453,-0.10187070816755295,-0.05577511340379715
1775721973392937000,4.07593701171875,-0.0824836939573288,-0.07924368977546692,-0.017841314896941185
1775721973402950000,4.085949951171875,-0.06944432109594345,-0.08051268756389618,0.005089300684630871
1775721973412962800,4.095962890625,-0.05910353362560272,-0.07235568761825562,0.012580506503582
1775721973422976000,4.10597607421875,-0.05823827162384987,-0.055632900446653366,0.00046871634549461305
1775721973432989000,4.115989013671875,-0.052804358303546906,-0.05089380592107773,-0.020669059827923775
1775721973443003000,4.1260029296875,-0.04481381177902222,-0.03470897674560547,-0.032529182732105255
1775721973453016000,4.13601611328125,-0.03906803950667381,0.0020847225096076727,-0.033487651497125626
1775721973463029000,4.146029052734375,-0.04325692728161812,0.038187865167856216,-0.02297802083194256
1775721973473042000,4.1560419921875,-0.048533979803323746,0.05462276563048363,-0.012998622842133045
1775721973483054800,4.166054931640625,-0.04989911615848541,0.06255073100328445,-0.00691942498087883
1775721973493068000,4.176068115234375,-0.046787746250629425,0.0775722861289978,0.0005302353529259562
1775721973503082000,4.18608203125,-0.0404353067278862,0.09504368901252747,0.00048123320448212326
1775721973513095000,4.196094970703125,-0.03924993425607681,0.09131153672933578,-0.005910353269428015
1775721973523108000,4.206108154296875,-0.034032270312309265,0.08638042956590652,-0.02304033748805523
1775721973533120800,4.216120849609375,-0.020381437614560127,0.08484458178281784,-0.03981718793511391
1775721973543134000,4.226134033203125,-0.003593669505789876,0.08126209676265717,-0.049911100417375565
1775721973553147000,4.23614697265625,0.006566289812326431,0.07994143664836884,-0.05620628222823143
1775721973563160800,4.246160888671875,0.01038419734686613,0.06091181933879852,-0.05103202536702156
1775721973573174000,4.256174072265625,0.0020815266761928797,0.04313521832227707,-0.042220957577228546
1775721973583187000,4.26618701171875,-0.0177592895925045,0.03315741941332817,-0.033726803958415985
1775721973593199900,4.276199951171875,-0.0396648533642292,0.01501330453902483,-0.018556905910372734
1775721973603212800,4.286212890625,-0.042325884103775024,-0.013758689165115356,0.018644258379936218
1775721973613226000,4.29622607421875,-0.036794234067201614,-0.023868048563599586,0.07892783731222153
1775721973623240000,4.306239990234375,-0.03711967170238495,-0.03435105085372925,0.13235430419445038
1775721973633252900,4.3162529296875,-0.041725873947143555,-0.0445842444896698,0.15057165920734406
1775721973643266000,4.32626611328125,-0.050985950976610184,-0.04152107611298561,0.12489985674619675
1775721973653278700,4.33627880859375,-0.07002329081296921,-0.018022943288087845,0.07022835314273834
1775721973663292000,4.3462919921875,-0.08883506059646606,0.015075355768203735,0.027230555191636086
1775721973673305000,4.35630517578125,-0.10247977077960968,0.04996489733457565,0.018801650032401085
1775721973683318800,4.36631884765625,-0.11089855432510376,0.08409889787435532,0.03440830856561661
1775721973693332000,4.37633203125,-0.12302978336811066,0.10754137486219406,0.05983297526836395
1775721973703345000,4.386344970703125,-0.12546418607234955,0.11602167785167694,0.09611481428146362
1775721973713357800,4.39635791015625,-0.12257412075996399,0.14634177088737488,0.1309625506401062
1775721973723371000,4.40637109375,-0.1251925379037857,0.16048234701156616,0.15690572559833527
1775721973733384000,4.416384033203125,-0.12089765816926956,0.15727856755256653,0.15811826288700104
1775721973743398000,4.42639794921875,-0.12477628886699677,0.16661135852336884,0.13955070078372955
1775721973753410800,4.436410888671875,-0.13477538526058197,0.16056731343269348,0.1243286058306694
1775721973763424000,4.446424072265625,-0.14650288224220276,0.1563057154417038,0.13268853724002838
1775721973773437000,4.45643701171875,-0.1475076973438263,0.13819462060928345,0.15799230337142944
1775721973783449900,4.466449951171875,-0.1358422487974167,0.11238246411085129,0.17798598110675812
1775721973793462800,4.476462890625,-0.11858097463846207,0.10862421244382858,0.17395581305027008
1775721973803476700,4.486476806640625,-0.10292025655508041,0.12297039479017258,0.14567890763282776
1775721973813490000,4.496489990234375,-0.09702108800411224,0.12258290499448776,0.10752486437559128
1775721973823502800,4.5065029296875,-0.09427616745233536,0.11143358051776886,0.07608677446842194
1775721973833515800,4.516515869140625,-0.0935472622513771,0.08311565965414047,0.06998308002948761
1775721973843528700,4.52652880859375,-0.08892054855823517,0.047992825508117676,0.09259917587041855
1775721973853542000,4.5365419921875,-0.08573461323976517,0.038838740438222885,0.12624315917491913
1775721973863555800,4.546555908203125,-0.08080057054758072,0.036726854741573334,0.15151947736740112
1775721973873568800,4.55656884765625,-0.06555477529764175,0.024591362103819847,0.15059563517570496
1775721973883582000,4.56658203125,-0.03989069163799286,-0.005245628301054239,0.12107422947883606
1775721973893594600,4.5765947265625,-0.014038853347301483,-0.025619609281420708,0.08001068234443665
1775721973903607800,4.58660791015625,0.0032682311721146107,-0.03569141775369644,0.03738811984658241
1775721973913620700,4.596620849609375,0.0015102786710485816,-0.032949160784482956,0.005967078730463982
1775721973923634700,4.606634765625,-0.007936752401292324,-0.028440695255994797,-0.0012199940392747521
1775721973933648000,4.61664794921875,-0.010278736241161823,0.0028551749419420958,0.011292868293821812
1775721973943660800,4.626660888671875,0.0009201221400871873,0.03664642944931984,0.04308648407459259
1775721973953673700,4.636673828125,0.028974926099181175,0.05421397089958191,0.08154146373271942
1775721973963686700,4.646686767578125,0.07000038772821426,0.05963456630706787,0.10861755907535553
1775721973973699800,4.656699951171875,0.10423213243484497,0.057199638336896896,0.13825374841690063
1775721973983713800,4.6667138671875,0.1407531201839447,0.028126442804932594,0.16767475008964539
1775721973993726700,4.676726806640625,0.17427459359169006,0.00800519622862339,0.18351763486862183
1775721974003740000,4.686739990234375,0.19172336161136627,-0.015194132924079895,0.1849362999200821
1775721974013752600,4.696752685546875,0.19675859808921814,-0.046360839158296585,0.17138826847076416
1775721974023765800,4.706765869140625,0.2019301950931549,-0.07807616144418716,0.1502547413110733
1775721974033779000,4.716779052734375,0.2226133644580841,-0.09189449995756149,0.141215980052948
1775721974043792600,4.726792724609375,0.2540155053138733,-0.07813581079244614,0.1501367688179016
1775721974053805800,4.736805908203125,0.26952120661735535,-0.04604365676641464,0.1534968763589859
1775721974063818800,4.74681884765625,0.26415467262268066,-0.021915951743721962,0.13769741356372833
1775721974073831700,4.756831787109375,0.2551601231098175,-0.01113494299352169,0.10027893632650375
1775721974083844900,4.766844970703125,0.25305435061454773,-0.007440872024744749,0.06198320910334587
1775721974093857800,4.77685791015625,0.2710733115673065,-0.012967197224497795,0.02984418161213398
1775721974103871700,4.786871826171875,0.3049694895744324,-0.03110305778682232,0.011591674759984016
1775721974113884700,4.796884765625,0.33018988370895386,-0.04788656532764435,0.006368683185428381
1775721974123897900,4.80689794921875,0.3286769390106201,-0.04152746871113777,0.003919906914234161
1775721974133910800,4.816910888671875,0.29745298624038696,-0.019696472212672234,-0.009032377041876316
1775721974143923700,4.826923828125,0.24151648581027985,-0.0027856663800776005,-0.04484736546874046
1775721974153937000,4.83693701171875,0.18475094437599182,-0.004737763665616512,-0.10159266740083694
1775721974163950600,4.84695068359375,0.14519821107387543,-0.027214044705033302,-0.15577761828899384
1775721974173963800,4.8569638671875,0.12294536083936691,-0.04027658328413963,-0.18819387257099152
1775721974183977000,4.86697705078125,0.10076309740543365,-0.04138312488794327,-0.19126875698566437
1775721974193989600,4.87698974609375,0.07129308581352234,-0.03570526838302612,-0.1661389023065567
1775721974204002800,4.8870029296875,0.039085350930690765,-0.05847103148698807,-0.12295255064964294
1775721974214017000,4.89701708984375,0.006947921123355627,-0.057555437088012695,-0.0796910971403122
1775721974224029700,4.90702978515625,-0.03833460435271263,-0.03314117714762688,-0.03154461085796356
1775721974234043000,4.91704296875,-0.09079728275537491,-0.020675184205174446,0.013119264505803585
1775721974244055800,4.927055908203125,-0.12264096736907959,-0.017770474776625633,0.033013343811035156
1775721974254068700,4.93706884765625,-0.11789175122976303,-0.023983096703886986,0.018197646364569664
1775721974264081700,4.94708154296875,-0.08934266120195389,-0.00794341042637825,0.002855974016711116
1775721974274095900,4.957095947265625,-0.06275445967912674,0.04298501834273338,-0.0060027651488780975
1775721974284108800,4.96710888671875,-0.05666780471801758,0.08787685632705688,-0.015964053571224213
1775721974294121700,4.977121826171875,-0.051776643842458725,0.13725025951862335,-0.03911091759800911
1775721974304135000,4.987135009765625,-0.04787644371390343,0.17646238207817078,-0.06003430858254433
1775721974314147600,4.997147705078125,-0.04683887958526611,0.20558777451515198,-0.06456061452627182
1775721974324160800,5.007160888671875,-0.05143815651535988,0.23237065970897675,-0.0530613549053669
1775721974334175000,5.017175048828125,-0.05181046575307846,0.2381342649459839,-0.03183915466070175
1775721974344187600,5.027187744140625,-0.04722530394792557,0.2275593876838684,-0.02209038846194744
1775721974354200800,5.037200927734375,-0.039617184549570084,0.17937295138835907,-0.03170732781291008
1775721974364213800,5.0472138671875,-0.025860626250505447,0.11785020679235458,-0.04340047016739845
1775721974374226700,5.057226806640625,-0.005691175349056721,0.09689618647098541,-0.0392797626554966
1775721974384239900,5.067239990234375,-0.002755839144811034,0.08142748475074768,-0.005282912403345108
1775721974394253800,5.07725390625,-0.021745774894952774,0.06726878881454468,0.056418534368276596
1775721974404266800,5.087266845703125,-0.05169408768415451,0.05475619062781334,0.12969061732292175
1775721974414279700,5.09727978515625,-0.08466082811355591,0.04171229153871536,0.1941460371017456
1775721974424292900,5.10729296875,-0.1084873303771019,0.03503681346774101,0.22133265435695648
1775721974434305800,5.117305908203125,-0.1311766654253006,0.058094460517168045,0.2011224627494812
1775721974444318700,5.127318603515625,-0.15157833695411682,0.07293998450040817,0.14635321497917175
1775721974454332000,5.137331787109375,-0.17015574872493744,0.1156190037727356,0.09003401547670364
1775721974464345600,5.147345703125,-0.17558647692203522,0.15230458974838257,0.05350210517644882
1775721974474358800,5.15735888671875,-0.1577555388212204,0.17234434187412262,0.029873210936784744
1775721974484372000,5.1673720703125,-0.13094229996204376,0.17385035753250122,0.01889992132782936
1775721974494384600,5.177384521484375,-0.09703333675861359,0.1390785276889801,0.023792680352926254
1775721974504397800,5.187397705078125,-0.0694003775715828,0.10906150937080383,0.03364691138267517
1775721974514411800,5.197411865234375,-0.05090818926692009,0.10859092324972153,0.04261616989970207
1775721974524424700,5.2074248046875,-0.04392857477068901,0.11466346681118011,0.05125333368778229
1775721974534438000,5.21743798828125,-0.03813593462109566,0.1338893622159958,0.060509417206048965
1775721974544450800,5.227450927734375,-0.018320417031645775,0.15591290593147278,0.062119029462337494
1775721974554463700,5.237463623046875,0.019881296902894974,0.1483183652162552,0.044565603137016296
1775721974564476700,5.2474765625,0.054483480751514435,0.11184743791818619,0.01961391419172287
1775721974574491000,5.257490966796875,0.07254157960414886,0.03899027779698372,-0.001329716295003891
1775721974584503800,5.26750390625,0.06628235429525375,-0.04905968904495239,-0.009852631017565727
1775721974594516700,5.277516845703125,0.048163268715143204,-0.09078769385814667,-0.018144914880394936
1775721974604530000,5.287530029296875,0.033302828669548035,-0.1121893897652626,-0.03245114907622337
1775721974614542800,5.29754296875,0.02634585276246071,-0.14618650078773499,-0.04970337450504303
1775721974624555800,5.3075556640625,0.036009401082992554,-0.17545092105865479,-0.06639420241117477
1775721974634570000,5.317570068359375,0.06677237153053284,-0.19768831133842468,-0.06856468319892883
1775721974644582700,5.327582763671875,0.11665844172239304,-0.20558564364910126,-0.04342497140169144
1775721974654595800,5.337595947265625,0.15257622301578522,-0.17348790168762207,0.012048939242959023
1775721974664608800,5.34760888671875,0.15005767345428467,-0.10870224237442017,0.08907874673604965
1775721974674621700,5.35762158203125,0.12207131087779999,-0.05952218174934387,0.17952048778533936
1775721974684634600,5.367634521484375,0.09791058301925659,-0.029688918963074684,0.26714807748794556
1775721974694648800,5.37764892578125,0.09879768639802933,-0.030297452583909035,0.33640918135643005
1775721974704661800,5.387661865234375,0.11618892103433609,-0.042341865599155426,0.38158437609672546
1775721974714674700,5.3976748046875,0.14490419626235962,-0.07638425379991531,0.3804008662700653
1775721974724688000,5.40768798828125,0.1797066479921341,-0.1166997179389,0.3319859206676483
1775721974734700800,5.41770068359375,0.222621351480484,-0.15589718520641327,0.26875290274620056
1775721974744713700,5.427713623046875,0.25680461525917053,-0.1926024705171585,0.21962609887123108
1775721974754728000,5.43772802734375,0.2699100375175476,-0.22590875625610352,0.20634570717811584
1775721974764740600,5.44774072265625,0.2653488516807556,-0.23518908023834229,0.21653737127780914
1775721974774753800,5.45775390625,0.24554239213466644,-0.22860707342624664,0.24614505469799042
1775721974784767000,5.46776708984375,0.21344409883022308,-0.22145941853523254,0.28217950463294983
1775721974794779100,5.477779052734375,0.17930211126804352,-0.2148348093032837,0.30051296949386597
1775721974804792000,5.4877919921875,0.14647892117500305,-0.20564024150371552,0.2797221839427948
1775721974814806000,5.497805908203125,0.12074319273233414,-0.1941511034965515,0.22037523984909058
1775721974824819200,5.507819091796875,0.09814947098493576,-0.19890856742858887,0.13176707923412323
1775721974834832000,5.517831787109375,0.07080972194671631,-0.21412400901317596,0.038832083344459534
1775721974844845000,5.527844970703125,0.03569088503718376,-0.2308337539434433,-0.0398816354572773
1775721974854858200,5.537858154296875,0.013403955847024918,-0.2279285043478012,-0.08393910527229309
1775721974864871000,5.547870849609375,-0.0011978897964581847,-0.18002329766750336,-0.08734981715679169
1775721974874885000,5.557885009765625,-0.01495418231934309,-0.12266067415475845,-0.06377711147069931
1775721974884898000,5.56789794921875,-0.0348498597741127,-0.05718019977211952,-0.020239757373929024
1775721974894911000,5.577910888671875,-0.06049583479762077,0.009749299846589565,0.01942669413983822
1775721974904924200,5.587924072265625,-0.07421138137578964,0.05962524563074112,0.03954740986227989
1775721974914937000,5.59793701171875,-0.08073798567056656,0.08222456276416779,0.03182690590620041
1775721974924950000,5.607949951171875,-0.07568517327308655,0.10031355172395706,0.008471781387925148
1775721974934964000,5.6179638671875,-0.06203167885541916,0.12474752217531204,-0.007653126027435064
1775721974944977200,5.62797705078125,-0.03702219948172569,0.12845970690250397,-0.009769806638360023
1775721974954990000,5.637989990234375,-0.010451043024659157,0.08950591087341309,0.013049222528934479
1775721974965003000,5.6480029296875,0.009308813139796257,0.060564011335372925,0.05428986996412277
1775721974975016200,5.65801611328125,-0.001216798322275281,0.052272260189056396,0.09262820333242416
1775721974985028900,5.66802880859375,-0.03489140421152115,0.05696741119027138,0.09854095429182053
1775721974995043000,5.67804296875,-0.06198347732424736,0.061405837535858154,0.07315544039011002
1775721975005056300,5.68805615234375,-0.07021237909793854,0.04998646676540375,0.03931518271565437
1775721975015069000,5.69806884765625,-0.06474091112613678,0.04237036034464836,0.017498565837740898
1775721975025082000,5.70808203125,-0.05247572436928749,0.03488554432988167,0.014296647161245346
1775721975035095000,5.718094970703125,-0.04019269347190857,0.022421153262257576,0.018618958070874214
1775721975045108000,5.72810791015625,-0.027947211638092995,-0.007561513222754002,0.022398250177502632
1775721975055122200,5.7381220703125,-0.013341371901333332,-0.04531075432896614,0.01721999980509281
1775721975065135000,5.748135009765625,0.0044440170750021935,-0.061822086572647095,-0.004546015989035368
1775721975075148000,5.75814794921875,0.007163636852055788,-0.05843507871031761,-0.03952184319496155
1775721975085161000,5.768160888671875,-0.009257680736482143,-0.04689347371459007,-0.07298126816749573
1775721975095174100,5.778174072265625,-0.03611139953136444,-0.030673490837216377,-0.08965159207582474
1775721975105186800,5.788186767578125,-0.05855412408709526,-0.018264757469296455,-0.090166375041008
1775721975115201000,5.798200927734375,-0.061898522078990936,-0.014435132034122944,-0.07535387575626373
1775721975125214200,5.808214111328125,-0.0485030859708786,-0.005683451890945435,-0.057492587715387344
1775721975135227000,5.818226806640625,-0.031912658363580704,-0.011726164259016514,-0.04078098386526108
1775721975145240000,5.828239990234375,-0.01974440924823284,-0.028354410082101822,-0.028014324605464935
1775721975155253000,5.8382529296875,-0.008528240956366062,-0.019157448783516884,-0.01564527302980423
1775721975165266000,5.848265869140625,-0.0014050838071852922,0.009801231324672699,-0.009556487202644348
1775721975175280000,5.858280029296875,-0.00905847642570734,0.026041453704237938,-0.017976338043808937
1775721975185293000,5.86829296875,-0.023935159668326378,0.04574085772037506,-0.03732633218169212
1775721975195306000,5.878305908203125,-0.029525134712457657,0.08005515486001968,-0.06120716407895088
1775721975205319200,5.888319091796875,-0.019938021898269653,0.10016122460365295,-0.07186353951692581
1775721975215332000,5.89833203125,-0.007541273254901171,0.1002642884850502,-0.07321642339229584
1775721975225345000,5.908344970703125,0.01173228956758976,0.09076318889856339,-0.07614323496818542
1775721975235359000,5.91835888671875,0.033961161971092224,0.08562222868204117,-0.09110087901353836
1775721975245372200,5.9283720703125,0.05222325772047043,0.096021868288517,-0.11334440112113953
1775721975255385000,5.938385009765625,0.057609498500823975,0.11014194786548615,-0.1306336373090744
1775721975265398000,5.94839794921875,0.05103228986263275,0.11627388000488281,-0.1343735158443451
1775721975275411200,5.9584111328125,0.044495295733213425,0.10597597062587738,-0.1171220988035202
1775721975285423900,5.968423828125,0.04695286229252815,0.08352126181125641,-0.07826071977615356
1775721975295438000,5.97843798828125,0.054613709449768066,0.0656660944223404,-0.02732563018798828
1775721975305451300,5.988451171875,0.0579887330532074,0.0467509925365448,0.01534619927406311
1775721975315464000,5.9984638671875,0.048046622425317764,0.03284716233611107,0.030791735276579857
1775721975325477000,6.00847705078125,0.026570890098810196,0.03452175855636597,0.012436429969966412
1775721975335490000,6.018489990234375,-0.005911951418966055,0.05110499635338783,-0.02911527454853058
1775721975345503000,6.0285029296875,-0.03760862722992897,0.0540778823196888,-0.087344229221344
1775721975355517200,6.03851708984375,-0.05480785295367241,0.04542793706059456,-0.15908952057361603
1775721975365530000,6.048530029296875,-0.062250591814517975,0.03471270576119423,-0.21219082176685333
1775721975375543000,6.05854296875,-0.06653322279453278,0.019225092604756355,-0.2256017029285431
1775721975385556000,6.068555908203125,-0.07779280096292496,0.005928462836891413,-0.19170498847961426
1775721975395569200,6.078569091796875,-0.09131339937448502,0.00008602010348113254,-0.13132447004318237
1775721975405581800,6.088581787109375,-0.10019557923078537,0.014726747758686543,-0.06791859865188599
1775721975415596000,6.098595947265625,-0.10309469699859619,0.04224199429154396,-0.012265188619494438
1775721975425609200,6.108609130859375,-0.0959201380610466,0.058466773480176926,0.0300804041326046
1775721975435622000,6.118621826171875,-0.07798108458518982,0.06493213027715683,0.06641870737075806
1775721975445635000,6.128635009765625,-0.05614449456334114,0.08103999495506287,0.10131703317165375
1775721975455648000,6.13864794921875,-0.03726348280906677,0.09976547211408615,0.13489124178886414
1775721975465661000,6.148660888671875,-0.033254627138376236,0.13378123939037323,0.1714058369398117
1775721975475675100,6.158675048828125,-0.03819931671023369,0.188921719789505,0.19354762136936188
1775721975485688000,6.16868798828125,-0.03615374490618706,0.2365827113389969,0.19807766377925873
1775721975495701000,6.178700927734375,-0.02441985532641411,0.28673669695854187,0.18620581924915314
1775721975505714000,6.1887138671875,-0.01696912944316864,0.31851938366889954,0.17870743572711945
1775721975515727000,6.19872705078125,-0.02762417122721672,0.33311405777931213,0.19352072477340698
1775721975525740000,6.208739990234375,-0.03200320526957512,0.3269229829311371,0.23245348036289215
1775721975535754000,6.21875390625,-0.003338272450491786,0.32798293232917786,0.28507620096206665
1775721975545767200,6.22876708984375,0.05673598498106003,0.3164184093475342,0.3501577377319336
1775721975555779800,6.23877978515625,0.12168356031179428,0.2895711064338684,0.41066983342170715
1775721975565793000,6.24879296875,0.1625918447971344,0.25856736302375793,0.4416056275367737
1775721975575806200,6.25880615234375,0.17048650979995728,0.22526614367961884,0.4221576452255249
1775721975585819000,6.26881884765625,0.1491687148809433,0.183524027466774,0.3714052438735962
1775721975595833000,6.2788330078125,0.11359526962041855,0.17344608902931213,0.31350570917129517
1775721975605846300,6.28884619140625,0.070411317050457,0.16151699423789978,0.2628907561302185
1775721975615859000,6.29885888671875,0.04000813513994217,0.12778273224830627,0.20806212723255157
1775721975625872100,6.3088720703125,0.02534237504005432,0.08892188221216202,0.147491455078125
1775721975635885000,6.318885009765625,0.010202303528785706,0.05449919402599335,0.0872930958867073
1775721975645898000,6.32889794921875,-0.01643463410437107,0.024703748524188995,0.0448249951004982
1775721975655912200,6.338912109375,-0.049311358481645584,-0.008415589109063148,0.04012451693415642
1775721975665925000,6.348925048828125,-0.07748786360025406,-0.004926847759634256,0.06127294525504112
1775721975675938000,6.35893798828125,-0.09745997935533524,-0.0046573360450565815,0.09723813831806183
1775721975685951000,6.368950927734375,-0.10957363247871399,-0.04337543621659279,0.1369922012090683
1775721975695964200,6.378964111328125,-0.11386984586715698,-0.07374612241983414,0.17134033143520355
1775721975705977000,6.38897705078125,-0.11958285421133041,-0.04965756833553314,0.18927697837352753
1775721975715991000,6.398990966796875,-0.1279909908771515,-0.01028832420706749,0.17077067494392395
1775721975726004200,6.409004150390625,-0.14244157075881958,0.02726837247610092,0.11744832992553711
1775721975736017000,6.419016845703125,-0.1422535479068756,0.07006163895130157,0.04609505832195282
1775721975746030000,6.429030029296875,-0.1098087877035141,0.10210586339235306,-0.014995994046330452
1775721975756043000,6.43904296875,-0.05023014545440674,0.1560140997171402,-0.051711663603782654
1775721975766056000,6.449055908203125,0.027524834498763084,0.22276702523231506,-0.07379459589719772
1775721975776070100,6.459070068359375,0.09194563329219818,0.2935035228729248,-0.10803458839654922
1775721975786083000,6.4690830078125,0.13791312277317047,0.3738574683666229,-0.1658848375082016
1775721975796096300,6.47909619140625,0.16964522004127502,0.45094239711761475,-0.251460999250412
1775721975806109200,6.489109130859375,0.1791074424982071,0.44068658351898193,-0.35124245285987854
1775721975816122400,6.499122314453125,0.18430432677268982,0.4153178334236145,-0.49171167612075806
1775721975826135000,6.509135009765625,0.1557547152042389,0.28367912769317627,-0.666179895401001
1775721975836149200,6.519149169921875,0.11060161143541336,0.14518381655216217,-0.8128020763397217
1775721975846162400,6.529162353515625,0.10689129680395126,-0.014115818776190281,-0.9109121561050415
1775721975856175000,6.539175048828125,0.10110478103160858,-0.23176079988479614,-0.9252002835273743
1775721975866188300,6.549188232421875,0.09310571104288101,-0.37993693351745605,-0.8386747241020203
1775721975876201200,6.559201171875,0.08766327053308487,-0.46113407611846924,-0.7015698552131653
1775721975886214100,6.569214111328125,0.06754469126462936,-0.5235148668289185,-0.5979206562042236
1775721975896228400,6.579228271484375,0.025525333359837532,-0.575542151927948,-0.5565700531005859
1775721975906241300,6.5892412109375,-0.019884757697582245,-0.5957187414169312,-0.5595421195030212
1775721975916254200,6.599254150390625,-0.056952498853206635,-0.5799890756607056,-0.5750550627708435
1775721975926267100,6.60926708984375,-0.08809790015220642,-0.5337121486663818,-0.5914931297302246
1775721975936280300,6.6192802734375,-0.11410633474588394,-0.4774397909641266,-0.6043713688850403
1775721975946293200,6.629293212890625,-0.12226838618516922,-0.4093070924282074,-0.6129821538925171
1775721975956307200,6.63930712890625,-0.10928095132112503,-0.3380419611930847,-0.6089075207710266
1775721975966320400,6.6493203125,-0.08028551936149597,-0.2807653546333313,-0.5925501585006714
1775721975976333000,6.6593330078125,-0.04929351434111595,-0.24857838451862335,-0.5486676096916199
1775721975986346200,6.66934619140625,-0.02279532700777054,-0.24590164422988892,-0.463879257440567
1775721975996359400,6.679359375,-0.0015076154377311468,-0.24889743328094482,-0.3542933762073517
1775721976006372000,6.6893720703125,0.015254853293299675,-0.23517443239688873,-0.2481679916381836
1775721976016386300,6.69938623046875,0.022915169596672058,-0.2402655929327011,-0.174294576048851
1775721976026399500,6.7093994140625,0.025982864201068878,-0.28118905425071716,-0.12712040543556213
1775721976036412200,6.719412109375,0.028863338753581047,-0.31931060552597046,-0.08670799434185028
1775721976046425300,6.72942529296875,0.02671869657933712,-0.3266122043132782,-0.046956855803728104
1775721976056438300,6.739438232421875,0.017171530053019524,-0.330552875995636,-0.013004481792449951
1775721976066451200,6.749451171875,0.008161789737641811,-0.3478061854839325,0.014763765968382359
1775721976076464000,6.759464111328125,-0.007439007982611656,-0.34454354643821716,0.04675498977303505
1775721976086478300,6.769478271484375,-0.024020381271839142,-0.3065119981765747,0.07441297918558121
1775721976096491300,6.7794912109375,-0.044793035835027695,-0.27031829953193665,0.09765252470970154
1775721976106504200,6.789504150390625,-0.061648715287446976,-0.21166084706783295,0.11798495799303055
1775721976116517400,6.799517333984375,-0.07672620564699173,-0.1418636590242386,0.13551628589630127
1775721976126530000,6.809530029296875,-0.08821374922990799,-0.08322591334581375,0.14437955617904663
1775721976136544300,6.819544189453125,-0.09971274435520172,-0.02796931564807892,0.14461363852024078
1775721976146557400,6.829557373046875,-0.11089935153722763,0.01956038549542427,0.1369490623474121
1775721976156570000,6.839570068359375,-0.11441419273614883,0.04929031804203987,0.12405936419963837
1775721976166583300,6.849583251953125,-0.10729210078716278,0.04151495173573494,0.11923611164093018
1775721976176596200,6.85959619140625,-0.09048835188150406,0.026688868179917336,0.13645876944065094
1775721976186609200,6.869609130859375,-0.08006767183542252,0.015397331677377224,0.1640949249267578
1775721976196622300,6.879622314453125,-0.0751032754778862,0.015861520543694496,0.17651352286338806
1775721976206636300,6.88963623046875,-0.08633542060852051,0.032347287982702255,0.1555001139640808
1775721976216649200,6.899649169921875,-0.10824418067932129,0.04110269621014595,0.1092817485332489
1775721976226662100,6.909662109375,-0.12942403554916382,0.05145946145057678,0.05988064408302307
1775721976236675300,6.91967529296875,-0.14039093255996704,0.06622109562158585,0.023143136873841286
1775721976246688300,6.929688232421875,-0.13995710015296936,0.07699092477560043,-0.0006870955694466829
1775721976256701200,6.939701171875,-0.1274556964635849,0.07185900956392288,-0.0049375006929039955
1775721976266715400,6.94971533203125,-0.10446728765964508,0.06409083306789398,0.012536298483610153
1775721976276728000,6.95972802734375,-0.07879707962274551,0.06760860234498978,0.04276823624968529
1775721976286741200,6.9697412109375,-0.06659447401762009,0.06364156305789948,0.0814298763871193
1775721976296754400,6.97975439453125,-0.0610782690346241,0.05909634381532669,0.1122322678565979
1775721976306767000,6.98976708984375,-0.05374898016452789,0.05086424574255943,0.11466266959905624
1775721976316780300,6.9997802734375,-0.048826396465301514,0.03184714540839195,0.08567255735397339
1775721976326794200,7.009794189453125,-0.045703839510679245,0.025169534608721733,0.03514973074197769
1775721976336807200,7.01980712890625,-0.04153519123792648,0.006702643819153309,-0.0219082273542881
1775721976346820400,7.0298203125,-0.023871244862675667,-0.015908658504486084,-0.05906891077756882
1775721976356833300,7.039833251953125,-0.0014317154418677092,-0.022537000477313995,-0.07083182781934738
1775721976366846200,7.04984619140625,0.025788720697164536,-0.021268270909786224,-0.06510656327009201
1775721976376859100,7.059859130859375,0.05152071639895439,-0.014466824010014534,-0.0487411729991436
1775721976386873300,7.069873291015625,0.07301881909370422,-0.003293797606602311,-0.02870647981762886
1775721976396886300,7.07988623046875,0.08671039342880249,0.0028509139083325863,-0.005342034623026848
1775721976406899200,7.089899169921875,0.09272967278957367,-0.005329518113285303,0.028918467462062836
1775721976416912400,7.099912353515625,0.09521413594484329,0.007185208611190319,0.07142224907875061
1775721976426925000,7.109925048828125,0.09507032483816147,0.023604128509759903,0.10615173727273941
1775721976436938200,7.119938232421875,0.09207373112440109,0.02684173360466957,0.12233150750398636
1775721976446952400,7.129952392578125,0.08674395084381104,0.03500352427363396,0.1206531822681427
1775721976456965000,7.139965087890625,0.0749506726861,0.056824665516614914,0.10739357024431229
1775721976466978300,7.149978271484375,0.05976799130439758,0.08773145079612732,0.09625490009784698
1775721976476991200,7.1599912109375,0.042806051671504974,0.09602054208517075,0.0894039124250412
1775721976487004200,7.170004150390625,0.03364691138267517,0.09468789398670197,0.09076212346553802
1775721976497017000,7.18001708984375,0.03561338782310486,0.09195122867822647,0.09030619263648987
1775721976507031300,7.19003125,0.03693937510251999,0.08239927142858505,0.08486562222242355
1775721976517044200,7.200044189453125,0.035405661910772324,0.04959045723080635,0.07613817602396011
1775721976527057200,7.21005712890625,0.03626426309347153,0.041308026760816574,0.06376699358224869
1775721976537070300,7.2200703125,0.032405611127614975,0.035893287509679794,0.04716218635439873
1775721976547083300,7.230083251953125,0.028841234743595123,0.02845853939652443,0.029325930401682854
1775721976557096200,7.24009619140625,0.023734090849757195,0.015600797720253468,0.01013865415006876
1775721976567110400,7.2501103515625,0.0323808416724205,0.007510113995522261,-0.011350126005709171
1775721976577123000,7.260123046875,0.04225824028253555,-0.026428144425153732,-0.027879035100340843
1775721976587136300,7.27013623046875,0.05464593321084976,-0.07053861767053604,-0.030788006260991096
1775721976597149400,7.2801494140625,0.07341828942298889,-0.0912524163722992,-0.017123060300946236
1775721976607162000,7.290162109375,0.09029367566108704,-0.09642507135868073,0.003424026072025299
1775721976617175300,7.30017529296875,0.09558618068695068,-0.0967172235250473,0.011775965802371502
1775721976627189200,7.310189208984375,0.08597216755151749,-0.0958879142999649,-0.006506102625280619
1775721976637202200,7.3202021484375,0.06816254556179047,-0.09284498542547226,-0.04993746429681778
1775721976647215400,7.33021533203125,0.05247892066836357,-0.08480197191238403,-0.09589031338691711
1775721976657228300,7.340228271484375,0.04054290056228638,-0.07583963871002197,-0.12471050769090652
1775721976667241200,7.3502412109375,0.031629566103219986,-0.06124471500515938,-0.1302056759595871
1775721976677254100,7.360254150390625,0.022044315934181213,-0.04657842218875885,-0.1297478824853897
1775721976687268400,7.370268310546875,0.020559070631861687,-0.032404810190200806,-0.12738218903541565
1775721976697281300,7.38028125,0.020081033930182457,-0.02100967802107334,-0.12420982867479324
1775721976707294200,7.390294189453125,0.022398782894015312,-0.012147476896643639,-0.11556894332170486
1775721976717307400,7.400307373046875,0.02315831556916237,-0.014975220896303654,-0.10027733445167542
1775721976727320300,7.4103203125,0.02371358498930931,-0.00466505903750658,-0.08278356492519379
1775721976737333200,7.420333251953125,0.023451263085007668,0.01654036156833172,-0.0730033665895462
1775721976747346200,7.43034619140625,0.02195802889764309,0.034640002995729446,-0.07243052124977112
1775721976757360000,7.440360107421875,0.007901865057647228,0.04351392015814781,-0.08277823776006699
1775721976767373300,7.450373291015625,0.0018314558546990156,0.04983386769890785,-0.10006481409072876
1775721976777386200,7.46038623046875,0.0032197616528719664,0.04825328290462494,-0.11254758387804031
1775721976787399200,7.470399169921875,0.0038096518255770206,0.0386323481798172,-0.1178336888551712
1775721976797412400,7.480412353515625,-0.0018761969404295087,0.032531045377254486,-0.11248020827770233
1775721976807425500,7.490425537109375,-0.007398527581244707,0.027526965364813805,-0.10212477296590805
1775721976817439500,7.500439453125,-0.013201821595430374,0.028014058247208595,-0.08926889300346375
1775721976827452400,7.510452392578125,-0.015329687856137753,0.028434038162231445,-0.07533709704875946
1775721976837465600,7.520465576171875,-0.016957944259047508,0.034629348665475845,-0.06721285730600357
1775721976847478300,7.530478271484375,-0.019161444157361984,0.03557663783431053,-0.06079384312033653
1775721976857491500,7.540491455078125,-0.02045627310872078,0.04086514189839363,-0.03828054293990135
1775721976867504600,7.550504638671875,-0.024927720427513123,0.055568985641002655,-0.009516007266938686
1775721976877518300,7.560518310546875,-0.01978941820561886,0.06373023986816406,0.012006063014268875
1775721976887531500,7.570531494140625,-0.010974354110658169,0.06576862931251526,0.02027304656803608
1775721976897544700,7.580544677734375,-0.0027774106711149216,0.07096391916275024,0.017316939309239388
1775721976907557400,7.590557373046875,-0.0010812433902174234,0.0678970217704773,-0.0007805725326761603
1775721976917570600,7.600570556640625,-0.006686132401227951,0.07948257774114609,-0.02515169233083725
1775721976927583500,7.61058349609375,-0.017659155651926994,0.09085400402545929,-0.053049635142087936
1775721976937597400,7.620597412109375,-0.028356540948152542,0.10756640881299973,-0.06872713565826416
1775721976947610600,7.630610595703125,-0.03702486306428909,0.12190619856119156,-0.06429456919431686
1775721976957623600,7.64062353515625,-0.040341831743717194,0.13266749680042267,-0.044686246663331985
1775721976967636500,7.650636474609375,-0.04423244297504425,0.12794305384159088,-0.024656876921653748
1775721976977649400,7.6606494140625,-0.05012308806180954,0.11932745575904846,-0.014050837606191635
1775721976987662600,7.67066259765625,-0.057607103139162064,0.11224664747714996,-0.013100888580083847
1775721976997676500,7.680676513671875,-0.06731618940830231,0.1150917038321495,-0.021746307611465454
1775721977007689500,7.690689453125,-0.07973743975162506,0.11741877347230911,-0.036431778222322464
1775721977017702700,7.70070263671875,-0.09040340036153793,0.12668471038341522,-0.05429013445973396
1775721977027715300,7.71071533203125,-0.09718007594347,0.11376624554395676,-0.057800181210041046
1775721977037728500,7.720728515625,-0.09071898460388184,0.08614952862262726,-0.04140656068921089
1775721977047741400,7.730741455078125,-0.07419060915708542,0.05326375365257263,-0.020865067839622498
1775721977057755400,7.74075537109375,-0.056957826018333435,0.01098474022001028,-0.009965548291802406
1775721977067768600,7.7507685546875,-0.046657782047986984,-0.045045770704746246,-0.011494736187160015
1775721977077781500,7.760781494140625,-0.03983156755566597,-0.0972738191485405,-0.008186290971934795
1775721977087794400,7.77079443359375,-0.043711792677640915,-0.10305368155241013,0.009943177923560143
1775721977097807400,7.780807373046875,-0.05227678641676903,-0.084738589823246,0.034867435693740845
1775721977107820500,7.790820556640625,-0.060919009149074554,-0.05440385267138481,0.06326312571763992
1775721977117834500,7.80083447265625,-0.06215019151568413,-0.035228561609983444,0.09419920295476913
1775721977127847400,7.810847412109375,-0.048048753291368484,-0.016533436253666878,0.11443203687667847
1775721977137860600,7.820860595703125,-0.022050706669688225,0.004731638357043266,0.1173308864235878
1775721977147873300,7.830873291015625,0.007934356108307838,0.018152106553316116,0.12187264114618301
1775721977157886500,7.840886474609375,0.029941920191049576,0.04536401852965355,0.1368393450975418
1775721977167899600,7.850899658203125,0.04681544378399849,0.0767403170466423,0.1544383019208908
1775721977177913300,7.860913330078125,0.0595562718808651,0.09268732368946075,0.16957491636276245
1775721977187926500,7.870926513671875,0.06690739095211029,0.10535065829753876,0.17543120682239532
1775721977197939500,7.880939453125,0.06281331926584244,0.11925289034843445,0.16547711193561554
1775721977207952400,7.890952392578125,0.050579819828271866,0.12462954968214035,0.14829492568969727
1775721977217965600,7.900965576171875,0.03591272607445717,0.12182603776454926,0.12012294679880142
1775721977227978500,7.910978515625,0.02285578101873398,0.11786218732595444,0.09112139046192169
1775721977237991700,7.92099169921875,0.011875567957758904,0.11006897687911987,0.06823418289422989
1775721977248005400,7.93100537109375,0.0012085424968972802,0.1084258109331131,0.05531864985823631
1775721977258018600,7.9410185546875,-0.011829495429992676,0.12187770009040833,0.04981682449579239
1775721977268031500,7.951031494140625,-0.03436090424656868,0.12703651189804077,0.04712596535682678
1775721977278044400,7.96104443359375,-0.059855878353118896,0.12935638427734375,0.04378316551446915
1775721977288057600,7.9710576171875,-0.0779629722237587,0.1271321177482605,0.036192357540130615
1775721977298070500,7.981070556640625,-0.08489305526018143,0.11029455065727234,0.0363292470574379
1775721977308084500,7.99108447265625,-0.08823185414075851,0.09210462868213654,0.034870900213718414
1775721977318097700,8.00109765625,-0.09697555005550385,0.08029776811599731,0.02100488357245922
1775721977328110300,8.0111103515625,-0.10249707847833633,0.06924032419919968,-0.009015865623950958
1775721977338123500,8.02112353515625,-0.10940957814455032,0.06155204400420189,-0.04681730642914772
1775721977348136400,8.031136474609376,-0.11251935362815857,0.06905949860811234,-0.07496105879545212
1775721977358149600,8.041149658203125,-0.11637721210718155,0.10024857521057129,-0.07492377609014511
1775721977368163600,8.05116357421875,-0.1193905770778656,0.14118269085884094,-0.03563842177391052
1775721977378176500,8.061176513671874,-0.11533910781145096,0.18061424791812897,0.030304642394185066
1775721977388189400,8.071189453125,-0.10248029977083206,0.21340788900852203,0.09544822573661804
1775721977398202400,8.081202392578126,-0.07145421206951141,0.24085868895053864,0.13531973958015442
1775721977408215600,8.091215576171875,-0.03528102487325668,0.2661067843437195,0.13610057532787323
1775721977418228700,8.101228759765625,-0.003571032779291272,0.2937924861907959,0.10477568209171295
1775721977428242400,8.111242431640624,0.008740228600800037,0.3285214304924011,0.06358989328145981
1775721977438255600,8.121255615234375,0.0036916739773005247,0.35179799795150757,0.03620780631899834
1775721977448268300,8.131268310546876,-0.008612928912043571,0.38194921612739563,0.027714718133211136
1775721977458281500,8.141281494140625,-0.024627847597002983,0.4040108621120453,0.03443014621734619
1775721977468294700,8.151294677734375,-0.04490062966942787,0.38766545057296753,0.04435041919350624
1775721977478307600,8.1613076171875,-0.0605941042304039,0.36785444617271423,0.04784049466252327
1775721977488320500,8.171320556640625,-0.07450646162033081,0.3477129638195038,0.04964105784893036
1775721977498334500,8.18133447265625,-0.08619746565818787,0.31752923130989075,0.05674557015299797
1775721977508347400,8.191347412109375,-0.09478136897087097,0.26242363452911377,0.07900666445493698
1775721977518360600,8.201360595703125,-0.09594570100307465,0.209339901804924,0.11892399191856384
1775721977528373500,8.21137353515625,-0.09551720321178436,0.16786037385463715,0.170223668217659
1775721977538386700,8.22138671875,-0.11005859076976776,0.14270947873592377,0.20988905429840088
1775721977548399400,8.2313994140625,-0.13673068583011627,0.13867558538913727,0.22370366752147675
1775721977558413600,8.24141357421875,-0.16300329566001892,0.11875168234109879,0.20999370515346527
1775721977568426500,8.251426513671875,-0.16929155588150024,0.07988125085830688,0.18662793934345245
1775721977578439400,8.261439453125,-0.1474754810333252,0.03731514886021614,0.1681988686323166
1775721977588452600,8.27145263671875,-0.11468210816383362,-0.009387376718223095,0.1568029224872589
1775721977598465500,8.281465576171875,-0.0841207355260849,-0.05515699461102486,0.14837323129177094
1775721977608478500,8.291478515625,-0.05694158002734184,-0.09226015210151672,0.13975843787193298
1775721977618492700,8.30149267578125,-0.029700104147195816,-0.11259152740240097,0.12352992594242096
1775721977628505300,8.31150537109375,-0.0025899240281432867,-0.135068878531456,0.10213728994131088
1775721977638518500,8.3215185546875,0.02317402884364128,-0.1558295488357544,0.08247650414705276
1775721977648531500,8.331531494140625,0.051117245107889175,-0.16585767269134521,0.06583786755800247
1775721977658544600,8.341544677734374,0.07515547424554825,-0.1635708212852478,0.04815900698304176
1775721977668557300,8.351557373046875,0.09074082225561142,-0.12561091780662537,0.033910028636455536
1775721977678571500,8.361571533203126,0.09559550136327744,-0.09441331773996353,0.02605210617184639
1775721977688584400,8.37158447265625,0.09019327908754349,-0.10924659669399261,0.030766168609261513
1775721977698597400,8.381597412109375,0.08630532771348953,-0.10498633980751038,0.03508341684937477
1775721977708610600,8.391610595703124,0.09068542718887329,-0.09979689866304398,0.03961265832185745
1775721977718623500,8.40162353515625,0.09908317029476166,-0.0807419866323471,0.036612339317798615
1775721977728636400,8.411636474609375,0.10565372556447983,-0.05016995966434479,0.021518342196941376
1775721977738650600,8.421650634765625,0.11385998874902725,-0.029260950163006783,0.0009166600648313761
1775721977748663600,8.43166357421875,0.12579761445522308,-0.004193147178739309,-0.018328674137592316
1775721977758676500,8.441676513671876,0.1304277777671814,0.03483228385448456,-0.0366368405520916
1775721977768689400,8.451689453125,0.1176171749830246,0.077556312084198,-0.04707536846399307
1775721977778702600,8.46170263671875,0.09092404693365097,0.10344330221414566,-0.05360810086131096
1775721977788715500,8.471715576171874,0.06191050633788109,0.11768721789121628,-0.056724533438682556
1775721977798729500,8.4817294921875,0.05254683271050453,0.12738005816936493,-0.06475289911031723
1775721977808742400,8.491742431640626,0.06451001763343811,0.11092918366193771,-0.07325717061758041
1775721977818755300,8.50175537109375,0.08273615688085556,0.07537997514009476,-0.08288849145174026
1775721977828768500,8.5117685546875,0.10164327174425125,0.07101798057556152,-0.09853482991456985
1775721977838781400,8.521781494140624,0.11416838318109512,0.09294432401657104,-0.12789644300937653
1775721977848794400,8.53179443359375,0.11893757432699203,0.10195060074329376,-0.15962587296962738
1775721977858807300,8.541807373046876,0.11723874509334564,0.09232939779758453,-0.19177742302417755
1775721977868821500,8.551821533203125,0.11058057099580765,0.09595342725515366,-0.20558299124240875
1775721977878834400,8.56183447265625,0.10684175789356232,0.11778388917446136,-0.20290197432041168
1775721977888847400,8.571847412109374,0.11989684402942657,0.1365698277950287,-0.18133650720119476
1775721977898860500,8.581860595703125,0.14656680822372437,0.12592864036560059,-0.1438213437795639
1775721977908873200,8.591873291015625,0.1727755069732666,0.10639861226081848,-0.08761240541934967
1775721977918886400,8.601886474609374,0.18211761116981506,0.08239474147558212,-0.029020465910434723
1775721977928900600,8.611900634765625,0.16032415628433228,0.05417482182383537,0.013244965113699436
1775721977938913300,8.621913330078126,0.1190669983625412,0.028503013774752617,0.028304874897003174
1775721977948926500,8.631926513671875,0.06929118931293488,0.012074772268533707,0.013712083920836449
1775721977958939400,8.641939453125,0.01589374616742134,0.01002280693501234,-0.022959111258387566
1775721977968952300,8.651952392578124,-0.03849625959992409,0.028311531990766525,-0.05702733248472214
1775721977978965200,8.66196533203125,-0.08344428986310959,0.052867740392684937,-0.07652886211872101
1775721977988979500,8.6719794921875,-0.10804737359285355,0.05739591643214226,-0.07307900488376617
1775721977998992400,8.681992431640625,-0.10899945348501205,0.04127473384141922,-0.050698332488536835
1775721978009005300,8.69200537109375,-0.09666582196950912,0.03274649381637573,-0.020059196278452873
1775721978019018500,8.7020185546875,-0.09070140868425369,0.04511714354157448,0.0034149715211242437
1775721978029031200,8.71203125,-0.1009865328669548,0.047501206398010254,0.013851899653673172
1775721978039044400,8.72204443359375,-0.1238178163766861,0.05043227970600128,0.02028130367398262
1775721978049058600,8.73205859375,-0.1489146500825882,0.0771951824426651,0.025708293542265892
1775721978059071200,8.7420712890625,-0.17008385062217712,0.10340282320976257,0.035955868661403656
1775721978069084400,8.75208447265625,-0.1747923195362091,0.09568231552839279,0.05843907594680786
1775721978079097300,8.762097412109375,-0.15390513837337494,0.06927920877933502,0.0806538313627243
1775721978089110300,8.7721103515625,-0.11426292359828949,0.04584765061736107,0.09491479396820068
1775721978099123500,8.78212353515625,-0.07093968987464905,0.028690500184893608,0.08321180194616318
1775721978109137400,8.792137451171875,-0.027597006410360336,0.015965117141604424,0.04915023595094681
1775721978119150300,8.802150390625,0.01906610280275345,-0.008100003935396671,0.006702377460896969
1775721978129163300,8.812163330078125,0.06042392924427986,-0.029258020222187042,-0.026916835457086563
1775721978139176400,8.822176513671875,0.09198292344808578,-0.05155906453728676,-0.04107686132192612
1775721978149189400,8.832189453125,0.11216994374990463,-0.07566093653440475,-0.040220923721790314
1775721978159202300,8.842202392578125,0.12242364883422852,-0.09486499428749084,-0.02845747396349907
1775721978169215500,8.852215576171876,0.11783155798912048,-0.10056522488594055,-0.006155896931886673
1775721978179229400,8.8622294921875,0.10117988288402557,-0.09946666657924652,0.01557975821197033
1775721978189242400,8.872242431640625,0.09026864171028137,-0.10258975625038147,0.018255969509482384
1775721978199255600,8.882255615234374,0.098897285759449,-0.13089357316493988,0.013718209229409695
1775721978209268200,8.892268310546875,0.12498774379491806,-0.15161561965942383,0.01624874398112297
1775721978219281400,8.902281494140626,0.1613369584083557,-0.16627658903598785,0.017853032797574997
1775721978229294300,8.91229443359375,0.18729957938194275,-0.17551350593566895,0.02003895491361618
1775721978239308300,8.922308349609375,0.20128890872001648,-0.18531739711761475,0.023733558133244514
1775721978249321500,8.932321533203124,0.20665757358074188,-0.19569386541843414,0.03116351179778576
1775721978259334400,8.94233447265625,0.21016442775726318,-0.18809320032596588,0.05489121004939079
1775721978269347300,8.952347412109376,0.20687063038349152,-0.1598687618970871,0.09873616695404053
1775721978279360300,8.9623603515625,0.18540793657302856,-0.12361568212509155,0.1406143754720688
1775721978289373400,8.97237353515625,0.15143533051013947,-0.08722038567066193,0.16080565750598907
1775721978299387400,8.982387451171874,0.12294083833694458,-0.06022978574037552,0.14393533766269684
1775721978309400300,8.992400390625,0.1115313246846199,-0.044004473835229874,0.10767586529254913
1775721978319413500,9.00241357421875,0.10786494612693787,-0.03695988282561302,0.07702154666185379
1775721978329426200,9.01242626953125,0.0943230390548706,-0.029829267412424088,0.06446447968482971
1775721978339439400,9.022439453125,0.06952448189258575,-0.02479935623705387,0.05968650057911873
1775721978349452500,9.03245263671875,0.044685713946819305,-0.020955082029104233,0.04968393221497536
1775721978359466200,9.04246630859375,0.030712371692061424,-0.019392339512705803,0.025361549109220505
1775721978369479400,9.0524794921875,0.029828734695911407,-0.025955967605113983,-0.000437291048001498
1775721978379492400,9.062492431640624,0.04200790449976921,-0.016475113108754158,-0.005787581671029329
1775721978389505300,9.07250537109375,0.05120619758963585,-0.00884728692471981,0.023972177878022194
1775721978399518500,9.0825185546875,0.05396922677755356,-0.008823052980005741,0.07807961851358414
1775721978409531400,9.092531494140625,0.041856370866298676,0.003570233704522252,0.1309276521205902
1775721978419545300,9.10254541015625,0.007269630674272776,0.03825444355607033,0.14981213212013245
1775721978429558300,9.112558349609374,-0.033422939479351044,0.07341908663511276,0.12842455506324768
1775721978439571500,9.122571533203125,-0.056949302554130554,0.09848982095718384,0.07554668933153152
1775721978449584400,9.13258447265625,-0.05439133569598198,0.0799824520945549,0.014546452090144157
1775721978459597300,9.142597412109374,-0.025048362091183662,0.025312280282378197,-0.024330640211701393
1775721978469610500,9.152610595703125,0.001740109408274293,-0.03255900740623474,-0.02690351940691471
1775721978479623400,9.16262353515625,0.00341603672131896,-0.07552138715982437,-0.005175587255507708
1775721978489637400,9.172637451171875,-0.012908874079585075,-0.0941384807229042,0.01437947154045105
1775721978499650600,9.182650634765626,-0.031011445447802544,-0.08850669860839844,0.01161324605345726
1775721978509663200,9.192663330078124,-0.03524773567914963,-0.07154875248670578,-0.012224708683788776
1775721978519676400,9.202676513671875,-0.02317775785923004,-0.0750710517168045,-0.05133296176791191
1775721978529689300,9.212689453125,0.0028482507914304733,-0.06696811318397522,-0.08491861820220947
1775721978539702500,9.22270263671875,0.026034263893961906,-0.040896568447351456,-0.10623961687088013
1775721978549716500,9.232716552734376,0.03723232448101044,-0.030884146690368652,-0.10924579948186874
1775721978559729400,9.2427294921875,0.03254888951778412,-0.0548320896923542,-0.10038386285305023
1775721978569742300,9.252742431640625,0.013164537958800793,-0.05727074667811394,-0.08854291588068008
1775721978579755300,9.26275537109375,-0.007808920927345753,-0.03524400666356087,-0.08603101968765259
1775721978589768400,9.2727685546875,-0.018745191395282745,-0.017605625092983246,-0.08305547386407852
1775721978599781400,9.282781494140625,-0.022672289982438087,-0.017645573243498802,-0.06469723582267761
1775721978609795300,9.29279541015625,-0.027880366891622543,-0.03488874062895775,-0.03472042828798294
1775721978619808500,9.30280859375,-0.03919374197721481,-0.052386775612831116,0.005361475981771946
1775721978629821200,9.3128212890625,-0.050449859350919724,-0.05252312868833542,0.04146888107061386
1775721978639834400,9.32283447265625,-0.0685015618801117,-0.04295119643211365,0.05808913707733154
1775721978649847300,9.332847412109375,-0.07716589421033859,-0.023385750129818916,0.04645618051290512
1775721978659860500,9.342860595703126,-0.07391496747732162,-0.01278716791421175,0.02081792987883091
1775721978669873400,9.352873291015625,-0.06562668085098267,-0.027353594079613686,0.000003462109361862531
1775721978679887400,9.362887451171876,-0.054880291223526,-0.03723977878689766,-0.0036485306918621063
1775721978689900300,9.372900390625,-0.05573197081685066,-0.0220325980335474,0.013324860483407974
1775721978699913200,9.382913330078125,-0.06727757304906845,-0.0033622407354414463,0.038843534886837006
1775721978709926400,9.392926513671876,-0.07503243535757065,0.013583719730377197,0.05457482859492302
1775721978719939600,9.402939697265625,-0.07593630999326706,0.03915992006659508,0.05533995479345322
1775721978729952300,9.4129521484375,-0.06727038323879242,0.07227472960948944,0.04282336309552193
1775721978739966500,9.422966552734374,-0.06246204674243927,0.09065613150596619,0.023991884663701057
1775721978749979400,9.4329794921875,-0.06566343456506729,0.08709228783845901,0.005023787263780832
1775721978759992300,9.442992431640626,-0.07620049268007278,0.0934404656291008,-0.0070797475054860115
1775721978770005500,9.453005615234375,-0.08743983507156372,0.11030813306570053,-0.020067185163497925
1775721978780018400,9.463018310546875,-0.09115441143512726,0.10449524968862534,-0.04153279587626457
1775721978790031400,9.47303125,-0.08598414808511734,0.08126476407051086,-0.06657849252223969
1775721978800045800,9.4830458984375,-0.07447796314954758,0.07121691852807999,-0.08376360684633255
1775721978810058500,9.49305859375,-0.07057829201221466,0.057970624417066574,-0.08548028022050858
1775721978820071700,9.50307177734375,-0.08380674570798874,0.059119246900081635,-0.07733100652694702
1775721978830084600,9.513084716796875,-0.11195556074380875,0.09082844108343124,-0.08246398717164993
1775721978840097800,9.523097900390624,-0.12955214083194733,0.11777111142873764,-0.10501083731651306
1775721978850110700,9.53311083984375,-0.12260474264621735,0.11859402805566788,-0.1344827115535736
1775721978860123600,9.54312353515625,-0.0866326317191124,0.10385715961456299,-0.14417529106140137
1775721978870137600,9.5531376953125,-0.044743236154317856,0.08651465177536011,-0.11875301599502563
1775721978880150500,9.563150634765625,-0.01440983172506094,0.06312810629606247,-0.0648418441414833
1775721978890163700,9.573163818359374,-0.002168878447264433,0.026502713561058044,-0.008738097734749317
1775721978900176600,9.5831767578125,-0.006907707080245018,-0.009751697070896626,0.029149096459150314
1775721978910189600,9.593189453125,-0.025537317618727684,-0.04316025227308273,0.027236415073275566
1775721978920202800,9.60320263671875,-0.052437908947467804,-0.08918846398591995,-0.011210842989385128
1775721978930216700,9.613216796875,-0.07652140408754349,-0.15377971529960632,-0.07217193394899368
1775721978940229600,9.623229736328126,-0.09576407819986343,-0.22179071605205536,-0.12326361238956451
1775721978950242800,9.633242919921875,-0.10196924209594727,-0.28375715017318726,-0.13109196722507477
1775721978960255700,9.643255859375,-0.08777565509080887,-0.3314879238605499,-0.08768591284751892
1775721978970268700,9.6532685546875,-0.059850551187992096,-0.3562436103820801,-0.007808121852576733
1775721978980281600,9.663281494140625,-0.03445864096283913,-0.3901040852069855,0.08915571123361588
1775721978990295600,9.673295654296876,-0.021879732608795166,-0.4072391390800476,0.17489777505397797
1775721979000308700,9.683308837890625,-0.007905061356723309,-0.4132043421268463,0.22919882833957672
1775721979010321700,9.69332177734375,0.012800483964383602,-0.4242652654647827,0.25523841381073
1775721979020334800,9.7033349609375,0.04893052577972412,-0.4175964295864105,0.2517552673816681
1775721979030347500,9.713347412109375,0.09034507721662521,-0.3887892961502075,0.22906674444675446
1775721979040360700,9.723360595703125,0.12314243614673615,-0.34815505146980286,0.19037872552871704
1775721979050374700,9.733374755859375,0.13735732436180115,-0.3167710304260254,0.14067375659942627
1775721979060387600,9.7433876953125,0.13267283141613007,-0.2920225262641907,0.07666575163602829
1775721979070400800,9.75340087890625,0.12461889535188675,-0.27171778678894043,0.0145299406722188
1775721979080413700,9.76341357421875,0.131540447473526,-0.23099194467067719,-0.024236364290118217
1775721979090426600,9.773426513671875,0.15895742177963257,-0.18941013514995575,-0.030786940827965736
1775721979100439800,9.783439697265624,0.185187429189682,-0.15943174064159393,-0.011410580016672611
1775721979110453500,9.79345361328125,0.18507450819015503,-0.12415550649166107,0.011009507812559605
1775721979120466700,9.803466796875,0.16403794288635254,-0.07217006385326385,0.013318468816578388
1775721979130479600,9.813479736328125,0.13492506742477417,-0.026159165427088737,-0.0006133259739726782
1775721979140492800,9.823492919921875,0.11840707063674927,-0.0057159424759447575,-0.02678287774324417
1775721979150505700,9.833505615234374,0.10844844579696655,0.01961071975529194,-0.054907191544771194
1775721979160518700,9.8435185546875,0.1201397255063057,0.06255312263965607,-0.08527974039316177
1775721979170531800,9.85353173828125,0.15073704719543457,0.0976296216249466,-0.12094239890575409
1775721979180545500,9.863545654296875,0.18920986354351044,0.11924463510513306,-0.16156040132045746
1775721979190558700,9.873558837890625,0.22725792229175568,0.1584562212228775,-0.2124563306570053
1775721979200571600,9.883571533203124,0.24247948825359344,0.188007190823555,-0.2408568263053894
1775721979210584600,9.89358447265625,0.23848527669906616,0.15785887837409973,-0.23831962049007416
1775721979220597800,9.90359765625,0.20388521254062653,0.09607220441102982,-0.21998216211795807
1775721979230610700,9.913610595703124,0.17641977965831757,0.06101275235414505,-0.19402779638767242
1775721979240624600,9.923624755859375,0.16179288923740387,0.05542224645614624,-0.17826586961746216
1775721979250637800,9.933637939453124,0.15349873900413513,0.035537220537662506,-0.18814566731452942
1775721979260650800,9.943650634765625,0.152496337890625,-0.008464591577649117,-0.2157493382692337
1775721979270663700,9.95366357421875,0.15631450712680817,-0.034623757004737854,-0.24535277485847473
1775721979280676600,9.963676513671874,0.1409645825624466,-0.04980430752038956,-0.25662487745285034
1775721979290689800,9.973689697265625,0.11596308648586273,-0.08982042968273163,-0.24240225553512573
1775721979300703700,9.983703857421874,0.08766753226518631,-0.1745515614748001,-0.2058570235967636
1775721979310716700,9.993716552734375,0.0701332837343216,-0.26526787877082825,-0.1597752869129181
1775721979320729900,10.003729736328125,0.051004063338041306,-0.3411807715892792,-0.11718148738145828
1775721979330742500,10.013742431640624,0.019846409559249878,-0.3764844238758087,-0.09386763721704483
1775721979340755700,10.023755615234375,-0.03747253865003586,-0.36877429485321045,-0.09565142542123795
1775721979350768600,10.0337685546875,-0.1180880218744278,-0.3602175712585449,-0.10966844111680984
1775721979360781600,10.043781494140624,-0.21109333634376526,-0.3529772460460663,-0.12091922760009766
1775721979370795800,10.053795654296875,-0.28773245215415955,-0.3346693217754364,-0.13053031265735626
1775721979380808700,10.06380859375,-0.3539591431617737,-0.29206594824790955,-0.15673474967479706
1775721979390821600,10.073821533203125,-0.4028396010398865,-0.2309703677892685,-0.1861962378025055
1775721979400834600,10.08383447265625,-0.4597311019897461,-0.15557441115379333,-0.22306929528713226
1775721979410847700,10.09384765625,-0.5317323207855225,-0.11841292679309845,-0.2604489028453827
1775721979420860700,10.103860595703125,-0.6001995205879211,-0.14890292286872864,-0.3033444285392761
1775721979430874600,10.11387451171875,-0.626658022403717,-0.23660242557525635,-0.35419028997421265
1775721979440887800,10.1238876953125,-0.5999276041984558,-0.3421373665332794,-0.4065096974372864
1775721979450900700,10.133900634765626,-0.525646984577179,-0.42155390977859497,-0.4332424998283386
1775721979460913700,10.14391357421875,-0.4130554795265198,-0.38459640741348267,-0.41273990273475647
1775721979470926800,10.1539267578125,-0.28256192803382874,-0.2488875836133957,-0.36921852827072144
1775721979480939500,10.163939453125,-0.18674537539482117,-0.15847060084342957,-0.34751081466674805
1775721979490953700,10.17395361328125,-0.15370912849903107,-0.15706844627857208,-0.355127215385437
1775721979500967000,10.183966796875,-0.1558375358581543,-0.14882223308086395,-0.3621848523616791
1775721979510979600,10.1939794921875,-0.152293398976326,-0.115998774766922,-0.35556715726852417
1775721979520992800,10.20399267578125,-0.13756372034549713,-0.08565178513526917,-0.3538893759250641
1775721979531005700,10.214005615234376,-0.12295202165842056,-0.03232491761445999,-0.3501042127609253
1775721979541018600,10.2240185546875,-0.11837777495384216,0.046843137592077255,-0.349300742149353
1775721979551031600,10.234031494140625,-0.11486959457397461,0.09959450364112854,-0.3581448197364807
1775721979561045800,10.244045654296874,-0.10160252451896667,0.1294378787279129,-0.3714553117752075
1775721979571058700,10.25405859375,-0.0755983516573906,0.11555269360542297,-0.3727157711982727
1775721979581071600,10.264071533203126,-0.04560263827443123,0.03489832952618599,-0.3504088819026947
1775721979591084800,10.274084716796875,0.003632285399362445,-0.021083448082208633,-0.29847750067710876
1775721979601097500,10.284097412109375,0.06346312910318375,-0.004199272487312555,-0.24234339594841003
1775721979611110700,10.294110595703126,0.12101004272699356,0.031190143898129463,-0.22417211532592773
1775721979621124900,10.304124755859375,0.17429296672344208,0.04445934295654297,-0.2666923999786377
1775721979631137500,10.314137451171876,0.22486667335033417,0.04367983713746071,-0.3329113721847534
1775721979641150700,10.324150634765624,0.25590288639068604,0.009349026717245579,-0.3841489851474762
1775721979651163600,10.33416357421875,0.2720685303211212,-0.05576526001095772,-0.3868939280509949
1775721979661176600,10.344176513671876,0.2755919098854065,-0.0804695412516594,-0.33896633982658386
1775721979671189800,10.354189697265625,0.2615881860256195,-0.08476628363132477,-0.2610475718975067
1775721979681203700,10.36420361328125,0.23007607460021973,-0.08313003927469254,-0.19831441342830658
1775721979691216600,10.374216552734374,0.18752115964889526,-0.061350975185632706,-0.16077636182308197
1775721979701229600,10.3842294921875,0.13626596331596375,-0.061644189059734344,-0.1344507485628128
1775721979711242800,10.39424267578125,0.09012483060359955,-0.05516285449266434,-0.10574454069137573
1775721979721255700,10.404255615234375,0.04999019578099251,-0.011540275998413563,-0.06850262731313705
1775721979731268600,10.4142685546875,0.019292205572128296,0.04754727706313133,-0.034868501126766205
1775721979741281800,10.42428173828125,-0.004057059530168772,0.09322501718997955,-0.00905741099268198
1775721979751295500,10.43429541015625,-0.02346298098564148,0.12658031284809113,0.006731938570737839
1775721979761308700,10.44430859375,-0.0460314080119133,0.13905055820941925,0.02901354245841503
1775721979771321900,10.45432177734375,-0.07788334786891937,0.1658203899860382,0.07111359387636185
1775721979781334500,10.46433447265625,-0.11257395148277283,0.19082054495811462,0.12004464864730835
1775721979791347700,10.47434765625,-0.14242878556251526,0.17095576226711273,0.17167428135871887
1775721979801360100,10.484360107421875,-0.14318378269672394,0.14629009366035461,0.21260415017604828
1775721979811374000,10.4943740234375,-0.11467944085597992,0.14232492446899414,0.22817644476890564
1775721979821387000,10.504386962890624,-0.07672087848186493,0.14111824333667755,0.21142356097698212
1775721979831400200,10.514400146484375,-0.051247742027044296,0.1320725530385971,0.1735590100288391
1775721979841413000,10.5244130859375,-0.04422764852643013,0.11555242538452148,0.13515648245811462
1775721979851426000,10.534426025390625,-0.04472566023468971,0.11898817121982574,0.10249734669923782
1775721979861439200,10.544439208984375,-0.04256583750247955,0.12980593740940094,0.08928487449884415
1775721979871453000,10.554452880859374,-0.04628973454236984,0.09248386323451996,0.08559293299913406
1775721979881466000,10.564466064453125,-0.04252375662326813,0.05229436233639717,0.07790038734674454
1775721979891479000,10.57447900390625,-0.02544224262237549,0.04538372531533241,0.05359984561800957
1775721979901492200,10.5844921875,0.005142563953995705,0.0356256365776062,0.0175012294203043
1775721979911505200,10.594505126953125,0.0332796610891819,0.010328271426260471,-0.012675315141677856
1775721979921518000,10.60451806640625,0.05385923758149147,-0.01119193434715271,-0.029739253222942352
1775721979931531300,10.61453125,0.061715297400951385,-0.01575872302055359,-0.04050801321864128
1775721979941545200,10.624545166015626,0.057617224752902985,-0.018931346014142036,-0.051967326551675797
1775721979951558100,10.63455810546875,0.04031413421034813,-0.034330807626247406,-0.05407628417015076
1775721979961571300,10.6445712890625,0.029876938089728355,-0.05229542776942253,-0.039030756801366806
1775721979971584000,10.654583984375,0.030597589910030365,-0.027334418147802353,-0.017292438074946404
1775721979981597200,10.66459716796875,0.036741502583026886,0.0001882854849100113,-0.007393467705696821
1775721979991610000,10.674610107421875,0.028836175799369812,0.017039703205227852,-0.021157748997211456
1775721980001624000,10.6846240234375,0.02136574313044548,0.05372288450598717,-0.04784315451979637
1775721980011637200,10.69463720703125,0.016884174197912216,0.10031914710998535,-0.06431187689304352
1775721980021650200,10.704650146484376,0.011722436174750328,0.13066454231739044,-0.07125899940729141
1775721980031663000,10.7146630859375,0.018015751615166664,0.14338566362857819,-0.06982169300317764
1775721980041676000,10.724676025390625,0.03537716716527939,0.1546071469783783,-0.06948693096637726
1775721980051689200,10.734689208984374,0.054788947105407715,0.14986379444599152,-0.06981024146080017
1775721980061703200,10.744703125,0.06874923408031464,0.14975221455097198,-0.07627160102128983
1775721980071716000,10.754716064453126,0.07126539200544357,0.16718445718288422,-0.08906462788581848
1775721980081729300,10.764729248046875,0.0640101432800293,0.19125092029571533,-0.1083669513463974
1775721980091742000,10.774741943359375,0.05895999073982239,0.1945095658302307,-0.1206933930516243
1775721980101755100,10.784755126953126,0.06266497820615768,0.17328843474388123,-0.125505730509758
1775721980111768300,10.794768310546875,0.08285120874643326,0.15978114306926727,-0.11501873284578323
1775721980121781000,10.804781005859375,0.10173168778419495,0.1552753448486328,-0.09151020646095276
1775721980131795200,10.814795166015625,0.10019690543413162,0.13768036663532257,-0.0684826523065567
1775721980141808000,10.82480810546875,0.09312248975038528,0.103950634598732,-0.05541878566145897
1775721980151821000,10.834821044921876,0.08832613378763199,0.09062950313091278,-0.041603900492191315
1775721980161834200,10.844834228515625,0.08379476517438889,0.09119649231433868,-0.02533225528895855
1775721980171847200,10.85484716796875,0.08313057571649551,0.09179383516311646,-0.013125123456120491
1775721980181860000,10.864860107421874,0.08068019896745682,0.07401217520236969,-0.013177054934203625
1775721980191874000,10.8748740234375,0.08615539222955704,0.05036916583776474,-0.017039170488715172
1775721980201887200,10.88488720703125,0.08651944249868393,0.04747750237584114,-0.0318833626806736
1775721980211900200,10.894900146484375,0.07342974096536636,0.031154723837971687,-0.03807681053876877
1775721980221913000,10.9049130859375,0.05067170038819313,0.00609357887879014,-0.02983725816011429
1775721980231926300,10.91492626953125,0.0251636765897274,0.01398638915270567,-0.017432520166039467
1775721980241939000,10.92493896484375,0.0017126789316534996,0.041901376098394394,-0.008735700510442257
1775721980251953200,10.934953125,-0.020205136388540268,0.04777897521853447,-0.008901082910597324
1775721980261966300,10.94496630859375,-0.03394678235054016,0.036980386823415756,-0.018992332741618156
1775721980271979000,10.95497900390625,-0.03145965561270714,0.034213364124298096,-0.034320954233407974
1775721980281992200,10.9649921875,-0.015919310972094536,0.03764963895082474,-0.05534980818629265
1775721980292005000,10.975005126953125,0.0046845003962516785,0.026688335463404655,-0.06613800674676895
1775721980302018000,10.98501806640625,0.022733008489012718,0.012969328090548515,-0.06473372131586075
1775721980312031000,10.995031005859374,0.03916178271174431,0.002192580606788397,-0.05229782685637474
1775721980322045200,11.005045166015625,0.05752348154783249,-0.00042504051816649735,-0.03810477629303932
1775721980332058000,11.01505810546875,0.07588943839073181,-0.006472812965512276,-0.025377795100212097
1775721980342071000,11.025071044921875,0.0865468755364418,-0.01841123215854168,-0.011921640485525131
1775721980352084200,11.035084228515625,0.09562745690345764,-0.03545759245753288,-0.005727127660065889
1775721980362097200,11.04509716796875,0.10303477197885513,-0.050824299454689026,-0.0043838294222950935
1775721980372110000,11.055110107421875,0.11554976552724838,-0.06295286864042282,-0.012811669148504734
1775721980382124300,11.065124267578126,0.1248314157128334,-0.07550168037414551,-0.01884079910814762
1775721980392137000,11.075136962890625,0.12686899304389954,-0.058634284883737564,-0.021632591262459755
1775721980402150100,11.085150146484375,0.11333800852298737,-0.0342479832470417,-0.019530557096004486
1775721980412163000,11.0951630859375,0.08774343132972717,-0.017289241775870323,-0.021020596846938133
1775721980422176000,11.105176025390625,0.05883828178048134,0.007164435926824808,-0.031565383076667786
1775721980432189200,11.115189208984376,0.0335310623049736,0.010239854454994202,-0.043595947325229645
1775721980442202000,11.1252021484375,0.02082378976047039,0.0011896340874955058,-0.045222073793411255
1775721980452216000,11.135216064453125,0.01878300867974758,-0.010125071741640568,-0.032694295048713684
1775721980462229000,11.14522900390625,0.02304140292108059,-0.01130937971174717,-0.013659619726240635
1775721980472242200,11.1552421875,0.01787140779197216,-0.003556119045242667,-0.004760666750371456
1775721980482255000,11.165255126953125,0.005298358853906393,0.010147176682949066,-0.010999920777976513
1775721980492268000,11.17526806640625,-0.017900703474879265,0.018495120108127594,-0.02081366814672947
1775721980502281200,11.18528125,-0.03628849983215332,0.024042218923568726,-0.03482509031891823
1775721980512295200,11.195295166015624,-0.03889600187540054,0.02720578759908676,-0.03929334506392479
1775721980522308000,11.20530810546875,-0.02954830415546894,0.025305356830358505,-0.028450017794966698
1775721980532321300,11.2153212890625,-0.010666492395102978,0.023506391793489456,-0.009187906049191952
1775721980542334000,11.225333984375,0.005865079816430807,0.03250574320554733,0.0028844696935266256
1775721980552347100,11.23534716796875,0.012227904051542282,0.05010364577174187,0.009396697394549847
1775721980562360000,11.245360107421876,0.010664362460374832,0.05416842922568321,0.010939999483525753
1775721980572374000,11.2553740234375,0.003695402294397354,0.039018239825963974,0.012714729644358158
1775721980582387200,11.26538720703125,0.0038631814531981945,0.034155573695898056,0.012490757741034031
1775721980592400100,11.275400146484374,0.012561864219605923,0.041973017156124115,0.011741877533495426
1775721980602413000,11.2854130859375,0.022535668686032295,0.03536970913410187,0.010639861226081848
1775721980612426000,11.295426025390626,0.029587719589471817,0.023306921124458313,0.01085930597037077
1775721980622439200,11.305439208984374,0.02382810041308403,0.014211160130798817,0.019645607098937035
1775721980632452400,11.315452392578125,0.006494917441159487,0.006436061579734087,0.03567250818014145
1775721980642466000,11.325466064453124,-0.017183247953653336,-0.009826531633734703,0.04102253541350365
1775721980652479200,11.335479248046875,-0.03379657864570618,-0.027147464454174042,0.037524737417697906
1775721980662492200,11.3454921875,-0.04458983987569809,-0.02664759010076523,0.03183116763830185
1775721980672505000,11.355505126953124,-0.057135991752147675,0.0010072075529024005,0.030851390212774277
1775721980682518300,11.365518310546875,-0.07979709655046463,0.02509496733546257,0.04459676146507263
1775721980692531200,11.37553125,-0.10703644156455994,0.036013659089803696,0.07139881700277328
1775721980702545200,11.385545166015625,-0.12995879352092743,0.0387045182287693,0.10087122023105621
1775721980712558000,11.39555810546875,-0.14088468253612518,0.042537871748209,0.11524270474910736
1775721980722571000,11.405571044921874,-0.14572390913963318,0.0404193289577961,0.11951015144586563
1775721980732584200,11.415584228515625,-0.15009815990924835,0.028903819620609283,0.12600107491016388
1775721980742597000,11.42559716796875,-0.14359737932682037,0.006381200160831213,0.13231170177459717
1775721980752610300,11.4356103515625,-0.13326750695705414,0.008321845903992653,0.1332334280014038
1775721980762624000,11.4456240234375,-0.13109330832958221,0.015445268712937832,0.13644813001155853
1775721980772637200,11.45563720703125,-0.13205604255199432,0.015527294017374516,0.14545492827892303
1775721980782650000,11.465650146484375,-0.13445767760276794,0.008125836960971355,0.16397695243358612
1775721980792663000,11.4756630859375,-0.13540177047252655,-0.0018277274211868644,0.18174129724502563
1775721980802676200,11.48567626953125,-0.13337084650993347,0.0024405207950621843,0.1927393525838852
1775721980812689200,11.495689208984375,-0.12818752229213715,0.014456436969339848,0.20385539531707764
1775721980822702000,11.5057021484375,-0.11832717806100845,0.018029600381851196,0.21613124012947083
1775721980832716300,11.51571630859375,-0.10384703427553177,0.025775671005249023,0.22927233576774597
1775721980842729200,11.525729248046876,-0.09699312597513199,0.032292693853378296,0.23315122723579407
1775721980852742100,11.5357421875,-0.09864374995231628,0.03538355603814125,0.22769254446029663
1775721980862755000,11.545755126953125,-0.10301613062620163,0.040835313498973846,0.20313021540641785
1775721980872768300,11.555768310546876,-0.10200759023427963,0.0528259314596653,0.16290555894374847
1775721980882781200,11.56578125,-0.10193994641304016,0.05747634172439575,0.11510661244392395
1775721980892795100,11.575795166015626,-0.09751909971237183,0.022462964057922363,0.07489155232906342
1775721980902808000,11.58580810546875,-0.09614037722349167,-0.0023880566004663706,0.053938865661621094
1775721980912821200,11.5958212890625,-0.09478909522294998,-0.021801436319947243,0.056539975106716156
1775721980922834200,11.605834228515626,-0.09723787009716034,-0.0079133166000247,0.07830705493688583
1775721980932847400,11.615847412109375,-0.10967270284891129,0.027242273092269897,0.12204547971487045
1775721980942860000,11.625860107421875,-0.12396375834941864,0.050103381276130676,0.17797106504440308
1775721980952874200,11.635874267578124,-0.11948804557323456,0.0698094442486763,0.23576059937477112
1775721980962887200,11.64588720703125,-0.09945201873779297,0.0646546259522438,0.2802516222000122
1775721980972900000,11.655900146484376,-0.07869241386651993,0.027816982939839363,0.31030434370040894
1775721980982913300,11.665913330078125,-0.062429290264844894,0.01726154424250126,0.3180144429206848
1775721980992926200,11.67592626953125,-0.051950547844171524,0.0041156490333378315,0.3054765462875366
1775721981002939100,11.685939208984376,-0.0440438911318779,0.003014165675267577,0.2835398316383362
1775721981012952000,11.6959521484375,-0.03177763521671295,-0.004400873556733131,0.26705965399742126
1775721981022966300,11.70596630859375,-0.022483738139271736,-0.011563179083168507,0.2522610127925873
1775721981032979200,11.715979248046875,-0.00618199585005641,-0.011592207476496696,0.22805872559547424
1775721981042992000,11.7259921875,0.026758642867207527,-0.0030450583435595036,0.19442753493785858
1775721981053005300,11.73600537109375,0.07292427122592926,0.014818893745541573,0.163873091340065
1775721981063018000,11.74601806640625,0.11226129531860352,0.03256886079907417,0.14930292963981628
1775721981073031200,11.75603125,0.13630510866641998,0.028421254828572273,0.15119031071662903
1775721981083045000,11.766045166015624,0.14432547986507416,0.027629496529698372,0.15441220998764038
1775721981093058000,11.77605810546875,0.1443670392036438,0.03719716891646385,0.1503937691450119
1775721981103071200,11.7860712890625,0.13868224620819092,0.044438570737838745,0.1398620307445526
1775721981113084200,11.796084228515625,0.1309521645307541,0.05228317901492119,0.11893091350793839
1775721981123097000,11.80609716796875,0.11067511141300201,0.05624356493353844,0.0809321328997612
1775721981133110300,11.8161103515625,0.08381500840187073,0.053100768476724625,0.029021797701716423
1775721981143123200,11.826123291015625,0.044509146362543106,0.050447992980480194,-0.02503238245844841
1775721981153137200,11.83613720703125,0.0007736482657492161,0.05801429972052574,-0.07713819295167923
1775721981163150000,11.846150146484375,-0.03466184064745903,0.0636839047074318,-0.12229741364717484
1775721981173163300,11.856163330078125,-0.05337747186422348,0.005710882600396872,-0.14835910499095917
1775721981183176200,11.86617626953125,-0.04736298695206642,-0.07020571827888489,-0.13536101579666138
1775721981193189000,11.876189208984375,-0.028849225491285324,-0.10828439891338348,-0.09152725338935852
1775721981203202300,11.886202392578125,-0.0016913736471906304,-0.1078132838010788,-0.042454250156879425
1775721981213216000,11.896216064453125,0.003599262097850442,-0.07640182971954346,-0.0015302523970603943
1775721981223229200,11.906229248046875,-0.026876354590058327,-0.04667509347200394,0.02623985894024372
1775721981233242400,11.916242431640624,-0.06611324101686478,-0.02629285678267479,0.04434589296579361
1775721981243255000,11.926255126953125,-0.08989846706390381,-0.016333432868123055,0.04845594987273216
1775721981253268200,11.936268310546875,-0.08493193238973618,-0.01558135636150837,0.04929830878973007
1775721981263281200,11.94628125,-0.0482703261077404,-0.017822140827775,0.049971818923950195
1775721981273294300,11.95629443359375,0.006010488141328096,-0.05745929852128029,0.06446580588817596
1775721981283308300,11.966308349609376,0.06430868059396744,-0.11677215248346329,0.09779766947031021
1775721981293321200,11.9763212890625,0.11087937653064728,-0.1464509516954422,0.1482350081205368
1775721981303334100,11.986334228515625,0.1260194480419159,-0.15514937043190002,0.20381145179271698
1775721981313347000,11.99634716796875,0.1106809750199318,-0.14149294793605804,0.25114861130714417
1775721981323360300,12.0063603515625,0.08238089084625244,-0.11071666330099106,0.27748140692710876
1775721981333373200,12.016373291015626,0.06597714871168137,-0.1033860445022583,0.28095096349716187
1775721981343387100,12.02638720703125,0.07399433106184006,-0.12010589987039566,0.2635469436645508
1775721981353400300,12.036400390625,0.10316979140043259,-0.1320112943649292,0.23510679602622986
1775721981363413000,12.0464130859375,0.14126259088516235,-0.13572773337364197,0.20587992668151855
1775721981373426200,12.05642626953125,0.17221863567829132,-0.11138005554676056,0.17807252705097198
1775721981383439000,12.066439208984375,0.18454773724079132,-0.07815099507570267,0.14641925692558289
1775721981393452300,12.076452392578124,0.17824935913085938,-0.056478191167116165,0.11998925358057022
1775721981403466200,12.08646630859375,0.17314594984054565,-0.044315267354249954,0.11600782722234726
1775721981413479200,12.096479248046874,0.18404839932918549,-0.0255743358284235,0.14283624291419983
1775721981423492000,12.1064921875,0.21321053802967072,-0.00008069378236541525,0.1883680522441864
1775721981433505000,12.116505126953125,0.24449282884597778,0.008290153928101063,0.23140846192836761
1775721981443518200,12.126518310546874,0.2664327621459961,0.011168764904141426,0.2534269392490387
1775721981453531400,12.136531494140625,0.25826749205589294,0.016414925456047058,0.24728941917419434
1775721981463544000,12.1465439453125,0.2305365353822708,0.03718811646103859,0.2246730625629425
1775721981473558300,12.156558349609375,0.18942639231681824,0.07385957986116409,0.19834531843662262
1775721981483571200,12.1665712890625,0.1474376618862152,0.10425503551959991,0.1795670986175537
