time,seconds_elapsed,z,y,x
1775721921269976600,0.0559765625,-0.9707183837890625,0.0209503173828125,-0.0030975341796875
1775721921279990500,0.065990478515625,-0.958740234375,0.008056640625,-0.0333099365234375
1775721921290003500,0.07600341796875,-0.9320220947265625,0.019805908203125,-0.072723388671875
1775721921300017700,0.086017578125,-0.87884521484375,0.0453338623046875,-0.091705322265625
1775721921310030300,0.0960302734375,-0.8510894775390625,0.051116943359375,-0.1011962890625
1775721921320044500,0.10604443359375,-0.8568572998046875,0.04425048828125,-0.0985565185546875
1775721921330057700,0.1160576171875,-0.8917236328125,0.049591064453125,-0.06732177734375
1775721921340071400,0.126071533203125,-0.9276885986328125,0.0459747314453125,-0.04034423828125
1775721921350084600,0.136084716796875,-0.9786529541015625,0.0312957763671875,-0.0219268798828125
1775721921360098600,0.1460986328125,-1.0191497802734375,0.0037841796875,0.00067138671875
1775721921370111500,0.156111572265625,-1.0068206787109375,0.000732421875,0.0127105712890625
1775721921380125400,0.16612548828125,-1.048980712890625,0.0340423583984375,0.0073699951171875
1775721921390138600,0.176138671875,-1.1374053955078125,0.0346221923828125,-0.015472412109375
1775721921400152300,0.18615234375,-1.193572998046875,0.0270843505859375,-0.036376953125
1775721921410165500,0.19616552734375,-1.2369232177734375,0.0477752685546875,-0.0296630859375
1775721921420179700,0.2061796875,-1.31463623046875,0.0065765380859375,-0.028076171875
1775721921430192400,0.2161923828125,-1.3158721923828125,-0.0197296142578125,-0.023529052734375
1775721921440206600,0.22620654296875,-1.1599884033203125,-0.00360107421875,-0.01849365234375
1775721921450219500,0.236219482421875,-1.0228729248046875,-0.0294952392578125,-0.0316162109375
1775721921460233500,0.2462333984375,-0.963470458984375,0.03076171875,-0.013427734375
1775721921470246700,0.25624658203125,-0.939178466796875,0.108734130859375,0.0063018798828125
1775721921480260600,0.266260498046875,-0.8378753662109375,0.10296630859375,-0.00909423828125
1775721921490273500,0.2762734375,-0.7606964111328125,0.027099609375,-0.0140380859375
1775721921500287500,0.28628759765625,-0.743194580078125,-0.0553741455078125,0.0083465576171875
1775721921510300700,0.29630078125,-0.7376861572265625,-0.113037109375,0.03314208984375
1775721921520314400,0.306314453125,-0.74078369140625,-0.1295318603515625,0.0620880126953125
1775721921530327600,0.31632763671875,-0.7770233154296875,-0.126617431640625,0.0705108642578125
1775721921540341500,0.326341552734375,-0.8256378173828125,-0.087432861328125,0.0401763916015625
1775721921550354400,0.3363544921875,-0.9905242919921875,-0.041534423828125,0.00567626953125
1775721921560368600,0.34636865234375,-1.11907958984375,0.0020751953125,-0.006927490234375
1775721921570381600,0.356381591796875,-1.19134521484375,0.028106689453125,-0.00537109375
1775721921580395500,0.3663955078125,-1.2249603271484375,0.0348358154296875,0.027435302734375
1775721921590408400,0.376408447265625,-1.217041015625,0.017059326171875,0.062255859375
1775721921600421400,0.38642138671875,-1.21319580078125,0.008544921875,0.0655975341796875
1775721921610435600,0.396435546875,-1.1680908203125,0.00482177734375,0.041229248046875
1775721921620448500,0.406448486328125,-1.1108856201171875,0.0164642333984375,-0.0071563720703125
1775721921630462500,0.41646240234375,-1.0585784912109375,0.0585784912109375,-0.080413818359375
1775721921640475400,0.426475341796875,-0.9774932861328125,0.078826904296875,-0.111083984375
1775721921650489600,0.436489501953125,-0.8604278564453125,0.015716552734375,-0.0606842041015625
1775721921660502500,0.44650244140625,-0.7245330810546875,-0.0298614501953125,-0.0160369873046875
1775721921670516500,0.4565166015625,-0.6252593994140625,-0.025238037109375,-0.000244140625
1775721921680529700,0.46652978515625,-0.597259521484375,-0.0675811767578125,0.03082275390625
1775721921690543400,0.47654345703125,-0.67474365234375,-0.1115264892578125,0.02667236328125
1775721921700556500,0.486556640625,-0.9414215087890625,-0.0038604736328125,-0.0157318115234375
1775721921710570500,0.496570556640625,-1.0599822998046875,0.022003173828125,-0.05145263671875
1775721921720583400,0.50658349609375,-1.2993316650390625,0.151702880859375,-0.1276702880859375
1775721921730597400,0.516597412109375,-1.3835906982421875,0.25164794921875,-0.0789794921875
1775721921740610300,0.5266103515625,-1.3517303466796875,0.1806182861328125,-0.0453033447265625
1775721921750624500,0.53662451171875,-1.306671142578125,0.1528472900390625,-0.0644683837890625
1775721921760637200,0.54663720703125,-1.241973876953125,0.15069580078125,-0.107940673828125
1775721921770651400,0.5566513671875,-1.146820068359375,0.143829345703125,-0.1540374755859375
1775721921780664300,0.566664306640625,-1.03704833984375,0.078125,-0.1268463134765625
1775721921790678300,0.57667822265625,-0.93853759765625,0.011566162109375,-0.0992431640625
1775721921800691500,0.58669140625,-0.824310302734375,-0.017669677734375,-0.082794189453125
1775721921810705400,0.596705322265625,-0.7435150146484375,-0.0193939208984375,-0.1187744140625
1775721921820718300,0.60671826171875,-0.7065582275390625,-0.0071868896484375,-0.1473541259765625
1775721921830732300,0.616732177734375,-0.708709716796875,-0.0495452880859375,-0.0814056396484375
1775721921840745200,0.6267451171875,-0.7734222412109375,-0.1307830810546875,-0.037322998046875
1775721921850759200,0.63675927734375,-0.760345458984375,-0.104095458984375,0.038238525390625
1775721921860772400,0.6467724609375,-0.83636474609375,-0.0251007080078125,-0.084442138671875
1775721921870786300,0.656786376953125,-1.0418243408203125,0.0786895751953125,-0.21722412109375
1775721921880799200,0.66679931640625,-1.1826629638671875,0.0687255859375,-0.1424102783203125
1775721921890813400,0.6768134765625,-1.21490478515625,0.0205230712890625,-0.0525970458984375
1775721921900826000,0.686826171875,-1.10797119140625,0.0152130126953125,-0.0214996337890625
1775721921910840300,0.69684033203125,-1.014312744140625,0.0325164794921875,0.0021209716796875
1775721921920853500,0.706853515625,-0.989227294921875,0.0227813720703125,-0.0124969482421875
1775721921930867500,0.716867431640625,-0.9732666015625,-0.0106201171875,-0.0379638671875
1775721921940880400,0.72688037109375,-0.9564208984375,-0.009063720703125,-0.0738372802734375
1775721921950894300,0.736894287109375,-0.9040985107421875,0.0007781982421875,-0.0832366943359375
1775721921960907300,0.7469072265625,-0.7979278564453125,-0.0019073486328125,-0.0860748291015625
1775721921970920400,0.75692041015625,-0.916717529296875,0.019439697265625,-0.050994873046875
1775721921980934400,0.766934326171875,-1.03167724609375,0.029937744140625,-0.0607757568359375
1775721921990947300,0.776947265625,-1.0938568115234375,0.0086212158203125,-0.09698486328125
1775721922000961300,0.786961181640625,-1.1246795654296875,-0.005615234375,-0.1123809814453125
1775721922010974500,0.796974365234375,-1.0698394775390625,-0.0222930908203125,-0.1240997314453125
1775721922020988200,0.80698828125,-0.989105224609375,-0.016998291015625,-0.09942626953125
1775721922031001300,0.81700146484375,-0.9416656494140625,0.0216522216796875,-0.0940704345703125
1775721922041015300,0.827015380859375,-0.9001922607421875,0.0147705078125,-0.091949462890625
1775721922051028200,0.8370283203125,-0.8961639404296875,0.00384521484375,-0.06854248046875
1775721922061042400,0.84704248046875,-0.902587890625,0.036102294921875,-0.059295654296875
1775721922071055400,0.857055419921875,-0.9449462890625,0.067413330078125,-0.0723724365234375
1775721922081069300,0.8670693359375,-0.984039306640625,0.083251953125,-0.063446044921875
1775721922091082200,0.877082275390625,-1.030914306640625,0.08990478515625,-0.04962158203125
1775721922101096400,0.887096435546875,-1.07647705078125,0.0864410400390625,-0.05987548828125
1775721922111109400,0.897109375,-1.1033172607421875,0.0684051513671875,-0.064849853515625
1775721922121123300,0.907123291015625,-1.090362548828125,0.0478057861328125,-0.048919677734375
1775721922131136500,0.917136474609375,-1.04339599609375,0.036102294921875,-0.05413818359375
1775721922141150200,0.927150146484375,-1.0032806396484375,0.0234527587890625,-0.0641632080078125
1775721922151163400,0.937163330078125,-0.9767608642578125,0.032989501953125,-0.0652313232421875
1775721922161177300,0.94717724609375,-0.966033935546875,0.0037384033203125,-0.0413055419921875
1775721922171190300,0.957190185546875,-0.9761199951171875,0.011016845703125,-0.0289764404296875
1775721922181204200,0.967204345703125,-0.9979705810546875,0.027069091796875,-0.0232086181640625
1775721922191217400,0.977217529296875,-1.0158843994140625,0.031890869140625,-0.0089874267578125
1775721922201231400,0.9872314453125,-1.0377960205078125,0.03436279296875,-0.00994873046875
1775721922211244300,0.997244384765625,-1.057647705078125,0.041290283203125,-0.020111083984375
1775721922221258500,1.007258544921875,-1.05810546875,0.0415191650390625,-0.0248565673828125
1775721922231271200,1.017271240234375,-1.045684814453125,0.0367584228515625,-0.021270751953125
1775721922241285400,1.027285400390625,-1.04803466796875,0.0452423095703125,-0.02154541015625
1775721922251298300,1.03729833984375,-1.0551605224609375,0.0200958251953125,-0.00531005859375
1775721922261312300,1.047312255859375,-1.0634613037109375,0.02545166015625,-0.0081787109375
1775721922271325400,1.057325439453125,-1.0627899169921875,0.0320587158203125,-0.0162353515625
1775721922281338000,1.067338134765625,-1.04681396484375,0.02825927734375,-0.0120849609375
1775721922291352300,1.077352294921875,-1.0227203369140625,0.0240936279296875,-0.0098419189453125
1775721922301365200,1.087365234375,-1.0052642822265625,0.0298614501953125,-0.0183563232421875
1775721922311379500,1.09737939453125,-0.9972076416015625,0.035736083984375,-0.0325927734375
1775721922321392400,1.107392333984375,-1.0020599365234375,0.032867431640625,-0.0380706787109375
1775721922331406300,1.11740625,-1.017608642578125,0.0335235595703125,-0.0552978515625
1775721922341419300,1.127419189453125,-1.037811279296875,0.0324859619140625,-0.0710601806640625
1775721922351433200,1.13743310546875,-1.0596466064453125,0.0410308837890625,-0.08819580078125
1775721922361446400,1.1474462890625,-1.0667572021484375,0.0486602783203125,-0.092437744140625
1775721922371460000,1.157460205078125,-1.05169677734375,0.0470123291015625,-0.07720947265625
1775721922381473300,1.167473388671875,-1.0381011962890625,0.0469207763671875,-0.0685272216796875
1775721922391487500,1.177487548828125,-1.0361480712890625,0.0504608154296875,-0.0655670166015625
1775721922401500200,1.187500244140625,-1.0323486328125,0.0567779541015625,-0.053375244140625
1775721922411514400,1.197514404296875,-1.0188446044921875,0.0587005615234375,-0.041778564453125
1775721922421527300,1.20752734375,-1.002655029296875,0.0654296875,-0.036712646484375
1775721922431541200,1.217541259765625,-0.98907470703125,0.082763671875,-0.0379486083984375
1775721922441554400,1.227554443359375,-0.9954681396484375,0.093994140625,-0.0420379638671875
1775721922451568400,1.237568359375,-0.9999237060546875,0.098876953125,-0.0450592041015625
1775721922461581300,1.247581298828125,-0.9962005615234375,0.0936279296875,-0.03558349609375
1775721922471595300,1.25759521484375,-0.9776153564453125,0.0826416015625,-0.027130126953125
1775721922481608400,1.2676083984375,-0.95660400390625,0.073211669921875,-0.0236968994140625
1775721922491622100,1.2776220703125,-0.9473114013671875,0.0670318603515625,-0.0236053466796875
1775721922501635300,1.28763525390625,-0.94287109375,0.0555877685546875,-0.018768310546875
1775721922511648500,1.2976484375,-0.9590301513671875,0.054931640625,-0.01580810546875
1775721922521662200,1.307662109375,-0.9843597412109375,0.0569915771484375,-0.0121612548828125
1775721922531675400,1.31767529296875,-0.9972381591796875,0.0537109375,0.0035552978515625
1775721922541689300,1.327689453125,-1.0025634765625,0.0507354736328125,0.0142669677734375
1775721922551702300,1.337702392578125,-0.999847412109375,0.0536346435546875,0.0165557861328125
1775721922561716200,1.34771630859375,-1.0050811767578125,0.0500335693359375,0.0234527587890625
1775721922571729400,1.3577294921875,-1.0094451904296875,0.0456085205078125,0.0266265869140625
1775721922581743400,1.367743408203125,-1.0135040283203125,0.0410919189453125,0.02874755859375
1775721922591756300,1.37775634765625,-1.0308837890625,0.0408782958984375,0.018768310546875
1775721922601770500,1.3877705078125,-1.0213165283203125,0.03546142578125,0.0120849609375
1775721922611783200,1.397783203125,-0.998565673828125,0.0312957763671875,0.0135955810546875
1775721922621797400,1.40779736328125,-0.967254638671875,0.0284881591796875,0.01141357421875
1775721922631810300,1.417810302734375,-0.93756103515625,0.028350830078125,0.0100555419921875
1775721922641824300,1.42782421875,-0.9256744384765625,0.032501220703125,0.002593994140625
1775721922651837400,1.43783740234375,-0.9321136474609375,0.0383453369140625,-0.0094146728515625
1775721922661851400,1.447851318359375,-0.9476318359375,0.0389404296875,-0.0159912109375
1775721922671864300,1.4578642578125,-0.9711761474609375,0.0398712158203125,-0.02838134765625
1775721922681878300,1.467878173828125,-0.987213134765625,0.0350189208984375,-0.0440216064453125
1775721922691891500,1.477891357421875,-0.9855194091796875,0.0259857177734375,-0.0594482421875
1775721922701905200,1.4879052734375,-0.9635467529296875,0.021026611328125,-0.070281982421875
1775721922711918300,1.49791845703125,-0.9607696533203125,0.0116729736328125,-0.073486328125
1775721922721932300,1.507932373046875,-0.9633331298828125,0.008087158203125,-0.053985595703125
1775721922731945000,1.517945068359375,-0.97039794921875,0.0176849365234375,-0.029296875
1775721922741958000,1.5279580078125,-1.0194549560546875,0.0199432373046875,-0.00341796875
1775721922751971800,1.537971923828125,-1.0630035400390625,0.0121307373046875,0.0264434814453125
1775721922761984800,1.54798486328125,-1.088470458984375,0.006805419921875,0.0519561767578125
1775721922771999000,1.5579990234375,-1.0866546630859375,0.0011138916015625,0.067596435546875
1775721922782012000,1.568011962890625,-1.064544677734375,-0.0028076171875,0.0701446533203125
1775721922792026000,1.578026123046875,-1.03314208984375,0.0075836181640625,0.06640625
1775721922802038800,1.588038818359375,-1.0054168701171875,0.0184326171875,0.0639190673828125
1775721922812053000,1.598052978515625,-0.9835205078125,0.0263519287109375,0.0636138916015625
1775721922822066000,1.60806591796875,-0.984771728515625,0.0312042236328125,0.0574493408203125
1775721922832080000,1.618079833984375,-0.9954376220703125,0.03460693359375,0.0365447998046875
1775721922842093000,1.628093017578125,-1.0141448974609375,0.0394134521484375,0.014892578125
1775721922852107000,1.63810693359375,-1.0102691650390625,0.0392608642578125,0.00067138671875
1775721922862120000,1.648119873046875,-0.9891357421875,0.04364013671875,-0.0079345703125
1775721922872134000,1.6581337890625,-0.974090576171875,0.044036865234375,-0.0155029296875
1775721922882146800,1.668146728515625,-0.9687042236328125,0.0469970703125,-0.0223236083984375
1775721922892160800,1.678160888671875,-0.9888458251953125,0.04974365234375,-0.0321044921875
1775721922902174000,1.688174072265625,-1.01300048828125,0.039947509765625,-0.0351409912109375
1775721922912188200,1.698188232421875,-1.0277557373046875,0.02862548828125,-0.03448486328125
1775721922922200800,1.708200927734375,-1.016387939453125,0.0142822265625,-0.0284423828125
1775721922932215000,1.718215087890625,-0.9968109130859375,0.0050048828125,-0.0158843994140625
1775721922942228000,1.72822802734375,-0.9862060546875,-0.003692626953125,-0.00823974609375
1775721922952241000,1.738240966796875,-0.9903564453125,0.01873779296875,-0.0201416015625
1775721922962255000,1.748255126953125,-1.008544921875,0.0513458251953125,-0.024078369140625
1775721922972267800,1.758267822265625,-1.0275421142578125,0.04827880859375,-0.0083465576171875
1775721922982282000,1.768281982421875,-1.0305938720703125,0.0478515625,-0.0003662109375
1775721922992295000,1.778294921875,-1.013763427734375,0.047943115234375,0.001068115234375
1775721923002308900,1.788308837890625,-0.982391357421875,0.0348663330078125,0.0100860595703125
1775721923012322000,1.798322021484375,-0.9719696044921875,0.0285186767578125,0.0048828125
1775721923022336000,1.8083359375,-0.9794769287109375,0.0341033935546875,-0.0091552734375
1775721923032349000,1.818348876953125,-0.9762420654296875,0.0408935546875,-0.0130462646484375
1775721923042363000,1.82836279296875,-0.9703369140625,0.041961669921875,-0.0131988525390625
1775721923052376000,1.8383759765625,-0.9647064208984375,0.0494232177734375,-0.0157012939453125
1775721923062389800,1.8483896484375,-0.9600372314453125,0.0517730712890625,-0.016510009765625
1775721923072403000,1.85840283203125,-0.952362060546875,0.0506744384765625,-0.02130126953125
1775721923082417000,1.8684169921875,-0.9678192138671875,0.0483245849609375,-0.03070068359375
1775721923092429800,1.878429931640625,-0.97314453125,0.040863037109375,-0.0286407470703125
1775721923102444000,1.888444091796875,-0.971099853515625,0.037872314453125,-0.0236358642578125
1775721923112457000,1.89845703125,-0.976226806640625,0.0354461669921875,-0.0262298583984375
1775721923122471000,1.908470947265625,-0.9822998046875,0.03704833984375,-0.0306854248046875
1775721923132483800,1.91848388671875,-0.9895477294921875,0.043121337890625,-0.0308074951171875
1775721923142498000,1.928498046875,-0.998565673828125,0.0467529296875,-0.0246734619140625
1775721923152511000,1.938510986328125,-1.0103607177734375,0.048583984375,-0.0283050537109375
1775721923162524000,1.94852392578125,-1.0111846923828125,0.05181884765625,-0.0321807861328125
1775721923172538000,1.9585380859375,-0.99774169921875,0.049468994140625,-0.03045654296875
1775721923182550800,1.96855078125,-0.9758148193359375,0.0431671142578125,-0.02142333984375
1775721923192565000,1.97856494140625,-0.96685791015625,0.0416107177734375,-0.0169677734375
1775721923202578000,1.988577880859375,-0.9749603271484375,0.0407867431640625,-0.0123748779296875
1775721923212591900,1.998591796875,-0.9947052001953125,0.037384033203125,-0.003021240234375
1775721923222605000,2.00860498046875,-1.0119781494140625,0.03851318359375,-0.0003662109375
1775721923232619000,2.018618896484375,-1.0363922119140625,0.0397491455078125,-0.0006103515625
1775721923242632000,2.0286318359375,-1.0447998046875,0.0449676513671875,-0.002838134765625
1775721923252646000,2.03864599609375,-1.045318603515625,0.044281005859375,-0.0033111572265625
1775721923262658800,2.048658935546875,-1.0394744873046875,0.0420379638671875,-0.0052337646484375
1775721923272672800,2.0586728515625,-1.024627685546875,0.0372467041015625,-0.0041656494140625
1775721923282686000,2.06868603515625,-1.00384521484375,0.0330352783203125,-0.001373291015625
1775721923292700200,2.0787001953125,-0.9815216064453125,0.0235443115234375,0.0080413818359375
1775721923302712800,2.088712890625,-0.98077392578125,0.0152435302734375,0.0109405517578125
1775721923312727000,2.09872705078125,-0.9850311279296875,0.0144805908203125,0.007476806640625
1775721923322739700,2.10873974609375,-0.9869842529296875,0.013275146484375,0.008026123046875
1775721923332753000,2.1187529296875,-1.002838134765625,0.0138397216796875,0.008209228515625
1775721923342767000,2.12876708984375,-1.0121612548828125,0.018402099609375,0.000946044921875
1775721923352779800,2.13877978515625,-1.00531005859375,0.0263214111328125,-0.000152587890625
1775721923362794000,2.1487939453125,-0.9951629638671875,0.0303802490234375,0.0003662109375
1775721923372807000,2.158806884765625,-0.9936676025390625,0.031768798828125,-0.005706787109375
1775721923382820900,2.16882080078125,-0.9991912841796875,0.029327392578125,-0.00531005859375
1775721923392834000,2.178833984375,-0.995941162109375,0.0284576416015625,-0.003326416015625
1775721923402848000,2.188847900390625,-0.9934844970703125,0.02685546875,-0.0044708251953125
1775721923412861000,2.19886083984375,-0.9960784912109375,0.029815673828125,-0.009918212890625
1775721923422875000,2.208875,-0.999969482421875,0.03369140625,-0.01416015625
1775721923432888000,2.21888818359375,-1.0008544921875,0.0338134765625,-0.0152130126953125
1775721923442901800,2.22890185546875,-0.9951171875,0.032928466796875,-0.0140380859375
1775721923452915000,2.2389150390625,-0.986663818359375,0.0388641357421875,-0.01324462890625
1775721923462929000,2.248928955078125,-0.98590087890625,0.0430755615234375,-0.008026123046875
1775721923472941800,2.25894189453125,-1.0045166015625,0.04693603515625,-0.0020294189453125
1775721923482956000,2.2689560546875,-1.0275421142578125,0.0543212890625,0.0013275146484375
1775721923492969000,2.278968994140625,-1.03472900390625,0.051055908203125,0.008209228515625
1775721923502983000,2.28898291015625,-1.03436279296875,0.0467681884765625,0.0120849609375
1775721923512995800,2.298995849609375,-1.0225982666015625,0.048797607421875,0.0100555419921875
1775721923523009000,2.309009033203125,-1.0060577392578125,0.048919677734375,0.009674072265625
1775721923533023000,2.31902294921875,-0.99847412109375,0.0482940673828125,0.008636474609375
1775721923543036000,2.329035888671875,-0.995391845703125,0.04638671875,0.008758544921875
1775721923553050000,2.339050048828125,-0.9869232177734375,0.0453948974609375,0.0084075927734375
1775721923563062800,2.349062744140625,-0.981109619140625,0.044464111328125,0.0114593505859375
1775721923573077000,2.359076904296875,-0.974090576171875,0.042816162109375,0.0111236572265625
1775721923583090000,2.36908984375,-0.978118896484375,0.048492431640625,0.0030670166015625
1775721923593104000,2.379103759765625,-0.9900970458984375,0.0496368408203125,0.002838134765625
1775721923603117000,2.389116943359375,-1.0056610107421875,0.04791259765625,0.006256103515625
1775721923613131000,2.399131103515625,-1.013153076171875,0.0524139404296875,0.0081024169921875
1775721923623144000,2.40914404296875,-1.0074920654296875,0.049560546875,0.01513671875
1775721923633158000,2.419157958984375,-1.0032958984375,0.0433502197265625,0.0199127197265625
1775721923643170800,2.4291708984375,-0.99761962890625,0.041473388671875,0.0175018310546875
1775721923653184800,2.439184814453125,-0.9961700439453125,0.041351318359375,0.0146484375
1775721923663198000,2.449197998046875,-0.9953155517578125,0.0371856689453125,0.0143585205078125
1775721923673212200,2.459212158203125,-1.0001068115234375,0.03814697265625,0.016937255859375
1775721923683224800,2.469224853515625,-1.01214599609375,0.043060302734375,0.015350341796875
1775721923693238000,2.479238037109375,-1.0273590087890625,0.038848876953125,0.0161590576171875
1775721923703251700,2.489251708984375,-1.034027099609375,0.037200927734375,0.0146942138671875
1775721923713265000,2.499264892578125,-1.0280914306640625,0.0364227294921875,0.010498046875
1775721923723279000,2.509279052734375,-1.0231781005859375,0.030426025390625,0.0054168701171875
1775721923733292000,2.5192919921875,-1.0219573974609375,0.0264434814453125,0.0019073486328125
1775721923743306000,2.529305908203125,-1.0252227783203125,0.0208282470703125,0.0006103515625
1775721923753319000,2.53931884765625,-1.027435302734375,0.0153045654296875,0.0068511962890625
1775721923763333000,2.5493330078125,-1.0399017333984375,0.0128631591796875,0.0097198486328125
1775721923773346000,2.559345947265625,-1.0553741455078125,0.0104522705078125,0.0090789794921875
1775721923783360000,2.569360107421875,-1.0785675048828125,0.0152130126953125,0.01092529296875
1775721923793373200,2.579373291015625,-1.096527099609375,0.018218994140625,0.0153656005859375
1775721923803387000,2.589386962890625,-1.1014404296875,0.031494140625,0.014617919921875
1775721923813400000,2.599400146484375,-1.1066436767578125,0.0472564697265625,0.008270263671875
1775721923823414000,2.6094140625,-1.112030029296875,0.05169677734375,-0.0019683837890625
1775721923833427000,2.619427001953125,-1.1210784912109375,0.0623626708984375,-0.019683837890625
1775721923843441000,2.62944091796875,-1.108245849609375,0.0691070556640625,-0.0227203369140625
1775721923853454000,2.6394541015625,-1.091156005859375,0.063079833984375,-0.0135345458984375
1775721923863467000,2.649467041015625,-1.0909881591796875,0.059478759765625,-0.012237548828125
1775721923873481000,2.65948095703125,-1.087646484375,0.047027587890625,0.0003509521484375
1775721923883494100,2.669494140625,-1.0859527587890625,0.0354156494140625,0.0116729736328125
1775721923893507800,2.6795078125,-1.0742340087890625,0.0327301025390625,0.015594482421875
1775721923903521000,2.68952099609375,-1.0632476806640625,0.03411865234375,0.0262298583984375
1775721923913535200,2.69953515625,-1.0771331787109375,0.029510498046875,0.0281829833984375
1775721923923548000,2.7095478515625,-1.0895538330078125,0.031707763671875,0.032012939453125
1775721923933562000,2.71956201171875,-1.08758544921875,0.0303497314453125,0.043060302734375
1775721923943575000,2.729574951171875,-1.09423828125,0.0246429443359375,0.036041259765625
1775721923953589000,2.739589111328125,-1.1178131103515625,0.0357513427734375,0.029541015625
1775721923963602200,2.749602294921875,-1.1420440673828125,0.0391387939453125,0.034210205078125
1775721923973616000,2.7596162109375,-1.157073974609375,0.034759521484375,0.0469512939453125
1775721923983629000,2.769629150390625,-1.1638031005859375,0.0244598388671875,0.0617523193359375
1775721923993643000,2.77964306640625,-1.153289794921875,0.0088653564453125,0.0694122314453125
1775721924003656000,2.789656005859375,-1.1348419189453125,0.0044708251953125,0.0678253173828125
1775721924013669000,2.799669189453125,-1.113983154296875,0.001068115234375,0.0631256103515625
1775721924023683000,2.80968310546875,-1.0980224609375,-0.005462646484375,0.0629730224609375
1775721924033696000,2.819696044921875,-1.093292236328125,-0.0090179443359375,0.060791015625
1775721924043710000,2.8297099609375,-1.0984039306640625,-0.00970458984375,0.04278564453125
1775721924053723100,2.83972314453125,-1.12060546875,-0.0019989013671875,0.00811767578125
1775721924063736800,2.84973681640625,-1.1331329345703125,0.0137481689453125,-0.045745849609375
1775721924073750000,2.85975,-1.1099090576171875,0.03277587890625,-0.0939788818359375
1775721924083764000,2.869763916015625,-1.071685791015625,0.03173828125,-0.111114501953125
1775721924093777000,2.87977685546875,-1.029632568359375,0.0129852294921875,-0.110198974609375
1775721924103791000,2.889791015625,-0.995269775390625,0.017486572265625,-0.116729736328125
1775721924113804000,2.899803955078125,-0.9832000732421875,0.0365447998046875,-0.130615234375
1775721924123818000,2.90981787109375,-0.9833221435546875,0.0568084716796875,-0.1441192626953125
1775721924133831000,2.919830810546875,-0.9960479736328125,0.08612060546875,-0.158599853515625
1775721924143845000,2.92984521484375,-1.0260162353515625,0.086456298828125,-0.16015625
1775721924153858000,2.939858154296875,-1.0359954833984375,0.077056884765625,-0.1358642578125
1775721924163871000,2.94987109375,-1.0264739990234375,0.0565032958984375,-0.1063995361328125
1775721924173885200,2.95988525390625,-1.01861572265625,0.033477783203125,-0.0770263671875
1775721924183897900,2.96989794921875,-1.01171875,0.0159912109375,-0.051422119140625
1775721924193912000,2.979912109375,-1.0091705322265625,0.0006103515625,-0.0211029052734375
1775721924203925200,2.98992529296875,-1.0383453369140625,0.0048370361328125,-0.0068359375
1775721924213939000,2.99993896484375,-1.0600738525390625,0.0349578857421875,-0.0001678466796875
1775721924223952100,3.0099521484375,-1.087646484375,0.0497894287109375,0.0117645263671875
1775721924233966000,3.019966064453125,-1.10894775390625,0.049163818359375,0.003143310546875
1775721924243979000,3.02997900390625,-1.12750244140625,0.0527496337890625,-0.0285797119140625
1775721924253993000,3.039992919921875,-1.1073760986328125,0.0572509765625,-0.0570526123046875
1775721924264006100,3.050006103515625,-1.0543212890625,0.051055908203125,-0.05035400390625
1775721924274019800,3.060019775390625,-1.0392303466796875,0.0377349853515625,-0.04290771484375
1775721924284033000,3.070032958984375,-1.048309326171875,0.030120849609375,-0.031036376953125
1775721924294047200,3.080047119140625,-1.0643768310546875,0.01416015625,-0.031524658203125
1775721924304060000,3.090059814453125,-1.0465850830078125,0.00115966796875,-0.05120849609375
1775721924314073000,3.100072998046875,-0.99102783203125,-0.0050048828125,-0.0699310302734375
1775721924324087000,3.110087158203125,-0.9240570068359375,-0.0120086669921875,-0.0860748291015625
1775721924334100000,3.120099853515625,-0.87945556640625,-0.0110321044921875,-0.0945587158203125
1775721924344114200,3.1301142578125,-0.8460845947265625,-0.0087738037109375,-0.0755615234375
1775721924354126800,3.140126953125,-0.8727264404296875,-0.01275634765625,-0.0739898681640625
1775721924364141000,3.15014111328125,-0.936859130859375,-0.01934814453125,-0.08184814453125
1775721924374154000,3.160154052734375,-0.9857635498046875,-0.0065155029296875,-0.107757568359375
1775721924384168000,3.17016796875,-1.018524169921875,0.0174407958984375,-0.146514892578125
1775721924394181000,3.18018115234375,-1.00628662109375,-0.0006561279296875,-0.1373138427734375
1775721924404195000,3.190195068359375,-0.977142333984375,0.0239410400390625,-0.1705780029296875
1775721924414208000,3.2002080078125,-0.9241790771484375,0.02679443359375,-0.1840057373046875
1775721924424222000,3.210221923828125,-0.904327392578125,-0.02313232421875,-0.1297149658203125
1775721924434235100,3.220235107421875,-0.9403839111328125,-0.0627288818359375,-0.0955047607421875
1775721924444248000,3.230248046875,-0.9968109130859375,-0.071929931640625,-0.0873870849609375
1775721924454262000,3.240261962890625,-1.082733154296875,-0.1295318603515625,-0.06744384765625
1775721924464275200,3.250275146484375,-1.1134490966796875,-0.2065887451171875,-0.05010986328125
1775721924474289000,3.260288818359375,-1.1241302490234375,-0.0986175537109375,-0.162994384765625
1775721924484302000,3.270302001953125,-1.0916900634765625,-0.067291259765625,-0.20062255859375
1775721924494316000,3.28031591796875,-1.1310882568359375,-0.0505523681640625,-0.2056121826171875
1775721924504329000,3.290328857421875,-1.163360595703125,-0.038818359375,-0.1811676025390625
1775721924514343000,3.300343017578125,-1.136444091796875,-0.0635223388671875,-0.125518798828125
1775721924524356000,3.310356201171875,-1.0789031982421875,-0.08355712890625,-0.0659332275390625
1775721924534370000,3.3203701171875,-1.016143798828125,-0.0868377685546875,-0.06103515625
1775721924544383000,3.330383056640625,-0.9556427001953125,-0.09356689453125,-0.086334228515625
1775721924554397200,3.340397216796875,-0.8873138427734375,-0.091400146484375,-0.1201629638671875
1775721924564409900,3.350409912109375,-0.8372802734375,-0.0627288818359375,-0.177734375
1775721924574423000,3.360423095703125,-0.821685791015625,0.0347900390625,-0.234619140625
1775721924584437200,3.370437255859375,-0.8272552490234375,0.110382080078125,-0.2196807861328125
1775721924594450000,3.380449951171875,-0.8746185302734375,0.098388671875,-0.134613037109375
1775721924604464000,3.390464111328125,-0.959564208984375,0.1815643310546875,-0.1038818359375
1775721924614476800,3.400476806640625,-1.02130126953125,0.3164215087890625,-0.14556884765625
1775721924624491000,3.410490966796875,-1.0375823974609375,0.212982177734375,-0.0615997314453125
1775721924634504200,3.420504150390625,-1.0164031982421875,0.124786376953125,0.020904541015625
1775721924644518100,3.43051806640625,-0.98248291015625,0.1071319580078125,0.0149383544921875
1775721924654531000,3.440531005859375,-0.9522857666015625,0.0366363525390625,-0.02423095703125
1775721924664545000,3.450544921875,-0.862396240234375,-0.076263427734375,0.021728515625
1775721924674558000,3.460557861328125,-0.7659149169921875,-0.0601654052734375,-0.0192413330078125
1775721924684572000,3.470572021484375,-0.6654815673828125,-0.1953277587890625,0.0262451171875
1775721924694585000,3.480585205078125,-0.60205078125,-0.327911376953125,0.0639801025390625
1775721924704598000,3.490597900390625,-0.6072998046875,-0.3662261962890625,0.015411376953125
1775721924714612000,3.500612060546875,-0.685882568359375,-0.4606475830078125,0.0228729248046875
1775721924724625200,3.510625244140625,-0.7610015869140625,-0.45550537109375,-0.0489349365234375
1775721924734639000,3.52063916015625,-0.7983551025390625,-0.3754425048828125,-0.1628875732421875
1775721924744652000,3.530652099609375,-0.7608642578125,-0.318634033203125,-0.2039031982421875
1775721924754666000,3.540666015625,-0.7312164306640625,-0.311187744140625,-0.1399993896484375
1775721924764679200,3.55067919921875,-0.6720123291015625,-0.293426513671875,-0.0773773193359375
1775721924774693400,3.560693359375,-0.6078643798828125,-0.235260009765625,-0.069366455078125
1775721924784706000,3.5707060546875,-0.5927886962890625,-0.1909637451171875,-0.10498046875
1775721924794720300,3.58072021484375,-0.597564697265625,-0.1566162109375,-0.144317626953125
1775721924804733000,3.59073291015625,-0.630523681640625,-0.138275146484375,-0.1566619873046875
1775721924814747100,3.6007470703125,-0.670623779296875,-0.118408203125,-0.1485137939453125
1775721924824760300,3.61076025390625,-0.7176666259765625,-0.098358154296875,-0.1192779541015625
1775721924834773000,3.62077294921875,-0.773834228515625,-0.0890350341796875,-0.0819091796875
1775721924844787200,3.630787109375,-0.850799560546875,-0.0698089599609375,-0.0596771240234375
1775721924854800100,3.640800048828125,-0.918212890625,-0.0660247802734375,-0.035125732421875
1775721924864814000,3.65081396484375,-0.9924774169921875,-0.069580078125,-0.0108795166015625
1775721924874827300,3.6608271484375,-1.048553466796875,-0.079376220703125,-0.0155181884765625
1775721924884841200,3.67084130859375,-1.1088104248046875,-0.0836029052734375,-0.052581787109375
1775721924894854100,3.680854248046875,-1.1591033935546875,-0.0932464599609375,-0.1000518798828125
1775721924904868000,3.6908681640625,-1.1798553466796875,-0.1090545654296875,-0.146942138671875
1775721924914881300,3.70088134765625,-1.1774749755859375,-0.1228485107421875,-0.18511962890625
1775721924924895000,3.71089501953125,-1.167877197265625,-0.1337127685546875,-0.215362548828125
1775721924934908200,3.720908203125,-1.157623291015625,-0.144287109375,-0.2270660400390625
1775721924944922000,3.730922119140625,-1.1440582275390625,-0.148681640625,-0.21588134765625
1775721924954935000,3.74093505859375,-1.134857177734375,-0.158905029296875,-0.1895599365234375
1775721924964948200,3.7509482421875,-1.12127685546875,-0.1728515625,-0.1680755615234375
1775721924974962200,3.760962158203125,-1.099609375,-0.1749114990234375,-0.166839599609375
1775721924984975000,3.77097509765625,-1.075592041015625,-0.1653900146484375,-0.17724609375
1775721924994989000,3.780989013671875,-1.06298828125,-0.1485595703125,-0.1975555419921875
1775721925005002200,3.791002197265625,-1.05535888671875,-0.1359100341796875,-0.2144622802734375
1775721925015016200,3.80101611328125,-1.0222930908203125,-0.1302490234375,-0.2118988037109375
1775721925025029000,3.811029052734375,-0.976043701171875,-0.126220703125,-0.1820831298828125
1775721925035043300,3.821043212890625,-0.93359375,-0.1360015869140625,-0.1420745849609375
1775721925045056000,3.831055908203125,-0.907989501953125,-0.1440277099609375,-0.108673095703125
1775721925055070200,3.8410703125,-0.8979034423828125,-0.138702392578125,-0.0989990234375
1775721925065083400,3.85108349609375,-0.896697998046875,-0.124603271484375,-0.102813720703125
1775721925075097000,3.86109716796875,-0.900848388671875,-0.110107421875,-0.111968994140625
1775721925085110300,3.8711103515625,-0.9148712158203125,-0.0954132080078125,-0.1170806884765625
1775721925095123000,3.881123046875,-0.9280242919921875,-0.0808563232421875,-0.11065673828125
1775721925105137200,3.89113720703125,-0.9400634765625,-0.0742645263671875,-0.1036224365234375
1775721925115150300,3.901150390625,-0.9492340087890625,-0.075042724609375,-0.0888519287109375
1775721925125164300,3.911164306640625,-0.9584197998046875,-0.0784454345703125,-0.069671630859375
1775721925135177200,3.92117724609375,-0.9751739501953125,-0.09478759765625,-0.051116943359375
1775721925145191200,3.931191162109375,-0.9892425537109375,-0.105682373046875,-0.050933837890625
1775721925155204000,3.9412041015625,-0.9907379150390625,-0.10760498046875,-0.0588531494140625
1775721925165218000,3.951218017578125,-0.98504638671875,-0.11492919921875,-0.058258056640625
1775721925175231200,3.961231201171875,-0.97381591796875,-0.1190338134765625,-0.059112548828125
1775721925185245000,3.971244873046875,-0.9652099609375,-0.1227264404296875,-0.0643310546875
1775721925195258000,3.981258056640625,-0.964111328125,-0.1253509521484375,-0.0730133056640625
1775721925205271300,3.991271240234375,-0.96954345703125,-0.129364013671875,-0.08453369140625
1775721925215285000,4.001284912109375,-0.9763031005859375,-0.1415863037109375,-0.084747314453125
1775721925225298200,4.011298095703125,-0.9717254638671875,-0.1593017578125,-0.079376220703125
1775721925235312000,4.02131201171875,-0.963470458984375,-0.177764892578125,-0.0744781494140625
1775721925245325000,4.031324951171875,-0.9689483642578125,-0.19024658203125,-0.0857391357421875
1775721925255339300,4.04133935546875,-0.9696044921875,-0.1967315673828125,-0.10797119140625
1775721925265352200,4.051352294921875,-0.94757080078125,-0.1995849609375,-0.1049652099609375
1775721925275366100,4.0613662109375,-0.919281005859375,-0.206146240234375,-0.09234619140625
1775721925285379000,4.071379150390625,-0.885040283203125,-0.2123870849609375,-0.0856170654296875
1775721925295393300,4.081393310546875,-0.8576202392578125,-0.2028350830078125,-0.0811614990234375
1775721925305406200,4.09140625,-0.8489227294921875,-0.1956787109375,-0.0811614990234375
1775721925315420200,4.101420166015625,-0.8648681640625,-0.1908416748046875,-0.09063720703125
1775721925325433300,4.111433349609375,-0.885284423828125,-0.1810150146484375,-0.1058807373046875
1775721925335446000,4.121446044921875,-0.9004364013671875,-0.169677734375,-0.12286376953125
1775721925345460200,4.131460205078125,-0.903106689453125,-0.158416748046875,-0.1370697021484375
1775721925355473200,4.14147314453125,-0.900390625,-0.1360321044921875,-0.1454315185546875
1775721925365487000,4.151487060546875,-0.8899688720703125,-0.1147308349609375,-0.147491455078125
1775721925375500300,4.161500244140625,-0.894287109375,-0.0939178466796875,-0.1534881591796875
1775721925385514200,4.17151416015625,-0.893096923828125,-0.0815582275390625,-0.1603851318359375
1775721925395527200,4.181527099609375,-0.89031982421875,-0.0729217529296875,-0.1641693115234375
1775721925405541000,4.191541015625,-0.9238739013671875,-0.0640716552734375,-0.1780548095703125
1775721925415554000,4.201553955078125,-0.9443359375,-0.0615997314453125,-0.1903076171875
1775721925425568000,4.211568115234375,-0.95452880859375,-0.050994873046875,-0.1825408935546875
1775721925435581200,4.221581298828125,-0.9550628662109375,-0.0505828857421875,-0.1697998046875
1775721925445594000,4.231593994140625,-0.9383392333984375,-0.055389404296875,-0.1560821533203125
1775721925455608000,4.241608154296875,-0.93475341796875,-0.046356201171875,-0.1507720947265625
1775721925465621200,4.251621337890625,-0.924560546875,-0.0559234619140625,-0.1338653564453125
1775721925475635000,4.261635009765625,-0.9321136474609375,-0.06451416015625,-0.112335205078125
1775721925485648100,4.271648193359375,-0.933929443359375,-0.0640716552734375,-0.1047821044921875
1775721925495662300,4.281662353515625,-0.9143218994140625,-0.0625152587890625,-0.0894775390625
1775721925505675000,4.291675048828125,-0.8998260498046875,-0.0603790283203125,-0.0768280029296875
1775721925515689200,4.301689208984375,-0.889892578125,-0.056060791015625,-0.0629119873046875
1775721925525702100,4.3117021484375,-0.91839599609375,-0.0552215576171875,-0.0595703125
1775721925535716000,4.321716064453125,-0.93597412109375,-0.05364990234375,-0.0478668212890625
1775721925545729300,4.331729248046875,-0.9387969970703125,-0.0534820556640625,-0.01318359375
1775721925555742200,4.3417421875,-0.9261322021484375,-0.05029296875,-0.0027008056640625
1775721925565756200,4.351756103515625,-0.9223480224609375,-0.0322265625,-0.0234832763671875
1775721925575769000,4.36176904296875,-0.925811767578125,-0.020721435546875,-0.0518341064453125
1775721925585783300,4.371783203125,-0.921173095703125,-0.02508544921875,-0.0803985595703125
1775721925595796200,4.381796142578125,-0.91717529296875,-0.039764404296875,-0.08624267578125
1775721925605810200,4.39181005859375,-0.925445556640625,-0.00836181640625,-0.123260498046875
1775721925615823400,4.4018232421875,-0.9163818359375,-0.01824951171875,-0.1438446044921875
1775721925625837000,4.411837158203125,-0.9018096923828125,-0.0465240478515625,-0.13385009765625
1775721925635850200,4.421850341796875,-0.8973236083984375,-0.0043792724609375,-0.1545562744140625
1775721925645864200,4.4318642578125,-0.9194183349609375,0.009857177734375,-0.16900634765625
1775721925655877000,4.441877197265625,-0.9558258056640625,0.012451171875,-0.1699371337890625
1775721925665890300,4.451890380859375,-0.959014892578125,-0.009918212890625,-0.1514129638671875
1775721925675904000,4.461904052734375,-0.960205078125,-0.0606231689453125,-0.1487274169921875
1775721925685917200,4.471917236328125,-0.9532012939453125,-0.0572967529296875,-0.181182861328125
1775721925695931100,4.48193115234375,-0.9500885009765625,-0.03094482421875,-0.2111968994140625
1775721925705944000,4.491944091796875,-0.974853515625,-0.018798828125,-0.2221221923828125
1775721925715958000,4.5019580078125,-1.0080413818359375,-0.0033416748046875,-0.20220947265625
1775721925725971200,4.51197119140625,-1.0364227294921875,0.0169219970703125,-0.16400146484375
1775721925735985000,4.52198486328125,-1.067138671875,0.00848388671875,-0.1364898681640625
1775721925745997800,4.531997802734375,-1.062408447265625,-0.0279083251953125,-0.098236083984375
1775721925756010800,4.5420107421875,-1.0592041015625,-0.0626068115234375,-0.068206787109375
1775721925766024700,4.552024658203125,-1.0738525390625,-0.056671142578125,-0.0964813232421875
1775721925776038000,4.562037841796875,-1.063995361328125,-0.003814697265625,-0.134796142578125
1775721925786051800,4.5720517578125,-1.0548248291015625,0.03729248046875,-0.1468505859375
1775721925796064800,4.582064697265625,-1.0271453857421875,0.0190887451171875,-0.1224517822265625
1775721925806079000,4.592078857421875,-1.02789306640625,-0.0169830322265625,-0.0865020751953125
1775721925816091600,4.602091552734375,-1.07171630859375,-0.0214691162109375,-0.0934906005859375
1775721925826105900,4.61210595703125,-1.105621337890625,-0.0189208984375,-0.099029541015625
1775721925836119000,4.622119140625,-1.1048431396484375,-0.04669189453125,-0.081451416015625
1775721925846132700,4.6321328125,-1.060943603515625,-0.039642333984375,-0.07275390625
1775721925856146000,4.64214599609375,-1.0320587158203125,-0.057708740234375,-0.06475830078125
1775721925866158800,4.652158935546875,-1.0310516357421875,-0.0784759521484375,-0.060699462890625
1775721925876172800,4.6621728515625,-1.0507354736328125,-0.09033203125,-0.0750732421875
1775721925886186000,4.67218603515625,-1.0368804931640625,-0.1020660400390625,-0.08624267578125
1775721925896199700,4.68219970703125,-1.0053558349609375,-0.0997772216796875,-0.0789031982421875
1775721925906212900,4.692212890625,-1.008636474609375,-0.0913543701171875,-0.079864501953125
1775721925916226800,4.702226806640625,-1.0377197265625,-0.0682525634765625,-0.083831787109375
1775721925926239700,4.71223974609375,-1.1218109130859375,-0.04345703125,-0.07159423828125
1775721925936253700,4.722253662109375,-1.1818695068359375,-0.0423583984375,-0.02203369140625
1775721925946267000,4.732266845703125,-1.19964599609375,-0.0086212158203125,0.0101165771484375
1775721925956280800,4.74228076171875,-1.2037353515625,0.03948974609375,-0.006378173828125
1775721925966293800,4.752293701171875,-1.1656951904296875,-0.1447296142578125,0.1191558837890625
1775721925976307000,4.762306884765625,-1.0937652587890625,-0.11456298828125,0.08453369140625
1775721925986320600,4.772320556640625,-1.04473876953125,-0.104217529296875,0.004180908203125
1775721925996333800,4.782333740234375,-1.027313232421875,-0.1039886474609375,-0.0491943359375
1775721926006347800,4.79234765625,-0.9915008544921875,-0.1160888671875,-0.0609283447265625
1775721926016360700,4.802360595703125,-0.9436492919921875,-0.1687164306640625,-0.0489501953125
1775721926026375000,4.812375,-0.92413330078125,-0.10174560546875,-0.0985107421875
1775721926036387800,4.822387939453125,-0.907745361328125,-0.0879364013671875,-0.1101531982421875
1775721926046401800,4.83240185546875,-0.916748046875,-0.0618743896484375,-0.1115264892578125
1775721926056414700,4.842414794921875,-0.9764556884765625,-0.0282745361328125,-0.10821533203125
1775721926066429000,4.852428955078125,-1.0543212890625,0.0046539306640625,-0.111785888671875
1775721926076441900,4.86244189453125,-1.107086181640625,0.0160675048828125,-0.1134033203125
1775721926086454800,4.872454833984375,-1.09161376953125,0.0136566162109375,-0.1104278564453125
1775721926096469000,4.882468994140625,-1.02081298828125,-0.00396728515625,-0.1045074462890625
1775721926106481700,4.892481689453125,-0.926605224609375,-0.030364990234375,-0.0868377685546875
1775721926116496000,4.902495849609375,-0.8521270751953125,-0.0435638427734375,-0.074737548828125
1775721926126508800,4.9125087890625,-0.83514404296875,-0.040374755859375,-0.0814666748046875
1775721926136522800,4.922522705078125,-0.87554931640625,-0.0275115966796875,-0.0948486328125
1775721926146536000,4.932535888671875,-0.93634033203125,-0.0004425048828125,-0.107269287109375
1775721926156550000,4.9425498046875,-0.9690093994140625,0.01409912109375,-0.10528564453125
1775721926166562800,4.952562744140625,-0.9640045166015625,0.0166168212890625,-0.0931549072265625
1775721926176576000,4.962575927734375,-0.9353485107421875,0.031768798828125,-0.09600830078125
1775721926186589700,4.972589599609375,-0.9242401123046875,0.0347900390625,-0.1022491455078125
1775721926196603000,4.982602783203125,-0.94110107421875,0.026763916015625,-0.1033782958984375
1775721926206616800,4.992616943359375,-0.948486328125,0.016815185546875,-0.091522216796875
1775721926216629800,5.002629638671875,-0.9522857666015625,0.017181396484375,-0.081939697265625
1775721926226643700,5.012643798828125,-0.952178955078125,0.01165771484375,-0.0728912353515625
1775721926236657000,5.022656982421875,-0.95001220703125,0.006439208984375,-0.059356689453125
1775721926246670800,5.0326708984375,-0.9522705078125,-0.0098876953125,-0.0440521240234375
1775721926256683800,5.042683837890625,-0.9414520263671875,-0.0091705322265625,-0.0415802001953125
1775721926266697000,5.052697021484375,-0.937255859375,-0.008026123046875,-0.0389556884765625
1775721926276710700,5.062710693359375,-0.9574432373046875,-0.0005645751953125,-0.04345703125
1775721926286723800,5.072723876953125,-0.99359130859375,-0.0081634521484375,-0.0445098876953125
1775721926296737800,5.08273779296875,-1.0224761962890625,-0.016845703125,-0.0423736572265625
1775721926306750700,5.092750732421875,-1.033538818359375,-0.03094482421875,-0.0453643798828125
1775721926316765000,5.102764892578125,-1.0303955078125,-0.0490570068359375,-0.05108642578125
1775721926326777900,5.11277783203125,-1.0095672607421875,-0.065948486328125,-0.050933837890625
1775721926336791800,5.122791748046875,-1.006439208984375,-0.0791473388671875,-0.05291748046875
1775721926346804700,5.1328046875,-0.99066162109375,-0.08197021484375,-0.05352783203125
1775721926356819000,5.14281884765625,-0.961334228515625,-0.087982177734375,-0.035858154296875
1775721926366831900,5.152831787109375,-0.9389190673828125,-0.0566558837890625,-0.04022216796875
1775721926376844800,5.1628447265625,-0.9501190185546875,-0.034576416015625,-0.0579681396484375
1775721926386858800,5.172858642578125,-0.93402099609375,-0.169921875,0.033111572265625
1775721926396871700,5.18287158203125,-0.91864013671875,-0.0640869140625,-0.0190582275390625
1775721926406886000,5.192885986328125,-0.945648193359375,-0.0215911865234375,-0.046783447265625
1775721926416898800,5.20289892578125,-0.9881439208984375,-0.0143280029296875,-0.0163421630859375
1775721926426912800,5.212912841796875,-1.02557373046875,0.0082855224609375,0.0107574462890625
1775721926436926000,5.222926025390625,-1.075775146484375,0.0134429931640625,0.0366973876953125
1775721926446939600,5.232939697265625,-1.1019744873046875,0.0155029296875,0.04522705078125
1775721926456952800,5.242952880859375,-1.1094818115234375,0.027740478515625,0.03399658203125
1775721926466966000,5.252966064453125,-1.07635498046875,0.0356903076171875,0.0159454345703125
1775721926476979700,5.262979736328125,-1.0136260986328125,0.0352325439453125,-0.00067138671875
1775721926486993000,5.272992919921875,-0.97509765625,0.0483856201171875,-0.02557373046875
1775721926497006800,5.2830068359375,-0.949981689453125,0.0560302734375,-0.0502777099609375
1775721926507019800,5.293019775390625,-0.9286346435546875,0.06951904296875,-0.058746337890625
1775721926517033700,5.30303369140625,-0.9315643310546875,0.088897705078125,-0.05072021484375
1775721926527047000,5.313046875,-0.9756011962890625,0.091461181640625,-0.0366973876953125
1775721926537060900,5.323060791015625,-1.0373382568359375,0.1014862060546875,-0.0352630615234375
1775721926547073800,5.33307373046875,-1.0949554443359375,0.1056671142578125,-0.039947509765625
1775721926557086700,5.343086669921875,-1.1345062255859375,0.091461181640625,-0.0287933349609375
1775721926567100700,5.3531005859375,-1.1513519287109375,0.070953369140625,-0.015869140625
1775721926577113900,5.36311376953125,-1.1689300537109375,0.056243896484375,-0.01513671875
1775721926587127800,5.3731279296875,-1.1708526611328125,0.0519866943359375,-0.0197601318359375
1775721926597140700,5.383140625,-1.148406982421875,0.046966552734375,-0.01458740234375
1775721926607155000,5.393155029296875,-1.1513519287109375,0.0420684814453125,-0.013336181640625
1775721926617167600,5.403167724609375,-1.15716552734375,0.0410308837890625,-0.013153076171875
1775721926627181800,5.413181884765625,-1.16705322265625,0.0332183837890625,0.002655029296875
1775721926637194800,5.42319482421875,-1.1779937744140625,0.0147857666015625,0.0175323486328125
1775721926647207700,5.433207763671875,-1.183563232421875,0.004180908203125,0.030517578125
1775721926657222000,5.443221923828125,-1.162353515625,-0.003143310546875,0.0443267822265625
1775721926667234800,5.45323486328125,-1.1413116455078125,-0.0067901611328125,0.0557861328125
1775721926677248800,5.463248779296875,-1.1313629150390625,-0.0183868408203125,0.077301025390625
1775721926687261700,5.47326171875,-1.129852294921875,-0.029541015625,0.0996246337890625
1775721926697276000,5.48327587890625,-1.1252899169921875,-0.033966064453125,0.11798095703125
1775721926707288800,5.493288818359375,-1.119110107421875,-0.038970947265625,0.1314544677734375
1775721926717302800,5.503302734375,-1.122802734375,-0.042022705078125,0.1249542236328125
1775721926727316000,5.51331591796875,-1.1350555419921875,-0.0337982177734375,0.111297607421875
1775721926737328600,5.52332861328125,-1.13201904296875,-0.0252227783203125,0.1009674072265625
1775721926747342800,5.5333427734375,-1.110992431640625,-0.0143280029296875,0.0933837890625
1775721926757356000,5.54335595703125,-1.0787353515625,-0.0135955810546875,0.0813140869140625
1775721926767369700,5.55336962890625,-1.043121337890625,-0.0066986083984375,0.061859130859375
1775721926777383000,5.5633828125,-1.017791748046875,-0.0015411376953125,0.04827880859375
1775721926787396900,5.57339697265625,-1.00323486328125,-0.0003662109375,0.0394439697265625
1775721926797409800,5.583409912109375,-1.00054931640625,0.0057525634765625,0.028228759765625
1775721926807423700,5.593423828125,-0.994140625,0.01812744140625,0.0091094970703125
1775721926817437000,5.60343701171875,-0.9835357666015625,0.031982421875,-0.0075531005859375
1775721926827449900,5.613449951171875,-0.9743804931640625,0.0461578369140625,-0.0279388427734375
1775721926837463800,5.6234638671875,-0.979644775390625,0.061981201171875,-0.03912353515625
1775721926847476700,5.633476806640625,-0.98333740234375,0.07049560546875,-0.03631591796875
1775721926857490700,5.64349072265625,-0.973663330078125,0.0772705078125,-0.025360107421875
1775721926867503900,5.65350390625,-0.959930419921875,0.0841064453125,-0.013427734375
1775721926877517800,5.663517822265625,-0.960418701171875,0.089630126953125,-0.0047607421875
1775721926887530800,5.67353076171875,-0.965576171875,0.0924530029296875,-0.010284423828125
1775721926897545000,5.683544921875,-0.972381591796875,0.093231201171875,-0.0101776123046875
1775721926907557600,5.6935576171875,-0.9744415283203125,0.0928497314453125,-0.0115814208984375
1775721926917570800,5.70357080078125,-0.978179931640625,0.0914306640625,-0.022186279296875
1775721926927584800,5.713584716796875,-0.9696044921875,0.0928192138671875,-0.0236968994140625
1775721926937597700,5.72359765625,-0.9541778564453125,0.08489990234375,-0.019500732421875
1775721926947612000,5.73361181640625,-0.9621429443359375,0.077667236328125,-0.01702880859375
1775721926957624800,5.743624755859375,-0.9816131591796875,0.078369140625,-0.021514892578125
1775721926967638800,5.753638671875,-0.9964447021484375,0.080291748046875,-0.027801513671875
1775721926977651700,5.763651611328125,-0.9900665283203125,0.070953369140625,-0.02996826171875
1775721926987666000,5.773666015625,-0.985565185546875,0.0629119873046875,-0.033233642578125
1775721926997678800,5.783678955078125,-0.985595703125,0.0559234619140625,-0.0396575927734375
1775721927007691800,5.79369189453125,-0.992462158203125,0.0535888671875,-0.03875732421875
1775721927017706000,5.8037060546875,-1.0010223388671875,0.04193115234375,-0.0286865234375
1775721927027718700,5.81371875,-0.9989013671875,0.0316009521484375,-0.013885498046875
1775721927037732900,5.82373291015625,-0.9891510009765625,0.0269012451171875,0.00030517578125
1775721927047745800,5.833745849609375,-0.990509033203125,0.0230255126953125,0.0184783935546875
1775721927057759700,5.843759765625,-1.0089263916015625,0.0201416015625,0.0356903076171875
1775721927067773000,5.85377294921875,-1.0328521728515625,0.0237579345703125,0.0503082275390625
1775721927077787000,5.863786865234375,-1.03192138671875,0.023712158203125,0.07183837890625
1775721927087799800,5.8737998046875,-1.031707763671875,0.0188140869140625,0.089202880859375
1775721927097813000,5.88381298828125,-1.0406494140625,0.02008056640625,0.086273193359375
1775721927107826700,5.89382666015625,-1.05267333984375,0.0280303955078125,0.0771331787109375
1775721927117840000,5.90383984375,-1.06304931640625,0.027374267578125,0.0728912353515625
1775721927127853800,5.913853759765625,-1.065673828125,0.028411865234375,0.0699615478515625
1775721927137866800,5.92386669921875,-1.069488525390625,0.0262603759765625,0.0646209716796875
1775721927147880700,5.933880615234375,-1.074920654296875,0.029296875,0.0499420166015625
1775721927157894000,5.943893798828125,-1.0719451904296875,0.04010009765625,0.037078857421875
1775721927167907800,5.953907958984375,-1.0703887939453125,0.04693603515625,0.02960205078125
1775721927177920800,5.963920654296875,-1.076812744140625,0.0495147705078125,0.0176544189453125
1775721927187934000,5.973933837890625,-1.084259033203125,0.0534820556640625,0.0010833740234375
1775721927197947600,5.98394775390625,-1.080841064453125,0.0556640625,-0.0081787109375
1775721927207960800,5.9939609375,-1.0708770751953125,0.0519256591796875,-0.012786865234375
1775721927217974800,6.003974853515625,-1.0590667724609375,0.0550079345703125,-0.0167388916015625
1775721927227987700,6.01398779296875,-1.0677032470703125,0.061492919921875,-0.0108795166015625
1775721927238002000,6.024001953125,-1.091796875,0.0717315673828125,-0.0055389404296875
1775721927248014800,6.034014892578125,-1.1185150146484375,0.07373046875,-0.000274658203125
1775721927258027800,6.04402783203125,-1.134185791015625,0.072967529296875,0.0041046142578125
1775721927268041700,6.054041748046875,-1.1250762939453125,0.069549560546875,0.00103759765625
1775721927278054700,6.0640546875,-1.104339599609375,0.063018798828125,-0.00311279296875
1775721927288068900,6.07406884765625,-1.0889892578125,0.053985595703125,-0.0039825439453125
1775721927298081800,6.084081787109375,-1.0954437255859375,0.04034423828125,-0.000946044921875
1775721927308096000,6.094095947265625,-1.1129150390625,0.0269775390625,0.000396728515625
1775721927318108700,6.104108642578125,-1.14569091796875,0.0136871337890625,-0.0026702880859375
1775721927328123000,6.114122802734375,-1.1841583251953125,0.005523681640625,-0.013153076171875
1775721927338135800,6.1241357421875,-1.20452880859375,-0.0008087158203125,-0.0166473388671875
1775721927348148700,6.134148681640625,-1.2027130126953125,-0.0028839111328125,-0.0167694091796875
1775721927358163000,6.144162841796875,-1.1930389404296875,0.0026092529296875,-0.024810791015625
1775721927368175900,6.15417578125,-1.1663055419921875,0.0172119140625,-0.0326690673828125
1775721927378189800,6.16418994140625,-1.1344757080078125,0.0294647216796875,-0.021240234375
1775721927388203000,6.174203125,-1.1078643798828125,0.0342864990234375,-0.00201416015625
1775721927398216700,6.184216796875,-1.0766448974609375,0.0363616943359375,0.0265960693359375
1775721927408230000,6.19422998046875,-1.05218505859375,0.03192138671875,0.047698974609375
1775721927418243800,6.204243896484375,-1.025238037109375,0.02728271484375,0.0623626708984375
1775721927428256800,6.2142568359375,-1.0090179443359375,0.014617919921875,0.08502197265625
1775721927438270000,6.22427001953125,-1.0095977783203125,0.004913330078125,0.0952911376953125
1775721927448284000,6.234283935546875,-1.018310546875,0.0025634765625,0.1065673828125
1775721927458296800,6.244296875,-1.0396270751953125,-0.0000152587890625,0.1065521240234375
1775721927468310800,6.254310791015625,-1.0601348876953125,-0.0033111572265625,0.105987548828125
1775721927478324000,6.264323974609375,-1.0757904052734375,-0.0140533447265625,0.0977783203125
1775721927488337700,6.274337646484375,-1.0715789794921875,-0.0159912109375,0.0827178955078125
1775721927498350800,6.284350830078125,-1.0528717041015625,-0.0125579833984375,0.063873291015625
1775721927508363800,6.29436376953125,-1.030609130859375,-0.0086669921875,0.036346435546875
1775721927518377700,6.304377685546875,-1.0045013427734375,-0.0035247802734375,0.0115203857421875
1775721927528391000,6.314390869140625,-0.9892120361328125,-0.0082550048828125,0.000274658203125
1775721927538404600,6.324404541015625,-0.976104736328125,-0.00164794921875,-0.01458740234375
1775721927548417800,6.334417724609375,-0.982757568359375,0.015655517578125,-0.0355682373046875
1775721927558431700,6.344431640625,-0.9875640869140625,0.01849365234375,-0.05255126953125
1775721927568444700,6.354444580078125,-0.9960784912109375,0.03118896484375,-0.0631103515625
1775721927578459000,6.364458984375,-0.9977874755859375,0.0396728515625,-0.0686492919921875
1775721927588471800,6.374471923828125,-0.9845428466796875,0.0309600830078125,-0.059906005859375
1775721927598484700,6.384484619140625,-0.9944000244140625,0.0261688232421875,-0.046295166015625
1775721927608498700,6.394498779296875,-1.0169525146484375,0.005889892578125,-0.0277099609375
1775721927618512000,6.404511962890625,-1.0244598388671875,-0.0056304931640625,-0.0137481689453125
1775721927628525800,6.41452587890625,-1.0056304931640625,-0.0113372802734375,-0.007598876953125
1775721927638538800,6.424538818359375,-0.976959228515625,-0.027496337890625,0.010040283203125
1775721927648553000,6.434552978515625,-0.9595947265625,-0.0427398681640625,0.0294647216796875
1775721927658565600,6.444565673828125,-0.955657958984375,-0.0463714599609375,0.042266845703125
1775721927668578800,6.454578857421875,-0.9641876220703125,-0.054779052734375,0.0487518310546875
1775721927678593000,6.464593017578125,-1.0020599365234375,-0.05340576171875,0.0394744873046875
1775721927688605700,6.474605712890625,-1.046417236328125,-0.046661376953125,0.0296783447265625
1775721927698620000,6.484619873046875,-1.075897216796875,-0.0479736328125,0.031768798828125
1775721927708632800,6.4946328125,-1.0848846435546875,-0.056732177734375,0.037261962890625
1775721927718646800,6.504646728515625,-1.08892822265625,-0.0710906982421875,0.031707763671875
1775721927728660000,6.514659912109375,-1.0828399658203125,-0.08154296875,0.011016845703125
1775721927738674400,6.52467431640625,-1.0660247802734375,-0.09686279296875,-0.014862060546875
1775721927748687600,6.5346875,-1.0392913818359375,-0.111083984375,-0.0411224365234375
1775721927758700300,6.5447001953125,-1.0032196044921875,-0.1121673583984375,-0.062530517578125
1775721927768714500,6.554714599609375,-0.9772491455078125,-0.1132965087890625,-0.0716705322265625
1775721927778727200,6.56472705078125,-0.9685516357421875,-0.119232177734375,-0.0832366943359375
1775721927788741400,6.574741455078125,-0.9684906005859375,-0.118743896484375,-0.103179931640625
1775721927798754600,6.584754638671875,-0.9630126953125,-0.1240234375,-0.1202850341796875
1775721927808768500,6.5947685546875,-0.9574127197265625,-0.141571044921875,-0.1296539306640625
1775721927818781400,6.604781494140625,-0.9738922119140625,-0.1301116943359375,-0.1464385986328125
1775721927828794400,6.61479443359375,-0.9790496826171875,-0.1223907470703125,-0.150115966796875
1775721927838808300,6.624808349609375,-0.9711151123046875,-0.1478118896484375,-0.1297760009765625
1775721927848821500,6.634821533203125,-0.9592742919921875,-0.1654205322265625,-0.1138916015625
1775721927858835500,6.64483544921875,-0.94854736328125,-0.1695709228515625,-0.1132049560546875
1775721927868848400,6.654848388671875,-0.9239959716796875,-0.170013427734375,-0.1106109619140625
1775721927878862300,6.6648623046875,-0.9001312255859375,-0.1749725341796875,-0.0965576171875
1775721927888875500,6.67487548828125,-0.8907318115234375,-0.1789703369140625,-0.077911376953125
1775721927898889200,6.68488916015625,-0.8873443603515625,-0.175872802734375,-0.071319580078125
1775721927908902400,6.69490234375,-0.900726318359375,-0.163421630859375,-0.0782318115234375
1775721927918915600,6.70491552734375,-0.92041015625,-0.1411590576171875,-0.08367919921875
1775721927928929300,6.71492919921875,-0.9348602294921875,-0.117401123046875,-0.0894927978515625
1775721927938942500,6.7249423828125,-0.9471893310546875,-0.0938873291015625,-0.100341796875
1775721927948956400,6.734956298828125,-0.9327545166015625,-0.0842132568359375,-0.1100616455078125
1775721927958969300,6.74496923828125,-0.9143218994140625,-0.1022491455078125,-0.1033935546875
1775721927968983300,6.7549833984375,-0.888671875,-0.1379547119140625,-0.0874176025390625
1775721927978996500,6.76499658203125,-0.8700408935546875,-0.1683807373046875,-0.0797576904296875
1775721927989009400,6.775009521484375,-0.8697662353515625,-0.1888427734375,-0.0716705322265625
1775721927999023400,6.7850234375,-0.8699493408203125,-0.1918182373046875,-0.0693359375
1775721928009036300,6.795036376953125,-0.869659423828125,-0.190277099609375,-0.055419921875
1775721928019050200,6.80505029296875,-0.8812103271484375,-0.19158935546875,-0.0404815673828125
1775721928029063400,6.8150634765625,-0.9060821533203125,-0.1752471923828125,-0.035797119140625
1775721928039077600,6.82507763671875,-0.9343109130859375,-0.15606689453125,-0.0264129638671875
1775721928049090300,6.83509033203125,-0.961761474609375,-0.1427154541015625,-0.008941650390625
1775721928059103500,6.845103515625,-0.982513427734375,-0.1251220703125,-0.003692626953125
1775721928069117200,6.8551171875,-0.999053955078125,-0.1117706298828125,-0.0047149658203125
1775721928079130400,6.86513037109375,-1.03076171875,-0.1070556640625,-0.0061492919921875
1775721928089144600,6.87514453125,-1.0376739501953125,-0.1302642822265625,0.013214111328125
1775721928099157200,6.8851572265625,-1.0577545166015625,-0.1220245361328125,0.0200653076171875
1775721928109171500,6.89517138671875,-1.073089599609375,-0.13482666015625,0.025726318359375
1775721928119184400,6.905184326171875,-1.07745361328125,-0.1670074462890625,0.0623016357421875
1775721928129198300,6.9151982421875,-1.0814971923828125,-0.202728271484375,0.1012420654296875
1775721928139211500,6.92521142578125,-1.139373779296875,-0.2167816162109375,0.10400390625
1775721928149224400,6.935224365234375,-1.17047119140625,-0.217254638671875,0.08380126953125
1775721928159238400,6.94523828125,-1.2008209228515625,-0.201019287109375,0.0855865478515625
1775721928169251300,6.955251220703125,-1.226043701171875,-0.17169189453125,0.0384979248046875
1775721928179265500,6.965265625,-1.20623779296875,-0.18487548828125,-0.0196533203125
1775721928189278500,6.975278564453125,-1.131866455078125,-0.251312255859375,-0.040191650390625
1775721928199292400,6.98529248046875,-1.0372772216796875,-0.358734130859375,-0.03094482421875
1775721928209305300,6.995305419921875,-0.952392578125,-0.4234619140625,-0.0465240478515625
1775721928219318300,7.005318359375,-0.8603515625,-0.4306640625,-0.079986572265625
1775721928229332500,7.01533251953125,-0.82525634765625,-0.4140777587890625,-0.102386474609375
1775721928239345400,7.025345458984375,-0.848785400390625,-0.357635498046875,-0.1466827392578125
1775721928249359400,7.035359375,-0.850982666015625,-0.302886962890625,-0.1721038818359375
1775721928259372500,7.04537255859375,-0.83148193359375,-0.2740478515625,-0.182281494140625
1775721928269386200,7.05538623046875,-0.7819976806640625,-0.289764404296875,-0.1655731201171875
1775721928279399400,7.0653994140625,-0.6889801025390625,-0.3368682861328125,-0.13690185546875
1775721928289412600,7.07541259765625,-0.6031951904296875,-0.371337890625,-0.1251678466796875
1775721928299426300,7.08542626953125,-0.5380096435546875,-0.370697021484375,-0.1197662353515625
1775721928309439500,7.095439453125,-0.4817657470703125,-0.3614501953125,-0.1041259765625
1775721928319453400,7.105453369140625,-0.4649200439453125,-0.3312530517578125,-0.0918426513671875
1775721928329466400,7.11546630859375,-0.4975738525390625,-0.290740966796875,-0.078125
1775721928339480300,7.125480224609375,-0.5650177001953125,-0.2612457275390625,-0.0745086669921875
1775721928349493500,7.135493408203125,-0.63482666015625,-0.2275543212890625,-0.0850067138671875
1775721928359506400,7.14550634765625,-0.68389892578125,-0.1982879638671875,-0.08660888671875
1775721928369520400,7.155520263671875,-0.71905517578125,-0.202789306640625,-0.063934326171875
1775721928379533300,7.165533203125,-0.7457122802734375,-0.2211761474609375,-0.0269012451171875
1775721928389547300,7.17554736328125,-0.7694244384765625,-0.240447998046875,0.0074615478515625
1775721928399560400,7.185560546875,-0.80426025390625,-0.2513580322265625,0.0331573486328125
1775721928409574400,7.195574462890625,-0.8335418701171875,-0.2526092529296875,0.06170654296875
1775721928419587300,7.20558740234375,-0.8849029541015625,-0.2490692138671875,0.0822296142578125
1775721928429600500,7.2156005859375,-0.9492645263671875,-0.2501373291015625,0.0985565185546875
1775721928439614200,7.2256142578125,-1.00836181640625,-0.2540740966796875,0.1150970458984375
1775721928449627400,7.23562744140625,-1.039703369140625,-0.2666015625,0.13885498046875
1775721928459641300,7.245641357421875,-1.06292724609375,-0.2828521728515625,0.1486053466796875
1775721928469654300,7.255654296875,-1.07562255859375,-0.283477783203125,0.1304168701171875
1775721928479668500,7.26566845703125,-1.072235107421875,-0.2861480712890625,0.1004486083984375
1775721928489681400,7.275681396484375,-1.070831298828125,-0.2987518310546875,0.07574462890625
1775721928499695400,7.2856953125,-1.0563812255859375,-0.3050537109375,0.0572357177734375
1775721928509708300,7.295708251953125,-1.0455322265625,-0.313262939453125,0.033172607421875
1775721928519721500,7.305721435546875,-1.0357666015625,-0.3169403076171875,0.0001983642578125
1775721928529735400,7.3157353515625,-1.021636962890625,-0.3171844482421875,-0.0320892333984375
1775721928539748400,7.325748291015625,-1.013946533203125,-0.315399169921875,-0.070159912109375
1775721928549762600,7.335762451171875,-0.99383544921875,-0.31854248046875,-0.094329833984375
1775721928559775200,7.345775146484375,-0.972259521484375,-0.3265533447265625,-0.107025146484375
1775721928569789400,7.35578955078125,-0.9507598876953125,-0.32843017578125,-0.1146392822265625
1775721928579802600,7.365802734375,-0.9329833984375,-0.33148193359375,-0.104644775390625
1775721928589815300,7.375815185546875,-0.939361572265625,-0.339813232421875,-0.0951385498046875
1775721928599829500,7.38582958984375,-0.96002197265625,-0.3393707275390625,-0.0985260009765625
1775721928609842200,7.39584228515625,-0.9727935791015625,-0.324371337890625,-0.10809326171875
1775721928619856400,7.4058564453125,-0.959686279296875,-0.316864013671875,-0.099578857421875
1775721928629869600,7.41586962890625,-0.9574432373046875,-0.3218841552734375,-0.0865936279296875
1775721928639883500,7.425883544921875,-0.9584197998046875,-0.32269287109375,-0.0778350830078125
1775721928649896400,7.435896484375,-0.9561920166015625,-0.31402587890625,-0.066162109375
1775721928659909400,7.445909423828125,-0.945556640625,-0.297698974609375,-0.0498809814453125
1775721928669923300,7.45592333984375,-0.945892333984375,-0.2848968505859375,-0.0312957763671875
1775721928679936500,7.4659365234375,-0.9643402099609375,-0.282684326171875,-0.0160675048828125
1775721928689950500,7.475950439453125,-0.9614410400390625,-0.28509521484375,-0.0086669921875
1775721928699963400,7.48596337890625,-0.9497833251953125,-0.28326416015625,-0.0081787109375
1775721928709977300,7.495977294921875,-0.9328155517578125,-0.2797393798828125,-0.0186309814453125
1775721928719990500,7.505990478515625,-0.9102020263671875,-0.2665863037109375,-0.02130126953125
1775721928730003500,7.51600341796875,-0.8934478759765625,-0.255401611328125,-0.023193359375
1775721928740017200,7.52601708984375,-0.8836822509765625,-0.2447509765625,-0.0195770263671875
1775721928750030300,7.5360302734375,-0.89093017578125,-0.2398529052734375,-0.0081939697265625
1775721928760044000,7.5460439453125,-0.8906097412109375,-0.2493896484375,0.0046539306640625
1775721928770057200,7.55605712890625,-0.8922119140625,-0.2676544189453125,0.0181884765625
1775721928780071200,7.5660712890625,-0.8923492431640625,-0.286834716796875,0.0242919921875
1775721928790084000,7.576083984375,-0.88641357421875,-0.2986297607421875,0.028472900390625
1775721928800097300,7.58609716796875,-0.876312255859375,-0.2960357666015625,0.028045654296875
1775721928810111200,7.596111328125,-0.8695068359375,-0.298675537109375,0.0311737060546875
1775721928820124200,7.606124267578125,-0.8641815185546875,-0.3159942626953125,0.0346527099609375
1775721928830138000,7.61613818359375,-0.857421875,-0.3254547119140625,0.0354766845703125
1775721928840151300,7.6261513671875,-0.8502960205078125,-0.3271942138671875,0.0297698974609375
1775721928850165200,7.636165283203125,-0.825897216796875,-0.327972412109375,0.0381622314453125
1775721928860178200,7.64617822265625,-0.8051605224609375,-0.3255767822265625,0.051300048828125
1775721928870191000,7.656191162109375,-0.794525146484375,-0.320587158203125,0.062042236328125
1775721928880205000,7.666205078125,-0.7813568115234375,-0.3047637939453125,0.06732177734375
1775721928890218200,7.67621826171875,-0.7771453857421875,-0.28472900390625,0.064483642578125
1775721928900232200,7.686232177734375,-0.7865142822265625,-0.27008056640625,0.0507965087890625
1775721928910245000,7.6962451171875,-0.792144775390625,-0.257965087890625,0.0416717529296875
1775721928920259300,7.70625927734375,-0.8047027587890625,-0.2651824951171875,0.0421142578125
1775721928930272000,7.71627197265625,-0.830352783203125,-0.279022216796875,0.030120849609375
1775721928940285200,7.72628515625,-0.86505126953125,-0.274810791015625,-0.0026397705078125
1775721928950299100,7.736299072265625,-0.8845062255859375,-0.261077880859375,-0.0294342041015625
1775721928960312000,7.74631201171875,-0.89990234375,-0.2404022216796875,-0.0583038330078125
1775721928970326300,7.756326171875,-0.927520751953125,-0.2152557373046875,-0.0829315185546875
1775721928980339200,7.766339111328125,-0.968109130859375,-0.19744873046875,-0.0941009521484375
1775721928990353200,7.776353271484375,-1.0185546875,-0.182708740234375,-0.104400634765625
1775721929000366300,7.786366455078125,-1.0491790771484375,-0.186981201171875,-0.09051513671875
1775721929010379000,7.79637890625,-1.06219482421875,-0.206878662109375,-0.061248779296875
1775721929020393200,7.806393310546875,-1.0649566650390625,-0.23175048828125,-0.03863525390625
1775721929030406100,7.81640625,-1.0541534423828125,-0.238739013671875,-0.0140380859375
1775721929040420400,7.82642041015625,-1.0408935546875,-0.2531890869140625,0.0047760009765625
1775721929050433300,7.836433349609375,-1.0430145263671875,-0.247283935546875,0.0089111328125
1775721929060447200,7.846447265625,-1.0511474609375,-0.2295684814453125,0.0345306396484375
1775721929070460200,7.856460205078125,-1.0770111083984375,-0.2237091064453125,0.05548095703125
1775721929080473000,7.86647314453125,-1.098480224609375,-0.1923675537109375,0.024993896484375
1775721929090487300,7.8764873046875,-1.0922393798828125,-0.154144287109375,0.0030975341796875
1775721929100500200,7.886500244140625,-1.0789031982421875,-0.1759490966796875,0.021240234375
1775721929110514200,7.89651416015625,-1.0715484619140625,-0.2054595947265625,-0.00146484375
1775721929120527400,7.90652734375,-1.0462646484375,-0.2136077880859375,-0.03204345703125
1775721929130541000,7.916541015625,-1.0060882568359375,-0.2349395751953125,-0.043060302734375
1775721929140554200,7.92655419921875,-0.9674835205078125,-0.2552337646484375,-0.0561676025390625
1775721929150567200,7.936567138671875,-0.9319000244140625,-0.246551513671875,-0.0711822509765625
1775721929160581000,7.9465810546875,-0.9080657958984375,-0.23443603515625,-0.090240478515625
1775721929170594300,7.95659423828125,-0.8886260986328125,-0.2183380126953125,-0.102203369140625
1775721929180608300,7.966608154296875,-0.891510009765625,-0.1989288330078125,-0.097564697265625
1775721929190621200,7.97662109375,-0.9013214111328125,-0.198638916015625,-0.068115234375
1775721929200635100,7.98663525390625,-0.9165802001953125,-0.2016448974609375,-0.0401153564453125
1775721929210648300,7.9966484375,-0.9117431640625,-0.2006988525390625,-0.0282135009765625
1775721929220661200,8.0066611328125,-0.8938446044921875,-0.206878662109375,-0.0273895263671875
1775721929230675200,8.01667529296875,-0.8789825439453125,-0.218109130859375,-0.0209197998046875
1775721929240688000,8.026688232421876,-0.8975830078125,-0.2086334228515625,-0.013031005859375
1775721929250702000,8.0367021484375,-0.923675537109375,-0.186126708984375,-0.00115966796875
1775721929260715300,8.04671533203125,-0.9606781005859375,-0.16656494140625,-0.0046539306640625
1775721929270728200,8.056728271484374,-0.9908599853515625,-0.129791259765625,-0.0232391357421875
1775721929280742100,8.0667421875,-0.988677978515625,-0.0987091064453125,-0.0034637451171875
1775721929290755300,8.07675537109375,-0.9674224853515625,-0.1023406982421875,0.044952392578125
1775721929300769000,8.08676904296875,-0.9479522705078125,-0.106597900390625,0.0901031494140625
1775721929310782200,8.0967822265625,-0.929412841796875,-0.117340087890625,0.1255340576171875
1775721929320796200,8.106796142578125,-0.9225921630859375,-0.13055419921875,0.1394500732421875
1775721929330809000,8.11680908203125,-0.92620849609375,-0.143035888671875,0.11444091796875
1775721929340822300,8.126822265625,-0.919769287109375,-0.1402587890625,0.077423095703125
1775721929350836200,8.136836181640625,-0.93829345703125,-0.123443603515625,0.042510986328125
1775721929360849200,8.14684912109375,-0.970794677734375,-0.1111907958984375,0.032684326171875
1775721929370863000,8.156863037109375,-1.00262451171875,-0.112579345703125,0.0234375
1775721929380876300,8.166876220703125,-1.045623779296875,-0.1126861572265625,-0.0046234130859375
1775721929390890200,8.17689013671875,-1.0549468994140625,-0.1214599609375,-0.027374267578125
1775721929400903200,8.186903076171875,-1.03033447265625,-0.1401214599609375,-0.0257720947265625
1775721929410916000,8.196916015625,-0.9834442138671875,-0.1647491455078125,-0.0142822265625
1775721929420930000,8.206929931640625,-0.9427642822265625,-0.1685028076171875,0.003326416015625
1775721929430943200,8.216943115234375,-0.935760498046875,-0.1708831787109375,0.0294342041015625
1775721929440957200,8.226957275390625,-0.9569549560546875,-0.1695556640625,0.05078125
1775721929450970000,8.23697021484375,-0.98431396484375,-0.156768798828125,0.0609893798828125
1775721929460984300,8.246984375,-1.012176513671875,-0.1371917724609375,0.05633544921875
1775721929470997000,8.2569970703125,-1.024505615234375,-0.120361328125,0.0520477294921875
1775721929481010200,8.26701025390625,-1.0294189453125,-0.1123199462890625,0.0673065185546875
1775721929491024100,8.277024169921875,-1.025238037109375,-0.11322021484375,0.0858001708984375
1775721929501037000,8.287037109375,-1.0229034423828125,-0.1159820556640625,0.097564697265625
1775721929511051300,8.29705126953125,-1.0164947509765625,-0.1057891845703125,0.1078643798828125
1775721929521064200,8.307064208984375,-1.00787353515625,-0.102264404296875,0.1230010986328125
1775721929531077000,8.3170771484375,-0.993316650390625,-0.104461669921875,0.1409149169921875
1775721929541091300,8.32709130859375,-0.9831695556640625,-0.1009674072265625,0.15142822265625
1775721929551104300,8.337104248046876,-0.9949798583984375,-0.0936737060546875,0.153472900390625
1775721929561118200,8.3471181640625,-1.013397216796875,-0.0847320556640625,0.141448974609375
1775721929571131100,8.357131103515625,-1.0288543701171875,-0.0859222412109375,0.1074066162109375
1775721929581145300,8.367145263671874,-1.028839111328125,-0.0833282470703125,0.0759429931640625
1775721929591158300,8.377158203125,-1.014984130859375,-0.0869598388671875,0.0476531982421875
1775721929601171200,8.387171142578126,-1.0041351318359375,-0.090057373046875,0.021453857421875
1775721929611185400,8.397185302734375,-1.002593994140625,-0.0902252197265625,0.0036468505859375
1775721929621198000,8.407197998046875,-0.9918060302734375,-0.0986480712890625,-0.002288818359375
1775721929631212300,8.41721240234375,-0.975341796875,-0.09417724609375,-0.0096588134765625
1775721929641225200,8.42722509765625,-0.9553985595703125,-0.0860137939453125,-0.0174102783203125
1775721929651239200,8.4372392578125,-0.9627532958984375,-0.0781097412109375,-0.0086212158203125
1775721929661252400,8.44725244140625,-0.9886932373046875,-0.0717315673828125,-0.0027923583984375
1775721929671265000,8.45726513671875,-1.0099029541015625,-0.0693359375,0.0029754638671875
1775721929681279200,8.467279296875,-1.0175933837890625,-0.0691986083984375,0.008697509765625
1775721929691292200,8.477292236328125,-1.0032806396484375,-0.0692138671875,0.01409912109375
1775721929701306000,8.48730615234375,-0.9872589111328125,-0.0592803955078125,0.0253753662109375
1775721929711319300,8.4973193359375,-0.98974609375,-0.053009033203125,0.0339508056640625
1775721929721332200,8.507332275390626,-0.9956817626953125,-0.0452423095703125,0.0444793701171875
1775721929731346200,8.51734619140625,-0.998382568359375,-0.0457611083984375,0.062225341796875
1775721929741359600,8.527359619140626,-0.996490478515625,-0.048858642578125,0.0750579833984375
1775721929751373800,8.537373779296875,-0.9966888427734375,-0.041839599609375,0.0684356689453125
1775721929761386800,8.54738671875,-0.9955902099609375,-0.036041259765625,0.0594482421875
1775721929771400700,8.557400634765624,-0.9947967529296875,-0.0431671142578125,0.0591278076171875
1775721929781413600,8.56741357421875,-0.9888153076171875,-0.04644775390625,0.0579833984375
1775721929791426600,8.577426513671876,-0.9818267822265625,-0.0443878173828125,0.0573577880859375
1775721929801440800,8.587440673828125,-1.007720947265625,-0.0458221435546875,0.0587615966796875
1775721929811453700,8.59745361328125,-1.03094482421875,-0.0458221435546875,0.0554962158203125
1775721929821467600,8.607467529296875,-1.025482177734375,-0.043548583984375,0.0630035400390625
1775721929831480800,8.617480712890625,-1.0023956298828125,-0.05279541015625,0.0837860107421875
1775721929841493500,8.627493408203126,-0.9674072265625,-0.0551910400390625,0.094482421875
1775721929851507700,8.6375078125,-0.956573486328125,-0.061370849609375,0.09234619140625
1775721929861520600,8.647520751953126,-0.96453857421875,-0.0763092041015625,0.0819244384765625
1775721929871534600,8.65753466796875,-0.965087890625,-0.07257080078125,0.0642852783203125
1775721929881547800,8.6675478515625,-0.9560089111328125,-0.065216064453125,0.055145263671875
1775721929891561700,8.677561767578124,-0.94183349609375,-0.0603485107421875,0.0523223876953125
1775721929901574700,8.68757470703125,-0.928619384765625,-0.0442657470703125,0.05035400390625
1775721929911587800,8.697587890625,-0.947235107421875,-0.0323486328125,0.0480804443359375
1775721929921601500,8.7076015625,-0.9773101806640625,-0.0231170654296875,0.03802490234375
1775721929931614700,8.71761474609375,-0.9936065673828125,-0.0061187744140625,0.0411529541015625
1775721929941628700,8.727628662109375,-0.990020751953125,0.0028533935546875,0.052459716796875
1775721929951641600,8.7376416015625,-0.982818603515625,0.0101470947265625,0.0579071044921875
1775721929961655600,8.747655517578124,-0.9816131591796875,0.0216827392578125,0.0547943115234375
1775721929971668700,8.757668701171875,-0.980743408203125,0.0388336181640625,0.04913330078125
1775721929981681700,8.767681640625,-0.9832000732421875,0.054473876953125,0.0601043701171875
1775721929991695600,8.777695556640625,-0.9985504150390625,0.061614990234375,0.0771026611328125
1775721930001708800,8.787708740234375,-1.0180511474609375,0.0735015869140625,0.089019775390625
1775721930011722500,8.797722412109374,-1.040771484375,0.08544921875,0.09381103515625
1775721930021735700,8.807735595703125,-1.0733489990234375,0.0881805419921875,0.0867767333984375
1775721930031748600,8.81774853515625,-1.0957489013671875,0.091796875,0.0722808837890625
1775721930041762600,8.827762451171875,-1.0959930419921875,0.089080810546875,0.0650787353515625
1775721930051775700,8.837775634765626,-1.0748748779296875,0.083251953125,0.0648956298828125
1775721930061789700,8.847789794921875,-1.0595550537109375,0.082275390625,0.0724029541015625
1775721930071802600,8.857802734375,-1.0824432373046875,0.0765838623046875,0.09429931640625
1775721930081816600,8.867816650390624,-1.121002197265625,0.0718536376953125,0.1119537353515625
1775721930091829500,8.87782958984375,-1.1341094970703125,0.0716400146484375,0.120086669921875
1775721930101842700,8.8878427734375,-1.122802734375,0.0698089599609375,0.1285400390625
1775721930111856600,8.897856689453125,-1.095550537109375,0.0726165771484375,0.1338958740234375
1775721930121869600,8.90786962890625,-1.083953857421875,0.080169677734375,0.140869140625
1775721930131883500,8.917883544921875,-1.1003570556640625,0.0731964111328125,0.1566162109375
1775721930141896700,8.927896728515625,-1.135986328125,0.07305908203125,0.163421630859375
1775721930151909600,8.93790966796875,-1.16015625,0.0709991455078125,0.1646881103515625
1775721930161923600,8.947923583984375,-1.15716552734375,0.0594024658203125,0.180023193359375
1775721930171936800,8.957936767578126,-1.1463623046875,0.039520263671875,0.189117431640625
1775721930181950500,8.967950439453125,-1.1441802978515625,0.02044677734375,0.1769866943359375
1775721930191963600,8.977963623046875,-1.1416473388671875,0.004302978515625,0.1588592529296875
1775721930201977900,8.987977783203124,-1.143280029296875,-0.0070343017578125,0.145477294921875
1775721930211990500,8.997990478515625,-1.1335906982421875,-0.0214080810546875,0.139495849609375
1775721930222003700,9.008003662109376,-1.115142822265625,-0.03204345703125,0.14080810546875
1775721930232017700,9.018017578125,-1.095977783203125,-0.0449981689453125,0.1496734619140625
1775721930242030600,9.028030517578125,-1.0844879150390625,-0.051422119140625,0.152984619140625
1775721930252044800,9.038044921875,-1.0831298828125,-0.048095703125,0.142333984375
1775721930262057500,9.048057373046875,-1.0806732177734375,-0.0386810302734375,0.121978759765625
1775721930272070700,9.058070556640626,-1.0780487060546875,-0.023895263671875,0.111846923828125
1775721930282084600,9.068084716796875,-1.0791168212890625,-0.0109405517578125,0.102294921875
1775721930292097500,9.07809765625,-1.07763671875,0.0093536376953125,0.084930419921875
1775721930302111700,9.08811181640625,-1.0582275390625,0.0211181640625,0.0788116455078125
1775721930312124700,9.098124755859375,-1.0410614013671875,0.0260162353515625,0.0726470947265625
1775721930322138600,9.108138671875,-1.0312652587890625,0.033203125,0.0557098388671875
1775721930332151600,9.118151611328125,-1.0268402099609375,0.0436248779296875,0.0355682373046875
1775721930342164700,9.128164794921876,-1.014984130859375,0.058807373046875,0.0159454345703125
1775721930352178700,9.1381787109375,-0.9921875,0.0677490234375,0.010009765625
1775721930362191600,9.148191650390626,-0.9718780517578125,0.07403564453125,0.0137939453125
1775721930372205800,9.158205810546875,-0.9618377685546875,0.07513427734375,0.016845703125
1775721930382218500,9.168218505859375,-0.96234130859375,0.0746002197265625,0.0079193115234375
1775721930392231700,9.178231689453124,-0.969573974609375,0.079132080078125,-0.0052032470703125
1775721930402245600,9.18824560546875,-0.9709930419921875,0.0817108154296875,-0.0138092041015625
1775721930412258600,9.198258544921876,-0.9675445556640625,0.080108642578125,-0.015289306640625
1775721930422272800,9.208272705078125,-0.9648590087890625,0.075439453125,-0.00579833984375
1775721930432285400,9.218285400390625,-0.97412109375,0.0743255615234375,-0.0009002685546875
1775721930442298600,9.228298583984374,-0.9766845703125,0.0803070068359375,-0.0005645751953125
1775721930452312800,9.238312744140625,-0.979583740234375,0.07958984375,0.00396728515625
1775721930462325500,9.248325439453126,-0.979522705078125,0.074432373046875,0.012298583984375
1775721930472339700,9.258339599609375,-0.966094970703125,0.0747222900390625,0.017059326171875
1775721930482352600,9.2683525390625,-0.9674530029296875,0.0783233642578125,0.0165557861328125
1775721930492366600,9.27836669921875,-0.9719085693359375,0.0728302001953125,0.027496337890625
1775721930502379800,9.2883798828125,-0.9761810302734375,0.0667572021484375,0.0380859375
1775721930512392700,9.298392822265624,-0.9833831787109375,0.0614471435546875,0.045806884765625
1775721930522406700,9.30840673828125,-0.9896392822265625,0.0522613525390625,0.04901123046875
1775721930532419600,9.318419677734376,-0.99072265625,0.0445709228515625,0.04827880859375
1775721930542433800,9.328433837890625,-0.9937744140625,0.04248046875,0.04949951171875
1775721930552446700,9.33844677734375,-1.0040435791015625,0.044647216796875,0.05126953125
1775721930562459600,9.348459716796874,-1.016845703125,0.0533905029296875,0.0531158447265625
1775721930572473900,9.358473876953125,-1.0303192138671875,0.0442352294921875,0.062286376953125
1775721930582486500,9.368486572265626,-1.032806396484375,0.0305023193359375,0.06671142578125
1775721930592500700,9.378500732421875,-1.024566650390625,0.0253753662109375,0.06298828125
1775721930602513700,9.388513671875,-1.000762939453125,0.020111083984375,0.0591888427734375
1775721930612527600,9.398527587890625,-0.978271484375,0.0194549560546875,0.0503692626953125
1775721930622540800,9.408540771484375,-0.9770355224609375,0.016815185546875,0.036865234375
1775721930632553500,9.418553466796874,-0.9849395751953125,0.0138397216796875,0.0329132080078125
1775721930642567700,9.428567626953125,-0.9855194091796875,0.00885009765625,0.03497314453125
1775721930652580900,9.438580810546876,-0.9880828857421875,0.00799560546875,0.035003662109375
1775721930662594600,9.448594482421875,-0.988189697265625,0.0142364501953125,0.0334625244140625
1775721930672607700,9.458607666015626,-0.989776611328125,0.0228271484375,0.0342864990234375
1775721930682620700,9.46862060546875,-0.9963226318359375,0.0272216796875,0.04046630859375
1775721930692634600,9.478634521484375,-1.0035858154296875,0.0286102294921875,0.049346923828125
1775721930702647800,9.488647705078124,-1.0087432861328125,0.030517578125,0.0555877685546875
1775721930712661800,9.498661865234375,-1.00775146484375,0.033355712890625,0.0567626953125
1775721930722674700,9.5086748046875,-1.0045318603515625,0.0343780517578125,0.054107666015625
1775721930732688600,9.518688720703125,-0.9986419677734375,0.03759765625,0.056488037109375
1775721930742701300,9.528701416015625,-0.9959716796875,0.040740966796875,0.054443359375
1775721930752714500,9.538714599609374,-0.999542236328125,0.0347747802734375,0.060272216796875
1775721930762728200,9.548728271484375,-1.010711669921875,0.02984619140625,0.060882568359375
1775721930772741400,9.558741455078126,-1.01690673828125,0.0290069580078125,0.0614166259765625
1775721930782755300,9.56875537109375,-1.0342559814453125,0.029052734375,0.06005859375
1775721930792768300,9.578768310546875,-1.055023193359375,0.030029296875,0.052093505859375
1775721930802781400,9.588781494140624,-1.0752105712890625,0.0309600830078125,0.0392913818359375
1775721930812795100,9.598795166015625,-1.0826416015625,0.03546142578125,0.027740478515625
1775721930822808300,9.608808349609374,-1.0915374755859375,0.0393829345703125,0.0171661376953125
1775721930832822300,9.618822265625,-1.089874267578125,0.044403076171875,0.00823974609375
1775721930842835200,9.628835205078126,-1.076080322265625,0.051239013671875,0.0081634521484375
1775721930852848400,9.638848388671875,-1.0507049560546875,0.05401611328125,0.012939453125
1775721930862862300,9.6488623046875,-1.033721923828125,0.047943115234375,0.0219879150390625
1775721930872875300,9.658875244140624,-1.031890869140625,0.04052734375,0.0249786376953125
1775721930882889200,9.66888916015625,-1.02392578125,0.0380401611328125,0.02813720703125
1775721930892902400,9.67890234375,-1.023040771484375,0.03607177734375,0.034332275390625
1775721930902915300,9.688915283203125,-1.0296173095703125,0.03643798828125,0.0369110107421875
1775721930912929300,9.69892919921875,-1.04974365234375,0.046478271484375,0.031646728515625
1775721930922942200,9.708942138671874,-1.082275390625,0.0524444580078125,0.0223541259765625
1775721930932956200,9.7189560546875,-1.0945587158203125,0.052215576171875,0.0192413330078125
1775721930942969300,9.72896923828125,-1.0814208984375,0.04791259765625,0.0277099609375
1775721930952983300,9.7389833984375,-1.052947998046875,0.0371246337890625,0.03515625
1775721930962996200,9.748996337890626,-1.035675048828125,0.037567138671875,0.0272674560546875
1775721930973009400,9.759009521484375,-1.033905029296875,0.03607177734375,0.0256500244140625
1775721930983023000,9.769023193359375,-1.050140380859375,0.030487060546875,0.0223388671875
1775721930993036300,9.779036376953124,-1.0514373779296875,0.030303955078125,0.0251312255859375
1775721931003050200,9.78905029296875,-1.0576629638671875,0.0323333740234375,0.0338592529296875
1775721931013063200,9.799063232421876,-1.069366455078125,0.030548095703125,0.0421600341796875
1775721931023076400,9.809076416015625,-1.076751708984375,0.03070068359375,0.0507049560546875
1775721931033090300,9.81909033203125,-1.0753631591796875,0.02862548828125,0.066680908203125
1775721931043103200,9.829103271484374,-1.0774993896484375,0.023773193359375,0.0714263916015625
1775721931053117200,9.8391171875,-1.075225830078125,0.0276641845703125,0.072235107421875
1775721931063130400,9.84913037109375,-1.0718994140625,0.022369384765625,0.0798492431640625
1775721931073143300,9.859143310546875,-1.0602874755859375,0.011260986328125,0.0923309326171875
1775721931083157200,9.8691572265625,-1.0464630126953125,0.00537109375,0.097625732421875
1775721931093170200,9.879170166015625,-1.03497314453125,0.0004119873046875,0.0958251953125
1775721931103184100,9.88918408203125,-1.0400543212890625,-0.0036468505859375,0.095489501953125
1775721931113197300,9.899197265625,-1.05615234375,-0.0082855224609375,0.097259521484375
1775721931123211300,9.909211181640625,-1.0681610107421875,-0.0087738037109375,0.1004180908203125
1775721931133224200,9.91922412109375,-1.070037841796875,-0.0118255615234375,0.1017303466796875
1775721931143237400,9.9292373046875,-1.0570526123046875,-0.00225830078125,0.1018524169921875
1775721931153251000,9.9392509765625,-1.0395050048828125,0.00360107421875,0.1056365966796875
1775721931163264300,9.94926416015625,-1.036651611328125,-0.0047760009765625,0.114990234375
1775721931173278200,9.9592783203125,-1.0372772216796875,-0.0036468505859375,0.1136474609375
1775721931183291100,9.969291015625,-1.0458984375,-0.0124359130859375,0.1024932861328125
1775721931193304300,9.97930419921875,-1.046478271484375,-0.014801025390625,0.08966064453125
1775721931203318300,9.989318359375,-1.0337066650390625,-0.01605224609375,0.08160400390625
1775721931213331200,9.999331298828125,-1.0045623779296875,-0.0127410888671875,0.0754241943359375
1775721931223345200,10.00934521484375,-0.9822998046875,-0.0103607177734375,0.0713043212890625
1775721931233358300,10.0193583984375,-0.9807586669921875,-0.0080718994140625,0.058685302734375
1775721931243371300,10.029371337890625,-0.9954071044921875,0.001129150390625,0.0370941162109375
1775721931253385200,10.03938525390625,-1.007415771484375,0.00775146484375,0.0341949462890625
1775721931263398100,10.049398193359375,-1.0030364990234375,0.0162811279296875,0.0457305908203125
1775721931273412400,10.059412353515626,-0.9925537109375,0.0185699462890625,0.0603485107421875
1775721931283425300,10.06942529296875,-1.0004119873046875,0.016845703125,0.0691070556640625
1775721931293438200,10.079438232421875,-1.0124359130859375,0.016845703125,0.066497802734375
1775721931303452200,10.0894521484375,-1.01513671875,0.0244903564453125,0.063446044921875
1775721931313465300,10.09946533203125,-1.0215606689453125,0.03997802734375,0.0489959716796875
1775721931323479300,10.109479248046876,-1.022491455078125,0.0423431396484375,0.0361785888671875
1775721931333492200,10.1194921875,-1.008941650390625,0.0334930419921875,0.0408477783203125
1775721931343506400,10.12950634765625,-0.9888458251953125,0.0183258056640625,0.0509796142578125
1775721931353519000,10.13951904296875,-0.9762115478515625,0.0001983642578125,0.05621337890625
1775721931363532300,10.1495322265625,-0.956939697265625,-0.0174407958984375,0.06341552734375
1775721931373546200,10.159546142578124,-0.9461669921875,-0.0260162353515625,0.0652618408203125
1775721931383559200,10.16955908203125,-0.9473724365234375,-0.02142333984375,0.0569000244140625
1775721931393573400,10.179573486328126,-0.9571533203125,-0.011474609375,0.050994873046875
1775721931403586300,10.18958642578125,-0.9776153564453125,-0.0115509033203125,0.0569915771484375
1775721931413599200,10.19959912109375,-0.994873046875,-0.0153350830078125,0.067047119140625
1775721931423613200,10.20961328125,-1.000244140625,-0.019561767578125,0.0742645263671875
1775721931433626000,10.219626220703125,-1.0050811767578125,-0.02655029296875,0.0731201171875
1775721931443640300,10.229640380859376,-1.008331298828125,-0.036590576171875,0.063690185546875
1775721931453653200,10.2396533203125,-0.9945831298828125,-0.041229248046875,0.046722412109375
1775721931463666200,10.249666259765625,-0.9711151123046875,-0.0501251220703125,0.0328369140625
1775721931473680400,10.259680419921875,-0.9540557861328125,-0.0608062744140625,0.0261383056640625
1775721931483693300,10.269693359375,-0.9462127685546875,-0.0684051513671875,0.0255279541015625
1775721931493707300,10.279707275390624,-0.94921875,-0.0790557861328125,0.023590087890625
1775721931503720200,10.28972021484375,-0.9561767578125,-0.08258056640625,0.020050048828125
1775721931513733400,10.2997333984375,-0.9698028564453125,-0.081207275390625,0.015838623046875
1775721931523747300,10.309747314453125,-0.9747467041015625,-0.083404541015625,0.0110626220703125
1775721931533760300,10.31976025390625,-0.9788818359375,-0.0777130126953125,0.0057220458984375
1775721931543774500,10.3297744140625,-0.9888916015625,-0.0797271728515625,0.0062255859375
1775721931553787100,10.339787109375,-1.0078125,-0.0861358642578125,0.0091094970703125
1775721931563800300,10.34980029296875,-1.0305633544921875,-0.096923828125,0.0108642578125
1775721931573814300,10.359814208984375,-1.03912353515625,-0.1095733642578125,0.0210113525390625
1775721931583827200,10.3698271484375,-1.0356292724609375,-0.1187896728515625,0.022003173828125
1775721931593841400,10.37984130859375,-1.0298614501953125,-0.1251220703125,0.0167999267578125
1775721931603854000,10.38985400390625,-1.0222320556640625,-0.1332855224609375,0.0227203369140625
1775721931613867300,10.3998671875,-1.011077880859375,-0.1403656005859375,0.0320892333984375
1775721931623881200,10.409881103515625,-1.011444091796875,-0.1367645263671875,0.04278564453125
1775721931633894100,10.41989404296875,-1.015472412109375,-0.125640869140625,0.0522918701171875
1775721931643908400,10.429908447265625,-1.0180206298828125,-0.1194915771484375,0.0589141845703125
1775721931653921300,10.43992138671875,-1.0087890625,-0.1129150390625,0.0736846923828125
1775721931663935200,10.449935302734374,-1.0079803466796875,-0.1087646484375,0.08526611328125
1775721931673948200,10.4599482421875,-1.0230712890625,-0.0988311767578125,0.0814666748046875
1775721931683961300,10.46996142578125,-1.044219970703125,-0.0801544189453125,0.0767974853515625
1775721931693975300,10.479975341796875,-1.047210693359375,-0.0662689208984375,0.0780181884765625
1775721931703988200,10.48998828125,-1.0343017578125,-0.066986083984375,0.0915069580078125
1775721931714002400,10.50000244140625,-1.02716064453125,-0.083343505859375,0.1136474609375
1775721931724015400,10.510015380859375,-1.0277557373046875,-0.095550537109375,0.130615234375
1775721931734028300,10.5200283203125,-1.0438079833984375,-0.1130828857421875,0.1322784423828125
1775721931744042000,10.5300419921875,-1.0599365234375,-0.1194305419921875,0.125213623046875
1775721931754055000,10.540054931640626,-1.057708740234375,-0.131683349609375,0.1221923828125
1775721931764069000,10.550069091796875,-1.04571533203125,-0.1351776123046875,0.108795166015625
1775721931774082000,10.56008203125,-1.027313232421875,-0.1285858154296875,0.0733795166015625
1775721931784095000,10.570094970703124,-1.0060577392578125,-0.1236724853515625,0.0429840087890625
1775721931794109200,10.580109130859375,-0.9982147216796875,-0.1244049072265625,0.01611328125
1775721931804121900,10.590121826171876,-1.0050811767578125,-0.1199951171875,-0.0254669189453125
1775721931814136000,10.600135986328125,-1.0071258544921875,-0.111968994140625,-0.0609893798828125
1775721931824149200,10.610149169921876,-0.99346923828125,-0.126617431640625,-0.0774078369140625
1775721931834162000,10.620161865234374,-0.9729156494140625,-0.14111328125,-0.0748291015625
1775721931844176100,10.630176025390625,-0.947662353515625,-0.1456451416015625,-0.0655059814453125
1775721931854188800,10.640188720703126,-0.9323577880859375,-0.14752197265625,-0.0541534423828125
1775721931864203000,10.650203125,-0.9413604736328125,-0.1407012939453125,-0.04229736328125
1775721931874216200,10.66021630859375,-0.95733642578125,-0.1316680908203125,-0.0322265625
1775721931884228900,10.670228759765624,-0.9698028564453125,-0.119842529296875,-0.0307159423828125
1775721931894243000,10.6802431640625,-0.970794677734375,-0.1071319580078125,-0.03173828125
1775721931904256000,10.690256103515624,-0.958404541015625,-0.090911865234375,-0.023681640625
1775721931914270000,10.70027001953125,-0.9521331787109375,-0.0747528076171875,-0.0203399658203125
1775721931924283100,10.710283203125,-0.96484375,-0.05950927734375,-0.024810791015625
1775721931934296000,10.720296142578125,-0.987396240234375,-0.059326171875,-0.02886962890625
1775721931944310000,10.73031005859375,-1.0106658935546875,-0.0751190185546875,-0.028472900390625
1775721931954323000,10.740322998046874,-0.9989166259765625,-0.08544921875,-0.019683837890625
1775721931964337200,10.750337158203125,-0.9659423828125,-0.0998687744140625,-0.0096282958984375
1775721931974350000,10.76035009765625,-0.938232421875,-0.12225341796875,-0.0044708251953125
1775721931984363000,10.770363037109375,-0.9310760498046875,-0.1385498046875,-0.001556396484375
1775721931994377200,10.780377197265626,-0.9278564453125,-0.1510467529296875,0.00360107421875
1775721932004390000,10.790389892578125,-0.95361328125,-0.1541900634765625,0.00518798828125
1775721932014404000,10.800404052734375,-0.987945556640625,-0.155792236328125,0.004547119140625
1775721932024417000,10.8104169921875,-1.007049560546875,-0.1559295654296875,0.016326904296875
1775721932034430000,10.820429931640625,-1.0176544189453125,-0.15325927734375,0.025360107421875
1775721932044444200,10.830444091796876,-1.02508544921875,-0.1476287841796875,0.0264434814453125
1775721932054456800,10.840456787109375,-1.01904296875,-0.133148193359375,0.0208587646484375
1775721932064471000,10.850470947265626,-1.004608154296875,-0.1280975341796875,0.012603759765625
1775721932074484200,10.860484130859374,-0.97955322265625,-0.1377105712890625,0.0063934326171875
1775721932084497000,10.870496826171875,-0.94805908203125,-0.137359619140625,0.005126953125
1775721932094511000,10.880510986328124,-0.9216766357421875,-0.147552490234375,0.009674072265625
1775721932104524000,10.89052392578125,-0.9199066162109375,-0.155487060546875,0.00006103515625
1775721932114538000,10.9005380859375,-0.9336700439453125,-0.1507720947265625,-0.0117340087890625
1775721932124551200,10.91055126953125,-0.9370880126953125,-0.1522979736328125,-0.0090484619140625
1775721932134565000,10.920565185546875,-0.9335479736328125,-0.152801513671875,0.0018768310546875
1775721932144578000,10.930578125,-0.92230224609375,-0.1446685791015625,0.0159759521484375
1775721932154591000,10.940591064453125,-0.9147491455078125,-0.1427764892578125,0.0421905517578125
1775721932164605200,10.950605224609374,-0.92193603515625,-0.147064208984375,0.071136474609375
1775721932174618000,10.9606181640625,-0.93963623046875,-0.1539459228515625,0.0951080322265625
1775721932184631000,10.970631103515625,-0.9486846923828125,-0.1757965087890625,0.1278076171875
1775721932194645000,10.98064501953125,-0.9631805419921875,-0.203826904296875,0.146209716796875
1775721932204658000,10.990657958984375,-0.945709228515625,-0.2020721435546875,0.137542724609375
1775721932214672100,11.000672119140624,-0.8892059326171875,-0.205474853515625,0.1554412841796875
1775721932224685000,11.01068505859375,-0.8583984375,-0.2373046875,0.19232177734375
1775721932234699000,11.020698974609376,-0.9113616943359375,-0.2766265869140625,0.166259765625
1775721932244712200,11.030712158203125,-0.96795654296875,-0.26611328125,0.07220458984375
1775721932254724900,11.040724853515625,-0.9899444580078125,-0.2458648681640625,-0.013641357421875
1775721932264739000,11.050739013671874,-0.9623260498046875,-0.2559356689453125,-0.061248779296875
1775721932274752300,11.060752197265625,-0.91986083984375,-0.26739501953125,-0.079193115234375
1775721932284766000,11.070765869140626,-0.900360107421875,-0.2732086181640625,-0.0803375244140625
1775721932294779100,11.080779052734375,-0.927459716796875,-0.295654296875,-0.1046142578125
1775721932304791800,11.090791748046875,-0.938873291015625,-0.2910919189453125,-0.173065185546875
1775721932314806000,11.100805908203125,-0.923126220703125,-0.266754150390625,-0.21978759765625
1775721932324819200,11.110819091796875,-0.8885345458984375,-0.2687530517578125,-0.21307373046875
1775721932334833200,11.120833251953124,-0.8312835693359375,-0.275238037109375,-0.1809844970703125
1775721932344846000,11.13084619140625,-0.7795562744140625,-0.2583465576171875,-0.1292572021484375
1775721932354859000,11.14085888671875,-0.753570556640625,-0.2418060302734375,-0.079010009765625
1775721932364873000,11.150873046875,-0.7380523681640625,-0.236663818359375,-0.020843505859375
1775721932374886100,11.16088623046875,-0.7584381103515625,-0.2447662353515625,0.0367584228515625
1775721932384900000,11.170900146484374,-0.8105621337890625,-0.266937255859375,0.0713043212890625
1775721932394913000,11.1809130859375,-0.854278564453125,-0.2681732177734375,0.07037353515625
1775721932404926000,11.190926025390626,-0.87261962890625,-0.248291015625,0.0726318359375
1775721932414940200,11.200940185546875,-0.8649139404296875,-0.2527923583984375,0.1011810302734375
1775721932424953000,11.210953125,-0.8698883056640625,-0.268707275390625,0.12554931640625
1775721932434967000,11.220967041015625,-0.9056243896484375,-0.27099609375,0.11688232421875
1775721932444980200,11.230980224609375,-0.9397430419921875,-0.2643890380859375,0.0972747802734375
1775721932454993000,11.240992919921876,-0.97833251953125,-0.267822265625,0.0877532958984375
1775721932465007000,11.251007080078125,-1.009490966796875,-0.2599334716796875,0.074798583984375
1775721932475020000,11.26102001953125,-1.0155029296875,-0.2486724853515625,0.0710601806640625
1775721932485034000,11.271033935546875,-1.0065460205078125,-0.2472686767578125,0.0816650390625
1775721932495047200,11.281047119140625,-1.00543212890625,-0.25469970703125,0.0918426513671875
1775721932505059800,11.291059814453124,-1.010711669921875,-0.2478179931640625,0.0849151611328125
1775721932515074000,11.301073974609375,-1.0209503173828125,-0.2399444580078125,0.0767822265625
1775721932525087200,11.311087158203126,-1.031005859375,-0.2416534423828125,0.065460205078125
1775721932535101000,11.321100830078125,-1.0285797119140625,-0.2466888427734375,0.0517578125
1775721932545114000,11.331114013671876,-1.0043792724609375,-0.24664306640625,0.034210205078125
1775721932555127000,11.341126953125,-0.972625732421875,-0.2413177490234375,0.0164337158203125
1775721932565141000,11.35114111328125,-0.942962646484375,-0.2520294189453125,0.001495361328125
1775721932575154200,11.361154296875,-0.9331207275390625,-0.2564697265625,-0.016998291015625
1775721932585168100,11.371168212890625,-0.9291839599609375,-0.2583465576171875,-0.021575927734375
1775721932595181000,11.38118115234375,-0.931488037109375,-0.2539520263671875,-0.024017333984375
1775721932605194000,11.391194091796875,-0.927825927734375,-0.2462005615234375,-0.0293731689453125
1775721932615208000,11.4012080078125,-0.9301910400390625,-0.245452880859375,-0.0290679931640625
1775721932625221000,11.41122119140625,-0.94482421875,-0.2491607666015625,-0.03033447265625
1775721932635235000,11.421235107421875,-0.9596710205078125,-0.2443389892578125,-0.03656005859375
1775721932645248000,11.431248046875,-0.96990966796875,-0.242950439453125,-0.035247802734375
1775721932655261000,11.441260986328125,-0.9778289794921875,-0.2406158447265625,-0.0347900390625
1775721932665275100,11.451275146484376,-0.983795166015625,-0.24456787109375,-0.032867431640625
1775721932675288000,11.4612880859375,-0.98541259765625,-0.2538909912109375,-0.0341033935546875
1775721932685302000,11.471302001953125,-0.974517822265625,-0.256195068359375,-0.03436279296875
1775721932695315200,11.481315185546874,-0.956695556640625,-0.252105712890625,-0.02923583984375
1775721932705327900,11.491327880859375,-0.95355224609375,-0.2479248046875,-0.025848388671875
1775721932715342000,11.501342041015626,-0.948486328125,-0.23779296875,-0.02215576171875
1775721932725355000,11.51135498046875,-0.9547119140625,-0.238189697265625,-0.0179595947265625
1775721932735369000,11.521368896484375,-0.97283935546875,-0.23712158203125,-0.029266357421875
1775721932745382700,11.531382568359374,-0.983245849609375,-0.2256622314453125,-0.04144287109375
1775721932755395300,11.541395263671875,-0.97503662109375,-0.2195281982421875,-0.03668212890625
1775721932765409500,11.551409423828124,-0.9670562744140625,-0.2310943603515625,-0.022216796875
1775721932775422500,11.56142236328125,-0.954986572265625,-0.2449951171875,-0.0025634765625
1775721932785435400,11.571435302734375,-0.9506378173828125,-0.2543182373046875,0.0146636962890625
1775721932795449600,11.58144970703125,-0.9516754150390625,-0.2570953369140625,0.022308349609375
1775721932805462500,11.591462646484375,-0.965240478515625,-0.26080322265625,0.0230865478515625
1775721932815476500,11.6014765625,-0.9873809814453125,-0.2491912841796875,0.0137939453125
1775721932825489400,11.611489501953125,-0.9995269775390625,-0.2281646728515625,-0.002166748046875
1775721932835502600,11.621502685546876,-0.985504150390625,-0.2075347900390625,-0.0066680908203125
1775721932845516500,11.6315166015625,-0.971527099609375,-0.20526123046875,0.00445556640625
1775721932855529500,11.641529541015625,-0.969818115234375,-0.2141265869140625,0.017364501953125
1775721932865543700,11.651543701171875,-0.9576416015625,-0.218963623046875,0.0287628173828125
1775721932875556400,11.661556396484375,-0.956085205078125,-0.2231597900390625,0.0287322998046875
1775721932885569500,11.671569580078126,-0.960357666015625,-0.2244720458984375,0.0266265869140625
1775721932895583700,11.681583740234375,-0.9617767333984375,-0.22052001953125,0.029327392578125
1775721932905596400,11.691596435546876,-0.967193603515625,-0.227294921875,0.0308685302734375
1775721932915610600,11.701610595703125,-0.9922943115234375,-0.2312469482421875,0.027374267578125
1775721932925623300,11.711623291015625,-1.0074920654296875,-0.2257080078125,0.0281219482421875
1775721932935636500,11.721636474609374,-1.009521484375,-0.2233428955078125,0.0267791748046875
1775721932945650700,11.731650634765625,-1.007965087890625,-0.23382568359375,0.0172882080078125
1775721932955663400,11.741663330078126,-0.9951629638671875,-0.232940673828125,0.00567626953125
1775721932965677600,11.751677490234375,-0.978607177734375,-0.2352752685546875,0.0014190673828125
1775721932975690500,11.7616904296875,-0.9650115966796875,-0.2349853515625,-0.0055694580078125
1775721932985703400,11.771703369140624,-0.9648895263671875,-0.2226104736328125,-0.0148468017578125
1775721932995717600,11.781717529296875,-0.985992431640625,-0.2257843017578125,-0.01629638671875
1775721933005730600,11.79173046875,-1.0221710205078125,-0.23370361328125,-0.01910400390625
1775721933015744500,11.80174462890625,-1.0358734130859375,-0.24017333984375,-0.0184326171875
1775721933025757400,11.81175732421875,-1.016937255859375,-0.2435150146484375,-0.0081329345703125
1775721933035770400,11.821770263671874,-0.9813690185546875,-0.2494049072265625,0.00250244140625
1775721933045784600,11.83178466796875,-0.9575347900390625,-0.253753662109375,0.0032501220703125
1775721933055797500,11.841797607421874,-0.94891357421875,-0.245513916015625,-0.0107269287109375
1775721933065811700,11.851811767578125,-0.9392852783203125,-0.2370758056640625,-0.006927490234375
1775721933075824400,11.861824462890626,-0.9331207275390625,-0.238983154296875,0.0032501220703125
1775721933085837600,11.871837646484375,-0.93017578125,-0.23675537109375,0.010009765625
1775721933095851500,11.8818515625,-0.9261016845703125,-0.2332611083984375,0.0167083740234375
1775721933105864400,11.891864501953124,-0.9232635498046875,-0.2266845703125,0.025604248046875
1775721933115878700,11.901878662109375,-0.9191131591796875,-0.222381591796875,0.037628173828125
1775721933125891300,11.911891357421876,-0.9200439453125,-0.2269744873046875,0.0464019775390625
1775721933135904500,11.921904541015625,-0.9215087890625,-0.2280731201171875,0.0541839599609375
1775721933145918700,11.931918701171876,-0.920440673828125,-0.2369842529296875,0.066131591796875
1775721933155931400,11.941931396484375,-0.910400390625,-0.2411651611328125,0.0746917724609375
1775721933165945600,11.951945556640625,-0.889801025390625,-0.2408599853515625,0.08489990234375
1775721933175958500,11.96195849609375,-0.881500244140625,-0.25543212890625,0.0902557373046875
1775721933185971500,11.971971435546875,-0.879730224609375,-0.266693115234375,0.0812225341796875
1775721933195985700,11.981985595703126,-0.8691558837890625,-0.2631988525390625,0.0646514892578125
1775721933205998300,11.991998291015625,-0.8512115478515625,-0.26849365234375,0.0504608154296875
1775721933216011500,12.002011474609375,-0.831756591796875,-0.27752685546875,0.0507659912109375
1775721933226025500,12.012025390625,-0.81072998046875,-0.2828826904296875,0.0544281005859375
1775721933236038400,12.022038330078125,-0.800018310546875,-0.2799072265625,0.0549468994140625
1775721933246052600,12.032052490234374,-0.8162078857421875,-0.254364013671875,0.046478271484375
1775721933256065500,12.0420654296875,-0.8423004150390625,-0.21826171875,0.03228759765625
1775721933266078500,12.052078369140625,-0.8770599365234375,-0.16571044921875,0.0091400146484375
1775721933276092400,12.062092529296875,-0.906890869140625,-0.1341400146484375,0.0102996826171875
1775721933286105600,12.072105712890625,-0.925201416015625,-0.1318511962890625,0.032623291015625
1775721933296119600,12.08211962890625,-0.939208984375,-0.1286773681640625,0.0459136962890625
1775721933306132500,12.092132568359375,-0.9438323974609375,-0.1157684326171875,0.05450439453125
1775721933316145400,12.1021455078125,-0.9462432861328125,-0.12469482421875,0.075714111328125
1775721933326159400,12.112159423828125,-0.971649169921875,-0.1323394775390625,0.0768280029296875
1775721933336172500,12.122172607421875,-1.0037689208984375,-0.134490966796875,0.0555267333984375
1775721933346186800,12.132186767578125,-1.0118865966796875,-0.1369476318359375,0.0509490966796875
1775721933356199400,12.142199462890625,-1.0111083984375,-0.160003662109375,0.053680419921875
1775721933366212600,12.152212646484376,-1.005767822265625,-0.1697235107421875,0.0469512939453125
1775721933376226300,12.162226318359375,-0.98944091796875,-0.1787872314453125,0.0597991943359375
1775721933386239500,12.172239501953126,-0.9804840087890625,-0.19952392578125,0.0946197509765625
1775721933396253700,12.182253662109375,-0.990203857421875,-0.2031097412109375,0.107574462890625
1775721933406266400,12.192266357421875,-0.9889068603515625,-0.1949615478515625,0.066314697265625
1775721933416279600,12.202279541015624,-0.9474639892578125,-0.1711273193359375,0.0333404541015625
1775721933426293500,12.21229345703125,-0.8940887451171875,-0.1517181396484375,0.032135009765625
1775721933436306400,12.222306396484376,-0.876800537109375,-0.155609130859375,0.0327301025390625
1775721933446320600,12.232320556640625,-0.886566162109375,-0.1520233154296875,0.027435302734375
1775721933456333600,12.24233349609375,-0.90966796875,-0.156585693359375,0.038726806640625
1775721933466346500,12.252346435546874,-0.9395904541015625,-0.1893310546875,0.06207275390625
1775721933476360400,12.2623603515625,-0.9545745849609375,-0.2027130126953125,0.0496978759765625
1775721933486373400,12.272373291015626,-0.9452056884765625,-0.1824951171875,0.01470947265625
1775721933496386600,12.282386474609375,-0.9340667724609375,-0.167724609375,0.0018157958984375
1775721933506400500,12.292400390625,-0.940948486328125,-0.1501922607421875,0.0019378662109375
1775721933516413400,12.302413330078124,-0.96319580078125,-0.12841796875,0.0051727294921875
1775721933526427400,12.312427490234375,-0.9955596923828125,-0.1214447021484375,0.027801513671875
1775721933536440600,12.322440673828124,-1.0308990478515625,-0.1403045654296875,0.0599365234375
1775721933546453500,12.33245361328125,-1.0267333984375,-0.1633453369140625,0.0684814453125
1775721933556467500,12.342467529296876,-0.98907470703125,-0.167327880859375,0.066986083984375
1775721933566480600,12.352480712890625,-0.9337615966796875,-0.171478271484375,0.0655059814453125
1775721933576494300,12.362494384765625,-0.9072723388671875,-0.1625518798828125,0.0587310791015625
1775721933586507500,12.372507568359374,-0.9101409912109375,-0.144683837890625,0.0543060302734375
1775721933596520400,12.3825205078125,-0.936065673828125,-0.1323089599609375,0.0610504150390625
1775721933606534400,12.392534423828126,-0.957183837890625,-0.10186767578125,0.0723419189453125
1775721933616547600,12.402547607421875,-0.961822509765625,-0.079803466796875,0.0877227783203125
1775721933626561500,12.4125615234375,-0.9684600830078125,-0.0656280517578125,0.098480224609375
1775721933636574500,12.422574462890625,-0.978515625,-0.063568115234375,0.0946044921875
1775721933646587600,12.432587646484375,-0.9749298095703125,-0.0513153076171875,0.0861053466796875
1775721933656601300,12.442601318359374,-0.92938232421875,-0.0518798828125,0.0820770263671875
1775721933666614500,12.452614501953125,-0.8870697021484375,-0.0651092529296875,0.0827789306640625
1775721933676628500,12.46262841796875,-0.8701324462890625,-0.06707763671875,0.0796966552734375
1775721933686641400,12.472641357421875,-0.8629150390625,-0.0679473876953125,0.0777130126953125
1775721933696654600,12.482654541015625,-0.8744964599609375,-0.0582275390625,0.0727996826171875
1775721933706668500,12.49266845703125,-0.919281005859375,-0.0478668212890625,0.061279296875
1775721933716681500,12.502681396484375,-0.9585723876953125,-0.0479278564453125,0.0593719482421875
1775721933726694700,12.512694580078126,-0.97857666015625,-0.0446624755859375,0.0715179443359375
1775721933736708600,12.52270849609375,-0.991180419921875,-0.0462646484375,0.079742431640625
1775721933746721500,12.532721435546875,-0.989990234375,-0.042938232421875,0.0671234130859375
1775721933756735200,12.5427353515625,-0.9953155517578125,-0.03497314453125,0.0428009033203125
1775721933766748400,12.55274853515625,-1.0025177001953125,-0.03594970703125,0.013702392578125
1775721933776761600,12.56276171875,-1.0017242431640625,-0.04052734375,0.0014190673828125
1775721933786775300,12.572775390625,-0.9835052490234375,-0.0436859130859375,-0.012054443359375
1775721933796788500,12.58278857421875,-0.9496917724609375,-0.039154052734375,-0.0211639404296875
1775721933806802400,12.592802490234375,-0.92864990234375,-0.043975830078125,-0.0165252685546875
1775721933816815400,12.6028154296875,-0.9354248046875,-0.0519256591796875,-0.00897216796875
1775721933826828500,12.61282861328125,-0.9616241455078125,-0.039581298828125,-0.0020599365234375
1775721933836842500,12.622842529296875,-0.99853515625,-0.0299224853515625,0.002410888671875
1775721933846855400,12.63285546875,-1.0148773193359375,-0.0305938720703125,0.001953125
1775721933856869400,12.642869384765625,-1.0182342529296875,-0.0206298828125,-0.00189208984375
1775721933866882300,12.65288232421875,-1.0146026611328125,-0.0181732177734375,0.0023193359375
1775721933876895500,12.6628955078125,-1.006561279296875,-0.0141143798828125,0.0175933837890625
1775721933886909400,12.672909423828125,-1.0031890869140625,0.000457763671875,0.0287322998046875
1775721933896922400,12.68292236328125,-1.0013427734375,0.00445556640625,0.046295166015625
1775721933906935600,12.692935546875,-0.9986114501953125,-0.0093231201171875,0.071502685546875
1775721933916949500,12.702949462890626,-0.9828033447265625,-0.016815185546875,0.0779571533203125
1775721933926962400,12.71296240234375,-0.95648193359375,-0.0249176025390625,0.077972412109375
1775721933936976400,12.722976318359375,-0.9373321533203125,-0.0417633056640625,0.06866455078125
1775721933946989600,12.732989501953124,-0.931549072265625,-0.054107666015625,0.0503997802734375
1775721933957002500,12.74300244140625,-0.922210693359375,-0.05615234375,0.0289306640625
1775721933967016400,12.753016357421876,-0.932373046875,-0.0417633056640625,0.0292510986328125
1775721933977029600,12.763029541015625,-0.9460296630859375,-0.0246124267578125,0.04571533203125
1775721933987043300,12.773043212890625,-0.98406982421875,-0.004913330078125,0.0607757568359375
1775721933997056500,12.783056396484374,-1.05859375,0.004974365234375,0.06854248046875
1775721934007069400,12.7930693359375,-1.1291351318359375,0.0037994384765625,0.0776519775390625
1775721934017083400,12.80308349609375,-1.1493072509765625,0.002685546875,0.0952911376953125
1775721934027096600,12.8130966796875,-1.1266326904296875,0.00970458984375,0.09197998046875
1775721934037110300,12.8231103515625,-1.0765228271484375,0.0179901123046875,0.079833984375
1775721934047123500,12.83312353515625,-1.0243988037109375,0.0376739501953125,0.070556640625
1775721934057136600,12.84313671875,-1.004119873046875,0.04144287109375,0.071990966796875
1775721934067150300,12.853150390625,-1.009613037109375,0.045745849609375,0.0758514404296875
1775721934077163500,12.86316357421875,-1.031524658203125,0.0638275146484375,0.073760986328125
1775721934087176400,12.873176513671876,-1.0325775146484375,0.0924072265625,0.057464599609375
1775721934097190400,12.8831904296875,-1.0373992919921875,0.12384033203125,0.0528106689453125
1775721934107203600,12.89320361328125,-1.0548248291015625,0.1297454833984375,0.060699462890625
1775721934117217500,12.903217529296874,-1.0646820068359375,0.13226318359375,0.0718994140625
1775721934127230500,12.91323046875,-1.0829925537109375,0.130401611328125,0.0771484375
1775721934137243400,12.923243408203126,-1.098724365234375,0.1240386962890625,0.0743865966796875
1775721934147257300,12.93325732421875,-1.1150665283203125,0.1107025146484375,0.0792236328125
