time,seconds_elapsed,z,y,x
1775721921273732400,0.059732421875,0.5929698348045349,-0.5743868350982666,0.3254518508911133
1775721921283746600,0.06974658203125,0.5990639925003052,-0.5856200456619263,0.21205367147922516
1775721921293759500,0.079759521484375,0.5818349123001099,-0.4217999577522278,0.05156945064663887
1775721921303773700,0.089773681640625,0.5526221394538879,-0.09905201196670532,-0.13924629986286163
1775721921313786600,0.09978662109375,0.5510501265525818,0.24840421974658966,-0.3897685408592224
1775721921323800600,0.109800537109375,0.5471472144126892,0.5091871023178101,-0.6522406339645386
1775721921333813500,0.1198134765625,0.5017110705375671,0.6588783264160156,-0.8374155759811401
1775721921343827500,0.129827392578125,0.47288021445274353,0.6403506994247437,-0.9754229784011841
1775721921353840600,0.139840576171875,0.48778271675109863,0.527870237827301,-1.066884994506836
1775721921363854300,0.149854248046875,0.5425359606742859,0.4445857107639313,-1.085273027420044
1775721921373867500,0.159867431640625,0.5601639747619629,0.32861489057540894,-0.977307140827179
1775721921383881500,0.169881591796875,0.5128971338272095,0.035592880100011826,-0.6941337585449219
1775721921393894400,0.179894287109375,0.43196552991867065,-0.41010284423828125,-0.31503570079803467
1775721921403908600,0.18990869140625,0.3752726912498474,-0.8074744343757629,0.11466293036937714
1775721921413921500,0.199921630859375,0.4058108925819397,-1.2243403196334839,0.5018974542617798
1775721921423935500,0.209935546875,0.5633246302604675,-1.7327769994735718,0.7381067872047424
1775721921433948400,0.219948486328125,0.7546642422676086,-1.8821831941604614,0.8913818597793579
1775721921443962600,0.229962646484375,0.9099536538124084,-1.6316004991531372,0.9940890669822693
1775721921453975600,0.2399755859375,0.9922565221786499,-1.198243260383606,1.006276249885559
1775721921463989500,0.249989501953125,0.8474090695381165,-1.035969614982605,0.8532912135124207
1775721921474002700,0.260002685546875,0.539306104183197,-0.8652564883232117,0.6602833867073059
1775721921484016400,0.270016357421875,0.33170390129089355,-0.5263798832893372,0.42744481563568115
1775721921494029600,0.280029541015625,0.22371378540992737,-0.2525920271873474,0.1418016105890274
1775721921504043500,0.29004345703125,0.1658717840909958,-0.13328588008880615,-0.13532666862010956
1775721921514056400,0.300056396484375,0.15056100487709045,-0.04228620231151581,-0.372879296541214
1775721921524070400,0.3100703125,0.16465792059898376,0.10613788664340973,-0.5757610201835632
1775721921534083600,0.32008349609375,0.22297848761081696,0.5770992636680603,-0.7077265381813049
1775721921544097500,0.33009765625,0.26538506150245667,0.9437329173088074,-0.7855297327041626
1775721921554110500,0.3401103515625,0.2342814803123474,0.9939090013504028,-0.7843901515007019
1775721921564124700,0.350124755859375,0.21279482543468475,0.996059775352478,-0.6631369590759277
1775721921574137300,0.360137451171875,0.2112661749124527,0.8635539412498474,-0.48371100425720215
1775721921584151600,0.370151611328125,0.24984019994735718,0.78385990858078,-0.2613743543624878
1775721921594164700,0.380164794921875,0.32775551080703735,0.6710146069526672,-0.035835228860378265
1775721921604177400,0.390177490234375,0.37221217155456543,0.4991301894187927,0.1461034119129181
1775721921614191600,0.400191650390625,0.40822744369506836,0.5040378570556641,0.2811155617237091
1775721921624204500,0.41020458984375,0.36194249987602234,0.47227245569229126,0.33879056572914124
1775721921634218500,0.420218505859375,0.1864444464445114,0.34261220693588257,0.31370386481285095
1775721921644231700,0.430231689453125,0.046427421271800995,0.2687377333641052,0.21507608890533447
1775721921654245600,0.44024560546875,-0.003960386849939823,0.14219123125076294,-0.02973019890487194
1775721921664258600,0.450258544921875,-0.01673530414700508,-0.011268100701272488,-0.41851842403411865
1775721921674272500,0.4602724609375,0.010084591805934906,-0.08003465086221695,-0.880627453327179
1775721921684285700,0.47028564453125,0.14335475862026215,0.10158441215753555,-1.2878016233444214
1775721921694299400,0.48029931640625,0.28328630328178406,0.12497548758983612,-1.5639351606369019
1775721921704312600,0.4903125,0.3469254672527313,0.4535227417945862,-1.3286398649215698
1775721921714326500,0.500326416015625,0.28510817885398865,0.3327481150627136,-0.9441758394241333
1775721921724339500,0.51033935546875,0.11376491189002991,-0.062312111258506775,-0.4284765124320984
1775721921734353400,0.520353515625,0.01943228766322136,-0.40334054827690125,0.14876790344715118
1775721921744366300,0.530366455078125,-0.04602581635117531,-0.6687687635421753,0.7114813327789307
1775721921754380300,0.54038037109375,-0.13003922998905182,-1.00045907497406,1.1282074451446533
1775721921764393200,0.550393310546875,-0.23502743244171143,-1.156089425086975,1.400566577911377
1775721921774407400,0.560407470703125,-0.34173256158828735,-1.1370259523391724,1.5437026023864746
1775721921784420400,0.57042041015625,-0.41630640625953674,-1.146404504776001,1.486712098121643
1775721921794434300,0.580434326171875,-0.48394137620925903,-1.1536877155303955,1.2815269231796265
1775721921804447500,0.590447509765625,-0.5156910419464111,-1.0232778787612915,0.965564489364624
1775721921814461200,0.600461181640625,-0.5122840404510498,-0.7280296683311462,0.6407424211502075
1775721921824474400,0.610474365234375,-0.5087396502494812,-0.3273285925388336,0.30652904510498047
1775721921834488300,0.62048828125,-0.2380993813276291,-0.09352835267782211,-0.02082938142120838
1775721921844501200,0.630501220703125,0.09004174172878265,-0.029137112200260162,-0.3894127309322357
1775721921854515200,0.64051513671875,0.02462172321975231,0.10724496096372604,-0.673284113407135
1775721921864528400,0.6505283203125,-0.1918109804391861,0.13895122706890106,-0.6417751908302307
1775721921874542300,0.660542236328125,-0.3992810845375061,-0.011158645153045654,-0.4042034149169922
1775721921884555300,0.67055517578125,-0.48361140489578247,-0.24675226211547852,-0.10140039026737213
1775721921894569500,0.680569580078125,-0.40013861656188965,-0.34355631470680237,0.14929227530956268
1775721921904582100,0.69058203125,-0.25009825825691223,-0.35905322432518005,0.2502031922340393
1775721921914596400,0.700596435546875,-0.11757802963256836,-0.4063941240310669,0.2519550025463104
1775721921924609500,0.710609619140625,-0.02171248570084572,-0.46019530296325684,0.23302845656871796
1775721921934623200,0.720623291015625,0.007635815534740686,-0.5224189758300781,0.19696073234081268
1775721921944636400,0.730636474609375,-0.043659329414367676,-0.5237390995025635,0.08724541962146759
1775721921954650400,0.740650390625,-0.006721286103129387,0.024645159021019936,-0.23230008780956268
1775721921964663300,0.750663330078125,0.1342339664697647,0.5589197278022766,-0.447929322719574
1775721921974676500,0.760676513671875,0.20909783244132996,0.7191166281700134,-0.46232983469963074
1775721921984690400,0.7706904296875,0.16638632118701935,0.5850783586502075,-0.41669708490371704
1775721921994703400,0.780703369140625,0.030474552884697914,0.2923423945903778,-0.23012614250183105
1775721922004717300,0.79071728515625,-0.08732611685991287,-0.0012743226252496243,-0.02809368632733822
1775721922014730200,0.800730224609375,-0.16429945826530457,-0.17744748294353485,0.09059780836105347
1775721922024744200,0.810744140625,-0.25444719195365906,-0.26489558815956116,0.12447907775640488
1775721922034757400,0.82075732421875,-0.28929784893989563,-0.2610563635826111,0.08738923072814941
1775721922044771300,0.830771240234375,-0.2256094217300415,-0.2458542436361313,-0.026616962626576424
1775721922054784300,0.8407841796875,-0.1254870891571045,-0.11666722595691681,-0.18500687181949615
1775721922064798500,0.850798583984375,-0.044688109308481216,0.1164105013012886,-0.3272303342819214
1775721922074811100,0.86081103515625,0.002528937766328454,0.376536101102829,-0.41061097383499146
1775721922084825300,0.870825439453125,0.04481034725904465,0.5559892058372498,-0.45086464285850525
1775721922094838300,0.88083837890625,0.03955113887786865,0.6456277370452881,-0.4175146818161011
1775721922104852200,0.890852294921875,0.029462551698088646,0.6913904547691345,-0.29237592220306396
1775721922114865400,0.900865478515625,0.030957384034991264,0.630459725856781,-0.14696069061756134
1775721922124879400,0.91087939453125,0.022703714668750763,0.5043249130249023,-0.023742614313960075
1775721922134892300,0.920892333984375,-0.005632852204144001,0.322030246257782,0.04885675385594368
1775721922144906200,0.93090625,-0.07396770268678665,0.10357353091239929,0.044267863035202026
1775721922154919400,0.94091943359375,-0.11354946345090866,-0.007306648883968592,0.005024585872888565
1775721922164933000,0.95093310546875,-0.1164935901761055,-0.01635873317718506,-0.04607455059885979
1775721922174946300,0.9609462890625,-0.1013101115822792,0.01583142764866352,-0.09336137026548386
1775721922184960300,0.970960205078125,-0.06846933811903,0.0869748443365097,-0.1314384490251541
1775721922194973200,0.98097314453125,-0.02654186263680458,0.17295846343040466,-0.14496810734272003
1775721922204987400,0.9909873046875,0.011084875091910362,0.20732682943344116,-0.13042885065078735
1775721922215000300,1.001000244140625,0.03548102825880051,0.22255797684192657,-0.08584513515233994
1775721922225014300,1.01101416015625,0.0580768845975399,0.23077382147312164,-0.042747464030981064
1775721922235027200,1.021027099609375,0.057188186794519424,0.19614127278327942,-0.020257601514458656
1775721922245041400,1.03104150390625,0.06913166493177414,0.17552414536476135,0.017244501039385796
1775721922255054300,1.041054443359375,0.08454524725675583,0.1274210661649704,0.05685688927769661
1775721922265068300,1.051068359375,0.07720717042684555,0.04550277069211006,0.0996062159538269
1775721922275081500,1.06108154296875,0.06866827607154846,-0.0041310954838991165,0.12933774292469025
1775721922285094100,1.07109423828125,0.08882174640893936,0.018554508686065674,0.1365615725517273
1775721922295108400,1.0811083984375,0.11280830949544907,0.06830182671546936,0.10670939832925797
1775721922305121500,1.09112158203125,0.12434165924787521,0.17358803749084473,0.07061265408992767
1775721922315135200,1.10113525390625,0.12465670704841614,0.24477805197238922,0.024332769215106964
1775721922325148400,1.1111484375,0.10915551334619522,0.2342684268951416,-0.021854698657989502
1775721922335162400,1.121162353515625,0.08255666494369507,0.18605908751487732,-0.03236512839794159
1775721922345175300,1.13117529296875,0.032032500952482224,0.11764939874410629,-0.009396963752806187
1775721922355189200,1.141189208984375,-0.02671203762292862,0.0763416439294815,0.029980536550283432
1775721922365202400,1.151202392578125,-0.07030052691698074,0.059186358004808426,0.0558004155755043
1775721922375216000,1.161216064453125,-0.09817663580179214,0.05445445328950882,0.05384272709488869
1775721922385229300,1.171229248046875,-0.12596645951271057,0.041363418102264404,0.05633331462740898
1775721922395243500,1.181243408203125,-0.14822781085968018,0.022784141823649406,0.06771433353424072
1775721922405256200,1.191256103515625,-0.14920467138290405,0.02412451058626175,0.07410192489624023
1775721922415270400,1.2012705078125,-0.13107545673847198,0.02329227328300476,0.0693708211183548
1775721922425283300,1.211283447265625,-0.10836855322122574,0.051790494471788406,0.045452434569597244
1775721922435297300,1.22129736328125,-0.07996300607919693,0.08770854771137238,0.006154565140604973
1775721922445310500,1.231310546875,-0.07105633616447449,0.15298688411712646,-0.0012418320402503014
1775721922455324400,1.241324462890625,-0.054907456040382385,0.1907619684934616,-0.0036333505995571613
1775721922465337300,1.25133740234375,-0.034860510379076004,0.20245616137981415,-0.01435363944619894
1775721922475351300,1.261351318359375,-0.021097561344504356,0.19248954951763153,-0.03564001992344856
1775721922485364500,1.271364501953125,-0.02473011426627636,0.14069533348083496,-0.0657379999756813
1775721922495378200,1.281378173828125,-0.04213706776499748,0.08518306910991669,-0.09064894169569016
1775721922505391400,1.291391357421875,-0.05715276673436165,0.015455921180546284,-0.11604857444763184
1775721922515404300,1.301404296875,-0.07299218326807022,-0.02353222295641899,-0.12462688237428665
1775721922525418200,1.311418212890625,-0.07618291676044464,-0.009454754181206226,-0.10743910819292068
1775721922535431400,1.321431396484375,-0.06732630729675293,0.01053093746304512,-0.10265820473432541
1775721922545445000,1.331445068359375,-0.06410468369722366,0.059838034212589264,-0.09263885766267776
1775721922555458300,1.341458251953125,-0.06070329621434212,0.08310047537088394,-0.0869884267449379
1775721922565472300,1.35147216796875,-0.0564853809773922,0.08172681927680969,-0.07282759994268417
1775721922575485200,1.361485107421875,-0.04049443081021309,0.07416131347417831,-0.046130478382110596
1775721922585499400,1.37149951171875,-0.03194594755768776,0.023729031905531883,-0.014247645623981953
1775721922595512300,1.38151220703125,-0.03181705251336098,0.01513154897838831,0.03996312990784645
1775721922605526300,1.3915263671875,-0.029343241825699806,0.014535799622535706,0.06735827028751373
1775721922615539200,1.401539306640625,-0.02106080949306488,0.013484915718436241,0.05852988734841347
1775721922625553400,1.411553466796875,-0.010500045493245125,0.014649782329797745,0.02189517952501774
1775721922635566300,1.42156640625,0.005952164996415377,-0.0031973912846297026,-0.027776237577199936
1775721922645580300,1.431580322265625,0.017545437440276146,-0.029165608808398247,-0.06617715209722519
1775721922655593500,1.441593505859375,0.03285861387848854,-0.0725940391421318,-0.07998377829790115
1775721922665607200,1.451607177734375,0.0517665259540081,-0.14504507184028625,-0.07821597903966904
1775721922675620400,1.461620361328125,0.05963323637843132,-0.20936547219753265,-0.046784017235040665
1775721922685634300,1.47163427734375,0.057019878178834915,-0.24858132004737854,-0.009494169615209103
1775721922695647200,1.481647216796875,0.038177479058504105,-0.21902263164520264,-0.007123955991119146
1775721922705661200,1.4916611328125,-0.002031192881986499,-0.18823382258415222,-0.04730839282274246
1775721922715674400,1.50167431640625,-0.04212215170264244,-0.12082548439502716,-0.11046472191810608
1775721922725688300,1.511688232421875,-0.06100982427597046,0.01564021222293377,-0.17987389862537384
1775721922735700700,1.52170068359375,-0.051528703421354294,0.12879712879657745,-0.23073627054691315
1775721922745714000,1.5317138671875,-0.032044753432273865,0.23777687549591064,-0.2058040201663971
1775721922755728100,1.54172802734375,0.003970772959291935,0.2756446301937103,-0.1388058215379715
1775721922765740800,1.55174072265625,0.03978283330798149,0.25331801176071167,-0.05916452035307884
1775721922775755000,1.561755126953125,0.06990105658769608,0.21392932534217834,0.013591974973678589
1775721922785768000,1.571767822265625,0.08967981487512589,0.1793215572834015,0.053518086671829224
1775721922795782000,1.581781982421875,0.09651508927345276,0.14945366978645325,0.06329881399869919
1775721922805795000,1.591795166015625,0.11699559539556503,0.1486416757106781,0.06228042021393776
1775721922815809000,1.60180908203125,0.15251336991786957,0.11326663941144943,0.04917553439736366
1775721922825822000,1.611822021484375,0.1748405247926712,0.06310466676950455,0.054837681353092194
1775721922835836000,1.6218359375,0.18225395679473877,-0.01038419734686613,0.08513087034225464
1775721922845849000,1.63184912109375,0.17998814582824707,-0.0668562650680542,0.12916970252990723
1775721922855862800,1.64186279296875,0.18490619957447052,-0.09964430332183838,0.14619609713554382
1775721922865876000,1.6518759765625,0.18908044695854187,-0.09929436445236206,0.12818433344364166
1775721922875890000,1.661889892578125,0.18144835531711578,-0.06759075820446014,0.09811298549175262
1775721922885902800,1.67190283203125,0.16385418176651,-0.06629300117492676,0.06845682114362717
1775721922895917000,1.6819169921875,0.1371980756521225,-0.07883062958717346,0.07595335692167282
1775721922905930000,1.691929931640625,0.10739436745643616,-0.11323734372854233,0.0999297946691513
1775721922915944000,1.70194384765625,0.07157991081476212,-0.1276405155658722,0.11315105855464935
1775721922925956900,1.711956787109375,0.041121337562799454,-0.10274501889944077,0.08908673375844955
1775721922935971000,1.72197119140625,0.01233443059027195,-0.05619483068585396,0.03520992025732994
1775721922945984000,1.73198388671875,-0.03333025798201561,0.0006053365068510175,-0.01028805784881115
1775721922955997000,1.741996826171875,-0.0782330185174942,0.05716634914278984,-0.02798289805650711
1775721922966011100,1.75201123046875,-0.07139961421489716,0.09765651822090149,-0.011837217956781387
1775721922976023800,1.76202392578125,-0.041071005165576935,0.1127968579530716,0.02732216753065586
1775721922986038000,1.7720380859375,-0.018973425030708313,0.09115467965602875,0.06131981685757637
1775721922996051000,1.782051025390625,0.004972920753061771,0.0701436698436737,0.06710553169250488
1775721923006065000,1.79206494140625,0.03267166018486023,0.035286884754896164,0.0444745235145092
1775721923016078000,1.802078125,0.03448287770152092,0.0008317052270285785,0.03628157451748848
1775721923026092000,1.812092041015625,0.03515532240271568,-0.014299310743808746,0.044011931866407394
1775721923036105000,1.82210498046875,0.055934906005859375,-0.019419504329562187,0.042218826711177826
1775721923046119000,1.832118896484375,0.06351213157176971,-0.012768525630235672,0.04037032648921013
1775721923056131800,1.8421318359375,0.07054713368415833,-0.01278876606374979,0.022183066233992577
1775721923066145800,1.852145751953125,0.07405798137187958,0.025723738595843315,-7.989483492565341e-7
1775721923076159000,1.862158935546875,0.07036018371582031,0.05000963807106018,-0.02154976688325405
1775721923086173200,1.872173095703125,0.060138970613479614,0.053825948387384415,-0.019755328074097633
1775721923096185900,1.882185791015625,0.05600281432271004,0.047086019068956375,-0.027339212596416473
1775721923106200000,1.892199951171875,0.053878676146268845,0.02183712273836136,-0.03424159437417984
1775721923116212700,1.902212646484375,0.044442832469940186,-0.017829330638051033,-0.03213023766875267
1775721923126227000,1.91222705078125,0.02991342358291149,-0.05236999690532684,-0.027846811339259148
1775721923136240000,1.922240234375,0.023600134998559952,-0.054253119975328445,-0.026977822184562683
1775721923146253800,1.93225390625,0.027519775554537773,-0.03461576625704765,-0.020601149648427963
1775721923156267000,1.94226708984375,0.024992700666189194,-0.006964166183024645,-0.0032115059439092875
1775721923166280000,1.952280029296875,0.019896741956472397,0.007469367701560259,0.009958092123270035
1775721923176294000,1.9622939453125,0.021574001759290695,0.0014215953415259719,0.002927080262452364
1775721923186307000,1.97230712890625,0.02857119031250477,-0.012818593531847,-0.019335081800818443
1775721923196321000,1.982321044921875,0.044320061802864075,-0.010616159066557884,-0.03849652409553528
1775721923206334000,1.992333984375,0.06136775389313698,-0.014479872770607471,-0.05399319529533386
1775721923216348000,2.002347900390625,0.0861458033323288,0.014376808889210224,-0.05885559320449829
1775721923226361000,2.012361083984375,0.10414370894432068,0.04519730433821678,-0.03795696794986725
1775721923236374800,2.022374755859375,0.10693550109863281,0.0746457427740097,-0.0009435579413548112
1775721923246388000,2.032387939453125,0.10512295365333557,0.08526962250471115,0.032767534255981445
1775721923256402000,2.04240185546875,0.09102311730384827,0.10899519175291061,0.058230284601449966
1775721923266414800,2.052414794921875,0.08524645119905472,0.1549523025751114,0.07656348496675491
1775721923276429000,2.062428955078125,0.0833343043923378,0.19023652374744415,0.07395358383655548
1775721923286442000,2.07244189453125,0.0879378467798233,0.21913927793502808,0.049966759979724884
1775721923296456000,2.0824560546875,0.08768537640571594,0.2025855928659439,0.023749537765979767
1775721923306468900,2.09246875,0.06535343825817108,0.13350772857666016,0.003924700431525707
1775721923316483000,2.102483154296875,0.04454962536692619,0.08719189465045929,0.00452817277982831
1775721923326496000,2.11249609375,0.03767573833465576,0.030952589586377144,0.0005363606614992023
1775721923336509000,2.122509033203125,0.024889104068279266,-0.015116634778678417,0.008577775210142136
1775721923346523100,2.132523193359375,0.013495302759110928,-0.016345417127013206,0.024322915822267532
1775721923356535800,2.142535888671875,0.0120675815269351,0.003269829088822007,0.011890214867889881
1775721923366550000,2.152550048828125,0.008583634160459042,0.037759363651275635,-0.0059835901483893394
1775721923376563000,2.16256298828125,0.0007379619055427611,0.05127517133951187,-0.009245163761079311
1775721923386577000,2.172576904296875,-0.007151386234909296,0.03638144209980965,-0.011123225092887878
1775721923396590000,2.182590087890625,-0.010460896417498589,0.003888481529429555,-0.01643197052180767
1775721923406604000,2.19260400390625,-0.01992550492286682,-0.02713281847536564,-0.012590892612934113
1775721923416617000,2.202616943359375,-0.03362294286489487,-0.05919328331947327,-0.0018434401135891676
1775721923426631000,2.212630859375,-0.046689473092556,-0.09677181392908096,0.00814980547875166
1775721923436643800,2.222643798828125,-0.05336255580186844,-0.11736603826284409,0.020191820338368416
1775721923446657800,2.23265771484375,-0.05991899222135544,-0.12589268386363983,0.013244166038930416
1775721923456671000,2.2426708984375,-0.0616907961666584,-0.10421428829431534,-0.013818610459566116
1775721923466685200,2.252685302734375,-0.051301002502441406,-0.05568217113614082,-0.04116607829928398
1775721923476697900,2.26269775390625,-0.049257028847932816,-0.006205964367836714,-0.04320739209651947
1775721923486712000,2.272712158203125,-0.043167177587747574,0.05321715027093887,-0.018200840801000595
1775721923496724700,2.282724853515625,-0.02503504604101181,0.073784738779068,0.00558225205168128
1775721923506739000,2.292739013671875,-0.018386464565992355,0.06670259684324265,0.026210831478238106
1775721923516752100,2.302752197265625,-0.01242311391979456,0.05861857160925865,0.04134078323841095
1775721923526764800,2.312764892578125,0.002098304685205221,0.042453717440366745,0.042500320822000504
1775721923536779000,2.322779052734375,0.008530637249350548,0.02605583518743515,0.04936115816235542
1775721923546792000,2.3327919921875,0.01185053400695324,0.012136291712522507,0.04989086091518402
1775721923556806000,2.342805908203125,0.01979580894112587,-0.002025866648182273,0.042032137513160706
1775721923566819000,2.352819091796875,0.023481890559196472,-0.002981142606586218,0.016953682526946068
1775721923576833000,2.3628330078125,0.017897240817546844,0.0004370247188489884,-0.014272413216531277
1775721923586846000,2.372845947265625,0.008896555751562119,0.012002866715192795,-0.034751590341329575
1775721923596860000,2.38285986328125,0.011602060869336128,0.027696343138813972,-0.03858281299471855
1775721923606873000,2.392873046875,0.015328356064856052,0.04002917557954788,-0.025186579674482346
1775721923616886800,2.40288671875,0.02238866314291954,0.04560716450214386,-0.009676862508058548
1775721923626900000,2.41289990234375,0.03471776843070984,0.04210963472723961,-0.00818096473813057
1775721923636914000,2.422913818359375,0.04236849397420883,0.041499506682157516,-0.006019809283316135
1775721923646926800,2.4329267578125,0.04237568750977516,0.02666649781167507,-0.008821987546980381
1775721923656941000,2.442941162109375,0.046060435473918915,0.006420348770916462,-0.011678227223455906
1775721923666954000,2.4529541015625,0.04572301357984543,-0.007595335599035025,-0.021448301151394844
1775721923676968000,2.462968017578125,0.04951668530702591,-0.0018500980222597718,-0.03187084570527077
1775721923686980900,2.47298095703125,0.05413913354277611,0.02664838917553425,-0.023080285638570786
1775721923696993800,2.482993896484375,0.06036427244544029,0.03351588174700737,-0.011357050389051437
1775721923707008000,2.493008056640625,0.06272570043802261,0.04520449414849281,0.0032357405871152878
1775721923717021000,2.50302099609375,0.06757664680480957,0.04247821867465973,0.00523577444255352
1775721923727035100,2.51303515625,0.06836280971765518,0.04247448965907097,0.010583136230707169
1775721923737047800,2.5230478515625,0.06531748920679092,0.029796777293086052,0.01841442659497261
1775721923747062000,2.53306201171875,0.06065109744668007,0.005257612559944391,0.01560905296355486
1775721923757075000,2.543074951171875,0.0537995807826519,-0.032096683979034424,0.005630987696349621
1775721923767089200,2.553089111328125,0.049183789640665054,-0.04700133204460144,0.008078965358436108
1775721923777102000,2.56310205078125,0.03720942139625549,-0.06934631615877151,0.018605642020702362
1775721923787116000,2.573115966796875,0.024995364248752594,-0.07111119478940964,0.04207821190357208
1775721923797129000,2.58312890625,0.011860121041536331,-0.05156838521361351,0.08279501646757126
1775721923807143000,2.593142822265625,-0.004203799646347761,-0.06331079453229904,0.10546118021011353
1775721923817156000,2.603156005859375,-0.0138417799025774,-0.05109860375523567,0.12347906082868576
1775721923827170000,2.613170166015625,-0.03598170354962349,-0.05516285449266434,0.13839834928512573
1775721923837183000,2.623182861328125,-0.073923759162426,-0.040519729256629944,0.13679087162017822
1775721923847197000,2.633197021484375,-0.09127584844827652,-0.0008303736103698611,0.09241089224815369
1775721923857209900,2.6432099609375,-0.10061502456665039,0.0391620509326458,0.041192442178726196
1775721923867223000,2.65322314453125,-0.10802819579839706,0.08645153790712357,0.016277773305773735
1775721923877237000,2.663237060546875,-0.105705127120018,0.08316226303577423,-0.007516772020608187
1775721923887250000,2.67325,-0.10038173198699951,0.059418052434921265,-0.019747072830796242
1775721923897264000,2.68326416015625,-0.08374469727277756,0.023386549204587936,-0.03838254138827324
1775721923907277000,2.693277099609375,-0.06935697048902512,-0.046652454882860184,-0.0686805248260498
1775721923917291000,2.703291015625,-0.0729793980717659,-0.09893563389778137,-0.07578370720148087
1775721923927304000,2.713303955078125,-0.06089557334780693,-0.12471263855695724,-0.10159240663051605
1775721923937318100,2.723318115234375,-0.03919214382767677,-0.1022198423743248,-0.14026975631713867
1775721923947331000,2.7333310546875,-0.047926511615514755,-0.06902540475130081,-0.15171442925930023
1775721923957345000,2.743344970703125,-0.054904259741306305,-0.07070932537317276,-0.14221253991127014
1775721923967358200,2.753358154296875,-0.05313139408826828,-0.056842509657144547,-0.10618795454502106
1775721923977372000,2.763371826171875,-0.0305123683065176,-0.04369954392313957,-0.05121525004506111
1775721923987385000,2.773385009765625,0.009574596770107746,-0.021338311955332756,0.002796851797029376
1775721923997399000,2.78339892578125,0.05140140652656555,-0.0028868666850030422,0.06007132679224014
1775721924007412000,2.793411865234375,0.08810003101825714,-0.020808076485991478,0.10506303608417511
1775721924017425200,2.803425048828125,0.12476030737161636,-0.07156313210725784,0.13276363909244537
1775721924027439000,2.813439208984375,0.1618775874376297,-0.14311134815216064,0.1572844237089157
1775721924037452000,2.8234521484375,0.20050007104873657,-0.21489553153514862,0.188999742269516
1775721924047466000,2.833466064453125,0.2321421504020691,-0.3015633225440979,0.23167237639427185
1775721924057479200,2.843479248046875,0.24851474165916443,-0.34779098629951477,0.2956790626049042
1775721924067492900,2.853492919921875,0.22891147434711456,-0.2863715887069702,0.36723074316978455
1775721924077506000,2.863506103515625,0.18791185319423676,-0.17456062138080597,0.4136781394481659
1775721924087520000,2.87352001953125,0.148837149143219,-0.08263895660638809,0.4172760546207428
1775721924097533000,2.883532958984375,0.09710551053285599,-0.032884445041418076,0.37338531017303467
1775721924107547100,2.893547119140625,0.04447425901889801,-0.03399205580353737,0.3022208511829376
1775721924117559800,2.903559814453125,-0.006336725316941738,-0.06481574475765228,0.22160722315311432
1775721924127574000,2.913573974609375,-0.05943669378757477,-0.07821837067604065,0.14876604080200195
1775721924137587000,2.9235869140625,-0.096246637403965,-0.06345780193805695,0.1153779923915863
1775721924147601200,2.93360107421875,-0.11795513331890106,-0.03146524727344513,0.1285766214132309
1775721924157614000,2.943614013671875,-0.14177417755126953,0.0051987566985189915,0.15218660235404968
1775721924167627000,2.953626953125,-0.15309181809425354,0.04265531897544861,0.16787022352218628
1775721924177641000,2.963640869140625,-0.15882372856140137,0.04234372824430466,0.15870308876037598
1775721924187654100,2.973654052734375,-0.1663237363100052,0.03501151502132416,0.12551185488700867
1775721924197668000,2.983668212890625,-0.1717613786458969,-0.026763437315821648,0.07995901256799698
1775721924207681000,2.993680908203125,-0.1633995771408081,-0.08804277330636978,0.05783906579017639
1775721924217695000,3.003695068359375,-0.08613807708024979,-0.15130563080310822,0.04451873153448105
1775721924227708200,3.013708251953125,0.01830470561981201,-0.19600838422775269,0.08333670347929001
1775721924237721900,3.023721923828125,0.09461039304733276,-0.2718712091445923,0.16010046005249023
1775721924247735000,3.033735107421875,0.12663383781909943,-0.34319278597831726,0.23061004281044006
1775721924257749000,3.0437490234375,0.14322054386138916,-0.3362174332141876,0.25595879554748535
1775721924267762000,3.053761962890625,0.17997056245803833,-0.28709807991981506,0.24027810990810394
1775721924277776100,3.063776123046875,0.23276160657405853,-0.21151357889175415,0.26049816608428955
1775721924287789000,3.0737890625,0.2921234667301178,-0.18578052520751953,0.3176344335079193
1775721924297803000,3.083802978515625,0.349604070186615,-0.2090195268392563,0.4020023047924042
1775721924307816000,3.09381591796875,0.3831423223018646,-0.24100196361541748,0.46922633051872253
1775721924317829000,3.1038291015625,0.37276479601860046,-0.294202595949173,0.45729297399520874
1775721924327843000,3.113843017578125,0.34412169456481934,-0.36780011653900146,0.35621485114097595
1775721924337856000,3.12385595703125,0.32036149501800537,-0.3764950633049011,0.2187855988740921
1775721924347870200,3.1338701171875,0.306419312953949,-0.37227264046669006,0.06604932248592377
1775721924357883000,3.1438828125,0.3280250132083893,-0.3892100751399994,-0.032033033668994904
1775721924367897000,3.15389697265625,0.3768082559108734,-0.3821718692779541,-0.031125960871577263
1775721924377910000,3.163909912109375,0.39406129717826843,-0.41886064410209656,0.0372546948492527
1775721924387924000,3.173924072265625,0.4285753071308136,-0.45849061012268066,0.12022867053747177
1775721924397937200,3.183937255859375,0.4295620322227478,-0.5252230167388916,0.16960394382476807
1775721924407951000,3.193951171875,0.3677058517932892,-0.5201590061187744,0.1740378439426422
1775721924417964000,3.203964111328125,0.3217173218727112,-0.4830915629863739,0.13924764096736908
1775721924427978000,3.21397802734375,0.3490975499153137,-0.5311296582221985,0.05818740651011467
1775721924437991200,3.2239912109375,0.3612905442714691,-0.5817305445671082,0.01636885292828083
1775721924448004000,3.234004150390625,0.37864238023757935,-0.7133159637451172,0.034395523369312286
1775721924458018000,3.24401806640625,0.45925280451774597,-0.8049556016921997,0.04921495169401169
1775721924468031000,3.254031005859375,0.36041465401649475,-0.858575701713562,0.04548599198460579
1775721924478045000,3.264044921875,0.14977218210697174,-0.63307785987854,0.08695700019598007
1775721924488058000,3.27405810546875,-0.03202051669359207,-0.2786915600299835,0.1842803657054901
1775721924498071800,3.28407177734375,-0.15386013686656952,0.047382961958646774,0.3596995770931244
1775721924508085000,3.2940849609375,-0.2368018925189972,0.2372940480709076,0.5409817695617676
1775721924518099000,3.304098876953125,-0.2571204900741577,0.2468997985124588,0.6388699412345886
1775721924528111900,3.31411181640625,-0.23882323503494263,0.12215493619441986,0.6461403965950012
1775721924538126000,3.3241259765625,-0.24190077185630798,0.00569889834150672,0.6165774464607239
1775721924548139000,3.334138916015625,-0.30250686407089233,-0.07843036204576492,0.5403215885162354
1775721924558153000,3.344153076171875,-0.4349413514137268,-0.230838805437088,0.3688640594482422
1775721924568166100,3.354166259765625,-0.6331391334533691,-0.4433279037475586,0.0791238471865654
1775721924578179000,3.364178955078125,-0.8259743452072144,-0.46058332920074463,-0.2465437352657318
1775721924588193000,3.374193115234375,-0.9014938473701477,-0.24126295745372772,-0.4986702501773834
1775721924598206000,3.3842060546875,-0.8242331743240356,0.04808497056365013,-0.6589134335517883
1775721924608220200,3.39422021484375,-0.8343318700790405,0.22571168839931488,-0.5636096000671387
1775721924618233000,3.404233154296875,-0.8405362367630005,0.20941367745399475,-0.29606229066848755
1775721924628247000,3.4142470703125,-0.7682998776435852,-0.04195703566074371,-0.06003990024328232
1775721924638260200,3.42426025390625,-0.6753891110420227,-0.4393821656703949,0.10150957852602005
1775721924648274000,3.43427392578125,-0.5883950591087341,-0.7348031401634216,0.27977946400642395
1775721924658287000,3.444287109375,-0.4728807210922241,-0.6833575367927551,0.5011456608772278
1775721924668301000,3.454301025390625,-0.40606895089149475,-0.5247713327407837,0.6312695741653442
1775721924678314000,3.46431396484375,-0.29769372940063477,-0.2608494460582733,0.5922238826751709
1775721924688328000,3.474327880859375,-0.10140624642372131,0.1187058761715889,0.4743196368217468
1775721924698341000,3.484341064453125,0.03657319024205208,0.4223749339580536,0.33945050835609436
1775721924708354000,3.49435400390625,0.09773321449756622,0.40927138924598694,0.25406476855278015
1775721924718368000,3.504367919921875,0.09594064205884933,0.1465175300836563,0.25480911135673523
1775721924728381000,3.514380859375,-0.03159334510564804,-0.07907697558403015,0.3434114158153534
1775721924738395100,3.52439501953125,-0.19890537858009338,0.026693129912018776,0.50859534740448
1775721924748408000,3.534407958984375,-0.2857084572315216,0.1953202337026596,0.6184856295585632
1775721924758422000,3.544422119140625,-0.2742624580860138,0.2980615198612213,0.6146858334541321
1775721924768435200,3.554435302734375,-0.21630513668060303,0.3570156395435333,0.5064197778701782
1775721924778449200,3.56444921875,-0.1437435895204544,0.3765653967857361,0.33330899477005005
1775721924788462000,3.574462158203125,-0.12735316157341003,0.38248586654663086,0.15187501907348633
1775721924798476300,3.584476318359375,-0.15822692215442657,0.34381115436553955,-0.024947693571448326
1775721924808489000,3.594489013671875,-0.20132432878017426,0.32295915484428406,-0.18722209334373474
1775721924818503200,3.604503173828125,-0.2277524620294571,0.3203393816947937,-0.3180389702320099
1775721924828516400,3.614516357421875,-0.21043899655342102,0.30300888419151306,-0.44262057542800903
1775721924838529000,3.624529052734375,-0.1552865207195282,0.23345616459846497,-0.5376533269882202
1775721924848543200,3.634543212890625,-0.07838056236505508,0.15801014006137848,-0.5685497522354126
1775721924858556200,3.64455615234375,0.04436027258634567,-0.0007214503129944205,-0.5679606199264526
1775721924868570000,3.654570068359375,0.1923782378435135,-0.19376707077026367,-0.5305440425872803
1775721924878583300,3.664583251953125,0.32318657636642456,-0.3882838189601898,-0.45844319462776184
1775721924888597200,3.67459716796875,0.40339165925979614,-0.5395207405090332,-0.3523221015930176
1775721924898610200,3.684610107421875,0.43024298548698425,-0.5895583629608154,-0.24174951016902924
1775721924908624100,3.6946240234375,0.40626680850982666,-0.5364165902137756,-0.14990293979644775
1775721924918637000,3.704636962890625,0.3457355499267578,-0.3963034152984619,-0.0912710577249527
1775721924928651000,3.714651123046875,0.269912451505661,-0.19405336678028107,-0.04957101494073868
1775721924938664200,3.724664306640625,0.1923031359910965,-0.005261341109871864,-0.022368954494595528
1775721924948678100,3.73467822265625,0.12630973756313324,0.09647221118211746,-0.004508997779339552
1775721924958691000,3.744691162109375,0.06976976245641708,0.1264929622411728,0.015526761300861835
1775721924968704300,3.754704345703125,0.03062368929386139,0.12515978515148163,0.04355600103735924
1775721924978718000,3.764718017578125,0.008084291592240334,0.14150840044021606,0.07918962836265564
1775721924988731100,3.774731201171875,-0.025965288281440735,0.14895325899124146,0.12059805542230606
1775721924998745000,3.7847451171875,-0.08349782228469849,0.16550640761852264,0.17468605935573578
1775721925008758000,3.794758056640625,-0.141306534409523,0.23959821462631226,0.24125123023986816
1775721925018772200,3.804772216796875,-0.17944352328777313,0.31143325567245483,0.26912814378738403
1775721925028785200,3.81478515625,-0.19264322519302368,0.33796367049217224,0.23978543281555176
1775721925038799000,3.824799072265625,-0.1815013438463211,0.31475579738616943,0.17461681365966797
1775721925048812000,3.83481201171875,-0.1581675261259079,0.2810977101325989,0.10442520678043365
1775721925058826200,3.844826171875,-0.14616920053958893,0.25809624791145325,0.03915725648403168
1775721925068839200,3.854839111328125,-0.1407661736011505,0.25185006856918335,-0.018374746665358543
1775721925078853000,3.86485302734375,-0.14657185971736908,0.23811136186122894,-0.06278348714113235
1775721925088866300,3.8748662109375,-0.15407158434391022,0.20789167284965515,-0.08857513964176178
1775721925098879000,3.88487890625,-0.16237452626228333,0.18333280086517334,-0.09676861763000488
1775721925108893200,3.89489306640625,-0.15398290753364563,0.1756751537322998,-0.08503739535808563
1775721925118906400,3.90490625,-0.13055720925331116,0.15850868821144104,-0.082954540848732
1775721925128920000,3.914920166015625,-0.08779110759496689,0.09688632935285568,-0.08087646961212158
1775721925138933200,3.924933349609375,-0.04737177491188049,0.011922173202037811,-0.06679847091436386
1775721925148947200,3.934947265625,-0.018731875345110893,-0.03796868771314621,-0.034759312868118286
1775721925158960000,3.944960205078125,0.012871856801211834,-0.05463474988937378,-0.013816745951771736
1775721925168974000,3.95497412109375,0.044018324464559555,-0.03638517111539841,-0.0028386632911860943
1775721925178987300,3.9649873046875,0.06649753451347351,-0.029956568032503128,-0.007726362906396389
1775721925189001000,3.9750009765625,0.08371487259864807,-0.06040768325328827,-0.027095267549157143
1775721925199014100,3.98501416015625,0.09250064194202423,-0.0772407278418541,-0.032871395349502563
1775721925209027000,3.995027099609375,0.1132863461971283,-0.06576569378376007,-0.009305884130299091
1775721925219041000,4.005041015625,0.14106231927871704,-0.0475829653441906,0.020709006115794182
1775721925229054200,4.01505419921875,0.17149531841278076,-0.06632842123508453,0.04806313291192055
1775721925239068200,4.025068115234375,0.19359876215457916,-0.11176008731126785,0.08062240481376648
1775721925249081000,4.0350810546875,0.188415989279747,-0.15462179481983185,0.13606701791286469
1775721925259095300,4.04509521484375,0.170338973402977,-0.16027168929576874,0.1919366866350174
1775721925269108000,4.05510791015625,0.1678297519683838,-0.1630254089832306,0.1979793906211853
1775721925279122200,4.0651220703125,0.17217043042182922,-0.13128212094306946,0.16823960840702057
1775721925289135000,4.075135009765625,0.18698826432228088,-0.0739932656288147,0.10144193470478058
1775721925299149000,4.085149169921875,0.20809514820575714,-0.018764633685350418,0.024456607177853584
1775721925309162200,4.095162353515625,0.2218588888645172,0.0031787490006536245,-0.026390062645077705
1775721925319176200,4.10517626953125,0.21977443993091583,-0.018796324729919434,-0.04653368145227432
1775721925329189000,4.115189208984375,0.20748528838157654,-0.04026300087571144,-0.03128814697265625
1775721925339202000,4.1252021484375,0.1966422200202942,-0.02418469823896885,0.0006370281334966421
1775721925349216300,4.13521630859375,0.1871565729379654,0.0012887036427855492,0.022043250501155853
1775721925359229200,4.145229248046875,0.17659127712249756,0.03341254964470863,0.02070314809679985
1775721925369243100,4.1552431640625,0.15634672343730927,0.04265158995985985,-0.006612629164010286
1775721925379256300,4.16525634765625,0.11425866186618805,0.05849446728825569,-0.03736761212348938
1775721925389270000,4.17527001953125,0.0703844204545021,0.08004210144281387,-0.07594456523656845
1775721925399283200,4.185283203125,0.023387880995869637,0.022306105121970177,-0.1381261795759201
1775721925409297200,4.195297119140625,-0.03750929236412048,-0.002823217073455453,-0.14972051978111267
1775721925419310000,4.20531005859375,-0.08606377989053726,0.02942340262234211,-0.1278168112039566
1775721925429324000,4.215323974609375,-0.11458569765090942,0.06095096841454506,-0.11686696112155914
1775721925439337200,4.225337158203125,-0.13005360960960388,0.1356489062309265,-0.1176035925745964
1775721925449350100,4.23535009765625,-0.1413600593805313,0.19021575152873993,-0.14816603064537048
1775721925459364000,4.245364013671875,-0.16624410450458527,0.263264924287796,-0.17275047302246094
1775721925469377000,4.255376953125,-0.17315234243869781,0.32140758633613586,-0.18848629295825958
1775721925479391000,4.265390869140625,-0.17272277176380157,0.32218629121780396,-0.19598469138145447
1775721925489404200,4.275404052734375,-0.1678720861673355,0.3278375267982483,-0.1946810632944107
1775721925499418400,4.28541845703125,-0.14034458994865417,0.305632084608078,-0.19926223158836365
1775721925509431000,4.29543115234375,-0.10714642703533173,0.25506559014320374,-0.21286113560199738
1775721925519445200,4.3054453125,-0.09380318969488144,0.10301665961742401,-0.2121439427137375
1775721925529458000,4.3154580078125,-0.0969795435667038,-0.053171876817941666,-0.17836414277553558
1775721925539472100,4.32547216796875,-0.06082766503095627,-0.15360181033611298,-0.12579920887947083
1775721925549485300,4.3354853515625,0.0025995115283876657,-0.19446802139282227,-0.10680980235338211
1775721925559498000,4.345498046875,0.09157305955886841,-0.19482861459255219,-0.11376304924488068
1775721925569512200,4.35551220703125,0.17535796761512756,-0.17653295397758484,-0.1139737069606781
1775721925579525000,4.365525146484375,0.23387880623340607,-0.108891062438488,-0.0742822214961052
1775721925589539000,4.3755390625,0.2734709680080414,-0.07804127037525177,-0.04108512029051781
1775721925599552300,4.38555224609375,0.2684708833694458,-0.16066718101501465,-0.05125785991549492
1775721925609566200,4.395566162109375,0.20949889719486237,-0.25161013007164,-0.07054154574871063
1775721925619579100,4.4055791015625,0.20801258087158203,-0.2858123183250427,-0.11711890250444412
1775721925629593000,4.415593017578125,0.21290694177150726,-0.2809581756591797,-0.20227400958538055
1775721925639606300,4.425606201171875,0.2113465964794159,-0.19762572646141052,-0.2540605068206787
1775721925649620000,4.435619873046875,0.2152547836303711,-0.10989374667406082,-0.2544991374015808
1775721925659633200,4.445633056640625,0.20693907141685486,-0.025240108370780945,-0.217501699924469
1775721925669646300,4.455646240234375,0.19789950549602509,-0.031094536185264587,-0.22916288673877716
1775721925679660000,4.465659912109375,0.14739930629730225,-0.11385758966207504,-0.2985432744026184
1775721925689673200,4.475673095703125,0.06585544347763062,-0.16123390197753906,-0.37551823258399963
1775721925699687200,4.485687255859375,-0.023868847638368607,-0.17802831530570984,-0.45144975185394287
1775721925709700000,4.4957001953125,-0.10115031898021698,-0.12566497921943665,-0.48703891038894653
1775721925719714000,4.505714111328125,-0.14941558241844177,-0.04163319617509842,-0.4751143157482147
1775721925729727200,4.515727294921875,-0.1543528139591217,0.04168805852532387,-0.4220620393753052
1775721925739741000,4.525740966796875,-0.15323536098003387,0.125393345952034,-0.34377920627593994
1775721925749753600,4.535753662109375,-0.12245028465986252,0.18697547912597656,-0.26790040731430054
1775721925759766800,4.545766845703125,-0.08843239396810532,0.18592992424964905,-0.20913298428058624
1775721925769781000,4.555781005859375,-0.09349080175161362,0.1856641322374344,-0.14089053869247437
1775721925779793700,4.565793701171875,-0.11603446304798126,0.1440431922674179,-0.10697971284389496
1775721925789807900,4.575807861328125,-0.1290445327758789,0.12006249278783798,-0.08784276992082596
1775721925799820800,4.58582080078125,-0.10031035542488098,0.08280646800994873,-0.08821401745080948
1775721925809834800,4.595834716796875,-0.06113738939166069,0.03193929046392441,-0.09126226603984833
1775721925819848000,4.605847900390625,-0.052739378064870834,0.09434247761964798,-0.007059507537633181
1775721925829862000,4.61586181640625,-0.02070208266377449,0.18985089659690857,0.0779065191745758
1775721925839874800,4.625874755859375,0.028655080124735832,0.3245357275009155,0.09564156830310822
1775721925849888800,4.635888671875,0.10465583950281143,0.5109407901763916,0.0829329639673233
1775721925859902000,4.64590185546875,0.15171308815479279,0.5743330717086792,0.048165399581193924
1775721925869915000,4.655914794921875,0.13146774470806122,0.48061853647232056,0.023696275427937508
1775721925879928800,4.6659287109375,0.06894072145223618,0.3888031542301178,0.05186399817466736
1775721925889942000,4.67594189453125,-0.0010801780736073852,0.31850820779800415,0.04914624243974686
1775721925899955700,4.685955810546875,-0.052379317581653595,0.20795133709907532,-0.02460414543747902
1775721925909969000,4.695968994140625,-0.07816271483898163,0.16729284822940826,-0.10914619266986847
1775721925919982800,4.70598291015625,-0.09452464431524277,0.17454570531845093,-0.11158538609743118
1775721925929995800,4.715995849609375,-0.09478909522294998,0.20788662135601044,-0.015106248669326305
1775721925940009700,4.726009765625,-0.01744184084236622,0.23788712918758392,0.10178947448730469
1775721925950023000,4.73602294921875,-0.0006916229031048715,0.31627753376960754,0.2512737810611725
1775721925960036900,4.746036865234375,0.20028702914714813,0.3965444266796112,0.3714718222618103
1775721925970049800,4.7560498046875,0.4022691547870636,0.35064536333084106,0.37054237723350525
1775721925980062700,4.766062744140625,0.46285393834114075,0.30773091316223145,0.3556419909000397
1775721925990076700,4.77607666015625,0.41429466009140015,0.2246408313512802,0.3476698100566864
1775721926000089900,4.78608984375,0.3400172293186188,0.08649814128875732,0.3141443431377411
1775721926010103800,4.796103759765625,0.3278447091579437,-0.0120702451094985,0.22006605565547943
1775721926020116700,4.80611669921875,0.27383074164390564,-0.06079810485243797,0.10039371252059937
1775721926030131000,4.816130859375,0.20862804353237152,-0.021871743723750114,-0.020677581429481506
1775721926040143600,4.8261435546875,0.15449769794940948,0.05486670881509781,-0.15343189239501953
1775721926050157800,4.83615771484375,0.11373136192560196,0.13300438225269318,-0.2453508973121643
1775721926060171000,4.8461708984375,0.08081362396478653,0.19920603930950165,-0.22969950735569
1775721926070184700,4.856184814453125,0.07586120814085007,0.20608125627040863,-0.11655750870704651
1775721926080198000,4.866197998046875,0.07509847730398178,0.2049797773361206,0.02015560120344162
1775721926090210800,4.8762109375,0.07541938871145248,0.22948965430259705,0.11747869104146957
1775721926100224800,4.886224853515625,0.07899974286556244,0.25934314727783203,0.12388146668672562
1775721926110238000,4.896238037109375,0.07158496975898743,0.2573050260543823,0.04123318940401077
1775721926120252000,4.906251953125,0.042928025126457214,0.22248047590255737,-0.07865513116121292
1775721926130264800,4.916264892578125,-0.0028541097417473793,0.16092950105667114,-0.1632823944091797
1775721926140278800,4.92627880859375,-0.0431557260453701,0.09282154589891434,-0.18095487356185913
1775721926150292000,4.9362919921875,-0.05753359943628311,0.07154475897550583,-0.1550111472606659
1775721926160305700,4.9463056640625,-0.05235321819782257,0.0788993388414383,-0.13660764694213867
1775721926170318800,4.95631884765625,-0.03873248025774956,0.1372649073600769,-0.15633155405521393
1775721926180331800,4.966331787109375,-0.03539926931262016,0.21565532684326172,-0.20167186856269836
1775721926190345700,4.976345703125,-0.04923092946410179,0.25936391949653625,-0.23149821162223816
1775721926200359000,4.98635888671875,-0.06912580877542496,0.2874315083026886,-0.22982600331306458
1775721926210372900,4.996372802734375,-0.07649371027946472,0.28042420744895935,-0.2310209721326828
1775721926220385800,5.0063857421875,-0.06527407467365265,0.25889015197753906,-0.23938515782356262
1775721926230399700,5.016399658203125,-0.034218158572912216,0.26085662841796875,-0.22116753458976746
1775721926240412700,5.02641259765625,0.011800200678408146,0.1773689240217209,-0.1897808462381363
1775721926250427000,5.036427001953125,0.05188823118805885,0.034438665956258774,-0.15932920575141907
1775721926260439800,5.046439697265625,0.09563251584768295,-0.12859073281288147,-0.1410876214504242
1775721926270452700,5.05645263671875,0.14260348677635193,-0.24088691174983978,-0.14244955778121948
1775721926280466700,5.066466796875,0.19201098382472992,-0.22659932076931,-0.13027730584144592
1775721926290479900,5.07647998046875,0.235844224691391,-0.13519270718097687,-0.11158325523138046
1775721926300493800,5.086493896484375,0.2560272514820099,0.011772769503295422,-0.08494418859481812
1775721926310506800,5.0965068359375,0.24037425220012665,0.1284692883491516,-0.05326322093605995
1775721926320521000,5.10652099609375,0.19296492636203766,0.2034362107515335,-0.021559886634349823
1775721926330533600,5.11653369140625,0.1387656033039093,0.19569280743598938,-0.008440356701612473
1775721926340547800,5.1265478515625,0.06582934409379959,0.1723126471042633,0.014013287611305714
1775721926350561000,5.13656103515625,-0.015179751440882683,0.13439323008060455,0.020060259848833084
1775721926360574700,5.14657470703125,-0.08722038567066193,0.09494542330503464,-0.011506986804306507
1775721926370588000,5.156587890625,-0.24822232127189636,0.06440215557813644,0.0029846045654267073
1775721926380600800,5.166600830078125,-0.23450730741024017,0.058224424719810486,-0.011518704704940319
1775721926390614800,5.17661474609375,-0.24382677674293518,0.05462542921304703,-0.10561138391494751
1775721926400628000,5.1866279296875,-0.34526658058166504,0.1655128002166748,-0.17380055785179138
1775721926410642000,5.196641845703125,-0.40931108593940735,0.31853803992271423,-0.2243713140487671
1775721926420654800,5.20665478515625,-0.4154336750507355,0.4537816047668457,-0.2577865421772003
1775721926430668800,5.216668701171875,-0.37865516543388367,0.48059484362602234,-0.24747104942798615
1775721926440682000,5.226681884765625,-0.316730797290802,0.45208436250686646,-0.16045865416526794
1775721926450695700,5.23669580078125,-0.2352050542831421,0.35761699080467224,-0.04282123222947121
1775721926460708900,5.246708984375,-0.16233298182487488,0.2694229483604431,0.08006181567907333
1775721926470721800,5.2567216796875,-0.09997080266475677,0.20312009751796722,0.14505386352539062
1775721926480735700,5.26673583984375,-0.07444200664758682,0.14227326214313507,0.12344230711460114
1775721926490749000,5.2767490234375,-0.09214750677347183,0.15192055702209473,0.07107817381620407
1775721926500762600,5.2867626953125,-0.12795983254909515,0.2107039839029312,-0.011889948509633541
1775721926510775800,5.29677587890625,-0.16352368891239166,0.258220374584198,-0.13325366377830505
1775721926520789800,5.306789794921875,-0.1633782684803009,0.23661813139915466,-0.2407550811767578
1775721926530802700,5.316802734375,-0.13280890882015228,0.13315698504447937,-0.29735204577445984
1775721926540817000,5.32681689453125,-0.10540179163217545,0.008153799921274185,-0.29974862933158875
1775721926550829800,5.336829833984375,-0.06971223652362823,-0.10480630397796631,-0.2731891870498657
1775721926560842800,5.3468427734375,-0.027333352714776993,-0.1830425262451172,-0.25041329860687256
1775721926570856700,5.356856689453125,0.004010187927633524,-0.2579021155834198,-0.22633033990859985
1775721926580870000,5.366869873046875,0.018545454367995262,-0.3054845631122589,-0.19764463603496552
1775721926590883800,5.3768837890625,0.02600097469985485,-0.29680052399635315,-0.19888220727443695
1775721926600896800,5.386896728515625,0.018629610538482666,-0.28207987546920776,-0.25372442603111267
1775721926610911000,5.396910888671875,-0.005919940769672394,-0.16858874261379242,-0.2885015606880188
1775721926620923600,5.406923583984375,-0.0265399981290102,-0.06427326053380966,-0.32543668150901794
1775721926630937900,5.416937744140625,-0.05011722818017006,0.0031997880432754755,-0.34233203530311584
1775721926640951000,5.426950927734375,-0.08148021250963211,0.019571570679545403,-0.32546305656433105
1775721926650963700,5.436963623046875,-0.11628959327936172,0.023603595793247223,-0.30594712495803833
1775721926660978000,5.44697802734375,-0.14629009366035461,0.02449602261185646,-0.3059207797050476
1775721926670990600,5.456990478515625,-0.16434286534786224,0.04610411077737808,-0.30349570512771606
1775721926681004800,5.4670048828125,-0.16781988739967346,0.04569025710225105,-0.29191893339157104
1775721926691018000,5.47701806640625,-0.16021524369716644,0.026619892567396164,-0.27132123708724976
1775721926701032000,5.487031982421875,-0.1347106695175171,-0.0011917646043002605,-0.24724414944648743
1775721926711044900,5.497044921875,-0.10650673508644104,-0.05089034512639046,-0.21761594712734222
1775721926721058800,5.507058837890625,-0.09028276056051254,-0.09963258355855942,-0.16713891923427582
1775721926731071700,5.51707177734375,-0.0839710682630539,-0.09624983370304108,-0.09719179570674896
1775721926741085000,5.5270849609375,-0.0793379619717598,-0.05272473022341728,-0.03717266768217087
1775721926751099000,5.537098876953125,-0.07344146072864532,0.008407332934439182,0.0029491845052689314
1775721926761111800,5.54711181640625,-0.08020642399787903,0.06403996795415878,0.028501415625214577
1775721926771125800,5.557125732421875,-0.08279953896999359,0.10044644773006439,0.036317527294158936
1775721926781139000,5.567138916015625,-0.08128553628921509,0.11205809563398361,0.03500112518668175
1775721926791152600,5.577152587890625,-0.07305556535720825,0.11221229285001755,0.031624238938093185
1775721926801165800,5.587165771484375,-0.06751299649477005,0.13104990124702454,0.03879399970173836
1775721926811179800,5.5971796875,-0.07149282842874527,0.1436072289943695,0.04481993615627289
1775721926821192700,5.607192626953125,-0.0827217772603035,0.1311124861240387,0.0439315065741539
1775721926831206000,5.617205810546875,-0.095347560942173,0.10693390667438507,0.052508480846881866
1775721926841219800,5.6272197265625,-0.10483613610267639,0.07418607920408249,0.06816387176513672
1775721926851232800,5.637232666015625,-0.09536673128604889,0.06980038434267044,0.07837390154600143
1775721926861246700,5.647246826171875,-0.07613284885883331,0.08196437358856201,0.06860648840665817
1775721926871260000,5.657260009765625,-0.05543476343154907,0.092753104865551,0.04302683100104332
1775721926881273900,5.66727392578125,-0.034142255783081055,0.09955748170614243,0.027958663180470467
1775721926891286800,5.677286865234375,-0.007966846227645874,0.10791288316249847,0.03333079069852829
1775721926901301000,5.687301025390625,0.02040114626288414,0.07253225892782211,0.04134344682097435
1775721926911313700,5.697313720703125,0.03778040036559105,0.006966030225157738,0.04598027467727661
1775721926921326800,5.707326904296875,0.055332232266664505,-0.01104412879794836,0.05035345256328583
1775721926931341000,5.717341064453125,0.07689265161752701,-0.003724430687725544,0.02196175791323185
1775721926941353700,5.727353759765625,0.10033272951841354,-0.014012222178280354,-0.03050944022834301
1775721926951368000,5.737367919921875,0.11287914961576462,-0.011873170733451843,-0.055456068366765976
1775721926961380600,5.747380615234375,0.1201905906200409,-0.014966166578233242,-0.05559508502483368
1775721926971394800,5.757394775390625,0.12175546586513519,-0.01744184084236622,-0.052972402423620224
1775721926981408000,5.767407958984375,0.11228233575820923,-0.026125343516469002,-0.06529591232538223
1775721926991421700,5.777421630859375,0.09034587442874908,-0.027519242838025093,-0.0794556736946106
1775721927001435000,5.787434814453125,0.060614343732595444,-0.006456567905843258,-0.08543926477432251
1775721927011447800,5.79744775390625,0.03062102571129799,0.00640863087028265,-0.08723503351211548
1775721927021461800,5.807461669921875,0.010676879435777664,0.02545475959777832,-0.08356813341379166
1775721927031475000,5.817474853515625,-0.003305249148979783,0.048778191208839417,-0.09775452315807343
1775721927041489000,5.827489013671875,-0.01985866017639637,0.06311425566673279,-0.11813729256391525
1775721927051501800,5.837501708984375,-0.03477076441049576,0.06492413580417633,-0.13137294352054596
1775721927061515800,5.847515869140625,-0.0543452650308609,0.06023138388991356,-0.11846060305833817
1775721927071529000,5.857529052734375,-0.05838740989565849,0.07359033077955246,-0.0978059247136116
1775721927081542700,5.867542724609375,-0.03550579771399498,0.09688872843980789,-0.10142755508422852
1775721927091555800,5.877555908203125,-0.004077033139765263,0.1218758374452591,-0.11234944313764572
1775721927101568800,5.88756884765625,0.016572851687669754,0.14360776543617249,-0.10405503213405609
1775721927111582700,5.897582763671875,0.028240425512194633,0.14381761848926544,-0.0905219092965126
1775721927121596000,5.907595947265625,0.03411988541483879,0.13702788949012756,-0.06404183059930801
1775721927131609900,5.91760986328125,0.044128045439720154,0.10765722393989563,-0.045829806476831436
1775721927141622800,5.927622802734375,0.04725166782736778,0.0638735219836235,-0.018914302811026573
1775721927151636700,5.93763671875,0.04529930278658867,0.04448384419083595,0.0033718282356858253
1775721927161649700,5.947649658203125,0.04484497010707855,0.053634997457265854,0.014213557355105877
1775721927171664000,5.957663818359375,0.03603683039546013,0.05741535499691963,0.0253389123827219
1775721927181676800,5.9676767578125,0.02274126559495926,0.04736032336950302,0.043354932218790054
1775721927191689700,5.977689697265625,-0.004637096077203751,0.043418847024440765,0.062180548906326294
1775721927201703700,5.98770361328125,-0.03197178244590759,0.04667908698320389,0.06533613055944443
1775721927211716900,5.997716796875,-0.055080294609069824,0.05711894482374191,0.05192738026380539
1775721927221730800,6.007730712890625,-0.07206380367279053,0.043593283742666245,0.024117587134242058
1775721927231743700,6.01774365234375,-0.07462576776742935,0.03134487196803093,0.00811837986111641
1775721927241758000,6.027758056640625,-0.05826463922858238,0.040040358901023865,0.030218355357646942
1775721927251770600,6.0377705078125,-0.038780685514211655,0.011708054691553116,0.07666255533695221
1775721927261783800,6.04778369140625,-0.02202008105814457,-0.03223756328225136,0.12434911727905273
1775721927271798000,6.057798095703125,-0.005703425966203213,-0.08040003478527069,0.14108441770076752
1775721927281810700,6.067810791015625,0.01161697506904602,-0.10171091556549072,0.12181751430034637
1775721927291825000,6.077824951171875,0.029050294309854507,-0.12366228550672531,0.0870123952627182
1775721927301837800,6.087837890625,0.036375850439071655,-0.14279817044734955,0.06690073758363724
1775721927311851800,6.097851806640625,0.033067937940359116,-0.1865227371454239,0.06695239990949631
1775721927321865000,6.107864990234375,0.0068062408827245235,-0.24620898067951202,0.0956793874502182
1775721927331879000,6.11787890625,-0.03158961609005928,-0.25814419984817505,0.15414083003997803
1775721927341891800,6.127891845703125,-0.08058485388755798,-0.21059159934520721,0.21417221426963806
1775721927351904800,6.13790478515625,-0.1377195119857788,-0.131709024310112,0.26071467995643616
1775721927361919000,6.1479189453125,-0.21512696146965027,-0.01576298475265503,0.30366480350494385
1775721927371932000,6.157931884765625,-0.29409685730934143,0.09571321308612823,0.3330184519290924
1775721927381945900,6.16794580078125,-0.36032381653785706,0.1532425433397293,0.3451022505760193
1775721927391958800,6.177958740234375,-0.3966890275478363,0.19639268517494202,0.3585118055343628
1775721927401972700,6.18797265625,-0.4094487726688385,0.19618256390094757,0.35677650570869446
1775721927411986000,6.19798583984375,-0.40279537439346313,0.1695839762687683,0.3573472201824188
1775721927421999900,6.207999755859375,-0.37910977005958557,0.10293996334075928,0.34233951568603516
1775721927432012800,6.2180126953125,-0.34640321135520935,0.02689206786453724,0.3199508488178253
1775721927442026000,6.22802587890625,-0.30380943417549133,-0.009338107891380787,0.30151110887527466
1775721927452039700,6.238039794921875,-0.2533174753189087,-0.004743089899420738,0.29502072930336
1775721927462052900,6.248052978515625,-0.19210392236709595,0.03629755228757858,0.3230685889720917
1775721927472066800,6.25806689453125,-0.1347506195306778,0.05199955031275749,0.3723498582839966
1775721927482079700,6.268079833984375,-0.08671678602695465,0.0389801561832428,0.43416956067085266
1775721927492093700,6.27809375,-0.046248987317085266,0.03564534708857536,0.49080461263656616
1775721927502107000,6.28810693359375,-0.021322332322597504,0.02197161130607128,0.5172598958015442
1775721927512119800,6.298119873046875,-0.012233763001859188,0.01942669413983822,0.531313955783844
1775721927522133800,6.3081337890625,0.008672317489981651,-0.030307838693261147,0.5262528657913208
1775721927532147000,6.31814697265625,0.03157922998070717,-0.1094905436038971,0.5113673806190491
1775721927542160600,6.32816064453125,0.05074413865804672,-0.23224176466464996,0.4827043414115906
1775721927552173800,6.338173828125,0.07528383284807205,-0.29586654901504517,0.46645691990852356
1775721927562188000,6.34818798828125,0.08936236798763275,-0.2757956385612488,0.4569193422794342
1775721927572200700,6.35820068359375,0.07998138666152954,-0.2686269283294678,0.42172834277153015
1775721927582215000,6.36821484375,0.07790251821279526,-0.18978272378444672,0.3711671531200409
1775721927592227800,6.378227783203125,0.09039434790611267,-0.1015457957983017,0.32267284393310547
1775721927602240800,6.38824072265625,0.10954619944095612,-0.07088935375213623,0.30693650245666504
1775721927612255000,6.3982548828125,0.11218219995498657,-0.09755052626132965,0.3245311975479126
1775721927622267600,6.408267578125,0.10765083134174347,-0.14121438562870026,0.3408137857913971
1775721927632281900,6.41828173828125,0.10900797694921494,-0.15644021332263947,0.3374001383781433
1775721927642294800,6.428294677734375,0.10876163095235825,-0.18793262541294098,0.3133389949798584
1775721927652308700,6.438308837890625,0.11908697336912155,-0.24491813778877258,0.27120113372802734
1775721927662322000,6.448322021484375,0.15024222433567047,-0.28624746203422546,0.22224292159080505
1775721927672334800,6.4583349609375,0.1843770295381546,-0.32533788681030273,0.18596400320529938
1775721927682348800,6.468348876953125,0.21548035740852356,-0.3377529978752136,0.18147657811641693
1775721927692361700,6.47836181640625,0.24876748025417328,-0.303912490606308,0.21179161965847015
1775721927702376000,6.4883759765625,0.30760735273361206,-0.2383667677640915,0.25040265917778015
1775721927712388900,6.498388916015625,0.3804623782634735,-0.17453745007514954,0.29476478695869446
1775721927722402800,6.50840283203125,0.44310685992240906,-0.1488179713487625,0.35475969314575195
1775721927732416000,6.518416015625,0.4825722575187683,-0.1548292636871338,0.41913947463035583
1775721927742430500,6.528430419921875,0.5010191798210144,-0.18829481303691864,0.48104625940322876
1775721927752443400,6.538443359375,0.49826785922050476,-0.227757528424263,0.5098208785057068
1775721927762456300,6.548456298828125,0.4872649908065796,-0.2663384675979614,0.5036048293113708
1775721927772470500,6.558470458984375,0.4766720235347748,-0.2765415906906128,0.4915092885494232
1775721927782483500,6.5684833984375,0.4595886170864105,-0.27008235454559326,0.47638359665870667
1775721927792497400,6.578497314453125,0.4398282468318939,-0.2245825082063675,0.46018117666244507
1775721927802510600,6.588510498046875,0.40754061937332153,-0.1584615409374237,0.4494965672492981
1775721927812524300,6.598524169921875,0.3471427857875824,-0.13191568851470947,0.43600979447364807
1775721927822537500,6.608537353515625,0.24315325915813446,-0.11440140753984451,0.4503525197505951
1775721927832550400,6.61855029296875,0.15849509835243225,-0.07040385901927948,0.45998597145080566
1775721927842564400,6.628564453125,0.10364863276481628,-0.008280566893517971,0.45839765667915344
1775721927852577500,6.63857763671875,0.046537406742572784,0.0354464091360569,0.45465007424354553
1775721927862591500,6.648591552734375,-0.004461327567696571,0.08716952055692673,0.4491138756275177
1775721927872604400,6.6586044921875,-0.05349171906709671,0.12056689709424973,0.4383943974971771
1775721927882618400,6.668618408203125,-0.09122178703546524,0.09574995934963226,0.415130078792572
1775721927892631300,6.67863134765625,-0.11255663633346558,0.01991645060479641,0.3836539089679718
1775721927902645200,6.688645263671875,-0.13695386052131653,-0.06421653926372528,0.35344967246055603
1775721927912658400,6.698658447265625,-0.15829908847808838,-0.11131560802459717,0.35384541749954224
1775721927922671400,6.70867138671875,-0.16938184201717377,-0.10603881627321243,0.37296372652053833
1775721927932685300,6.718685302734375,-0.16497190296649933,-0.06693509221076965,0.39336568117141724
1775721927942698500,6.728698486328125,-0.1487942785024643,0.01375229749828577,0.4177514314651489
1775721927952712200,6.738712158203125,-0.14092250168323517,0.03898761421442032,0.4278067350387573
1775721927962725400,6.748725341796875,-0.15422126650810242,0.00464588450267911,0.4178933799266815
1775721927972739600,6.758739501953125,-0.1850247085094452,-0.04838963598012924,0.3868523836135864
1775721927982752300,6.768752197265625,-0.23474912345409393,-0.08749283105134964,0.3562965989112854
1775721927992765400,6.778765380859375,-0.28877002000808716,-0.08858978748321533,0.3311382532119751
1775721928002779400,6.788779296875,-0.3270803987979889,-0.06029396504163742,0.3067021369934082
1775721928012792300,6.798792236328125,-0.33758148550987244,-0.05498042702674866,0.2751586139202118
1775721928022806500,6.808806640625,-0.3486413359642029,-0.1034129410982132,0.24391040205955505
1775721928032819500,6.8188193359375,-0.3665452301502228,-0.1578783094882965,0.23366574943065643
1775721928042833400,6.82883349609375,-0.3663873076438904,-0.1894357055425644,0.2353760302066803
1775721928052846300,6.838846435546875,-0.34961792826652527,-0.2233547866344452,0.21000489592552185
1775721928062859300,6.848859375,-0.31644532084465027,-0.20298294723033905,0.17285273969173431
1775721928072873500,6.85887353515625,-0.27631068229675293,-0.18119215965270996,0.14640168845653534
1775721928082886400,6.868886474609375,-0.21568329632282257,-0.15420500934123993,0.11449728161096573
1775721928092900600,6.878900634765625,-0.15095143020153046,-0.15885116159915924,0.0763232633471489
1775721928102913300,6.888913330078125,-0.12711454927921295,-0.1380007416009903,0.08517827838659286
1775721928112927500,6.898927490234375,-0.09197839349508286,-0.1836550533771515,0.07763833552598953
1775721928122940400,6.9089404296875,-0.009844374842941761,-0.26257967948913574,0.029227128252387047
1775721928132954400,6.918954345703125,0.08904732018709183,-0.3961649239063263,-0.02400173991918564
1775721928142967600,6.928967529296875,0.17474304139614105,-0.47496119141578674,-0.011783422902226448
1775721928152980200,6.938980224609375,0.3121517598628998,-0.46656957268714905,0.055813197046518326
1775721928162994400,6.948994384765625,0.4836257994174957,-0.4613039791584015,0.1924607902765274
1775721928173007600,6.959007568359375,0.6211575269699097,-0.4217754602432251,0.39629489183425903
1775721928183021300,6.969021240234375,0.6904165148735046,-0.3100888729095459,0.6043972373008728
1775721928193034500,6.979034423828125,0.7187277674674988,-0.1508808583021164,0.7250897884368896
1775721928203048400,6.98904833984375,0.6705775856971741,-0.03840864077210426,0.7549132108688354
1775721928213061400,6.999061279296875,0.5402142405509949,0.09618698805570602,0.717441737651825
1775721928223074600,7.009074462890625,0.40873050689697266,0.26314854621887207,0.5987228155136108
1775721928233088500,7.019088623046875,0.3056267499923706,0.4464794993400574,0.4976625144481659
1775721928243101400,7.029101318359375,0.2695161700248718,0.7340452075004578,0.49137187004089355
1775721928253115400,7.039115478515625,0.2779586613178253,1.0117130279541016,0.5544584393501282
1775721928263128600,7.049128662109375,0.2964729368686676,1.1481289863586426,0.6559211015701294
1775721928273142300,7.059142333984375,0.29049280285835266,1.103813648223877,0.7323535680770874
1775721928283155500,7.069155517578125,0.22001545131206512,0.9077536463737488,0.7310917973518372
1775721928293168400,7.07916845703125,0.08845449984073639,0.6399267315864563,0.6522771120071411
1775721928303182300,7.089182373046875,-0.04988313838839531,0.4622025191783905,0.5094592571258545
1775721928313195500,7.099195556640625,-0.1534350961446762,0.4300408661365509,0.3433176875114441
1775721928323209200,7.109209228515625,-0.24193619191646576,0.4383541941642761,0.19451595842838287
1775721928333222400,7.119222412109375,-0.3216874897480011,0.3803798258304596,0.08122321963310242
1775721928343236400,7.129236328125,-0.38412371277809143,0.23935799300670624,0.010056362487375736
1775721928353249300,7.139249267578125,-0.44786831736564636,0.09023455530405045,-0.035648275166749954
1775721928363262500,7.149262451171875,-0.49251168966293335,-0.01871643029153347,-0.07539249211549759
1775721928373276400,7.1592763671875,-0.506071150302887,-0.07990148663520813,-0.1255163848400116
1775721928383289300,7.169289306640625,-0.5066820979118347,-0.08782492578029633,-0.1841069906949997
1775721928393303300,7.17930322265625,-0.5164306163787842,-0.09982512891292572,-0.23511211574077606
1775721928403316500,7.18931640625,-0.512114405632019,-0.11650025099515915,-0.29138684272766113
1775721928413330400,7.199330322265625,-0.4726732671260834,-0.1349458396434784,-0.3648884892463684
1775721928423343400,7.20934326171875,-0.41890138387680054,-0.11189936846494675,-0.39211133122444153
1775721928433356300,7.219356201171875,-0.3532768487930298,-0.07909215241670609,-0.3469659388065338
1775721928443370200,7.229370361328125,-0.2606763243675232,-0.06639979779720306,-0.27475085854530334
1775721928453383400,7.239383544921875,-0.152574360370636,-0.12272219359874725,-0.210068017244339
1775721928463397400,7.2493974609375,-0.0357300341129303,-0.1892934888601303,-0.153376504778862
1775721928473410300,7.259410400390625,0.0720270574092865,-0.18384040892124176,-0.09622213989496231
1775721928483424500,7.269424560546875,0.15955130755901337,-0.15132400393486023,-0.04210351034998894
1775721928493437200,7.279437255859375,0.22303414344787598,-0.11423549801111221,-0.004080761689692736
1775721928503451400,7.289451416015625,0.27872803807258606,-0.09353341162204742,0.013884389773011208
1775721928513464600,7.299464599609375,0.31859901547431946,-0.0704379454255104,0.035000063478946686
1775721928523477200,7.309477294921875,0.3415354788303375,-0.04598293825984001,0.06251157820224762
1775721928533491500,7.319491455078125,0.33070388436317444,-0.05741748586297035,0.08178754150867462
1775721928543504400,7.32950439453125,0.29280710220336914,-0.06503226608037949,0.10020755976438522
1775721928553518300,7.339518310546875,0.2392490655183792,-0.07068881392478943,0.10007413476705551
1775721928563531500,7.349531494140625,0.1749638170003891,-0.0630229040980339,0.08110896497964859
1775721928573545500,7.35954541015625,0.12951484322547913,-0.015920110046863556,0.043948281556367874
1775721928583558400,7.369558349609375,0.10413678735494614,0.00833809096366167,-0.009753295220434666
1775721928593571300,7.3795712890625,0.07845991849899292,0.003801928833127022,-0.03467275947332382
1775721928603585500,7.38958544921875,0.035291410982608795,-0.016271913424134254,-0.02016039565205574
1775721928613598500,7.399598388671875,-0.0008016114588826895,0.0022506373934447765,-0.0034884747583419085
1775721928623612400,7.4096123046875,-0.025013741105794907,0.0029435919132083654,-0.01230513583868742
1775721928633625600,7.41962548828125,-0.06418590992689133,-0.0010285128373652697,-0.015153652988374233
1775721928643639300,7.429639404296875,-0.11074995249509811,-0.00759853096678853,-0.015415973961353302
1775721928653652500,7.439652587890625,-0.1337902843952179,0.03206472471356392,-0.027884894981980324
1775721928663665400,7.44966552734375,-0.12331261485815048,0.10782899707555771,-0.0400153249502182
1775721928673679400,7.459679443359375,-0.10334369540214539,0.1415259689092636,-0.036254942417144775
1775721928683692500,7.469692626953125,-0.10100437700748444,0.12532676756381989,-0.002772883279249072
1775721928693706500,7.47970654296875,-0.09295816719532013,0.09515607357025146,0.02520868368446827
1775721928703719400,7.489719482421875,-0.09409773349761963,0.08336493372917175,0.040415599942207336
1775721928713733400,7.4997333984375,-0.10424837470054626,0.08671092987060547,0.035235751420259476
1775721928723746300,7.509746337890625,-0.11182080954313278,0.09916999191045761,0.0033963292371481657
1775721928733759500,7.519759521484375,-0.11546480655670166,0.12323138862848282,-0.035831235349178314
1775721928743773200,7.529773193359375,-0.09812603145837784,0.13305632770061493,-0.0610835924744606
1775721928753786000,7.5397861328125,-0.07265609502792358,0.11958019435405731,-0.0676267147064209
1775721928763800000,7.549800048828125,-0.04464017227292061,0.06627888977527618,-0.07210402190685272
1775721928773813200,7.559813232421875,-0.02393915504217148,-0.011150921694934368,-0.08081149309873581
1775721928783827200,7.5698271484375,-0.00640836451202631,-0.047381896525621414,-0.08829443901777267
1775721928793840000,7.579840087890625,0.01877129077911377,-0.024833710864186287,-0.10188055783510208
1775721928803853300,7.589853271484375,0.052915144711732864,0.019869579002261162,-0.11927445977926254
1775721928813867000,7.599866943359375,0.09168677777051926,0.057085923850536346,-0.12982110679149628
1775721928823880200,7.609880126953125,0.12337812781333923,0.07274717092514038,-0.13514237105846405
1775721928833894100,7.61989404296875,0.13575462996959686,0.04815581068396568,-0.14414678514003754
1775721928843907000,7.629906982421875,0.13492612540721893,0.04911188408732414,-0.15553472936153412
1775721928853921300,7.63992138671875,0.1422269195318222,0.06874843686819077,-0.1842489391565323
1775721928863934200,7.649934326171875,0.15347930788993835,0.08200804889202118,-0.230483278632164
1775721928873947100,7.659947021484375,0.16107970476150513,0.11274252831935883,-0.2623237669467926
1775721928883961000,7.669961181640625,0.17713668942451477,0.15717603266239166,-0.28793272376060486
1775721928893974300,7.679974365234375,0.2023853212594986,0.15102572739124298,-0.31319281458854675
1775721928903988200,7.68998828125,0.21939466893672943,0.10971637815237045,-0.32253116369247437
1775721928914001200,7.700001220703125,0.24069303274154663,0.02100594900548458,-0.34144067764282227
1775721928924015400,7.710015380859375,0.2625141739845276,-0.10179773718118668,-0.3636551797389984
1775721928934028000,7.720028076171875,0.24913285672664642,-0.2216988354921341,-0.37292617559432983
1775721928944041200,7.730041259765625,0.1992449313402176,-0.2668737769126892,-0.36457395553588867
1775721928954055400,7.740055419921875,0.13171887397766113,-0.2500111758708954,-0.37777286767959595
1775721928964068000,7.750068115234375,0.05261394381523132,-0.20833829045295715,-0.422079861164093
1775721928974082300,7.760082275390625,-0.015542740933597088,-0.14679530262947083,-0.45827221870422363
1775721928984095000,7.770094970703125,-0.07994569838047028,-0.06998494267463684,-0.45450466871261597
1775721928994109200,7.780109130859375,-0.15249207615852356,-0.006372678093612194,-0.41994509100914
1775721929004122400,7.790122314453125,-0.19446641206741333,0.05814959108829498,-0.373625785112381
1775721929014135000,7.800135009765625,-0.20556621253490448,0.12761254608631134,-0.3044717609882355
1775721929024149200,7.810149169921875,-0.21886789798736572,0.1374175101518631,-0.25241678953170776
1775721929034162200,7.820162109375,-0.2181115597486496,0.11600516736507416,-0.22815513610839844
1775721929044176100,7.830176025390625,-0.21326008439064026,0.09777343273162842,-0.2116675078868866
1775721929054189300,7.840189208984375,-0.19777512550354004,0.08486828207969666,-0.2014593482017517
1775721929064203300,7.850203369140625,-0.13229864835739136,0.07797975093126297,-0.19097261130809784
1775721929074216200,7.86021630859375,-0.05361209437251091,0.11721743643283844,-0.13813230395317078
1775721929084229000,7.87022900390625,0.0001560612436151132,0.16595567762851715,-0.09562692046165466
1775721929094243300,7.880243408203125,0.09720564633607864,0.20314273238182068,-0.08726832270622253
1775721929104256300,7.89025634765625,0.19554686546325684,0.22591382265090942,-0.06437046825885773
1775721929114270200,7.900270263671875,0.24708089232444763,0.2504247725009918,-0.0027861990965902805
1775721929124283100,7.910283203125,0.2724379301071167,0.23391741514205933,0.03666560351848602
1775721929134297000,7.920297119140625,0.2650553584098816,0.19511570036411285,0.060014866292476654
1775721929144310300,7.930310302734375,0.23123136162757874,0.15259966254234314,0.0615009106695652
1775721929154323200,7.9403232421875,0.17379842698574066,0.08566829562187195,0.000020772657080669887
1775721929164337200,7.950337158203125,0.1197543665766716,0.10274821519851685,-0.07348593324422836
1775721929174350300,7.960350341796875,0.06958173960447311,0.1654890924692154,-0.14017654955387115
1775721929184364000,7.970364013671875,0.04524178057909012,0.21218176186084747,-0.18422789871692657
1775721929194377200,7.980377197265625,0.04430647939443588,0.2180740088224411,-0.18860825896263123
1775721929204391200,7.99039111328125,0.026760241016745567,0.18981334567070007,-0.15958699584007263
1775721929214404000,8.000404052734375,-0.013735519722104073,0.1381741166114807,-0.15851721167564392
1775721929224417300,8.010417236328125,-0.06703735888004303,0.12902508676052094,-0.18089520931243896
1775721929234431200,8.02043115234375,-0.1293601244688034,0.06307856738567352,-0.22695006430149078
1775721929244444200,8.030444091796875,-0.17670845985412598,-0.052082642912864685,-0.29981309175491333
1775721929254458000,8.0404580078125,-0.20575129985809326,-0.07755471020936966,-0.3441499173641205
1775721929264471300,8.05047119140625,-0.2712320387363434,-0.01642424613237381,-0.34069207310676575
1775721929274484200,8.060484130859376,-0.3279544413089752,0.11965103447437286,-0.3222818970680237
1775721929284498200,8.070498291015625,-0.32625719904899597,0.29974010586738586,-0.31163617968559265
1775721929294511000,8.080510986328125,-0.2896898686885834,0.41026076674461365,-0.30522674322128296
1775721929304525000,8.090525146484374,-0.24095162749290466,0.43105846643447876,-0.28377392888069153
1775721929314538200,8.100538330078125,-0.1787625551223755,0.3409317433834076,-0.2617136240005493
1775721929324552200,8.11055224609375,-0.12177383899688721,0.16939514875411987,-0.27061763405799866
1775721929334565000,8.120565185546875,-0.0941973403096199,0.07646574825048447,-0.27900049090385437
1775721929344578300,8.130578369140625,-0.10783645510673523,0.04156635329127312,-0.3008357286453247
1775721929354592000,8.140592041015625,-0.12224734574556351,0.009199890308082104,-0.35484278202056885
1775721929364605200,8.150605224609375,-0.09963391721248627,0.0764463022351265,-0.3912588357925415
1775721929374619100,8.160619140625,-0.08565844595432281,0.17421334981918335,-0.3825471103191376
1775721929384632000,8.170632080078125,-0.12380290031433105,0.2778899371623993,-0.31986427307128906
1775721929394646300,8.180646240234376,-0.18390245735645294,0.3530866801738739,-0.2546708881855011
1775721929404659200,8.1906591796875,-0.22534416615962982,0.413557231426239,-0.23421862721443176
1775721929414672100,8.200672119140625,-0.2662503123283386,0.48170140385627747,-0.24914458394050598
1775721929424686000,8.21068603515625,-0.3022480010986328,0.4870074689388275,-0.29087579250335693
1775721929434699300,8.22069921875,-0.32606253027915955,0.39842140674591064,-0.3410779535770416
1775721929444713200,8.230713134765624,-0.3383692502975464,0.29024168848991394,-0.35969212651252747
1775721929454726100,8.24072607421875,-0.34207186102867126,0.2078903466463089,-0.35205551981925964
1775721929464740400,8.250740234375,-0.3291928172111511,0.20720192790031433,-0.3311220109462738
1775721929474753000,8.2607529296875,-0.3017286956310272,0.2636417746543884,-0.29875102639198303
1775721929484766200,8.27076611328125,-0.26173412799835205,0.2956862449645996,-0.2787597179412842
1775721929494780400,8.280780517578124,-0.20252327620983124,0.2842317223548889,-0.2669920027256012
1775721929504793000,8.29079296875,-0.14695695042610168,0.2778811454772949,-0.2363632619380951
1775721929514807300,8.300807373046876,-0.08860736340284348,0.23553955554962158,-0.20269052684307098
1775721929524820000,8.310820068359375,-0.018604842945933342,0.1489950716495514,-0.19101469218730927
1775721929534833200,8.320833251953125,0.06241144612431526,0.045455630868673325,-0.18917471170425415
1775721929544847400,8.330847412109375,0.14186738431453705,-0.08220059424638748,-0.1955106407403946
1775721929554860000,8.340860107421875,0.21179774403572083,-0.18252453207969666,-0.1934134066104889
1775721929564874200,8.350874267578124,0.25337979197502136,-0.21003977954387665,-0.16928569972515106
1775721929574887200,8.36088720703125,0.27492958307266235,-0.17293475568294525,-0.14731328189373016
1775721929584901000,8.370901123046876,0.2835025489330292,-0.10611498355865479,-0.14346767961978912
1775721929594914300,8.380914306640625,0.2710384130477905,-0.02454742044210434,-0.14723792672157288
1775721929604927200,8.39092724609375,0.23805783689022064,0.027036944404244423,-0.14581738412380219
1775721929614941200,8.400941162109374,0.18699145317077637,0.05626513808965683,-0.13024136424064636
1775721929624954000,8.4109541015625,0.12160925567150116,0.0559503510594368,-0.1347213238477707
1775721929634968300,8.42096826171875,0.04803943261504173,0.06102553755044937,-0.1889888346195221
1775721929644981200,8.430981201171875,-0.004992894362658262,0.09387509524822235,-0.2540586292743683
1775721929654995200,8.4409951171875,-0.03855537995696068,0.1191258579492569,-0.2898741662502289
1775721929665008400,8.45100830078125,-0.0661822184920311,0.12136904150247574,-0.28285035490989685
1775721929675021000,8.46102099609375,-0.09008514881134033,0.10099292546510696,-0.261360228061676
1775721929685035300,8.47103515625,-0.11864941567182541,0.09818648546934128,-0.24250558018684387
1775721929695048200,8.481048095703125,-0.14041729271411896,0.1254979968070984,-0.257214218378067
1775721929705062100,8.491062255859376,-0.14817482233047485,0.1628243327140808,-0.2887322008609772
1775721929715075300,8.501075439453125,-0.14656680822372437,0.19334283471107483,-0.2977893352508545
1775721929725088000,8.511087890625,-0.14171692728996277,0.1738511472940445,-0.2881758511066437
1775721929735102200,8.521102294921874,-0.12002813816070557,0.10607822984457016,-0.27732935547828674
1775721929745115600,8.53111572265625,-0.08970192074775696,0.030973095446825027,-0.2646353840827942
1775721929755129600,8.541129638671874,-0.06475156545639038,-0.021468540653586388,-0.25351402163505554
1775721929765142800,8.551142822265625,-0.041073400527238846,-0.04888525232672691,-0.24670885503292084
1775721929775156700,8.56115673828125,-0.031736359000205994,-0.07401217520236969,-0.25300854444503784
1775721929785169700,8.571169677734375,-0.03231000155210495,-0.06372971087694168,-0.27683746814727783
1775721929795182600,8.5811826171875,-0.027764786034822464,-0.06973434239625931,-0.3057982623577118
1775721929805196800,8.59119677734375,-0.0326884388923645,-0.0560118705034256,-0.27963536977767944
1775721929815209700,8.601209716796875,-0.04541648179292679,-0.028202077373862267,-0.22680625319480896
1775721929825223700,8.6112236328125,-0.045888129621744156,-0.020361198112368584,-0.19192522764205933
1775721929835236600,8.621236572265625,-0.03166578337550163,0.008232363499701023,-0.18436238169670105
1775721929845249500,8.63124951171875,-0.014132330194115639,0.027646807953715324,-0.19774582982063293
1775721929855263700,8.641263671875,-0.004710332956165075,0.00947845634073019,-0.19611650705337524
1775721929865276700,8.651276611328125,-0.011477425694465637,-0.008859005756676197,-0.16783666610717773
1775721929875290600,8.66129052734375,-0.03483015298843384,-0.01792893372476101,-0.1447707712650299
1775721929885303800,8.6713037109375,-0.05883828178048134,-0.03512709587812424,-0.14411775767803192
1775721929895317500,8.6813173828125,-0.08555325120687485,-0.025791117921471596,-0.1706513613462448
1775721929905330700,8.69133056640625,-0.1068875640630722,-0.021888786926865578,-0.21249841153621674
1775721929915344000,8.70134375,-0.13204804062843323,-0.017916416749358177,-0.2133282572031021
1775721929925357600,8.711357666015624,-0.1580495536327362,-0.020838968455791473,-0.17476142942905426
1775721929935370800,8.721370849609375,-0.17720380425453186,-0.020907146856188774,-0.15608200430870056
1775721929945384700,8.731384765625,-0.1829216182231903,-0.008275507017970085,-0.1557549685239792
1775721929955397600,8.741397705078125,-0.19194680452346802,-0.005793174263089895,-0.16600601375102997
1775721929965411600,8.75141162109375,-0.21995633840560913,-0.006938067264854908,-0.1866907924413681
1775721929975424800,8.7614248046875,-0.25321096181869507,0.007439806591719389,-0.20949970185756683
1775721929985437700,8.771437744140625,-0.27301448583602905,0.002004561247304082,-0.24420706927776337
1775721929995451600,8.78145166015625,-0.27904653549194336,-0.018692728132009506,-0.26276877522468567
1775721930005464600,8.791464599609375,-0.2786515951156616,-0.04765913262963295,-0.27670323848724365
1775721930015478500,8.801478515625,-0.27881911396980286,-0.08073026686906815,-0.28616172075271606
1775721930025491700,8.81149169921875,-0.2896808087825775,-0.07060359418392181,-0.26186808943748474
1775721930035504600,8.821504638671875,-0.32428407669067383,-0.03429964929819107,-0.24019795656204224
1775721930045518600,8.8315185546875,-0.3748825192451477,0.02508830837905407,-0.25593698024749756
1775721930055531800,8.84153173828125,-0.4171178638935089,0.09125827252864838,-0.3171726167201996
1775721930065545500,8.85154541015625,-0.43385690450668335,0.12394484877586365,-0.3832691013813019
1775721930075558700,8.86155859375,-0.41141656041145325,0.1232452318072319,-0.38431331515312195
1775721930085572600,8.871572509765626,-0.37387558817863464,0.08997143805027008,-0.3368874788284302
1775721930095585500,8.88158544921875,-0.3311813771724701,0.035642415285110474,-0.2918563485145569
1775721930105598700,8.8915986328125,-0.2808748185634613,-0.006099171470850706,-0.2872419059276581
1775721930115612700,8.90161279296875,-0.22799907624721527,-0.04228966683149338,-0.32935500144958496
1775721930125625600,8.91162548828125,-0.16031697392463684,-0.04572967067360878,-0.3804011344909668
1775721930135639600,8.9216396484375,-0.0791504755616188,-0.0620974600315094,-0.4000254273414612
1775721930145652500,8.931652587890625,-0.013797837309539318,-0.10630060732364655,-0.3798796832561493
1775721930155665700,8.941665771484375,0.056647300720214844,-0.14970479905605316,-0.34123560786247253
1775721930165679600,8.9516796875,0.14047348499298096,-0.17930957674980164,-0.3243197500705719
1775721930175692500,8.961692626953125,0.20337256789207458,-0.1965724527835846,-0.3114092946052551
1775721930185706500,8.97170654296875,0.24172528088092804,-0.1932661384344101,-0.2835600674152374
1775721930195719700,8.9817197265625,0.24474956095218658,-0.1683887392282486,-0.2502175569534302
1775721930205733600,8.991733642578126,0.22773116827011108,-0.10934513062238693,-0.20492331683635712
1775721930215746600,9.00174658203125,0.20443782210350037,-0.0590505376458168,-0.16811417043209076
1775721930225759700,9.011759765625,0.19034969806671143,-0.029830865561962128,-0.15179938077926636
1775721930235773400,9.0217734375,0.1893978863954544,-0.020864002406597137,-0.13391253352165222
1775721930245786600,9.03178662109375,0.19115450978279114,-0.021408353000879288,-0.11271189898252487
1775721930255800800,9.04180078125,0.18582658469676971,-0.027663851156830788,-0.08988062292337418
1775721930265813500,9.0518134765625,0.1826813966035843,-0.019404057413339615,-0.06310732662677765
1775721930275826700,9.06182666015625,0.18778321146965027,0.0007073355955071747,-0.034690868109464645
1775721930285840600,9.071840576171875,0.192696213722229,0.024278441444039345,-0.0036368127912282944
1775721930295853600,9.081853515625,0.1939452439546585,0.06006946042180061,0.037461355328559875
1775721930305867800,9.09186767578125,0.20398801565170288,0.06625199317932129,0.05410371348261833
1775721930315880400,9.10188037109375,0.21787454187870026,0.04506867378950119,0.06992848217487335
1775721930325894700,9.111894775390626,0.23512916266918182,0.022341258823871613,0.1017247661948204
1775721930335907600,9.121907470703125,0.23966771364212036,-0.015106515027582645,0.13313035666942596
1775721930345920500,9.13192041015625,0.24163658916950226,-0.03506211191415787,0.14742407202720642
1775721930355934700,9.141934814453125,0.25369513034820557,-0.02581428736448288,0.135277658700943
1775721930365947600,9.15194775390625,0.2760169506072998,-0.03008386678993702,0.10927855223417282
1775721930375961600,9.161961669921874,0.29371339082717896,-0.06227482482790947,0.08639880269765854
1775721930385974500,9.171974609375,0.2938161790370941,-0.09329745918512344,0.08717351406812668
1775721930395987700,9.18198779296875,0.27918529510498047,-0.1251688301563263,0.09623119235038757
1775721930406001700,9.192001708984375,0.24988865852355957,-0.14907176792621613,0.10737599432468414
1775721930416014600,9.2020146484375,0.22528931498527527,-0.15956729650497437,0.10505957156419754
1775721930426028800,9.21202880859375,0.20323620736598969,-0.17101356387138367,0.10116630047559738
1775721930436041500,9.22204150390625,0.1737414300441742,-0.17070835828781128,0.10644654929637909
1775721930446054700,9.2320546875,0.14819931983947754,-0.17159704864025116,0.11117499321699142
1775721930456068900,9.24206884765625,0.11509010195732117,-0.1842111200094223,0.11246982216835022
1775721930466081500,9.25208154296875,0.07801330834627151,-0.18361403048038483,0.10717812180519104
1775721930476095700,9.262095703125,0.04024063050746918,-0.1888524740934372,0.0821734294295311
1775721930486108400,9.2721083984375,0.014868960715830326,-0.1773548126220703,0.06832978874444962
1775721930496122600,9.28212255859375,0.00561181316152215,-0.17633721232414246,0.06388923525810242
1775721930506135800,9.2921357421875,0.003935087006539106,-0.20384500920772552,0.0501750186085701
1775721930516148500,9.3021484375,0.005151352379471064,-0.2201390266418457,0.04628653824329376
1775721930526162700,9.31216259765625,0.002918291836977005,-0.21727345883846283,0.04434695839881897
1775721930536175600,9.322175537109375,0.002280997345224023,-0.2113782912492752,0.027175161987543106
1775721930546189600,9.332189453125,-0.0027688886038959026,-0.18739013373851776,0.004198739770799875
1775721930556202800,9.34220263671875,-0.0032900692895054817,-0.1300426870584488,-0.0026674221735447645
1775721930566215700,9.352215576171876,0.015664180740714073,-0.06809569895267487,0.014507037587463856
1775721930576229600,9.362229736328125,0.046556051820516586,-0.05016303434967995,0.042875826358795166
1775721930586242600,9.37224267578125,0.05880019813776016,-0.07727934420108795,0.07410884648561478
1775721930596256800,9.3822568359375,0.05973896384239197,-0.10808971524238586,0.08893093466758728
1775721930606269700,9.392269775390625,0.05591679364442825,-0.1124410554766655,0.07478316128253937
1775721930616283600,9.40228369140625,0.04332856461405754,-0.10646092891693115,0.04105022922158241
1775721930626296800,9.412296875,0.02526860497891903,-0.08907634764909744,0.017412811517715454
1775721930636309500,9.4223095703125,0.006469883490353823,-0.0762670710682869,-0.00421365350484848
1775721930646323700,9.43232373046875,-0.010415889322757721,-0.06598886847496033,-0.02779807522892952
1775721930656336600,9.442336669921875,-0.02935948595404625,-0.0392770990729332,-0.05060112476348877
1775721930666350600,9.4523505859375,-0.04441353678703308,-0.0038064562249928713,-0.08042000979185104
1775721930676363800,9.46236376953125,-0.05445631593465805,0.026283003389835358,-0.09908930212259293
1775721930686376400,9.47237646484375,-0.06084950268268585,0.041961830109357834,-0.10284462571144104
1775721930696390700,9.482390625,-0.058822836726903915,0.0378967821598053,-0.0935928001999855
1775721930706403800,9.49240380859375,-0.04910575971007347,0.024441160261631012,-0.07355384528636932
1775721930716417500,9.50241748046875,-0.04423270747065544,-0.004384362138807774,-0.054661113768815994
1775721930726430700,9.5124306640625,-0.041854772716760635,-0.03994155675172806,-0.03963103145360947
1775721930736444700,9.522444580078124,-0.04342390596866608,-0.058404985815286636,-0.037694383412599564
1775721930746457300,9.532457275390625,-0.03598276898264885,-0.05097103863954544,-0.03893221914768219
1775721930756470300,9.54247021484375,-0.03128575161099434,-0.05543875694274902,-0.041665688157081604
1775721930766484200,9.552484130859375,-0.031506527215242386,-0.06051287800073624,-0.04111681133508682
1775721930776497400,9.562497314453125,-0.025235582143068314,-0.06564798206090927,-0.04386119917035103
1775721930786511000,9.572510986328124,-0.01871855929493904,-0.05390078201889992,-0.03134087845683098
1775721930796524300,9.582524169921875,-0.022940469905734062,-0.04659333452582359,-0.00929256808012724
1775721930806537500,9.592537353515626,-0.04042065888643265,-0.030054038390517235,0.01691240444779396
1775721930816551200,9.60255126953125,-0.06372278928756714,-0.001847434788942337,0.04152480512857437
1775721930826564400,9.612564453125,-0.09153950214385986,0.045099832117557526,0.07083342969417572
1775721930836578300,9.622578369140625,-0.10781967639923096,0.08812692761421204,0.09205456078052521
1775721930846591200,9.63259130859375,-0.10898613929748535,0.11924836039543152,0.09490281343460083
1775721930856604400,9.6426044921875,-0.09294911473989487,0.1133665069937706,0.0807502418756485
1775721930866618400,9.652618408203125,-0.07698612660169601,0.07117936760187149,0.06831035017967224
1775721930876631300,9.66263134765625,-0.06497420370578766,0.06071155145764351,0.06261225044727325
1775721930886645200,9.672645263671875,-0.049257293343544006,0.05409945547580719,0.036564137786626816
1775721930896658200,9.682658203125,-0.0465022549033165,0.06439816206693649,0.006719954311847687
1775721930906671400,9.69267138671875,-0.040881652384996414,0.08754156529903412,-0.011217767372727394
1775721930916685300,9.702685302734375,-0.048121724277734756,0.09984909743070602,0.0021555626299232244
1775721930926698200,9.7126982421875,-0.06465915590524673,0.12290354818105698,0.053525809198617935
1775721930936712200,9.722712158203125,-0.07030905038118362,0.13200223445892334,0.10053645819425583
1775721930946725400,9.732725341796876,-0.07115806639194489,0.13355353474617004,0.11741903424263
1775721930956739000,9.742739013671875,-0.07822609692811966,0.11145994812250137,0.09711989015340805
1775721930966752300,9.752752197265625,-0.09767942130565643,0.09130115061998367,0.0785033330321312
1775721930976765400,9.762765380859374,-0.12325136363506317,0.05030498281121254,0.07157324999570847
1775721930986779100,9.772779052734375,-0.15176503360271454,0.03347540274262428,0.08266931027173996
1775721930996792300,9.782792236328126,-0.178069606423378,0.040973000228405,0.07733207195997238
1775721931006806300,9.79280615234375,-0.19481076300144196,0.06639047712087631,0.07647133618593216
1775721931016819200,9.802819091796875,-0.20902538299560547,0.1001894474029541,0.09316110610961914
1775721931026832400,9.812832275390624,-0.21034391224384308,0.13234418630599976,0.10471362620592117
1775721931036846000,9.82284619140625,-0.19982044398784637,0.1429864466190338,0.10899572819471359
1775721931046859300,9.832859375,-0.19607709348201752,0.15274453163146973,0.12960194051265717
1775721931056873200,9.842873291015625,-0.18834461271762848,0.1370507925748825,0.14335289597511292
1775721931066886100,9.85288623046875,-0.1744285225868225,0.12952230870723724,0.15864530205726624
1775721931076899300,9.8628994140625,-0.152049720287323,0.10773605108261108,0.15879763662815094
1775721931086913300,9.872913330078125,-0.13360066711902618,0.09331530332565308,0.14803074300289154
1775721931096926200,9.88292626953125,-0.11850587278604507,0.06899451464414597,0.13376285135746002
1775721931106940200,9.892940185546875,-0.10232610255479813,0.04549051821231842,0.13938133418560028
1775721931116953300,9.902953369140626,-0.0891469195485115,0.025182850658893585,0.16194255650043488
1775721931126967300,9.91296728515625,-0.07865140587091446,0.014689730480313301,0.1845109909772873
1775721931136980200,9.922980224609375,-0.06308016926050186,0.05271913856267929,0.20319412648677826
1775721931146993200,9.9329931640625,-0.04254772514104843,0.10599647462368011,0.19712691009044647
1775721931157007000,9.943007080078125,-0.0091719264164567,0.12712280452251434,0.17905843257904053
1775721931167020300,9.953020263671876,0.020930849015712738,0.126326784491539,0.1834462583065033
1775721931177034500,9.963034423828125,0.04994252696633339,0.1015002578496933,0.20647700130939484
1775721931187047200,9.973047119140626,0.06726612150669098,0.07149761915206909,0.2509150505065918
1775721931197060400,9.983060302734375,0.08139925450086594,0.05336388945579529,0.3021566569805145
1775721931207074000,9.993073974609375,0.09241914749145508,0.04206649214029312,0.32245421409606934
1775721931217087200,10.003087158203124,0.10429923981428146,0.033116407692432404,0.3085106909275055
1775721931227101400,10.013101318359375,0.10268723219633102,0.007408647798001766,0.2737066447734833
1775721931237114000,10.023114013671876,0.06016853079199791,-0.03407967463135719,0.24801991879940033
1775721931247127300,10.033127197265625,-0.002639192622154951,-0.041492581367492676,0.24268054962158203
1775721931257141200,10.043141357421876,-0.05704091489315033,-0.013350426219403744,0.2316547930240631
1775721931267154200,10.053154296875,-0.08504245430231094,0.04138019680976868,0.1954251527786255
1775721931277168400,10.06316845703125,-0.08635140210390091,0.09986507892608643,0.16602998971939087
1775721931287181300,10.073181396484374,-0.09609350562095642,0.11910295486450195,0.16423234343528748
1775721931297194200,10.0831943359375,-0.10612430423498154,0.10164327174425125,0.17370814085006714
1775721931307208200,10.093208251953126,-0.10332026332616806,0.06936176121234894,0.16943643987178802
1775721931317221000,10.10322119140625,-0.09901286661624908,0.08979327231645584,0.18961413204669952
1775721931327235300,10.1132353515625,-0.07917924225330353,0.13632774353027344,0.21812593936920166
1775721931337248300,10.123248291015624,-0.05403713509440422,0.1602940708398819,0.23706340789794922
1775721931347262500,10.133262451171875,-0.03851703181862831,0.12397201359272003,0.2496335357427597
1775721931357275100,10.143275146484376,-0.02636662684381008,0.06632522493600845,0.27054041624069214
1775721931367288300,10.153288330078125,-0.010115218348801136,-0.0008101335843093693,0.2675158679485321
1775721931377302300,10.16330224609375,-0.00911600049585104,-0.04903758317232132,0.24707423150539398
1775721931387315200,10.173315185546874,-0.01660720631480217,-0.0347214937210083,0.22054143249988556
1775721931397329400,10.183329345703125,-0.008008391596376896,0.014092915691435337,0.19636765122413635
1775721931407342000,10.193342041015624,0.010845723561942577,0.051241084933280945,0.18446119129657745
1775721931417355300,10.203355224609375,0.03665468469262123,0.0708688497543335,0.19338543713092804
1775721931427369500,10.213369384765626,0.07522924244403839,0.05001416429877281,0.2038378119468689
1775721931437382100,10.223382080078125,0.10796614736318588,0.004431500099599361,0.22649279236793518
1775721931447396400,10.233396240234375,0.12381834536790848,-0.026066754013299942,0.25268417596817017
1775721931457409300,10.2434091796875,0.13049036264419556,-0.02172420360147953,0.2571159601211548
1775721931467422200,10.253422119140625,0.13758476078510284,-0.0029648973140865564,0.232615664601326
1775721931477436400,10.2634365234375,0.14229775965213776,0.014298778027296066,0.20402316749095917
1775721931487449000,10.273448974609375,0.14511218667030334,-0.003375822911038995,0.17549298703670502
1775721931497463300,10.28346337890625,0.14673590660095215,-0.04891081899404526,0.15800215303897858
1775721931507476200,10.293476318359374,0.1421440988779068,-0.12315229326486588,0.14932318031787872
1775721931517489200,10.3034892578125,0.13573358952999115,-0.17714495956897736,0.14007747173309326
1775721931527503400,10.31350341796875,0.1225283145904541,-0.19744808971881866,0.13089250028133392
1775721931537516300,10.323516357421875,0.09989836812019348,-0.19479745626449585,0.11489542573690414
1775721931547530200,10.3335302734375,0.07681594789028168,-0.17192542552947998,0.10669448971748352
1775721931557543200,10.343543212890625,0.04446280747652054,-0.14611539244651794,0.12432780861854553
1775721931567556400,10.353556396484375,0.015176822431385517,-0.11916261166334152,0.1620003581047058
1775721931577570300,10.3635703125,-0.0030394657514989376,-0.09983125329017639,0.18146300315856934
1775721931587583200,10.373583251953125,-0.02707715705037117,-0.07197432219982147,0.1884106546640396
1775721931597597400,10.383597412109374,-0.06109264865517616,-0.05758979171514511,0.18645749986171722
1775721931607610000,10.393610107421875,-0.09768714755773544,-0.0324290469288826,0.17548447847366333
1775721931617623300,10.403623291015625,-0.12202311307191849,-0.017848504707217216,0.16125519573688507
1775721931627637500,10.413637451171875,-0.139030322432518,-0.011331483721733093,0.15515629947185516
1775721931637650200,10.423650146484375,-0.14502988755702972,-0.021230453625321388,0.1543826460838318
1775721931647664400,10.433664306640624,-0.1335945427417755,-0.009814813733100891,0.1582666039466858
1775721931657677000,10.443677001953125,-0.10850942879915237,-0.007171360310167074,0.15021133422851562
1775721931667691300,10.453691162109376,-0.08848538994789124,-0.04043344408273697,0.14329004287719727
1775721931677704400,10.463704345703125,-0.0808413177728653,-0.09099515527486801,0.1573914885520935
1775721931687717000,10.473717041015625,-0.08233295381069183,-0.1227371022105217,0.17599447071552277
1775721931697731300,10.4837314453125,-0.07896512001752853,-0.13478150963783264,0.16414499282836914
1775721931707744300,10.493744140625,-0.05432502552866936,-0.1165790781378746,0.1319095641374588
1775721931717758200,10.50375830078125,-0.020241355523467064,-0.09255123883485794,0.10575465857982635
1775721931727771400,10.513771484375,0.012389292009174824,-0.09388654679059982,0.097255177795887
1775721931737784300,10.523784423828126,0.052254948765039444,-0.10769584029912949,0.13496847450733185
1775721931747798000,10.533798095703125,0.10569660365581512,-0.11874928325414658,0.20301569998264313
1775721931757811000,10.54381103515625,0.17580431699752808,-0.15521754324436188,0.2620103061199188
1775721931767825200,10.5538251953125,0.23870046436786652,-0.20558512210845947,0.30241817235946655
1775721931777838000,10.563838134765625,0.29655444622039795,-0.22714127600193024,0.32755202054977417
1775721931787851000,10.57385107421875,0.3407064378261566,-0.2327195256948471,0.33003222942352295
1775721931797865000,10.583864990234375,0.3577786386013031,-0.23653264343738556,0.3309036195278168
1775721931807878100,10.593878173828125,0.3445397913455963,-0.2228676974773407,0.3378520607948303
1775721931817892000,10.60389208984375,0.30691999197006226,-0.18830253183841705,0.34828129410743713
1775721931827905000,10.613905029296875,0.2551785111427307,-0.15798723697662354,0.34287479519844055
1775721931837918000,10.62391796875,0.20761844515800476,-0.1329692304134369,0.30587682127952576
1775721931847932200,10.63393212890625,0.1724623143672943,-0.08898739516735077,0.26159486174583435
1775721931857945000,10.643945068359375,0.1454237699508667,-0.0913754552602768,0.2243468165397644
1775721931867959000,10.653958984375,0.13175830245018005,-0.15527747571468353,0.20472171902656555
1775721931877972200,10.66397216796875,0.12397228181362152,-0.20617739856243134,0.20787383615970612
1775721931887985000,10.67398486328125,0.11626322567462921,-0.2188764214515686,0.22927233576774597
1775721931897999000,10.6839990234375,0.10885005444288254,-0.20880886912345886,0.23713664710521698
1775721931908012000,10.694011962890626,0.11714819073677063,-0.19645845890045166,0.22491221129894257
1775721931918026000,10.70402587890625,0.1387815773487091,-0.20786558091640472,0.1981959044933319
1775721931928039200,10.7140390625,0.1581670045852661,-0.23178263008594513,0.1894540786743164
1775721931938051800,10.7240517578125,0.16869686543941498,-0.24824681878089905,0.2268560528755188
1775721931948066000,10.734066162109375,0.1647615134716034,-0.2317059338092804,0.28243568539619446
1775721931958079000,10.744078857421876,0.1619260460138321,-0.21569767594337463,0.29431870579719543
1775721931968093000,10.754093017578125,0.1517985761165619,-0.1827636957168579,0.2668444812297821
1775721931978106000,10.764106201171876,0.10959839820861816,-0.171347513794899,0.23630307614803314
1775721931988119000,10.774119140625,0.054242465645074844,-0.16973896324634552,0.2039525955915451
1775721931998133000,10.784133056640625,-0.0067809405736625195,-0.2047014832496643,0.16155347228050232
1775721932008146000,10.79414599609375,-0.07212985306978226,-0.23662932217121124,0.14659184217453003
1775721932018160000,10.80416015625,-0.13724946975708008,-0.18225209414958954,0.17593348026275635
1775721932028173000,10.814173095703126,-0.18098869919776917,-0.09700670838356018,0.21442973613739014
1775721932038186000,10.82418603515625,-0.199305921792984,0.0003222425002604723,0.24377351999282837
1775721932048200200,10.8342001953125,-0.19991125166416168,0.12378479540348053,0.28456994891166687
1775721932058213000,10.844213134765624,-0.20063376426696777,0.20983712375164032,0.3240742087364197
1775721932068227000,10.85422705078125,-0.20513078570365906,0.22899509966373444,0.3537285029888153
1775721932078240000,10.864239990234376,-0.21630513668060303,0.16202645003795624,0.34424740076065063
1775721932088253000,10.8742529296875,-0.20844748616218567,0.09166573733091354,0.28391480445861816
1775721932098267100,10.88426708984375,-0.20895135402679443,0.07642020285129547,0.23055198788642883
1775721932108280000,10.894280029296874,-0.24349334836006165,0.07752515375614166,0.20240557193756104
1775721932118294000,10.9042939453125,-0.28593161702156067,0.096067413687706,0.18327900767326355
1775721932128307200,10.91430712890625,-0.32610273361206055,0.16815198957920074,0.17086735367774963
1775721932138321000,10.92432080078125,-0.34635210037231445,0.24957707524299622,0.1481979936361313
1775721932148334000,10.934333984375,-0.33325546979904175,0.28723469376564026,0.09591028094291687
1775721932158347000,10.944346923828125,-0.2714317739009857,0.2965632379055023,0.03840411454439163
1775721932168361000,10.95436083984375,-0.17975245416164398,0.27662360668182373,0.013919544406235218
1775721932178374100,10.9643740234375,-0.06136375665664673,0.2546173632144928,0.04483484849333763
1775721932188386800,10.97438671875,0.09258106350898743,0.1663823127746582,0.10716027766466141
1775721932198401000,10.984401123046876,0.22201469540596008,0.05976319685578346,0.18208245933055878
1775721932208414000,10.9944140625,0.32207390666007996,-0.014734471216797829,0.22915275394916534
1775721932218428200,11.00442822265625,0.45402422547340393,-0.06226550415158272,0.19834370911121368
1775721932228441000,11.014441162109375,0.6359828114509583,-0.17754921317100525,0.1470475047826767
1775721932238455000,11.024455078125,0.7316574454307556,-0.27678924798965454,0.20066705346107483
1775721932248468000,11.034468017578124,0.7205672264099121,-0.3562188446521759,0.31412598490715027
1775721932258481200,11.044481201171875,0.6602434515953064,-0.3466322422027588,0.39510577917099
1775721932268495000,11.0544951171875,0.5994714498519897,-0.23754650354385376,0.40174955129623413
1775721932278508000,11.064508056640625,0.5462542772293091,-0.09215975552797318,0.3590380549430847
1775721932288522000,11.07452197265625,0.5439892411231995,-0.025466743856668472,0.3014237582683563
1775721932298535200,11.08453515625,0.5016886591911316,0.02768062986433506,0.30804064869880676
1775721932308548000,11.094548095703125,0.34568923711776733,0.08084451407194138,0.37571582198143005
1775721932318562000,11.10456201171875,0.1410798877477646,0.08328770101070404,0.4081036150455475
1775721932328575200,11.1145751953125,-0.06237735599279404,0.14092916250228882,0.38467657566070557
1775721932338589000,11.1245888671875,-0.22602567076683044,0.28286153078079224,0.32240334153175354
1775721932348602000,11.13460205078125,-0.3136407434940338,0.39152461290359497,0.21696187555789948
1775721932358615000,11.144614990234375,-0.34820032119750977,0.42777663469314575,0.10043259710073471
1775721932368629000,11.15462890625,-0.3378065228462219,0.33876898884773254,-0.0005387574783526361
1775721932378642200,11.16464208984375,-0.2895956039428711,0.11897991597652435,-0.07088322937488556
1775721932388656000,11.17465625,-0.2581993341445923,-0.09131845831871033,-0.0692957192659378
1775721932398669000,11.1846689453125,-0.2595103979110718,-0.21471789479255676,-0.035838425159454346
1775721932408682000,11.194681884765625,-0.22336730360984802,-0.23145799338817596,-0.03931012004613876
1775721932418696000,11.204696044921874,-0.1475239396095276,-0.19497880339622498,-0.09511559456586838
1775721932428709000,11.214709228515625,-0.08624859899282455,-0.19291380047798157,-0.15257516503334045
1775721932438723000,11.22472314453125,-0.05704251304268837,-0.17846640944480896,-0.18053622543811798
1775721932448736000,11.234736083984375,-0.026004169136285782,-0.16625049710273743,-0.18040306866168976
1775721932458749000,11.2447490234375,-0.01979207992553711,-0.17593666911125183,-0.15432246029376984
1775721932468763100,11.25476318359375,-0.015450861304998398,-0.15680240094661713,-0.11949097365140915
1775721932478776000,11.264776123046875,0.016517458483576775,-0.10871928930282593,-0.10001581162214279
1775721932488790000,11.2747900390625,0.0651683509349823,-0.08536629378795624,-0.09144975244998932
1775721932498803200,11.28480322265625,0.09870313853025436,-0.10573601722717285,-0.07649557292461395
1775721932508816100,11.294816162109376,0.13055934011936188,-0.11742356419563293,-0.04065874591469765
1775721932518830000,11.304830078125,0.16228291392326355,-0.11758655309677124,0.013400227762758732
1775721932528843000,11.314843017578125,0.18957045674324036,-0.11049455404281616,0.06324847787618637
1775721932538857000,11.32485693359375,0.20465567708015442,-0.061697717756032944,0.0927661582827568
1775721932548870100,11.3348701171875,0.20923738181591034,0.013027651235461235,0.09296136349439621
1775721932558883000,11.344883056640626,0.2070852816104889,0.08396440744400024,0.0701170340180397
1775721932568897000,11.35489697265625,0.18576161563396454,0.1027708500623703,0.03459872305393219
1775721932578910200,11.36491015625,0.16007515788078308,0.09116346389055252,0.012108327820897102
1775721932588924000,11.374923828125,0.1446770280599594,0.04569185525178909,-0.0009065400226972997
1775721932598937000,11.38493701171875,0.145792618393898,0.00774607015773654,-0.022357769310474396
1775721932608950000,11.394949951171874,0.15633954107761383,-0.011473163962364197,-0.04093198850750923
1775721932618964000,11.4049638671875,0.148484006524086,-0.052021123468875885,-0.05331994593143463
1775721932628977200,11.41497705078125,0.12224947661161423,-0.0800708681344986,-0.0491771325469017
1775721932638991000,11.4249912109375,0.10313783586025238,-0.05663877725601196,-0.04414721950888634
1775721932649004000,11.435004150390625,0.08497428148984909,-0.011914449743926525,-0.044498756527900696
1775721932659017000,11.445016845703124,0.0722917765378952,0.04448571056127548,-0.03329217806458473
1775721932669031200,11.45503125,0.05897889658808708,0.082459457218647,-0.017230119556188583
1775721932679044000,11.465044189453126,0.02821379527449608,0.0842919796705246,-0.013819409534335136
1775721932689058000,11.47505810546875,-0.00860360823571682,0.09500028192996979,-0.02052924409508705
1775721932699071000,11.485071044921876,-0.023936225101351738,0.10528434813022614,-0.0483880378305912
1775721932709084200,11.495084228515625,-0.02664945460855961,0.11960949003696442,-0.07054900377988815
1775721932719098000,11.50509814453125,-0.014418354257941246,0.10752060264348984,-0.08261711895465851
1775721932729111000,11.515111083984374,-0.013617008924484253,0.04855262115597725,-0.08804304152727127
1775721932739125000,11.525125,-0.03560220077633858,0.02370399795472622,-0.06588154286146164
1775721932749138700,11.535138671875,-0.058280084282159805,0.0637960210442543,-0.038537006825208664
1775721932759151400,11.5451513671875,-0.06569752097129822,0.08948007971048355,-0.034683145582675934
1775721932769165600,11.55516552734375,-0.06876974552869797,0.1057376116514206,-0.04194824770092964
1775721932779178500,11.565178466796874,-0.06395501643419266,0.09713693708181381,-0.058707255870103836
1775721932789191400,11.57519140625,-0.053531400859355927,0.06480935961008072,-0.08293057233095169
1775721932799205600,11.58520556640625,-0.03724164515733719,0.03611539304256439,-0.09651029109954834
1775721932809218600,11.595218505859375,-0.031186947599053383,0.0013883059145882726,-0.08991391211748123
1775721932819232500,11.605232421875,-0.04399968311190605,0.002490854589268565,-0.060088369995355606
1775721932829245400,11.615245361328125,-0.05922896787524223,0.07662101089954376,-0.022474948316812515
1775721932839258400,11.62525830078125,-0.05284510552883148,0.14547143876552582,-0.0076869479380548
1775721932849272600,11.6352724609375,-0.05416629835963249,0.14467409253120422,-0.006054696626961231
1775721932859285500,11.645285400390625,-0.04639492928981781,0.12501516938209534,-0.008317850530147552
1775721932869299500,11.655299560546876,-0.027451064437627792,0.09804347902536392,-0.02581295557320118
1775721932879312600,11.665312744140625,-0.02117239683866501,0.07067949324846268,-0.04623354226350784
1775721932889325600,11.67532568359375,-0.014051370322704315,0.06521415710449219,-0.06362558156251907
1775721932899339500,11.685339599609375,0.010390855371952057,0.08017420023679733,-0.0770505741238594
1775721932909352400,11.6953525390625,0.03146658092737198,0.053163617849349976,-0.08074837177991867
1775721932919366700,11.70536669921875,0.04102865979075432,0.01312325894832611,-0.057018280029296875
1775721932929379600,11.715379638671875,0.06831780821084976,-0.004479170776903629,-0.034438665956258774
1775721932939392500,11.725392578125,0.09805625677108765,-0.00009960222087102011,-0.01516776718199253
1775721932949406700,11.73540673828125,0.10485637187957764,0.03605147823691368,0.011490208096802235
1775721932959419400,11.74541943359375,0.098777174949646,0.06167881190776825,0.017117734998464584
1775721932969433600,11.75543359375,0.08456495404243469,0.06229506433010101,-0.004416320007294416
1775721932979446500,11.765446533203125,0.06338430196046829,0.05655275657773018,-0.044379983097314835
1775721932989459500,11.77545947265625,0.05470878630876541,0.051782239228487015,-0.07374639064073563
1775721932999473700,11.7854736328125,0.044431645423173904,0.026443591341376305,-0.06210597977042198
1775721933009486300,11.795486328125,0.02598872408270836,0.0230571161955595,-0.0008700547041371465
1775721933019500500,11.80550048828125,0.004998220596462488,0.03804458677768707,0.05646673962473869
1775721933029513500,11.815513427734375,-0.0015472965314984322,0.08255027234554291,0.06773270666599274
1775721933039526400,11.8255263671875,-0.008108792826533318,0.11613326519727707,0.05391675978899002
1775721933049540600,11.83554052734375,-0.02905775047838688,0.14123648405075073,0.033606428653001785
1775721933059553500,11.845553466796876,-0.0583658367395401,0.1692603975534439,0.024459537118673325
1775721933069567500,11.8555673828125,-0.07319032400846481,0.17958307266235352,0.013560815714299679
1775721933079580700,11.86558056640625,-0.0846853256225586,0.16156120598316193,0.0024144218768924475
1775721933089593300,11.87559326171875,-0.09881419688463211,0.14910826086997986,-0.002837864449247718
1775721933099607600,11.885607666015625,-0.10386247932910919,0.14121252298355103,-0.013615677133202553
1775721933109620500,11.895620361328126,-0.09634198248386383,0.14296674728393555,-0.028133632615208626
1775721933119634700,11.905634765625,-0.08172629028558731,0.13545076549053192,-0.04355387017130852
1775721933129647600,11.915647705078126,-0.06953806430101395,0.12284549325704575,-0.049425605684518814
1775721933139660500,11.92566064453125,-0.04596402868628502,0.11223652958869934,-0.03779131919145584
1775721933149674500,11.935674560546875,-0.014494520612061024,0.10237403959035873,-0.025802036747336388
1775721933159687400,11.9456875,0.024101341143250465,0.0917176678776741,-0.020016584545373917
1775721933169701600,11.95570166015625,0.06274620443582535,0.04114397615194321,-0.030943268910050392
1775721933179714600,11.965714599609376,0.09064681082963943,-0.0014977618120610714,-0.02900182455778122
1775721933189727500,11.9757275390625,0.0906372219324112,-0.00875301193445921,-0.022224346175789833
1775721933199741700,11.98574169921875,0.07259058207273483,0.02875947579741478,-0.024701617658138275
1775721933209754400,11.99575439453125,0.03959720954298973,0.09900567680597305,-0.03147536888718605
1775721933219767600,12.005767578125,-0.010568222030997276,0.16567844152450562,-0.04999179393053055
1775721933229781500,12.015781494140626,-0.07315570116043091,0.19108366966247559,-0.0881865844130516
1775721933239794400,12.02579443359375,-0.13914351165294647,0.13248054683208466,-0.15648441016674042
1775721933249808600,12.03580859375,-0.20157305896282196,0.08703263849020004,-0.2196146547794342
1775721933259821300,12.0458212890625,-0.272041380405426,0.11313720792531967,-0.24791578948497772
1775721933269834500,12.05583447265625,-0.3332999348640442,0.18191227316856384,-0.25031131505966187
1775721933279848400,12.065848388671874,-0.36316168308258057,0.2600366473197937,-0.23756276071071625
1775721933289861400,12.075861328125,-0.3645137846469879,0.2666458189487457,-0.22636975347995758
1775721933299875600,12.08587548828125,-0.3494400084018707,0.18367235362529755,-0.24626196920871735
1775721933309888500,12.095888427734375,-0.293043315410614,0.10272904485464096,-0.2766933739185333
1775721933319901400,12.1059013671875,-0.20925389230251312,0.014494520612061024,-0.30648431181907654
1775721933329915600,12.11591552734375,-0.1489921510219574,-0.08169300109148026,-0.31382450461387634
1775721933339928600,12.125928466796875,-0.10642550885677338,-0.12385430186986923,-0.3042922616004944
1775721933349942500,12.135942626953126,-0.06569618731737137,-0.12561331689357758,-0.304395854473114
1775721933359955500,12.14595556640625,-0.0690552368760109,-0.09925468266010284,-0.30693623423576355
1775721933369968400,12.155968505859375,-0.07969722896814346,-0.02900315634906292,-0.3159765899181366
1775721933379982600,12.165982666015625,-0.03299843147397041,0.06753350049257278,-0.33232706785202026
1775721933389995500,12.17599560546875,0.04978460073471069,0.1381687968969345,-0.317776620388031
1775721933400009700,12.186009765625,0.07741356641054153,0.1413576602935791,-0.2559223175048828
1775721933410022400,12.1960224609375,0.06408550590276718,0.11296889930963516,-0.23232191801071167
1775721933420035600,12.20603564453125,0.09376164525747299,0.10737359523773193,-0.28631725907325745
1775721933430049500,12.216049560546875,0.15994785726070404,0.08346373587846756,-0.3722001910209656
1775721933440062500,12.2260625,0.19794930517673492,0.014172278344631195,-0.42879369854927063
1775721933450076700,12.23607666015625,0.21983489394187927,-0.07851531356573105,-0.4388793706893921
1775721933460089300,12.24608935546875,0.26015034317970276,-0.16395485401153564,-0.4037458598613739
