time,seconds_elapsed,z,y,x
1775341404973261300,0.07326123046875,0.04781150817871094,-0.024094581604003906,0.040176257491111755
1775341404983261200,0.08326123046875,0.005713939666748047,0.001033782958984375,0.00965089350938797
1775341404993261300,0.09326123046875,0.0028188228607177734,-0.0011310577392578125,-0.039613667875528336
1775341405003261200,0.10326123046875,-0.0031440258026123047,-0.0045604705810546875,0.020293615758419037
1775341405013261300,0.11326123046875,-0.013961076736450195,0.004500389099121094,0.02125144749879837
1775341405023261200,0.12326123046875,0.018327951431274414,0.0033702850341796875,-0.025101378560066223
1775341405033261300,0.13326123046875,-0.013519763946533203,0.008405685424804688,0.002124059945344925
1775341405043261200,0.14326123046875,0.03471827507019043,-0.00926971435546875,0.022355016320943832
1775341405053261300,0.15326123046875,-0.013538360595703125,0.008739471435546875,-0.022568490356206894
1775341405063261200,0.16326123046875,0.03124380111694336,-0.012237548828125,-0.01731518656015396
1775341405073261300,0.17326123046875,-0.0007021427154541016,-0.0011720657348632812,0.021592188626527786
1775341405083261200,0.18326123046875,0.0193784236907959,0.0020036697387695312,-0.009137362241744995
1775341405093261300,0.19326123046875,-0.01642322540283203,0.012958526611328125,-0.02337353490293026
1775341405103261200,0.20326123046875,-0.005141019821166992,0.0010204315185546875,0.015635740011930466
1775341405113261300,0.21326123046875,0.007736921310424805,-0.0026340484619140625,-0.004371583461761475
1775341405123261200,0.22326123046875,-0.021417617797851562,0.017874717712402344,-0.008942808955907822
1775341405133261300,0.23326123046875,0.022588014602661133,-0.012599945068359375,0.004291031509637833
1775341405143261200,0.24326123046875,-0.021335363388061523,0.012169837951660156,0.002092946320772171
1775341405153261300,0.25326123046875,-0.006237983703613281,-0.0036258697509765625,0.0012269094586372375
1775341405163261200,0.26326123046875,0.04546332359313965,-0.01670551300048828,-0.015410128980875015
1775341405173261300,0.27326123046875,-0.04818606376647949,0.013852119445800781,0.02173338085412979
1775341405183261200,0.28326123046875,0.04024505615234375,-0.013735771179199219,0.0020077116787433624
1775341405193261300,0.29326123046875,-0.01596355438232422,0.008556365966796875,-0.027949348092079163
1775341405203261200,0.30326123046875,-0.010363101959228516,0.006169319152832031,0.013580717146396637
1775341405213261300,0.31326123046875,0.025379657745361328,-0.0014972686767578125,0.0002613067626953125
1775341405223261200,0.32326123046875,-0.006822824478149414,0.007350921630859375,-0.02209365740418434
1775341405233261300,0.33326123046875,-0.020979642868041992,0.005812644958496094,0.01979697123169899
1775341405243261200,0.34326123046875,0.039362430572509766,-0.014003753662109375,0.003116544336080551
1775341405253261300,0.35326123046875,-0.010179996490478516,0.010279655456542969,-0.01625775545835495
1775341405263261200,0.36326123046875,0.010506391525268555,-0.010436058044433594,0.011957056820392609
1775341405273261300,0.37326123046875,0.017693519592285156,0.0007104873657226562,0.009330112487077713
1775341405283261200,0.38326123046875,0.0020868778228759766,0.0035924911499023438,-0.005747444927692413
1775341405293261300,0.39326123046875,0.002104043960571289,-0.0015325546264648438,-0.003979925066232681
1775341405303261200,0.40326123046875,0.003656148910522461,-0.00021266937255859375,0.019577186554670334
1775341405313261300,0.41326123046875,-0.00034427642822265625,-0.0053615570068359375,-0.0032035894691944122
1775341405323261200,0.42326123046875,-0.012367725372314453,0.014796257019042969,-0.006287019699811935
1775341405333261300,0.43326123046875,0.012467145919799805,-0.004649162292480469,0.010047025978565216
1775341405343261200,0.44326123046875,-0.009725332260131836,0.005961418151855469,-0.002850215882062912
1775341405353261300,0.45326123046875,0.02254629135131836,-0.0134735107421875,-0.014497693628072739
1775341405363261200,0.46326123046875,-0.021186351776123047,0.006962776184082031,0.0070412494242191315
1775341405373261300,0.47326123046875,0.0056002140045166016,-0.0063495635986328125,0.0048328787088394165
1775341405383261200,0.48326123046875,0.002439737319946289,-0.00007343292236328125,-0.01209251955151558
1775341405393261300,0.49326123046875,0.0023746490478515625,-0.009356498718261719,0.001269455999135971
1775341405403261200,0.50326123046875,-0.0023453235626220703,-0.0028505325317382812,0.006419491022825241
1775341405413261300,0.51326123046875,-0.002073526382446289,-0.006016731262207031,-0.012088406831026077
1775341405423261200,0.52326123046875,-0.0014128684997558594,-0.00028514862060546875,-0.00001739710569381714
1775341405433261300,0.53326123046875,0.007485389709472656,0.008487701416015625,0.016369525343179703
1775341405443261200,0.54326123046875,-0.0053522586822509766,-0.00020694732666015625,0.00047167763113975525
1775341405453261300,0.55326123046875,0.00539851188659668,-0.00012683868408203125,-0.002072937786579132
1775341405463261200,0.56326123046875,-0.005946159362792969,-0.00360107421875,0.005483988672494888
1775341405473261300,0.57326123046875,-0.014855146408081055,0.00841522216796875,-0.01722744107246399
1775341405483261200,0.58326123046875,0.032811641693115234,-0.0029392242431640625,0.00636611133813858
1775341405493261300,0.59326123046875,-0.01902294158935547,0.008091926574707031,0.027785498648881912
1775341405503261200,0.60326123046875,-0.03644251823425293,-0.0016145706176757812,-0.02378895692527294
1775341405513261300,0.61326123046875,0.04323577880859375,-0.005710601806640625,0.0013401061296463013
1775341405523261200,0.62326123046875,-0.03031134605407715,-0.017493247985839844,0.01397629827260971
1775341405533261300,0.63326123046875,-0.018915653228759766,0.03935718536376953,-0.021746091544628143
1775341405543261200,0.64326123046875,0.04831242561340332,-0.031691551208496094,0.012763701379299164
1775341405553261300,0.65326123046875,-0.09245944023132324,0.02441883087158203,0.027467742562294006
1775341405563261200,0.66326123046875,0.05948162078857422,-0.024583816528320312,-0.029449153691530228
1775341405573261300,0.67326123046875,-0.00901031494140625,0.009164810180664062,0.0005821846425533295
1775341405583261200,0.68326123046875,0.013670921325683594,0.0019245147705078125,0.02877245470881462
1775341405593261300,0.69326123046875,0.0229034423828125,-0.035579681396484375,-0.01888745278120041
1775341405603261200,0.70326123046875,0.011665582656860352,0.010045051574707031,-0.03933729976415634
1775341405613261300,0.71326123046875,0.0001666545867919922,-0.021083831787109375,-0.009954642504453659
1775341405623261200,0.72326123046875,-0.04103446006774902,0.00357818603515625,-0.0009554736316204071
1775341405633261300,0.73326123046875,0.0437619686126709,-0.015088081359863281,0.023086033761501312
1775341405643261200,0.74326123046875,-0.10210084915161133,0.058760643005371094,-0.00562087818980217
1775341405653261300,0.75326123046875,0.07770371437072754,-0.025673866271972656,-0.014790050685405731
1775341405663261200,0.76326123046875,-0.07451248168945312,0.023197174072265625,0.04121331498026848
1775341405673261300,0.77326123046875,0.0034224987030029297,-0.02736663818359375,-0.009088702499866486
1775341405683261200,0.78326123046875,0.07164835929870605,0.012240409851074219,-0.005361400544643402
1775341405693261300,0.79326123046875,-0.022443532943725586,-0.0051422119140625,0.028757862746715546
1775341405703261200,0.80326123046875,-0.0041370391845703125,-0.006741523742675781,-0.014050573110580444
1775341405713261300,0.81326123046875,0.03366899490356445,-0.015433311462402344,0.027643200010061264
1775341405723261200,0.82326123046875,-0.020358562469482422,0.021120071411132812,0.02259640023112297
1775341405733261300,0.83326123046875,0.04564499855041504,0.0022802352905273438,-0.052650194615125656
1775341405743261200,0.84326123046875,-0.03222036361694336,-0.004200935363769531,0.002119462937116623
1775341405753261300,0.85326123046875,-0.03540468215942383,0.002593994140625,0.026496320962905884
1775341405763261200,0.86326123046875,0.03988170623779297,-0.008901596069335938,0.007940210402011871
1775341405773261300,0.87326123046875,-0.059185028076171875,0.026632308959960938,-0.0031752809882164
1775341405783261200,0.88326123046875,0.03992199897766113,-0.02768421173095703,-0.018271414563059807
1775341405793261300,0.89326123046875,-0.04461479187011719,0.01680469512939453,-0.018049458041787148
1775341405803261200,0.90326123046875,0.05986785888671875,-0.009174346923828125,-0.012928059324622154
1775341405813261300,0.91326123046875,-0.031028270721435547,0.01958751678466797,0.01926296576857567
1775341405823261200,0.92326123046875,0.02729058265686035,-0.025945663452148438,0.005256254225969315
1775341405833261300,0.93326123046875,0.003940105438232422,-0.00225067138671875,-0.012813974171876907
1775341405843261200,0.94326123046875,0.0019390583038330078,-0.0006961822509765625,0.0032712556421756744
1775341405853261300,0.95326123046875,0.03174424171447754,-0.011228561401367188,0.020052503794431686
1775341405863261200,0.96326123046875,-0.06777191162109375,0.01643848419189453,0.004974596202373505
1775341405873261300,0.97326123046875,0.06682634353637695,-0.03474903106689453,-0.029561001807451248
1775341405883261200,0.98326123046875,-0.042799949645996094,0.01599407196044922,0.016368258744478226
1775341405893261300,0.99326123046875,0.011820554733276367,-0.005761146545410156,0.0034996606409549713
1775341405903261200,1.00326123046875,0.03736710548400879,-0.012331962585449219,-0.017013084143400192
1775341405913261300,1.01326123046875,-0.04465603828430176,0.03167247772216797,0.022761397063732147
1775341405923261200,1.02326123046875,0.03793048858642578,-0.023675918579101562,0.012410454452037811
1775341405933261300,1.03326123046875,-0.0019295215606689453,0.01725482940673828,0.015886016190052032
1775341405943261200,1.04326123046875,0.024073123931884766,-0.0034532546997070312,0.020263873040676117
1775341405953261300,1.05326123046875,-0.03016829490661621,0.004841804504394531,-0.03173128888010979
1775341405963261200,1.06326123046875,0.04364466667175293,-0.002246856689453125,-0.008407887071371078
1775341405973261300,1.07326123046875,-0.05198931694030762,-0.004505157470703125,0.07459308207035065
1775341405983261200,1.08326123046875,0.007010459899902344,-0.0029554367065429688,0.0003304891288280487
1775341405993261300,1.09326123046875,0.040459394454956055,-0.016819000244140625,-0.0451665073633194
1775341406003261200,1.10326123046875,-0.10072851181030273,0.034928321838378906,0.022362057119607925
1775341406013261300,1.11326123046875,0.09558987617492676,-0.043961524963378906,-0.004909910261631012
1775341406023261200,1.12326123046875,-0.0803523063659668,0.032176971435546875,0.0023731961846351624
1775341406033261300,1.13326123046875,0.019958972930908203,-0.017894744873046875,-0.007777448743581772
1775341406043261200,1.14326123046875,0.012425899505615234,-0.00115966796875,-0.010251875966787338
1775341406053261300,1.15326123046875,-0.014443397521972656,0.012720108032226562,-0.03556159883737564
1775341406063261200,1.16326123046875,0.02410721778869629,-0.004731178283691406,0.00273045152425766
1775341406073261300,1.17326123046875,0.011176347732543945,0.0027751922607421875,0.02120707929134369
1775341406083261200,1.18326123046875,0.017102956771850586,0.006394386291503906,-0.014389179646968842
1775341406093261300,1.19326123046875,-0.03606986999511719,0.005963325500488281,-0.003180135041475296
1775341406103261200,1.20326123046875,0.03883194923400879,-0.0230865478515625,0.023243848234415054
1775341406113261300,1.21326123046875,-0.0437617301940918,0.03520011901855469,0.004015710204839706
1775341406123261200,1.22326123046875,0.036375999450683594,-0.018751144409179688,-0.0006773769855499268
1775341406133261300,1.23326123046875,-0.041564226150512695,0.012408256530761719,0.038328323513269424
1775341406143261200,1.24326123046875,-0.0029268264770507812,0.0045719146728515625,-0.027539314702153206
1775341406153261300,1.25326123046875,0.002180337905883789,0.0043621063232421875,-0.038556333631277084
1775341406163261200,1.26326123046875,-0.028490543365478516,0.015490531921386719,0.051944464445114136
1775341406173261300,1.27326123046875,0.05038881301879883,-0.011439323425292969,0.017636049538850784
1775341406183261200,1.28326123046875,-0.02505350112915039,0.015345573425292969,-0.035117730498313904
1775341406193261300,1.29326123046875,0.008538484573364258,-0.011503219604492188,-0.0282822847366333
1775341406203261200,1.30326123046875,0.005019664764404297,-0.009565353393554688,-0.01094650849699974
1775341406213261300,1.31326123046875,-0.040019989013671875,0.0238189697265625,-0.02135413885116577
1775341406223261200,1.32326123046875,0.017852067947387695,-0.0040531158447265625,0.004949551075696945
1775341406233261300,1.33326123046875,-0.015956401824951172,0.008550643920898438,0.01868002861738205
1775341406243261200,1.34326123046875,0.022372007369995117,-0.01938915252685547,-0.019549503922462463
1775341406253261300,1.35326123046875,-0.023881196975708008,0.011714935302734375,0.006644301116466522
1775341406263261200,1.36326123046875,0.03875088691711426,-0.005196571350097656,0.030788950622081757
1775341406273261300,1.37326123046875,-0.029943227767944336,0.00991058349609375,0.005882687866687775
1775341406283261200,1.38326123046875,-0.015846967697143555,0.016943931579589844,0.0013717226684093475
1775341406293261300,1.39326123046875,0.07513928413391113,-0.04833221435546875,0.019813157618045807
1775341406303261200,1.40326123046875,-0.08320426940917969,0.028364181518554688,0.014733083546161652
1775341406313261300,1.41326123046875,0.10866189002990723,-0.039337158203125,-0.0020045489072799683
1775341406323261200,1.42326123046875,-0.06889748573303223,0.019840240478515625,0.008377671241760254
1775341406333261300,1.43326123046875,0.04934120178222656,-0.0157623291015625,-0.022321902215480804
1775341406343261200,1.44326123046875,0.012667655944824219,0.014769554138183594,0.031138233840465546
1775341406353261300,1.45326123046875,-0.161787748336792,0.073699951171875,0.15159688889980316
1775341406363261200,1.46326123046875,-0.02995586395263672,-0.24335765838623047,0.07878752797842026
1775341406373261300,1.47326123046875,-0.1394519805908203,0.22506427764892578,-0.07058263570070267
1775341406383261200,1.48326123046875,0.23539257049560547,-0.08483028411865234,-0.07744809985160828
1775341406393261300,1.49326123046875,-0.11176300048828125,0.05130767822265625,0.07668620347976685
1775341406403261200,1.50326123046875,0.05133318901062012,-0.06899166107177734,0.036412909626960754
1775341406413261300,1.51326123046875,-0.1364421844482422,0.08763790130615234,-0.05251365527510643
1775341406423261200,1.52326123046875,0.13408470153808594,-0.05914783477783203,-0.04037551209330559
1775341406433261300,1.53326123046875,-0.057085275650024414,0.010711669921875,0.05665944889187813
1775341406443261200,1.54326123046875,0.0036602020263671875,0.0030078887939453125,-0.006245005875825882
1775341406453261300,1.55326123046875,0.10379457473754883,-0.031110763549804688,0.012333791702985764
1775341406463261200,1.56326123046875,-0.06107950210571289,0.03346729278564453,0.06377872824668884
1775341406473261300,1.57326123046875,0.01648092269897461,-0.03297138214111328,-0.057760629802942276
1775341406483261200,1.58326123046875,-0.028879642486572266,0.036975860595703125,-0.10203370451927185
1775341406493261300,1.59326123046875,0.07950377464294434,-0.06854915618896484,0.07777035236358643
1775341406503261200,1.60326123046875,-0.18757891654968262,0.08172988891601562,0.010862443596124649
1775341406513261300,1.61326123046875,0.1452329158782959,-0.053597450256347656,-0.12142214179039001
1775341406523261200,1.62326123046875,-0.1407945156097412,0.06087970733642578,0.06317533552646637
1775341406533261300,1.63326123046875,0.11754870414733887,-0.04176902770996094,0.018647711724042892
1775341406543261200,1.64326123046875,-0.03355813026428223,0.023261070251464844,-0.06000702828168869
1775341406553261300,1.65326123046875,0.037395477294921875,-0.0005731582641601562,0.0029463991522789
1775341406563261200,1.66326123046875,-0.006941795349121094,-0.017080307006835938,0.05765194073319435
1775341406573261300,1.67326123046875,-0.053205251693725586,0.02416515350341797,-0.04379049688577652
1775341406583261200,1.68326123046875,0.05455327033996582,-0.026348114013671875,-0.01371946930885315
1775341406593261300,1.69326123046875,-0.05894279479980469,0.01071929931640625,0.0932217538356781
1775341406603261200,1.70326123046875,0.06561541557312012,-0.013784408569335938,-0.007124301046133041
1775341406613261300,1.71326123046875,-0.03867530822753906,0.031909942626953125,-0.02615894190967083
1775341406623261200,1.72326123046875,0.042078495025634766,-0.022927284240722656,0.029710687696933746
1775341406633261300,1.73326123046875,-0.06235170364379883,0.03709697723388672,0.006783138960599899
1775341406643261200,1.74326123046875,0.07103466987609863,-0.03248310089111328,-0.049761928617954254
1775341406653261300,1.75326123046875,-0.05193781852722168,0.027975082397460938,-0.009774457663297653
1775341406663261200,1.76326123046875,0.0570225715637207,-0.03798675537109375,0.007838163524866104
1775341406673261300,1.77326123046875,-0.046561241149902344,0.019120216369628906,-0.048035066574811935
1775341406683261200,1.78326123046875,0.032213449478149414,0.010065078735351562,-0.03585601598024368
1775341406693261300,1.79326123046875,-0.013540983200073242,-0.008098602294921875,0.03302008658647537
1775341406703261200,1.80326123046875,0.001188516616821289,0.0005846023559570312,-0.032440461218357086
1775341406713261300,1.81326123046875,0.014875650405883789,-0.005188941955566406,-0.003334224224090576
1775341406723261200,1.82326123046875,-0.04663801193237305,0.010890960693359375,0.07371443510055542
1775341406733261300,1.83326123046875,0.06512331962585449,-0.0026407241821289062,-0.029116114601492882
1775341406743261200,1.84326123046875,-0.06448960304260254,0.034699440002441406,-0.041193876415491104
1775341406753261300,1.85326123046875,0.09351301193237305,-0.03718852996826172,0.0447806715965271
1775341406763261200,1.86326123046875,-0.0612177848815918,0.0257110595703125,0.031748443841934204
1775341406773261300,1.87326123046875,0.03665661811828613,-0.02236461639404297,-0.025099098682403564
1775341406783261200,1.88326123046875,-0.035219669342041016,0.017348289489746094,0.0008455365896224976
1775341406793261300,1.89326123046875,0.037470340728759766,-0.040085792541503906,-0.023564554750919342
1775341406803261200,1.90326123046875,-0.06112504005432129,0.03331470489501953,-0.07076135277748108
1775341406813261300,1.91326123046875,0.09900236129760742,-0.06710147857666016,0.03520629554986954
1775341406823261200,1.92326123046875,-0.025356769561767578,0.03399848937988281,0.07404746115207672
1775341406833261300,1.93326123046875,0.06594252586364746,-0.010855674743652344,-0.06853942573070526
1775341406843261200,1.94326123046875,-0.024439334869384766,0.03867340087890625,-0.011241119354963303
1775341406853261300,1.95326123046875,0.030089378356933594,-0.018769264221191406,0.05798978731036186
1775341406863261200,1.96326123046875,-0.0378720760345459,0.010213851928710938,-0.05487380176782608
1775341406873261300,1.97326123046875,0.008442401885986328,0.00142669677734375,-0.03757510706782341
1775341406883261200,1.98326123046875,0.04541516304016113,-0.059409141540527344,0.09719600528478622
1775341406893261300,1.99326123046875,-0.06394076347351074,0.058399200439453125,-0.05755379796028137
1775341406903261200,2.00326123046875,0.12248992919921875,-0.015362739562988281,-0.11979985237121582
1775341406913261300,2.01326123046875,-0.07465910911560059,0.009796142578125,0.10109353065490723
1775341406923261200,2.02326123046875,0.00292205810546875,-0.0068206787109375,0.05462680011987686
1775341406933261300,2.03326123046875,0.05616188049316406,-0.022344589233398438,-0.06729630380868912
1775341406943261200,2.04326123046875,-0.20081424713134766,0.047847747802734375,-0.01094663143157959
1775341406953261300,2.05326123046875,0.1548147201538086,-0.030145645141601562,-0.049858495593070984
1775341406963261200,2.06326123046875,-0.0937650203704834,0.016063690185546875,0.027374185621738434
1775341406973261300,2.07326123046875,0.04733133316040039,-0.016326904296875,0.0744740441441536
1775341406983261200,2.08326123046875,0.01474308967590332,-0.0058746337890625,0.005481351166963577
1775341406993261300,2.09326123046875,-0.05117464065551758,0.0031099319458007812,-0.09229885041713715
1775341407003261200,2.10326123046875,0.0065538883209228516,-0.00623321533203125,-0.057891786098480225
1775341407013261300,2.11326123046875,-0.0805506706237793,-0.020850181579589844,0.040316108614206314
1775341407023261200,2.12326123046875,0.009471416473388672,0.009875297546386719,0.02323290705680847
1775341407033261300,2.13326123046875,-0.041487932205200195,0.009341239929199219,-0.004816543310880661
1775341407043261200,2.14326123046875,-0.012716054916381836,0.02403545379638672,-0.022094596177339554
1775341407053261300,2.15326123046875,0.08161640167236328,-0.0639810562133789,0.009177017956972122
1775341407063261200,2.16326123046875,-0.05408000946044922,0.053725242614746094,0.07103917002677917
1775341407073261300,2.17326123046875,-0.00997614860534668,0.03240489959716797,-0.044187989085912704
1775341407083261200,2.18326123046875,0.17356061935424805,-0.09647941589355469,0.01743437349796295
1775341407093261300,2.19326123046875,-0.2115478515625,0.08149909973144531,0.05723866447806358
1775341407103261200,2.20326123046875,0.05684995651245117,-0.035340309143066406,-0.1455775946378708
1775341407113261300,2.21326123046875,-0.07071781158447266,0.018784523010253906,0.013203978538513184
1775341407123261200,2.22326123046875,0.02440500259399414,-0.038908958435058594,0.18576617538928986
1775341407133261300,2.23326123046875,0.015888452529907227,0.014566421508789062,-0.05304025858640671
1775341407143261200,2.24326123046875,0.03657269477844238,0.036795616149902344,-0.03600694239139557
1775341407153261300,2.25326123046875,0.026577234268188477,0.009691238403320312,0.09265293180942535
1775341407163261200,2.26326123046875,0.17012715339660645,-0.054129600524902344,-0.09758193790912628
1775341407173261300,2.27326123046875,-0.1432204246520996,0.025285720825195312,-0.05795104056596756
1775341407183261200,2.28326123046875,0.004070281982421875,-0.089080810546875,0.04954443499445915
1775341407193261300,2.29326123046875,0.0679924488067627,0.03559398651123047,-0.07714464515447617
1775341407203261200,2.30326123046875,-0.09949159622192383,0.09485912322998047,-0.010462507605552673
1775341407213261300,2.31326123046875,0.08059453964233398,0.019269943237304688,0.11195166409015656
1775341407223261200,2.32326123046875,-0.06789827346801758,-0.0065822601318359375,0.09356188029050827
1775341407233261300,2.33326123046875,0.06689023971557617,-0.04604148864746094,-0.04864363372325897
1775341407243261200,2.34326123046875,-0.03320765495300293,0.02185821533203125,-0.10525597631931305
1775341407253261300,2.35326123046875,0.028333663940429688,-0.06098651885986328,-0.0681125670671463
1775341407263261200,2.36326123046875,-0.12631630897521973,0.031844139099121094,0.10412818938493729
1775341407273261300,2.37326123046875,0.2134685516357422,-0.033367156982421875,0.04724855348467827
1775341407283261200,2.38326123046875,-0.08029627799987793,0.0864725112915039,-0.05183897167444229
1775341407293261300,2.39326123046875,0.13324427604675293,-0.056319236755371094,0.04578065127134323
1775341407303261200,2.40326123046875,-0.1568617820739746,0.0686807632446289,0.015207331627607346
1775341407313261300,2.41326123046875,0.08740377426147461,-0.011037826538085938,-0.14572127163410187
1775341407323261200,2.42326123046875,-0.07087850570678711,0.004616737365722656,0.0665043443441391
1775341407333261300,2.43326123046875,-0.024063825607299805,-0.046845436096191406,0.05372954532504082
1775341407343261200,2.44326123046875,0.10208773612976074,-0.0029249191284179688,-0.1606113761663437
1775341407353261300,2.45326123046875,-0.11374855041503906,0.05995941162109375,0.024464566260576248
1775341407363261200,2.46326123046875,0.07444167137145996,-0.02574920654296875,0.0729408711194992
1775341407373261300,2.47326123046875,0.004071235656738281,-0.013100624084472656,-0.044272881001234055
1775341407383261200,2.48326123046875,0.009008407592773438,-0.006039619445800781,0.09598904848098755
1775341407393261300,2.49326123046875,0.023134946823120117,-0.03257942199707031,0.06798823177814484
1775341407403261200,2.50326123046875,-0.03350996971130371,-0.05407238006591797,-0.1809145212173462
1775341407413261300,2.51326123046875,0.010547399520874023,0.06412982940673828,-0.058285366743803024
1775341407423261200,2.52326123046875,0.01804494857788086,0.004323005676269531,0.21896255016326904
1775341407433261300,2.53326123046875,0.02063918113708496,-0.0012617111206054688,-0.005444135516881943
1775341407443261200,2.54326123046875,0.05893254280090332,-0.017661094665527344,-0.10566817969083786
1775341407453261300,2.55326123046875,-0.023679733276367188,0.008677482604980469,0.08415009081363678
1775341407463261200,2.56326123046875,0.13660120964050293,-0.07633113861083984,-0.03395204246044159
1775341407473261300,2.57326123046875,-0.14273929595947266,0.07512378692626953,-0.11023691296577454
1775341407483261200,2.58326123046875,0.0933220386505127,-0.02826976776123047,0.012617230415344238
1775341407493261300,2.59326123046875,-0.11912322044372559,0.025699615478515625,0.03343459591269493
1775341407503261200,2.60326123046875,0.022136449813842773,-0.011533737182617188,-0.09669539332389832
1775341407513261300,2.61326123046875,-0.016303300857543945,0.003734588623046875,-0.011857770383358002
1775341407523261200,2.62326123046875,-0.019249439239501953,0.038214683532714844,0.010316412895917892
1775341407533261300,2.63326123046875,0.07950830459594727,-0.06335258483886719,-0.038065146654844284
1775341407543261200,2.64326123046875,-0.3053417205810547,0.1761760711669922,0.0199289508163929
1775341407553261300,2.65326123046875,0.5396180152893066,-0.15461063385009766,0.04071136191487312
1775341407563261200,2.66326123046875,-0.5862606763839722,0.10514545440673828,0.03400545194745064
1775341407573261300,2.67326123046875,0.3379662036895752,-0.05132102966308594,-0.08944114297628403
1775341407583261200,2.68326123046875,-0.017017841339111328,-0.05192279815673828,0.0616719052195549
1775341407593261300,2.69326123046875,-0.11606907844543457,0.045737266540527344,0.03752358257770538
1775341407603261200,2.70326123046875,0.15278291702270508,-0.032196998596191406,0.019810590893030167
1775341407613261300,2.71326123046875,-0.14361333847045898,-0.0031909942626953125,-0.04709271341562271
1775341407623261200,2.72326123046875,0.0035402774810791016,-0.012950897216796875,-0.046449482440948486
1775341407633261300,2.73326123046875,-0.03597545623779297,0.0060710906982421875,0.1430572271347046
1775341407643261200,2.74326123046875,0.15000271797180176,-0.05156898498535156,-0.08111592382192612
1775341407653261300,2.75326123046875,-0.16003918647766113,0.11231613159179688,-0.12623322010040283
1775341407663261200,2.76326123046875,0.11291718482971191,-0.08064460754394531,0.11988022178411484
1775341407673261300,2.77326123046875,0.01988983154296875,0.013781547546386719,-0.046804387122392654
1775341407683261200,2.78326123046875,-0.02423381805419922,0.01605224609375,-0.10243262350559235
1775341407693261300,2.79326123046875,0.05045723915100098,-0.018283843994140625,0.10059025883674622
1775341407703261200,2.80326123046875,0.03289389610290527,-0.0278472900390625,0.013172842562198639
1775341407713261300,2.81326123046875,-0.10863137245178223,0.052002906799316406,-0.06974388659000397
1775341407723261200,2.82326123046875,0.06372332572937012,-0.05551433563232422,0.03798442706465721
1775341407733261300,2.83326123046875,-0.03786611557006836,0.017157554626464844,0.06126106530427933
1775341407743261200,2.84326123046875,-0.01313471794128418,0.024860382080078125,-0.059649668633937836
1775341407753261300,2.85326123046875,0.07072067260742188,-0.0322723388671875,0.027860350906848907
1775341407763261200,2.86326123046875,-0.03191113471984863,0.010271072387695312,0.08851712942123413
1775341407773261300,2.87326123046875,0.02320694923400879,-0.011027336120605469,-0.06886886060237885
1775341407783261200,2.88326123046875,-0.009399890899658203,0.015519142150878906,-0.03717762604355812
1775341407793261300,2.89326123046875,-0.002758026123046875,-0.010449409484863281,0.08274205029010773
1775341407803261200,2.90326123046875,-0.034270286560058594,0.0179595947265625,-0.018421601504087448
1775341407813261300,2.91326123046875,0.050612688064575195,-0.010639190673828125,-0.09133310616016388
1775341407823261200,2.92326123046875,-0.08392715454101562,0.0198516845703125,0.05044156685471535
1775341407833261300,2.93326123046875,0.08971524238586426,-0.05361175537109375,0.05367740988731384
1775341407843261200,2.94326123046875,-0.053684234619140625,0.04190826416015625,-0.11055926978588104
1775341407853261300,2.95326123046875,0.02395939826965332,-0.02100658416748047,-0.00022644177079200745
1775341407863261200,2.96326123046875,0.00889897346496582,-0.003954887390136719,0.08664997667074203
1775341407873261300,2.97326123046875,0.07140564918518066,-0.0962362289428711,-0.023118991404771805
1775341407883261200,2.98326123046875,-0.25896120071411133,-0.024320602416992188,0.033079806715250015
1775341407893261300,2.99326123046875,0.04556870460510254,0.050475120544433594,-0.002282526344060898
1775341407903261200,3.00326123046875,0.2592196464538574,-0.05743217468261719,-0.0070685893297195435
1775341407913261300,3.01326123046875,-0.3609302043914795,0.16029930114746094,0.01611301302909851
1775341407923261200,3.02326123046875,0.22568511962890625,-0.10975456237792969,-0.034904349595308304
1775341407933261300,3.03326123046875,-0.14435601234436035,0.044989585876464844,0.07072541117668152
1775341407943261200,3.04326123046875,0.03590965270996094,-0.015760421752929688,-0.012788357213139534
1775341407953261300,3.05326123046875,-0.07150793075561523,0.037720680236816406,-0.06008302792906761
1775341407963261200,3.06326123046875,0.1448221206665039,-0.0802602767944336,0.0442870557308197
1775341407973261300,3.07326123046875,-0.10277414321899414,0.05639171600341797,0.036458779126405716
1775341407983261200,3.08326123046875,0.05809783935546875,-0.029451370239257812,-0.06263968348503113
1775341407993261300,3.09326123046875,0.02339029312133789,0.011667251586914062,-0.01585257053375244
1775341408003261200,3.10326123046875,-0.034415245056152344,0.002826690673828125,0.03378980606794357
1775341408013261300,3.11326123046875,0.0068798065185546875,0.0052642822265625,-0.052099525928497314
1775341408023261200,3.12326123046875,0.04726004600524902,-0.007987022399902344,-0.011109799146652222
1775341408033261300,3.13326123046875,-0.07549715042114258,0.01597881317138672,0.06337320804595947
1775341408043261200,3.14326123046875,0.06291031837463379,-0.008197784423828125,-0.050461675971746445
1775341408053261300,3.15326123046875,-0.0069277286529541016,0.005695343017578125,-0.029436426237225533
1775341408063261200,3.16326123046875,-0.033080101013183594,0.016060829162597656,0.07197389751672745
1775341408073261300,3.17326123046875,0.06563568115234375,-0.018756866455078125,0.008488588035106659
1775341408083261200,3.18326123046875,-0.05394554138183594,0.03294944763183594,-0.028292199596762657
1775341408093261300,3.19326123046875,0.048127174377441406,-0.030481338500976562,0.027618322521448135
1775341408103261200,3.20326123046875,-0.027783870697021484,0.047430992126464844,0.033774226903915405
1775341408113261300,3.21326123046875,0.02753281593322754,-0.030791282653808594,-0.011241905391216278
1775341408123261200,3.22326123046875,-0.06969308853149414,0.008243560791015625,0.028747055679559708
1775341408133261300,3.23326123046875,0.06972980499267578,-0.026185989379882812,0.021603967994451523
1775341408143261200,3.24326123046875,-0.02663445472717285,0.019498825073242188,-0.03862255439162254
1775341408153261300,3.25326123046875,-0.021212339401245117,0.000339508056640625,-0.020698852837085724
1775341408163261200,3.26326123046875,0.025349140167236328,-0.02196979522705078,0.02828235924243927
1775341408173261300,3.27326123046875,-0.00696873664855957,0.010189056396484375,-0.013275232166051865
1775341408183261200,3.28326123046875,-0.049131155014038086,0.016202926635742188,-0.025340449064970016
1775341408193261300,3.29326123046875,0.05715489387512207,-0.03867149353027344,0.017799437046051025
1775341408203261200,3.30326123046875,-0.05124402046203613,0.014919281005859375,0.012894600629806519
1775341408213261300,3.31326123046875,0.02492213249206543,0.0039806365966796875,-0.01401570439338684
1775341408223261200,3.32326123046875,0.027525663375854492,-0.032937049865722656,0.015328295528888702
1775341408233261300,3.33326123046875,-0.04808998107910156,0.02195453643798828,0.0063071101903915405
1775341408243261200,3.34326123046875,0.05216670036315918,-0.019623756408691406,-0.04263846576213837
1775341408253261300,3.35326123046875,-0.04138660430908203,0.032166481018066406,0.013390567153692245
1775341408263261200,3.36326123046875,0.044116973876953125,-0.016462326049804688,0.033136092126369476
1775341408273261300,3.37326123046875,-0.04693937301635742,0.01854228973388672,-0.01273365318775177
1775341408283261200,3.38326123046875,0.0317692756652832,-0.013109207153320312,-0.013688182458281517
1775341408293261300,3.39326123046875,-0.02429366111755371,0.011130332946777344,0.018582575023174286
1775341408303261200,3.40326123046875,0.02092146873474121,-0.004863739013671875,-0.008067380636930466
1775341408313261300,3.41326123046875,0.006698131561279297,-0.016111373901367188,0.003503739833831787
1775341408323261200,3.42326123046875,-0.02455306053161621,0.023909568786621094,0.0036214590072631836
1775341408333261300,3.43326123046875,0.044585466384887695,-0.028583526611328125,-0.0233038067817688
1775341408343261200,3.44326123046875,-0.06394624710083008,0.01812458038330078,-0.013795159757137299
1775341408353261300,3.45326123046875,0.04558610916137695,-0.02949047088623047,0.010867305099964142
1775341408363261200,3.46326123046875,-0.01649308204650879,-0.0045299530029296875,0.01395198330283165
1775341408373261300,3.47326123046875,0.013615608215332031,0.009385108947753906,-0.013532783836126328
1775341408383261200,3.48326123046875,-0.04042482376098633,-0.0071315765380859375,-0.025920920073986053
1775341408393261300,3.49326123046875,0.03305768966674805,-0.027792930603027344,0.014505196362733841
1775341408403261200,3.50326123046875,-0.04339909553527832,0.04106903076171875,0.002822309732437134
1775341408413261300,3.51326123046875,0.04372739791870117,0.0021257400512695312,-0.015391930937767029
1775341408423261200,3.52326123046875,0.0454099178314209,0.044386863708496094,0.007081981748342514
1775341408433261300,3.53326123046875,-0.01179957389831543,0.02161407470703125,-0.01362716406583786
1775341408443261200,3.54326123046875,0.05834174156188965,-0.05544853210449219,-0.03633851185441017
1775341408453261300,3.55326123046875,-0.03251457214355469,0.026838302612304688,0.03676009923219681
1775341408463261200,3.56326123046875,0.06102728843688965,0.0034847259521484375,-0.017526645213365555
1775341408473261300,3.57326123046875,-0.05775809288024902,0.036309242248535156,-0.09838006645441055
1775341408483261200,3.58326123046875,0.010944843292236328,-0.025049209594726562,-0.0020604468882083893
1775341408493261300,3.59326123046875,-0.020122051239013672,-0.032489776611328125,0.08235615491867065
1775341408503261200,3.60326123046875,-0.09085392951965332,0.0025777816772460938,0.0067940354347229
1775341408513261300,3.61326123046875,-0.04801583290100098,0.02215099334716797,-0.02887185662984848
1775341408523261200,3.62326123046875,0.012919187545776367,-0.015626907348632812,0.03390230983495712
1775341408533261300,3.63326123046875,-0.14540529251098633,0.039366722106933594,-0.03891565650701523
1775341408543261200,3.64326123046875,0.05222725868225098,-0.004864692687988281,-0.028012383729219437
1775341408553261300,3.65326123046875,0.009250164031982422,-0.022150039672851562,0.10361919552087784
1775341408563261200,3.66326123046875,-0.00854349136352539,0.0012693405151367188,0.0062013715505599976
1775341408573261300,3.67326123046875,0.03132057189941406,-0.004680633544921875,-0.11920982599258423
1775341408583261200,3.68326123046875,0.005042552947998047,0.018096923828125,-0.009331334382295609
1775341408593261300,3.69326123046875,0.0817723274230957,-0.0208282470703125,0.04623681679368019
1775341408603261200,3.70326123046875,0.022037506103515625,0.014192581176757812,-0.02204716205596924
1775341408613261300,3.71326123046875,0.03905534744262695,0.000385284423828125,0.01351679116487503
1775341408623261200,3.72326123046875,0.0030570030212402344,0.0026102066040039062,0.021124914288520813
1775341408633261300,3.73326123046875,0.012280941009521484,0.013708114624023438,-0.05797439068555832
1775341408643261200,3.74326123046875,-0.040784597396850586,-0.0016145706176757812,0.0016319341957569122
1775341408653261300,3.75326123046875,0.015598297119140625,-0.016485214233398438,0.08343588560819626
1775341408663261200,3.76326123046875,-0.006659030914306641,0.01921367645263672,0.05873875319957733
1775341408673261300,3.77326123046875,-0.013274192810058594,0.036998748779296875,-0.03286982327699661
1775341408683261200,3.78326123046875,0.017827749252319336,-0.0008144378662109375,-0.00837097316980362
1775341408693261300,3.79326123046875,-0.008567571640014648,-0.014652252197265625,0.05526357516646385
1775341408703261200,3.80326123046875,0.05806756019592285,-0.021526336669921875,-0.0006291382014751434
1775341408713261300,3.81326123046875,0.00517725944519043,0.010109901428222656,-0.02024652436375618
1775341408723261200,3.82326123046875,0.03747868537902832,0.0019426345825195312,0.005240738391876221
1775341408733261300,3.83326123046875,-0.009863138198852539,0.0153350830078125,-0.049502745270729065
1775341408743261200,3.84326123046875,0.016434669494628906,-0.03542518615722656,-0.025777753442525864
1775341408753261300,3.85326123046875,-0.047652482986450195,0.0016622543334960938,0.03799223154783249
1775341408763261200,3.86326123046875,0.024898767471313477,-0.0050487518310546875,-0.023265551775693893
1775341408773261300,3.87326123046875,-0.04669690132141113,-0.00040340423583984375,-0.059732116758823395
1775341408783261200,3.88326123046875,-0.04442143440246582,-0.024967193603515625,0.000007268041372299194
1775341408793261300,3.89326123046875,0.039215087890625,-0.0106201171875,0.04200051724910736
1775341408803261200,3.90326123046875,-0.020503997802734375,0.013628959655761719,0.030680183321237564
1775341408813261300,3.91326123046875,-0.0061304569244384766,0.006155967712402344,0.0016134418547153473
1775341408823261200,3.92326123046875,0.04029560089111328,0.0061283111572265625,0.018087953329086304
1775341408833261300,3.93326123046875,0.04557442665100098,-0.014098167419433594,0.035445474088191986
1775341408843261200,3.94326123046875,-0.053663015365600586,0.026694297790527344,-0.019772369414567947
1775341408853261300,3.95326123046875,0.09823131561279297,-0.031116485595703125,-0.005769666284322739
1775341408863261200,3.96326123046875,-0.027454376220703125,0.012511253356933594,0.03163773566484451
1775341408873261300,3.97326123046875,-0.05541229248046875,0.0054073333740234375,-0.03630450367927551
1775341408883261200,3.98326123046875,0.02574753761291504,-0.015170097351074219,-0.016789115965366364
1775341408893261300,3.99326123046875,-0.09055018424987793,0.016060829162597656,0.033520907163619995
1775341408903261200,4.00326123046875,0.017965316772460938,0.006714820861816406,-0.05402851104736328
1775341408913261300,4.01326123046875,0.02506399154663086,-0.022805213928222656,0.02943914756178856
1775341408923261200,4.02326123046875,-0.06026148796081543,0.03038501739501953,0.01895871013402939
1775341408933261300,4.03326123046875,0.15929818153381348,-0.03203582763671875,-0.06506764888763428
1775341408943261200,4.04326123046875,-0.09534597396850586,0.045383453369140625,0.03451421856880188
1775341408953261300,4.05326123046875,0.14179778099060059,-0.08122825622558594,0.08125609159469604
1775341408963261200,4.06326123046875,-0.09710097312927246,0.05216693878173828,-0.006813064217567444
1775341408973261300,4.07326123046875,0.07458829879760742,-0.030124664306640625,-0.05652453377842903
1775341408983261200,4.08326123046875,-0.07845568656921387,0.011302947998046875,0.0731392651796341
1775341408993261300,4.09326123046875,0.01485586166381836,-0.00031757354736328125,0.01475481316447258
1775341409003261200,4.10326123046875,0.050492048263549805,-0.008185386657714844,-0.05207996815443039
1775341409013261300,4.11326123046875,-0.10591697692871094,0.045098304748535156,0.05112821236252785
1775341409023261200,4.12326123046875,0.09359359741210938,-0.05016899108886719,0.011979304254055023
1775341409033261300,4.13326123046875,-0.10471391677856445,0.0794687271118164,-0.06203710660338402
1775341409043261200,4.14326123046875,0.04533219337463379,-0.04599285125732422,0.008786488324403763
1775341409053261300,4.15326123046875,-0.04819345474243164,0.024880409240722656,0.012893006205558777
1775341409063261200,4.16326123046875,0.1226358413696289,-0.027419090270996094,-0.0781862810254097
1775341409073261300,4.17326123046875,-0.09394431114196777,0.012681961059570312,-0.011047404259443283
1775341409083261200,4.18326123046875,0.04192066192626953,-0.012469291687011719,0.030459314584732056
1775341409093261300,4.19326123046875,-0.009448528289794922,0.016912460327148438,0.005282614380121231
1775341409103261200,4.20326123046875,-0.07057929039001465,0.014685630798339844,-0.00058780238032341
1775341409113261300,4.21326123046875,0.04476332664489746,-0.02583789825439453,0.037767112255096436
1775341409123261200,4.22326123046875,-0.05905008316040039,0.018868446350097656,0.0027933046221733093
1775341409133261300,4.23326123046875,0.05276942253112793,-0.007350921630859375,-0.035587430000305176
1775341409143261200,4.24326123046875,0.01651597023010254,-0.00861358642578125,0.047322191298007965
1775341409153261300,4.25326123046875,0.02189779281616211,-0.014867782592773438,0.03099197894334793
1775341409163261200,4.26326123046875,-0.008735895156860352,0.02023029327392578,-0.05820756033062935
1775341409173261300,4.27326123046875,0.010375738143920898,-0.010718345642089844,-0.013019252568483353
1775341409183261200,4.28326123046875,0.02940511703491211,-0.02201366424560547,0.0420357808470726
1775341409193261300,4.29326123046875,-0.010305404663085938,0.0020198822021484375,-0.05346300080418587
1775341409203261200,4.30326123046875,0.01726984977722168,0.012115478515625,-0.06092466041445732
1775341409213261300,4.31326123046875,-0.052802324295043945,-0.0172576904296875,0.057653941214084625
1775341409223261200,4.32326123046875,-0.04425525665283203,0.0069561004638671875,-0.0010615885257720947
1775341409233261300,4.33326123046875,0.010072708129882812,0.0051212310791015625,-0.029980206862092018
1775341409243261200,4.34326123046875,-0.029294729232788086,-0.04812335968017578,0.061519745737314224
1775341409253261300,4.35326123046875,-0.032367706298828125,0.08579635620117188,-0.018173597753047943
1775341409263261200,4.36326123046875,0.0799708366394043,-0.040917396545410156,-0.02478284202516079
1775341409273261300,4.37326123046875,-0.14396452903747559,0.027855873107910156,0.07521027326583862
1775341409283261200,4.38326123046875,0.062014102935791016,-0.05163002014160156,0.015392549335956573
1775341409293261300,4.39326123046875,0.02260732650756836,0.023919105529785156,0.00850534439086914
1775341409303261200,4.40326123046875,-0.04878997802734375,-0.023672103881835938,0.017458360642194748
1775341409313261300,4.41326123046875,-0.013850212097167969,-0.021966934204101562,-0.0647336021065712
1775341409323261200,4.42326123046875,0.03496050834655762,-0.0006694793701171875,-0.07203985750675201
1775341409333261300,4.43326123046875,-0.01846003532409668,-0.004914283752441406,-0.004028100520372391
1775341409343261200,4.44326123046875,-0.015074729919433594,-0.013348579406738281,-0.014683328568935394
1775341409353261300,4.45326123046875,0.07882428169250488,-0.004197120666503906,-0.008210022002458572
1775341409363261200,4.46326123046875,-0.03084421157836914,0.00476837158203125,0.03884389251470566
1775341409373261300,4.47326123046875,-0.025012731552124023,-0.016340255737304688,-0.02970987930893898
1775341409383261200,4.48326123046875,0.04085230827331543,-0.004097938537597656,-0.05174175649881363
1775341409393261300,4.49326123046875,-0.09739899635314941,0.03343677520751953,0.03453066200017929
1775341409403261200,4.50326123046875,-0.018872737884521484,-0.03036975860595703,0.007569804787635803
1775341409413261300,4.51326123046875,0.07924413681030273,-0.033111572265625,0.006910655647516251
1775341409423261200,4.52326123046875,-0.06541037559509277,0.03772926330566406,0.06512929499149323
1775341409433261300,4.53326123046875,-0.034166812896728516,0.011454582214355469,-0.026682622730731964
1775341409443261200,4.54326123046875,0.037877798080444336,-0.02262401580810547,-0.0046090297400951385
1775341409453261300,4.55326123046875,-0.06862688064575195,0.021549224853515625,0.033621467649936676
1775341409463261200,4.56326123046875,0.06073260307312012,-0.009066581726074219,-0.017712919041514397
1775341409473261300,4.57326123046875,-0.02802300453186035,0.009691238403320312,0.0008796490728855133
1775341409483261200,4.58326123046875,0.07735037803649902,-0.025667190551757812,0.0339595228433609
1775341409493261300,4.59326123046875,-0.048369407653808594,0.004395484924316406,-0.0007314905524253845
1775341409503261200,4.60326123046875,0.04381155967712402,0.0014972686767578125,-0.07545328885316849
1775341409513261300,4.61326123046875,-0.012682914733886719,-0.00702667236328125,0.008796904236078262
1775341409523261200,4.62326123046875,-0.04399728775024414,0.012714385986328125,0.022029194980859756
1775341409533261300,4.63326123046875,0.009125709533691406,-0.0072345733642578125,-0.03078499436378479
1775341409543261200,4.64326123046875,-0.030907392501831055,0.023003578186035156,0.022816531360149384
1775341409553261300,4.65326123046875,0.048452138900756836,-0.0030689239501953125,0.06213729456067085
1775341409563261200,4.66326123046875,-0.06792283058166504,0.04369831085205078,-0.022427715361118317
1775341409573261300,4.67326123046875,0.028423786163330078,-0.020826339721679688,-0.05468609556555748
1775341409583261200,4.68326123046875,-0.07187914848327637,0.0037717819213867188,0.03074784204363823
1775341409593261300,4.69326123046875,0.024186134338378906,-0.016153335571289062,0.049602482467889786
1775341409603261200,4.70326123046875,-0.030295610427856445,0.032436370849609375,-0.004681006073951721
1775341409613261300,4.71326123046875,0.09422588348388672,-0.005948066711425781,0.03211672976613045
1775341409623261200,4.72326123046875,-0.04148125648498535,0.031218528747558594,0.07154840230941772
1775341409633261300,4.73326123046875,0.06362366676330566,-0.050461769104003906,-0.019014272838830948
1775341409643261200,4.74326123046875,0.013324737548828125,0.005343437194824219,-0.026477279141545296
1775341409653261300,4.75326123046875,-0.033953189849853516,0.007597923278808594,-0.011442471295595169
1775341409663261200,4.76326123046875,0.0066263675689697266,-0.00176239013671875,-0.04596323147416115
1775341409673261300,4.77326123046875,0.002000093460083008,0.030233383178710938,-0.015515271574258804
1775341409683261200,4.78326123046875,-0.012343406677246094,-0.08335685729980469,0.11602257192134857
1775341409693261300,4.79326123046875,-0.04582667350769043,0.04297161102294922,-0.027786724269390106
1775341409703261200,4.80326123046875,0.06146645545959473,-0.04229736328125,-0.09157416224479675
1775341409713261300,4.81326123046875,-0.08654189109802246,0.10222339630126953,0.13826560974121094
1775341409723261200,4.82326123046875,0.19577455520629883,-0.024953842163085938,0.06478355824947357
1775341409733261300,4.83326123046875,-0.10940027236938477,0.02862834930419922,-0.1243819147348404
1775341409743261200,4.84326123046875,0.042498111724853516,-0.015577316284179688,-0.004665996879339218
1775341409753261300,4.85326123046875,0.06512022018432617,-0.042860984802246094,0.09440850466489792
1775341409763261200,4.86326123046875,0.02740025520324707,0.058129310607910156,-0.02130686677992344
1775341409773261300,4.87326123046875,-0.01952219009399414,-0.028415679931640625,-0.02045811340212822
1775341409783261200,4.88326123046875,-0.14537882804870605,0.058742523193359375,0.04529573395848274
1775341409793261300,4.89326123046875,0.0653223991394043,-0.0717935562133789,-0.01732601225376129
1775341409803261200,4.90326123046875,-0.08784174919128418,0.029296875,0.01379266008734703
1775341409813261300,4.91326123046875,-0.04005789756774902,-0.00769805908203125,-0.01397790014743805
1775341409823261200,4.92326123046875,0.04234504699707031,0.02706146240234375,-0.029756072908639908
1775341409833261300,4.93326123046875,0.034673213958740234,0.04346275329589844,0.025477726012468338
1775341409843261200,4.94326123046875,-0.02875375747680664,0.02441692352294922,0.003197368234395981
1775341409853261300,4.95326123046875,0.14011645317077637,-0.10183334350585938,0.021110400557518005
1775341409863261200,4.96326123046875,0.12489914894104004,-0.043051719665527344,0.04091630503535271
1775341409873261300,4.97326123046875,-0.14670085906982422,0.1170053482055664,-0.060979701578617096
1775341409883261200,4.98326123046875,0.1527419090270996,-0.0772562026977539,-0.041664861142635345
1775341409893261300,4.99326123046875,-0.0415492057800293,0.03521537780761719,0.06560829281806946
1775341409903261200,5.00326123046875,-0.2101752758026123,0.06660652160644531,-0.0684957355260849
1775341409913261300,5.01326123046875,0.2826986312866211,-0.0808248519897461,-0.05969265103340149
1775341409923261200,5.02326123046875,-0.34392499923706055,0.08147811889648438,0.11989246308803558
1775341409933261300,5.03326123046875,0.10335230827331543,-0.021472930908203125,-0.01898745819926262
1775341409943261200,5.04326123046875,-0.026868343353271484,0.01434326171875,-0.007708616554737091
1775341409953261300,5.05326123046875,-0.06443119049072266,0.06749439239501953,0.06762902438640594
1775341409963261200,5.06326123046875,0.17908382415771484,-0.02946186065673828,-0.0034004785120487213
1775341409973261300,5.07326123046875,-0.175520658493042,0.02393054962158203,-0.0023062676191329956
1775341409983261200,5.08326123046875,0.2060849666595459,-0.03025341033935547,-0.003984831273555756
1775341409993261300,5.09326123046875,-0.16163992881774902,0.10027408599853516,0.0232708603143692
1775341410003261200,5.10326123046875,0.05556607246398926,-0.026740074157714844,-0.05686381459236145
1775341410013261300,5.11326123046875,-0.015001535415649414,-0.009058952331542969,-0.019602486863732338
1775341410023261200,5.12326123046875,-0.12583065032958984,0.028573989868164062,0.05529405176639557
1775341410033261300,5.13326123046875,-0.03249931335449219,0.08581066131591797,0.022103749215602875
1775341410043261200,5.14326123046875,-0.1264963150024414,0.0487823486328125,0.020189061760902405
1775341410053261300,5.15326123046875,0.06642031669616699,-0.05090904235839844,0.00924251601099968
1775341410063261200,5.16326123046875,0.009035348892211914,0.06387901306152344,0.029175948351621628
1775341410073261300,5.17326123046875,-0.5727858543395996,0.30292224884033203,0.021834921091794968
1775341410083261200,5.18326123046875,0.1227262020111084,0.1446371078491211,-0.03539292514324188
1775341410093261300,5.19326123046875,-0.14009809494018555,0.17551136016845703,0.1367425173521042
1775341410103261200,5.20326123046875,-0.48062586784362793,0.3092069625854492,0.08342602849006653
1775341410113261300,5.21326123046875,-0.20735645294189453,0.4826545715332031,0.14967116713523865
1775341410123261200,5.22326123046875,-0.9747936725616455,0.9163398742675781,0.22487981617450714
1775341410133261300,5.23326123046875,-0.8158315420150757,0.8670663833618164,-0.03238246589899063
1775341410143261200,5.24326123046875,0.4078183174133301,0.5426836013793945,-0.1378033608198166
1775341410153261300,5.25326123046875,-0.07552909851074219,0.9477949142456055,0.06957042217254639
1775341410163261200,5.26326123046875,0.4001939296722412,0.9053659439086914,0.07068650424480438
1775341410173261300,5.27326123046875,-0.24184441566467285,1.0984992980957031,0.17107127606868744
1775341410183261200,5.28326123046875,-0.1668868064880371,0.9460315704345703,0.0339178740978241
1775341410193261300,5.29326123046875,-0.45793986320495605,1.1062593460083008,-0.06239977478981018
1775341410203261200,5.30326123046875,-0.8360030651092529,1.0395355224609375,0.20311664044857025
1775341410213261300,5.31326123046875,0.5461413860321045,0.6237525939941406,0.13260646164417267
1775341410223261200,5.32326123046875,-1.890071153640747,1.2596492767333984,0.1832057237625122
1775341410233261300,5.33326123046875,0.05351448059082031,0.2811088562011719,0.11454062908887863
1775341410243261200,5.34326123046875,0.8241088390350342,0.1383056640625,0.03328217193484306
1775341410253261300,5.35326123046875,-1.7722749710083008,0.47726917266845703,-0.04413236677646637
1775341410263261200,5.36326123046875,-0.5312044620513916,1.287154197692871,0.3299890160560608
1775341410273261300,5.37326123046875,-4.434679985046387,1.6096410751342773,0.11660883575677872
1775341410283261200,5.38326123046875,-3.9571728706359863,1.4734325408935547,-0.5000981688499451
1775341410293261300,5.39326123046875,-6.803458213806152,2.988405227661133,0.04423291236162186
1775341410303261200,5.40326123046875,-3.671640396118164,0.7730932235717773,0.5860593318939209
1775341410313261300,5.41326123046875,-4.323175430297852,0.9128351211547852,0.17039532959461212
1775341410323261200,5.42326123046875,-2.190558433532715,0.014692306518554688,-0.7151010036468506
1775341410333261300,5.43326123046875,-2.375181198120117,-0.21856975555419922,0.012047000229358673
1775341410343261200,5.44326123046875,-1.4123177528381348,-0.6780490875244141,0.519515335559845
1775341410353261300,5.45326123046875,-1.4006314277648926,-1.0646028518676758,-0.6555982232093811
1775341410363261200,5.46326123046875,0.23621225357055664,-1.6855177879333496,-0.8353195786476135
1775341410373261300,5.47326123046875,1.0122418403625488,-2.003711223602295,0.009516499936580658
1775341410383261200,5.48326123046875,1.240583896636963,-2.596160888671875,-0.1801978051662445
1775341410393261300,5.49326123046875,2.3187294006347656,-2.988393783569336,-0.4397234320640564
1775341410403261200,5.50326123046875,1.623307228088379,-1.8920063972473145,-0.5928403735160828
1775341410413261300,5.51326123046875,1.183485984802246,-2.059072494506836,0.05130752921104431
1775341410423261200,5.52326123046875,0.19778966903686523,-1.3598747253417969,0.18745988607406616
1775341410433261300,5.53326123046875,-0.7177209854125977,-1.7490663528442383,-0.363138884305954
1775341410443261200,5.54326123046875,-0.40542030334472656,-1.7294511795043945,-0.2467808723449707
1775341410453261300,5.55326123046875,-0.7200460433959961,-1.0384416580200195,0.23900236189365387
1775341410463261200,5.56326123046875,-0.500643253326416,-1.3986077308654785,-0.03243853151798248
1775341410473261300,5.57326123046875,-2.1213088035583496,-0.38163042068481445,-0.2961830198764801
1775341410483261200,5.58326123046875,-3.07468581199646,-1.1128926277160645,0.7512017488479614
1775341410493261300,5.59326123046875,-3.513021469116211,-0.7182226181030273,0.3224465250968933
1775341410503261200,5.60326123046875,-3.8540000915527344,-0.5984830856323242,-0.36458563804626465
1775341410513261300,5.61326123046875,25.315921783447266,-12.549373626708984,-4.845357894897461
1775341410523261200,5.62326123046875,41.75035095214844,-21.841875076293945,8.661725044250488
1775341410533261300,5.63326123046875,-35.50780487060547,13.398351669311523,0.6458141207695007
1775341410543261200,5.64326123046875,-10.124556541442871,2.022177219390869,-6.813672065734863
1775341410553261300,5.65326123046875,20.59772300720215,-8.499713897705078,-2.956658363342285
1775341410563261200,5.66326123046875,-2.6263904571533203,-1.4387469291687012,5.6317009925842285
1775341410573261300,5.67326123046875,-8.504321098327637,3.2496728897094727,1.0241566896438599
1775341410583261200,5.68326123046875,6.953155040740967,-2.1318540573120117,-4.279841423034668
1775341410593261300,5.69326123046875,-3.749913215637207,0.8341107368469238,0.682719886302948
1775341410603261200,5.70326123046875,-2.3521852493286133,-0.768913745880127,3.2616240978240967
1775341410613261300,5.71326123046875,5.665493965148926,-2.380856513977051,-1.0266919136047363
1775341410623261200,5.72326123046875,-5.798867225646973,2.770130157470703,-1.480398416519165
1775341410633261300,5.73326123046875,-0.6865253448486328,-0.11819219589233398,0.3611283302307129
1775341410643261200,5.74326123046875,2.912950038909912,-1.3198766708374023,0.7100746035575867
1775341410653261300,5.75326123046875,-0.3978238105773926,0.014172554016113281,-0.4997675120830536
1775341410663261200,5.76326123046875,-1.5702228546142578,0.47843074798583984,-0.9703460335731506
1775341410673261300,5.77326123046875,1.3085384368896484,-0.45697784423828125,-0.2284853607416153
1775341410683261200,5.78326123046875,1.5092558860778809,0.020823001861572266,-0.07998155057430267
1775341410693261300,5.79326123046875,0.5595512390136719,0.10269403457641602,-0.27300935983657837
1775341410703261200,5.80326123046875,-0.23312044143676758,0.18918371200561523,-0.15700598061084747
1775341410713261300,5.81326123046875,-1.4567036628723145,1.1307344436645508,0.2764042317867279
1775341410723261200,5.82326123046875,2.873204231262207,-1.287926197052002,-0.02832743525505066
1775341410733261300,5.83326123046875,-1.2631101608276367,0.8148374557495117,-0.08831559121608734
1775341410743261200,5.84326123046875,-0.5000367164611816,0.43282461166381836,-0.28596562147140503
1775341410753261300,5.85326123046875,0.8555316925048828,-0.0344395637512207,-0.10967740416526794
1775341410763261200,5.86326123046875,0.24061012268066406,0.017525196075439453,0.276134729385376
1775341410773261300,5.87326123046875,0.28385162353515625,0.14511871337890625,-0.16568182408809662
1775341410783261200,5.88326123046875,-0.9939751625061035,0.8100953102111816,-0.2804945111274719
1775341410793261300,5.89326123046875,0.9254469871520996,-0.22405481338500977,-0.0004963725805282593
1775341410803261200,5.90326123046875,-0.11681747436523438,-0.02017688751220703,-0.001506894826889038
1775341410813261300,5.91326123046875,-0.028271198272705078,-0.29988861083984375,-0.48968735337257385
1775341410823261200,5.92326123046875,0.3117251396179199,-0.5231661796569824,-0.3436043858528137
1775341410833261300,5.93326123046875,-0.12117767333984375,-0.4327559471130371,-0.09023348987102509
1775341410843261200,5.94326123046875,0.6407952308654785,-0.11566543579101562,-0.3624192774295807
1775341410853261300,5.95326123046875,-0.0030536651611328125,-0.11512374877929688,-0.052047133445739746
1775341410863261200,5.96326123046875,-0.6884160041809082,0.18602705001831055,0.19415530562400818
1775341410873261300,5.97326123046875,0.1401963233947754,-0.13735675811767578,-0.02488715946674347
1775341410883261200,5.98326123046875,0.5648212432861328,-0.49646854400634766,0.019508570432662964
1775341410893261300,5.99326123046875,-0.6383209228515625,-0.0162200927734375,0.009294524788856506
1775341410903261200,6.00326123046875,0.13860416412353516,-0.21529531478881836,-0.11164778470993042
1775341410913261300,6.01326123046875,-0.2131180763244629,-0.22324037551879883,0.21758699417114258
1775341410923261200,6.02326123046875,0.28993654251098633,-0.37079620361328125,0.12098945677280426
1775341410933261300,6.03326123046875,-0.4009394645690918,-0.060738563537597656,0.0017894357442855835
1775341410943261200,6.04326123046875,0.056305885314941406,-0.2246694564819336,0.08553578704595566
1775341410953261300,6.05326123046875,-0.0017161369323730469,-0.1869029998779297,0.144313246011734
1775341410963261200,6.06326123046875,0.06815052032470703,-0.3018217086791992,-0.017241686582565308
1775341410973261300,6.07326123046875,-0.20212459564208984,-0.12841463088989258,-0.004884093999862671
1775341410983261200,6.08326123046875,-0.39942502975463867,-0.1614055633544922,0.04468259960412979
1775341410993261300,6.09326123046875,1.0200133323669434,-0.6263623237609863,-0.11907030642032623
1775341411003261200,6.10326123046875,-0.43150901794433594,0.08286905288696289,-0.09032684564590454
1775341411013261300,6.11326123046875,-0.05252361297607422,-0.09134769439697266,-0.07035468518733978
1775341411023261200,6.12326123046875,0.06815052032470703,-0.15796375274658203,-0.1304715871810913
1775341411033261300,6.13326123046875,-0.014789104461669922,-0.1553640365600586,-0.06655421853065491
1775341411043261200,6.14326123046875,-0.24465179443359375,-0.1477971076965332,-0.14513491094112396
1775341411053261300,6.15326123046875,-0.3630037307739258,0.00015163421630859375,-0.1541651040315628
1775341411063261200,6.16326123046875,0.25408220291137695,-0.3003196716308594,0.01850275695323944
1775341411073261300,6.17326123046875,-0.4897956848144531,-0.03894376754760742,0.04512275010347366
1775341411083261200,6.18326123046875,-0.04185819625854492,-0.24966192245483398,-0.13544802367687225
1775341411093261300,6.19326123046875,-0.35164785385131836,-0.2741384506225586,-0.023424208164215088
1775341411103261200,6.20326123046875,0.11359500885009766,-0.5165033340454102,-0.05874018371105194
1775341411113261300,6.21326123046875,0.06293344497680664,-0.7335085868835449,-0.2968103587627411
1775341411123261200,6.22326123046875,-0.42015743255615234,-0.3848586082458496,-0.20679299533367157
1775341411133261300,6.23326123046875,-0.3648204803466797,-0.5812163352966309,0.060037240386009216
1775341411143261200,6.24326123046875,-0.2911858558654785,-0.7715191841125488,0.023790493607521057
1775341411153261300,6.25326123046875,-0.9826064109802246,-0.604987621307373,-0.15361715853214264
1775341411163261200,6.26326123046875,-0.34735822677612305,-0.8587188720703125,0.0826764851808548
1775341411173261300,6.27326123046875,-1.1963987350463867,-0.6153969764709473,0.28153473138809204
1775341411183261200,6.28326123046875,0.3825039863586426,-1.3962488174438477,-0.06181564927101135
1775341411193261300,6.29326123046875,-1.2932329177856445,-0.6721720695495605,-0.1721320003271103
1775341411203261200,6.30326123046875,-0.330049991607666,-1.1028451919555664,0.04446575790643692
1775341411213261300,6.31326123046875,-0.1711254119873047,-1.221482276916504,0.2572277784347534
1775341411223261200,6.32326123046875,-1.8078103065490723,-0.6841030120849609,0.003389030694961548
1775341411233261300,6.33326123046875,0.12922096252441406,-1.2409090995788574,-0.18824900686740875
1775341411243261200,6.34326123046875,-0.6594223976135254,-0.7028098106384277,0.3791741728782654
1775341411253261300,6.35326123046875,-0.9888477325439453,-0.44729089736938477,0.2815277576446533
1775341411263261200,6.36326123046875,-0.1559152603149414,-0.8464012145996094,-0.00983978807926178
1775341411273261300,6.37326123046875,-0.6570148468017578,-0.7767133712768555,0.05463292449712753
1775341411283261200,6.38326123046875,-0.5999321937561035,-0.5913553237915039,-0.08249811828136444
1775341411293261300,6.39326123046875,0.3428053855895996,-0.6047587394714355,-0.09983956813812256
1775341411303261200,6.40326123046875,-0.8509225845336914,-0.2698378562927246,0.1559625267982483
1775341411313261300,6.41326123046875,0.1287832260131836,-0.587092399597168,-0.22845923900604248
1775341411323261200,6.42326123046875,0.09073638916015625,-0.3468313217163086,-0.09886306524276733
1775341411333261300,6.43326123046875,-0.5909113883972168,0.25386905670166016,0.13600634038448334
1775341411343261200,6.44326123046875,0.8501338958740234,-0.10041189193725586,-0.059938862919807434
1775341411353261300,6.45326123046875,-0.4453573226928711,0.16043615341186523,0.10748661309480667
1775341411363261200,6.46326123046875,0.22744369506835938,0.06689929962158203,-0.1551775336265564
1775341411373261300,6.47326123046875,0.696448802947998,0.3375425338745117,-0.28464388847351074
1775341411383261200,6.48326123046875,0.030117034912109375,0.6573066711425781,0.17870354652404785
1775341411393261300,6.49326123046875,0.36022377014160156,0.10991954803466797,-0.1537492722272873
1775341411403261200,6.50326123046875,0.1986985206604004,0.569669246673584,-0.37927788496017456
1775341411413261300,6.51326123046875,0.6244816780090332,0.26134490966796875,0.2465822845697403
1775341411423261200,6.52326123046875,-0.01867055892944336,0.25512075424194336,0.18140986561775208
1775341411433261300,6.53326123046875,0.22536563873291016,0.10073232650756836,-0.4748244881629944
1775341411443261200,6.54326123046875,0.5357518196105957,-0.18544912338256836,0.014159515500068665
1775341411453261300,6.55326123046875,-0.3969550132751465,0.10457229614257812,0.18896549940109253
1775341411463261200,6.56326123046875,0.8164067268371582,-0.13994169235229492,-0.27178049087524414
1775341411473261300,6.57326123046875,-0.21956920623779297,0.2086939811706543,0.0005002468824386597
1775341411483261200,6.58326123046875,0.17486143112182617,-0.050017356872558594,0.24150332808494568
1775341411493261300,6.59326123046875,-0.34846019744873047,-0.0009140968322753906,-0.058059319853782654
1775341411503261200,6.60326123046875,-0.04399871826171875,-0.2150135040283203,-0.30031320452690125
1775341411513261300,6.61326123046875,-0.00015306472778320312,-0.6461639404296875,-0.11232802271842957
1775341411523261200,6.62326123046875,-0.3019719123840332,-0.4597907066345215,-0.11070865392684937
1775341411533261300,6.63326123046875,-0.40468835830688477,-0.20787715911865234,-0.1637044996023178
1775341411543261200,6.64326123046875,0.09487390518188477,-0.6292514801025391,0.21497513353824615
1775341411553261300,6.65326123046875,-0.603905200958252,-0.5032763481140137,0.28296399116516113
1775341411563261200,6.66326123046875,-0.055062294006347656,-0.33578014373779297,-0.13482964038848877
1775341411573261300,6.67326123046875,-0.5577940940856934,-0.42453813552856445,-0.03590117394924164
1775341411583261200,6.68326123046875,-0.4474453926086426,-0.6068964004516602,-0.03240408003330231
1775341411593261300,6.69326123046875,-0.0708165168762207,-0.6993451118469238,-0.06875328719615936
1775341411603261200,6.70326123046875,-0.4764223098754883,-0.7367167472839355,-0.052944034337997437
1775341411613261300,6.71326123046875,-0.3099651336669922,-0.38907575607299805,-0.1845542937517166
1775341411623261200,6.72326123046875,0.04272317886352539,-0.7588796615600586,-0.22982345521450043
1775341411633261300,6.73326123046875,-0.2833719253540039,-0.41355371475219727,-0.029945790767669678
1775341411643261200,6.74326123046875,-1.0275044441223145,-0.3788266181945801,0.1142943799495697
1775341411653261300,6.75326123046875,0.6186313629150391,-0.9355382919311523,-0.07199986279010773
1775341411663261200,6.76326123046875,-1.4379639625549316,0.06112051010131836,0.25021111965179443
1775341411673261300,6.77326123046875,0.632138729095459,-0.9649686813354492,0.06283990293741226
1775341411683261200,6.78326123046875,-0.729001522064209,0.025218963623046875,0.23575955629348755
1775341411693261300,6.79326123046875,-0.13776445388793945,-0.91925048828125,0.2612423300743103
1775341411703261200,6.80326123046875,-0.006762981414794922,-0.2629203796386719,0.11373446881771088
1775341411713261300,6.81326123046875,-0.2419137954711914,-0.1441655158996582,0.28457707166671753
1775341411723261200,6.82326123046875,0.5849757194519043,-0.40235042572021484,0.2730337977409363
1775341411733261300,6.83326123046875,-0.7125983238220215,-0.08037185668945312,0.06367231905460358
1775341411743261200,6.84326123046875,0.31972551345825195,-0.3779582977294922,-0.24805572628974915
1775341411753261300,6.85326123046875,-0.3345942497253418,-0.12397193908691406,-0.1300399750471115
1775341411763261200,6.86326123046875,-0.41006898880004883,-0.16584205627441406,0.2273135781288147
1775341411773261300,6.87326123046875,0.3523135185241699,-0.23915672302246094,0.0876396894454956
1775341411783261200,6.88326123046875,-0.3549933433532715,0.05466747283935547,-0.3165237307548523
1775341411793261300,6.89326123046875,0.4956793785095215,-0.29317235946655273,-0.40316736698150635
1775341411803261200,6.90326123046875,-0.2684364318847656,-0.11925268173217773,-0.1454559713602066
1775341411813261300,6.91326123046875,0.06792688369750977,0.33501577377319336,-0.06641089916229248
1775341411823261200,6.92326123046875,0.04311323165893555,-0.11259317398071289,-0.06352558732032776
1775341411833261300,6.93326123046875,0.12226009368896484,-0.06980705261230469,-0.006187170743942261
1775341411843261200,6.94326123046875,0.20777463912963867,0.2866501808166504,-0.1388072967529297
1775341411853261300,6.95326123046875,0.5251750946044922,0.17195606231689453,-0.11147744953632355
1775341411863261200,6.96326123046875,-0.09696054458618164,0.2066173553466797,0.131511390209198
1775341411873261300,6.97326123046875,0.05773639678955078,-0.0029702186584472656,0.03144019842147827
1775341411883261200,6.98326123046875,0.415585994720459,0.2095804214477539,-0.09881855547428131
1775341411893261300,6.99326123046875,-0.006933689117431641,0.2307453155517578,0.16611747443675995
1775341411903261200,7.00326123046875,0.6782684326171875,0.39227294921875,0.3401451110839844
1775341411913261300,7.01326123046875,-0.23683500289916992,0.31025218963623047,0.19544768333435059
1775341411923261200,7.02326123046875,0.29413652420043945,-0.03849077224731445,-0.22470559179782867
1775341411933261300,7.03326123046875,0.002479076385498047,0.10448837280273438,-0.2605823874473572
1775341411943261200,7.04326123046875,0.8636088371276855,-0.2986879348754883,-0.012603357434272766
1775341411953261300,7.05326123046875,-0.8936786651611328,0.24935388565063477,0.09934666007757187
1775341411963261200,7.06326123046875,0.2107563018798828,-0.18755340576171875,-0.1326325684785843
1775341411973261300,7.07326123046875,-0.1994495391845703,0.1613936424255371,0.012546300888061523
1775341411983261200,7.08326123046875,-0.03311300277709961,0.3203120231628418,0.03167314827442169
1775341411993261300,7.09326123046875,0.5735616683959961,-0.42090415954589844,0.024440661072731018
1775341412003261200,7.10326123046875,-0.5031642913818359,0.3380560874938965,0.01709616184234619
1775341412013261300,7.11326123046875,1.051527500152588,-0.2682228088378906,0.025508031249046326
1775341412023261200,7.12326123046875,-0.4320244789123535,-0.1233367919921875,0.3540061414241791
1775341412033261300,7.13326123046875,-0.05961322784423828,-0.21997594833374023,0.10230604559183121
1775341412043261200,7.14326123046875,0.18680524826049805,0.15468549728393555,0.1508629471063614
1775341412053261300,7.15326123046875,0.0561370849609375,0.11707067489624023,0.2542731761932373
1775341412063261200,7.16326123046875,0.1014404296875,0.07877302169799805,-0.12341073155403137
1775341412073261300,7.17326123046875,-0.0026688575744628906,-0.04543304443359375,0.021354511380195618
1775341412083261200,7.18326123046875,-0.3202342987060547,0.12562322616577148,0.21571706235408783
1775341412093261300,7.19326123046875,0.28338623046875,-0.4244861602783203,-0.2677816152572632
1775341412103261200,7.20326123046875,-0.2138996124267578,0.20533323287963867,-0.2782549262046814
1775341412113261300,7.21326123046875,0.1581892967224121,0.11183452606201172,0.07600465416908264
1775341412123261200,7.22326123046875,0.27309083938598633,-0.08791875839233398,0.12590846419334412
1775341412133261300,7.23326123046875,0.04761505126953125,0.2121257781982422,-0.11579978466033936
1775341412143261200,7.24326123046875,0.38671207427978516,-0.018137454986572266,-0.043718814849853516
1775341412153261300,7.25326123046875,-0.000060558319091796875,0.08094930648803711,-0.10526077449321747
1775341412163261200,7.26326123046875,0.24422740936279297,0.11030817031860352,-0.20235097408294678
1775341412173261300,7.27326123046875,0.029189586639404297,0.009023666381835938,-0.06434933841228485
1775341412183261200,7.28326123046875,-0.08083486557006836,0.18889093399047852,0.05461747944355011
1775341412193261300,7.29326123046875,0.033487796783447266,0.04304027557373047,0.017176151275634766
1775341412203261200,7.30326123046875,0.13442468643188477,-0.05257701873779297,0.08700414001941681
1775341412213261300,7.31326123046875,0.03389739990234375,0.25095605850219727,0.03529287874698639
1775341412223261200,7.32326123046875,-0.014317035675048828,-0.0932760238647461,-0.09648904204368591
1775341412233261300,7.33326123046875,0.22896814346313477,-0.14481401443481445,0.05174356698989868
1775341412243261200,7.34326123046875,-0.5356001853942871,0.08129310607910156,-0.08446192741394043
1775341412253261300,7.35326123046875,0.5094537734985352,-0.18049287796020508,-0.2039927840232849
1775341412263261200,7.36326123046875,-0.3390665054321289,0.09067249298095703,0.14361140131950378
1775341412273261300,7.37326123046875,0.0827016830444336,-0.06254100799560547,0.28067368268966675
1775341412283261200,7.38326123046875,0.3339195251464844,-0.034481048583984375,0.038971565663814545
1775341412293261300,7.39326123046875,-0.31305456161499023,-0.1562652587890625,-0.1248321533203125
1775341412303261200,7.40326123046875,-0.08452129364013672,-0.25847530364990234,-0.18283458054065704
1775341412313261300,7.41326123046875,-0.0016741752624511719,0.045360565185546875,-0.0387129932641983
1775341412323261200,7.42326123046875,0.19329071044921875,-0.1546769142150879,-0.0584053099155426
1775341412333261300,7.43326123046875,-0.5046186447143555,0.02614879608154297,-0.05701358616352081
1775341412343261200,7.44326123046875,0.20956134796142578,-0.1362905502319336,0.12464043498039246
1775341412353261300,7.45326123046875,-0.20702266693115234,-0.16527128219604492,0.27619779109954834
1775341412363261200,7.46326123046875,0.041242122650146484,-0.026824474334716797,0.08014456927776337
1775341412373261300,7.47326123046875,0.020199298858642578,-0.18135499954223633,-0.0034095048904418945
1775341412383261200,7.48326123046875,-0.23360490798950195,-0.1511063575744629,0.20717407763004303
1775341412393261300,7.49326123046875,-0.016695022583007812,-0.21942472457885742,-0.004122182726860046
1775341412403261200,7.50326123046875,-0.11834383010864258,-0.11111259460449219,-0.046993449330329895
1775341412413261300,7.51326123046875,0.353177547454834,0.0546879768371582,0.0733802318572998
1775341412423261200,7.52326123046875,-0.2040252685546875,0.029428482055664062,-0.10255783796310425
1775341412433261300,7.53326123046875,0.24085283279418945,0.023194313049316406,-0.05194498598575592
1775341412443261200,7.54326123046875,-0.07088518142700195,0.16843652725219727,0.07006782293319702
1775341412453261300,7.55326123046875,0.06305646896362305,0.024793148040771484,-0.142022505402565
1775341412463261200,7.56326123046875,-0.02801513671875,-0.1405324935913086,-0.12462566792964935
1775341412473261300,7.57326123046875,0.12157917022705078,0.25080394744873047,0.043200284242630005
1775341412483261200,7.58326123046875,0.37772417068481445,0.2388134002685547,-0.0036943256855010986
1775341412493261300,7.59326123046875,-0.07698774337768555,0.14159631729125977,0.04909826070070267
1775341412503261200,7.60326123046875,0.3132767677307129,0.1038970947265625,-0.002065405249595642
1775341412513261300,7.61326123046875,0.1668257713317871,0.14969110488891602,-0.07442434132099152
1775341412523261200,7.62326123046875,0.03702497482299805,0.29537439346313477,-0.14175139367580414
1775341412533261300,7.63326123046875,0.2967343330383301,0.12222957611083984,-0.05469265580177307
1775341412543261200,7.64326123046875,-0.010111331939697266,0.25833845138549805,-0.09480789303779602
1775341412553261300,7.65326123046875,0.2921876907348633,0.33654356002807617,-0.14574094116687775
1775341412563261200,7.66326123046875,0.12809228897094727,0.038421630859375,0.06083478033542633
1775341412573261300,7.67326123046875,-0.036228179931640625,0.14852571487426758,-0.05231785774230957
1775341412583261200,7.68326123046875,0.26374197006225586,-0.010094642639160156,-0.16447803378105164
1775341412593261300,7.69326123046875,0.06120729446411133,0.002002239227294922,0.13289599120616913
1775341412603261200,7.70326123046875,-0.1565556526184082,0.08287763595581055,0.18376688659191132
1775341412613261300,7.71326123046875,0.39943599700927734,-0.06381559371948242,-0.07934346795082092
1775341412623261200,7.72326123046875,-0.18417024612426758,0.14998102188110352,0.05212922394275665
1775341412633261300,7.73326123046875,0.22247552871704102,-0.08304166793823242,0.10184379667043686
1775341412643261200,7.74326123046875,-0.1322331428527832,-0.13027191162109375,0.05907604098320007
1775341412653261300,7.75326123046875,-0.22943830490112305,-0.07676839828491211,0.0047787874937057495
1775341412663261200,7.76326123046875,0.39045095443725586,-0.022022724151611328,-0.1613498479127884
1775341412673261300,7.77326123046875,-0.2727184295654297,0.04687213897705078,0.03834901750087738
1775341412683261200,7.78326123046875,0.07076168060302734,-0.1484389305114746,0.020926952362060547
1775341412693261300,7.79326123046875,-0.2063736915588379,0.025970458984375,0.08798850327730179
1775341412703261200,7.80326123046875,-0.19913387298583984,-0.3829169273376465,0.163649320602417
1775341412713261300,7.81326123046875,-0.01878213882446289,-0.034827232360839844,-0.12421552836894989
1775341412723261200,7.82326123046875,0.13733339309692383,-0.041243553161621094,0.055505990982055664
1775341412733261300,7.83326123046875,-0.23533344268798828,-0.31299877166748047,0.14606976509094238
1775341412743261200,7.84326123046875,-0.12781143188476562,-0.08772659301757812,-0.0996347963809967
1775341412753261300,7.85326123046875,-0.04807424545288086,-0.2816472053527832,0.0064813196659088135
1775341412763261200,7.86326123046875,-0.2701869010925293,-0.09251689910888672,0.0212736576795578
1775341412773261300,7.87326123046875,-0.07607698440551758,0.06109619140625,-0.07091279327869415
1775341412783261200,7.88326123046875,-0.08545923233032227,-0.2854008674621582,-0.10452190041542053
1775341412793261300,7.89326123046875,-0.32134389877319336,0.14171457290649414,-0.17616786062717438
1775341412803261200,7.90326123046875,0.36104249954223633,-0.32179689407348633,-0.06257171928882599
1775341412813261300,7.91326123046875,-0.30902624130249023,-0.0013065338134765625,0.029274120926856995
1775341412823261200,7.92326123046875,0.16379737854003906,-0.14781427383422852,-0.09666861593723297
1775341412833261300,7.93326123046875,0.0570526123046875,-0.06660985946655273,0.07029536366462708
1775341412843261200,7.94326123046875,-0.280642032623291,0.053009033203125,0.21692094206809998
1775341412853261300,7.95326123046875,0.23339366912841797,-0.21213483810424805,-0.0551985502243042
1775341412863261200,7.96326123046875,-0.28831052780151367,0.11515951156616211,-0.0923195332288742
1775341412873261300,7.97326123046875,0.15535926818847656,-0.017508983612060547,0.07718207687139511
1775341412883261200,7.98326123046875,0.16176509857177734,-0.02634716033935547,0.036537736654281616
1775341412893261300,7.99326123046875,-0.1500558853149414,0.012699127197265625,-0.11489246785640717
1775341412903261200,8.00326123046875,0.3840765953063965,0.08086490631103516,-0.08068226277828217
1775341412913261300,8.01326123046875,0.00894927978515625,0.1674656867980957,0.27088770270347595
1775341412923261200,8.02326123046875,-0.03578472137451172,0.18214702606201172,-0.0005607008934020996
1775341412933261300,8.03326123046875,0.13861083984375,0.23406600952148438,-0.10622090101242065
1775341412943261200,8.04326123046875,0.08358144760131836,0.1177515983581543,0.18026331067085266
1775341412953261300,8.05326123046875,0.07727766036987305,0.02090311050415039,-0.1683213859796524
1775341412963261200,8.06326123046875,0.11678028106689453,0.43298816680908203,-0.18168671429157257
1775341412973261300,8.07326123046875,0.42349672317504883,0.1852269172668457,0.2845563292503357
1775341412983261200,8.08326123046875,0.22674226760864258,0.40375328063964844,0.05669934302568436
1775341412993261300,8.09326123046875,0.33923864364624023,0.48525142669677734,-0.25593405961990356
1775341413003261200,8.10326123046875,0.41332006454467773,0.5275564193725586,0.08277024328708649
1775341413013261300,8.11326123046875,0.4494781494140625,0.6334443092346191,0.08758364617824554
1775341413023261200,8.12326123046875,0.4332747459411621,0.7696895599365234,-0.2841813862323761
1775341413033261300,8.13326123046875,0.5734801292419434,0.7704911231994629,0.1793290376663208
1775341413043261200,8.14326123046875,0.6095328330993652,0.9079155921936035,0.23805853724479675
1775341413053261300,8.15326123046875,0.8322725296020508,1.0210976600646973,-0.127676323056221
1775341413063261200,8.16326123046875,0.7936983108520508,0.9860849380493164,-0.028471603989601135
1775341413073261300,8.17326123046875,0.8389744758605957,1.0396370887756348,0.07117187976837158
1775341413083261200,8.18326123046875,1.0887422561645508,0.8892478942871094,-0.07207991182804108
1775341413093261300,8.19326123046875,0.4729275703430176,1.1038455963134766,-0.1258247196674347
1775341413103261200,8.20326123046875,1.0008950233459473,0.8440847396850586,-0.08967751264572144
1775341413113261300,8.21326123046875,0.7966585159301758,0.8474783897399902,-0.032572537660598755
1775341413123261200,8.22326123046875,0.6947965621948242,0.8459072113037109,-0.1089172512292862
1775341413133261300,8.23326123046875,0.8009262084960938,0.916938304901123,-0.1313125491142273
1775341413143261200,8.24326123046875,0.4843258857727051,0.8829264640808105,0.08751076459884644
1775341413153261300,8.25326123046875,0.5302548408508301,0.8156857490539551,-0.018652647733688354
1775341413163261200,8.26326123046875,0.4780259132385254,0.7685055732727051,-0.22340433299541473
1775341413173261300,8.27326123046875,0.5187358856201172,0.6589503288269043,0.03512312471866608
1775341413183261200,8.28326123046875,0.574188232421875,0.6308927536010742,0.09741707891225815
1775341413193261300,8.29326123046875,0.45580148696899414,0.6056957244873047,-0.15599234402179718
1775341413203261200,8.30326123046875,0.4375615119934082,0.3402700424194336,-0.0973818451166153
1775341413213261300,8.31326123046875,0.4996809959411621,0.5552630424499512,0.14272446930408478
1775341413223261200,8.32326123046875,0.43154096603393555,0.40567731857299805,0.012133583426475525
1775341413233261300,8.33326123046875,0.3849053382873535,0.1009988784790039,-0.021798565983772278
1775341413243261200,8.34326123046875,-0.3024711608886719,0.5926990509033203,-0.007898002862930298
1775341413253261300,8.35326123046875,1.0295085906982422,0.017845630645751953,0.04759405553340912
1775341413263261200,8.36326123046875,-0.7465534210205078,0.500786304473877,0.15751603245735168
1775341413273261300,8.37326123046875,0.6162519454956055,0.1077876091003418,-0.05128231644630432
1775341413283261200,8.38326123046875,-0.061767578125,0.03892040252685547,0.0879225954413414
1775341413293261300,8.39326123046875,-0.2505507469177246,0.39723825454711914,-0.02817794680595398
1775341413303261200,8.40326123046875,0.7091045379638672,0.1834392547607422,-0.18182025849819183
1775341413313261300,8.41326123046875,-0.6202964782714844,0.4637632369995117,0.17224790155887604
1775341413323261200,8.42326123046875,0.7494721412658691,0.19992971420288086,0.1321704089641571
1775341413333261300,8.43326123046875,-0.11459636688232422,0.09142160415649414,-0.047190338373184204
1775341413343261200,8.44326123046875,-0.027618408203125,0.033185482025146484,-0.05931311845779419
1775341413353261300,8.45326123046875,0.554328441619873,0.20522356033325195,0.09873372316360474
1775341413363261200,8.46326123046875,-0.10872220993041992,0.3114137649536133,0.21541240811347961
1775341413373261300,8.47326123046875,0.5451407432556152,0.1821608543395996,-0.11812752485275269
1775341413383261200,8.48326123046875,-0.017498493194580078,0.24027585983276367,-0.14294767379760742
1775341413393261300,8.49326123046875,0.38684606552124023,0.2719120979309082,0.23767468333244324
1775341413403261200,8.50326123046875,-0.13692283630371094,0.17002391815185547,0.13245968520641327
1775341413413261300,8.51326123046875,0.29071044921875,0.11739444732666016,-0.15238453447818756
1775341413423261200,8.52326123046875,0.22005987167358398,0.11222171783447266,-0.12330523133277893
1775341413433261300,8.53326123046875,-0.2644362449645996,0.016673564910888672,0.15889297425746918
1775341413443261200,8.54326123046875,0.39960432052612305,0.017644405364990234,-0.13333192467689514
1775341413453261300,8.55326123046875,0.3138132095336914,0.44012022018432617,-0.17511487007141113
1775341413463261200,8.56326123046875,-0.07972097396850586,0.028204917907714844,-0.0549987256526947
1775341413473261300,8.57326123046875,-0.15764665603637695,-0.2771186828613281,-0.11330242455005646
1775341413483261200,8.58326123046875,-0.28621912002563477,0.09971857070922852,0.2668662965297699
1775341413493261300,8.59326123046875,-0.051082611083984375,-0.3393106460571289,0.2648698687553406
1775341413503261200,8.60326123046875,-0.21396684646606445,0.13234186172485352,-0.10071104764938354
1775341413513261300,8.61326123046875,0.22036170959472656,-0.02924823760986328,0.1559838503599167
1775341413523261200,8.62326123046875,-0.1603083610534668,-0.0732889175415039,0.22157129645347595
1775341413533261300,8.63326123046875,-0.13313865661621094,-0.14699983596801758,0.015714287757873535
1775341413543261200,8.64326123046875,0.044918060302734375,-0.07519674301147461,0.20798641443252563
1775341413553261300,8.65326123046875,-0.11118459701538086,-0.10907602310180664,-0.07160276174545288
1775341413563261200,8.66326123046875,-0.12656641006469727,-0.015740394592285156,-0.12695905566215515
1775341413573261300,8.67326123046875,-0.17020797729492188,-0.4138011932373047,0.04414241760969162
1775341413583261200,8.68326123046875,-0.6108264923095703,-0.26722240447998047,-0.0030991435050964355
1775341413593261300,8.69326123046875,0.14426422119140625,-0.20045804977416992,-0.1912473887205124
1775341413603261200,8.70326123046875,-0.30322885513305664,0.02594900131225586,0.044245168566703796
1775341413613261300,8.71326123046875,0.15883779525756836,-0.3429131507873535,0.057505324482917786
1775341413623261200,8.72326123046875,-0.2898421287536621,-0.005123138427734375,0.029923290014266968
1775341413633261300,8.73326123046875,-0.25443267822265625,-0.3893256187438965,-0.332148939371109
1775341413643261200,8.74326123046875,0.017658710479736328,-0.25249767303466797,0.029820308089256287
1775341413653261300,8.75326123046875,-0.42916345596313477,-0.021606922149658203,-0.029460623860359192
1775341413663261200,8.76326123046875,0.7848820686340332,-0.27866077423095703,-0.22558395564556122
1775341413673261300,8.77326123046875,-0.6346368789672852,0.25797224044799805,0.18539202213287354
1775341413683261200,8.78326123046875,0.29741859436035156,-0.2148280143737793,0.07140174508094788
1775341413693261300,8.79326123046875,-0.043116092681884766,-0.06856155395507812,0.13740451633930206
1775341413703261200,8.80326123046875,-0.3499746322631836,-0.014993667602539062,0.007305994629859924
1775341413713261300,8.81326123046875,0.4999222755432129,-0.22259902954101562,-0.049884676933288574
1775341413723261200,8.82326123046875,-0.7874135971069336,0.1698923110961914,0.21554456651210785
1775341413733261300,8.83326123046875,0.7435994148254395,-0.4810051918029785,-0.0030087828636169434
1775341413743261200,8.84326123046875,-0.7391386032104492,0.3356752395629883,-0.10327325761318207
1775341413753261300,8.85326123046875,0.7143287658691406,-0.3995485305786133,-0.07311536371707916
1775341413763261200,8.86326123046875,-0.6854910850524902,0.027204036712646484,0.05317898094654083
1775341413773261300,8.87326123046875,0.2714958190917969,-0.32944345474243164,0.017070502042770386
1775341413783261200,8.88326123046875,-0.5191912651062012,-0.16211891174316406,-0.023444905877113342
1775341413793261300,8.89326123046875,-0.4396328926086426,-0.05039644241333008,-0.017921894788742065
1775341413803261200,8.90326123046875,0.1258091926574707,-0.23985624313354492,0.15099036693572998
1775341413813261300,8.91326123046875,-0.5458979606628418,-0.1737194061279297,0.07026343047618866
1775341413823261200,8.92326123046875,0.060210227966308594,-0.38578176498413086,-0.09003812074661255
1775341413833261300,8.93326123046875,-0.16846084594726562,-0.1515040397644043,-0.019311413168907166
1775341413843261200,8.94326123046875,-0.3401675224304199,-0.48419666290283203,0.10580457746982574
1775341413853261300,8.95326123046875,-0.030912399291992188,-0.46847963333129883,-0.014409050345420837
1775341413863261200,8.96326123046875,-0.6339931488037109,-0.530632495880127,0.05867622792720795
1775341413873261300,8.97326123046875,-0.3626537322998047,-0.3080577850341797,0.018746644258499146
1775341413883261200,8.98326123046875,-0.10278844833374023,-0.4976372718811035,-0.0070632994174957275
1775341413893261300,8.99326123046875,-0.9511165618896484,-0.26027774810791016,0.051311105489730835
1775341413903261200,9.00326123046875,0.1003575325012207,-0.7851142883300781,-0.017245471477508545
1775341413913261300,9.01326123046875,-0.8977193832397461,-0.6274914741516113,-0.03935578465461731
1775341413923261200,9.02326123046875,-0.13223886489868164,-0.5425848960876465,-0.14602912962436676
1775341413933261300,9.03326123046875,-0.49916696548461914,-0.8688054084777832,-0.05105726420879364
1775341413943261200,9.04326123046875,-0.5155014991760254,-0.4503960609436035,0.04423622786998749
1775341413953261300,9.05326123046875,-0.6235504150390625,-0.718040943145752,0.06468216329813004
1775341413963261200,9.06326123046875,-0.1784505844116211,-0.9527459144592285,-0.034537240862846375
1775341413973261300,9.07326123046875,-1.0152039527893066,-0.7067561149597168,-0.35596001148223877
1775341413983261200,9.08326123046875,-0.3312830924987793,-0.9624466896057129,-0.13451294600963593
1775341413993261300,9.09326123046875,-0.7177700996398926,-0.9362244606018066,0.12803269922733307
1775341414003261200,9.10326123046875,-0.9521927833557129,-0.9153203964233398,-0.10537606477737427
1775341414013261300,9.11326123046875,-0.6646342277526855,-0.9725680351257324,0.0516381710767746
1775341414023261200,9.12326123046875,-1.2243647575378418,-1.6446261405944824,0.026659056544303894
1775341414033261300,9.13326123046875,-1.009516716003418,-1.367896556854248,-0.2544679641723633
1775341414043261200,9.14326123046875,-1.3319129943847656,-1.4721407890319824,-0.14834730327129364
1775341414053261300,9.15326123046875,-1.4692869186401367,-2.2637929916381836,0.25986170768737793
1775341414063261200,9.16326123046875,-2.2801661491394043,-1.931826114654541,-0.03164295852184296
1775341414073261300,9.17326123046875,-1.1938128471374512,-2.164544105529785,-0.4205228388309479
1775341414083261200,9.18326123046875,-0.8102755546569824,-2.4968605041503906,-0.10338433086872101
1775341414093261300,9.19326123046875,-2.5613956451416016,-2.4264259338378906,0.22777323424816132
1775341414103261200,9.20326123046875,-1.4086880683898926,-2.906116485595703,-0.26157301664352417
1775341414113261300,9.21326123046875,-2.6274733543395996,-2.4452996253967285,0.09951469302177429
1775341414123261200,9.22326123046875,-2.353659152984619,-2.8281383514404297,0.3690577745437622
1775341414133261300,9.23326123046875,-1.8834447860717773,-2.7668890953063965,-0.22075094282627106
1775341414143261200,9.24326123046875,-2.0216574668884277,-2.679020881652832,-0.038607701659202576
1775341414153261300,9.25326123046875,-1.9366512298583984,-2.9582700729370117,0.495369017124176
1775341414163261200,9.26326123046875,-1.8337674140930176,-2.705819606781006,0.1013416051864624
1775341414173261300,9.27326123046875,-1.931985855102539,-2.445864200592041,-0.03709782660007477
1775341414183261200,9.28326123046875,-1.6379899978637695,-2.4378981590270996,0.30185872316360474
1775341414193261300,9.29326123046875,-1.4500865936279297,-2.25677490234375,0.1449350118637085
1775341414203261200,9.30326123046875,-1.9507670402526855,-1.9981932640075684,-0.06770956516265869
1775341414213261300,9.31326123046875,-1.7985286712646484,-1.6742095947265625,0.07717108726501465
1775341414223261200,9.32326123046875,-1.3783445358276367,-1.6215081214904785,0.023257926106452942
1775341414233261300,9.33326123046875,-0.7002596855163574,-1.707688808441162,-0.10934945940971375
1775341414243261200,9.34326123046875,-1.021287441253662,-1.318371295928955,0.17628955841064453
1775341414253261300,9.35326123046875,-1.322432041168213,-1.3301992416381836,0.1185687780380249
1775341414263261200,9.36326123046875,-0.13674020767211914,-1.5913209915161133,-0.3178319036960602
1775341414273261300,9.37326123046875,-1.3252263069152832,-0.4664754867553711,-0.09387603402137756
1775341414283261200,9.38326123046875,-0.08069276809692383,-1.2373743057250977,-0.017068177461624146
1775341414293261300,9.39326123046875,-1.1858081817626953,-1.1137518882751465,-0.5465923547744751
1775341414303261200,9.40326123046875,-0.5891871452331543,-0.5922403335571289,-0.2463313490152359
1775341414313261300,9.41326123046875,-0.37336015701293945,-0.23967218399047852,0.6033681035041809
1775341414323261200,9.42326123046875,-0.6486358642578125,-0.6906213760375977,-0.1717384308576584
1775341414333261300,9.43326123046875,-0.5183734893798828,-0.2236952781677246,-0.8227399587631226
1775341414343261200,9.44326123046875,0.5113763809204102,-0.9832262992858887,0.21979618072509766
1775341414353261300,9.45326123046875,-0.8272361755371094,-0.22974395751953125,0.891535758972168
1775341414363261200,9.46326123046875,-0.4999222755432129,-0.05600929260253906,-0.4205395579338074
1775341414373261300,9.47326123046875,0.7924633026123047,-0.4813241958618164,-0.057537198066711426
1775341414383261200,9.48326123046875,-1.1396918296813965,0.13738775253295898,0.7656540870666504
1775341414393261300,9.49326123046875,0.587374210357666,-0.18648576736450195,-0.12134625017642975
1775341414403261200,9.50326123046875,-0.39194297790527344,-0.15758562088012695,-0.3871861696243286
1775341414413261300,9.51326123046875,-0.3403964042663574,0.055472373962402344,0.2974127531051636
1775341414423261200,9.52326123046875,0.4389524459838867,-0.18576765060424805,-0.010358422994613647
1775341414433261300,9.53326123046875,-0.3214607238769531,0.204071044921875,-0.15121646225452423
1775341414443261200,9.54326123046875,-0.22524166107177734,0.08243179321289062,0.015162736177444458
1775341414453261300,9.55326123046875,0.4276723861694336,-0.29052114486694336,0.27037227153778076
1775341414463261200,9.56326123046875,-0.30020570755004883,0.05742216110229492,-0.021044403314590454
1775341414473261300,9.57326123046875,0.02757740020751953,0.22523069381713867,-0.33328235149383545
1775341414483261200,9.58326123046875,0.317840576171875,0.12319040298461914,0.08587832748889923
1775341414493261300,9.59326123046875,0.32559967041015625,0.35810375213623047,0.059834644198417664
1775341414503261200,9.60326123046875,-0.030209064483642578,0.45268869400024414,-0.4494447112083435
1775341414513261300,9.61326123046875,0.4054889678955078,-0.010375022888183594,0.07486216723918915
1775341414523261200,9.62326123046875,-0.3266720771789551,0.31073904037475586,0.30833500623703003
1775341414533261300,9.63326123046875,0.4594602584838867,0.06273126602172852,-0.09636054933071136
1775341414543261200,9.64326123046875,0.04023933410644531,-0.16328144073486328,0.010097339749336243
1775341414553261300,9.65326123046875,-0.07057332992553711,0.3633437156677246,0.09375400096178055
1775341414563261200,9.66326123046875,0.5389304161071777,0.09096956253051758,-0.10952669382095337
1775341414573261300,9.67326123046875,-0.3505401611328125,0.45270776748657227,0.07410348951816559
1775341414583261200,9.68326123046875,0.440091609954834,0.2877821922302246,0.16970393061637878
1775341414593261300,9.69326123046875,0.0961446762084961,-0.1687769889831543,-0.0030450820922851562
1775341414603261200,9.70326123046875,0.11463546752929688,0.4743309020996094,-0.3750692307949066
1775341414613261300,9.71326123046875,0.6467247009277344,0.07993412017822266,-0.06614500284194946
1775341414623261200,9.72326123046875,-0.25058937072753906,0.02577495574951172,0.10700151324272156
1775341414633261300,9.73326123046875,0.6810264587402344,0.2662534713745117,-0.37976473569869995
1775341414643261200,9.74326123046875,0.08191251754760742,0.3742671012878418,-0.161344975233078
1775341414653261300,9.75326123046875,0.47689342498779297,0.45702457427978516,0.2530170679092407
1775341414663261200,9.76326123046875,0.2048811912536621,0.46406078338623047,-0.24885743856430054
1775341414673261300,9.77326123046875,0.030983448028564453,0.27677249908447266,-0.03308415412902832
1775341414683261200,9.78326123046875,0.24666595458984375,0.3220839500427246,-0.2262909859418869
1775341414693261300,9.79326123046875,0.5189228057861328,0.5491147041320801,-0.1530301570892334
1775341414703261200,9.80326123046875,0.1954340934753418,0.10945892333984375,-0.0545482337474823
1775341414713261300,9.81326123046875,0.06301498413085938,0.47497034072875977,-0.16100691258907318
1775341414723261200,9.82326123046875,0.7385377883911133,0.2128744125366211,0.03999011218547821
1775341414733261300,9.83326123046875,-0.176910400390625,0.2405242919921875,0.07606973499059677
1775341414743261200,9.84326123046875,0.28670644760131836,0.32541942596435547,-0.26857486367225647
1775341414753261300,9.85326123046875,0.2917146682739258,0.12054204940795898,0.21478505432605743
1775341414763261200,9.86326123046875,0.04463005065917969,0.2409200668334961,0.14461743831634521
1775341414773261300,9.87326123046875,0.2987995147705078,0.2309870719909668,-0.07597966492176056
1775341414783261200,9.88326123046875,0.10801935195922852,0.10116815567016602,0.25809246301651
1775341414793261300,9.89326123046875,0.4442176818847656,0.21069574356079102,0.2824919819831848
1775341414803261200,9.90326123046875,0.06425142288208008,0.16378402709960938,-0.12149709463119507
1775341414813261300,9.91326123046875,-0.07956981658935547,0.12391901016235352,-0.17694354057312012
1775341414823261200,9.92326123046875,0.29262828826904297,0.4002108573913574,0.07816441357135773
1775341414833261300,9.93326123046875,0.006932735443115234,0.1023259162902832,0.08948830515146255
1775341414843261200,9.94326123046875,0.14547109603881836,0.023116588592529297,-0.19279956817626953
1775341414853261300,9.95326123046875,-0.033118247985839844,0.21639013290405273,-0.11247697472572327
1775341414863261200,9.96326123046875,0.5678615570068359,0.2165083885192871,0.11548146605491638
1775341414873261300,9.97326123046875,0.012065887451171875,0.31516361236572266,-0.07444022595882416
1775341414883261200,9.98326123046875,0.002804279327392578,0.2497248649597168,-0.034620702266693115
1775341414893261300,9.99326123046875,0.521726131439209,-0.02065420150756836,0.17592179775238037
1775341414903261200,10.00326123046875,-0.19939041137695312,0.5555715560913086,-0.043938860297203064
1775341414913261300,10.01326123046875,0.42691659927368164,0.12021303176879883,-0.1080637127161026
1775341414923261200,10.02326123046875,0.47066688537597656,0.47848033905029297,0.13685473799705505
1775341414933261300,10.03326123046875,0.3294205665588379,0.7870960235595703,-0.18648742139339447
1775341414943261200,10.04326123046875,0.8308649063110352,0.27506446838378906,-0.1675497144460678
1775341414953261300,10.05326123046875,-0.14664745330810547,0.27463817596435547,-0.03264199197292328
1775341414963261200,10.06326123046875,0.4181051254272461,0.35852527618408203,-0.3879121243953705
1775341414973261300,10.07326123046875,0.14390087127685547,0.35294246673583984,-0.10885240137577057
1775341414983261200,10.08326123046875,0.15270566940307617,0.027471542358398438,-0.020108535885810852
1775341414993261300,10.09326123046875,0.6173892021179199,0.4713587760925293,-0.28730958700180054
1775341415003261200,10.10326123046875,-0.11945152282714844,0.26540660858154297,0.041720762848854065
1775341415013261300,10.11326123046875,0.28104066848754883,-0.10292387008666992,0.17919780313968658
1775341415023261200,10.12326123046875,0.05984306335449219,0.38408851623535156,0.0028795450925827026
1775341415033261300,10.13326123046875,0.0538177490234375,0.07259130477905273,-0.02414599061012268
1775341415043261200,10.14326123046875,0.12197113037109375,0.1588268280029297,0.12831920385360718
1775341415053261300,10.15326123046875,0.17830753326416016,0.21276330947875977,-0.027802199125289917
1775341415063261200,10.16326123046875,0.12438631057739258,0.12800979614257812,-0.05816538631916046
1775341415073261300,10.17326123046875,0.32921934127807617,0.1825695037841797,0.19970327615737915
1775341415083261200,10.18326123046875,-0.09990549087524414,0.09375,0.15546567738056183
1775341415093261300,10.19326123046875,0.2145977020263672,-0.16530084609985352,0.03784327208995819
1775341415103261200,10.20326123046875,-0.13605880737304688,0.1967639923095703,-0.08807571232318878
1775341415113261300,10.21326123046875,0.4120965003967285,0.11595773696899414,-0.01055791974067688
1775341415123261200,10.22326123046875,0.08459806442260742,0.1541132926940918,0.19200927019119263
1775341415133261300,10.23326123046875,-0.032196998596191406,0.18898439407348633,-0.049139827489852905
1775341415143261200,10.24326123046875,0.26855945587158203,0.024670124053955078,-0.19055698812007904
1775341415153261300,10.25326123046875,-0.16948270797729492,0.19631242752075195,0.10753588378429413
1775341415163261200,10.26326123046875,0.3617744445800781,0.09498023986816406,-0.1188153475522995
1775341415173261300,10.27326123046875,-0.06591033935546875,0.16299962997436523,-0.2606251537799835
1775341415183261200,10.28326123046875,0.061188697814941406,0.05827903747558594,-0.030202850699424744
1775341415193261300,10.29326123046875,0.3965463638305664,0.17345046997070312,0.1172136664390564
1775341415203261200,10.30326123046875,0.1223287582397461,0.3523573875427246,-0.08698780834674835
1775341415213261300,10.31326123046875,0.10045862197875977,0.3091917037963867,-0.065574511885643
1775341415223261200,10.32326123046875,0.21522140502929688,0.020783424377441406,0.2540867328643799
1775341415233261300,10.33326123046875,0.05970954895019531,0.2622509002685547,0.05505757033824921
1775341415243261200,10.34326123046875,0.20798397064208984,0.09733438491821289,-0.13207343220710754
1775341415253261300,10.35326123046875,0.23614740371704102,0.1135091781616211,0.04674975574016571
1775341415263261200,10.36326123046875,-0.006757259368896484,0.24759244918823242,0.1065191701054573
1775341415273261300,10.37326123046875,0.26213979721069336,0.03643321990966797,-0.0019120126962661743
1775341415283261200,10.38326123046875,-0.028339862823486328,0.23130130767822266,-0.1439632624387741
1775341415293261300,10.39326123046875,0.3618621826171875,0.42435550689697266,-0.017186537384986877
1775341415303261200,10.40326123046875,-0.08897066116333008,0.36704492568969727,0.2264849841594696
1775341415313261300,10.41326123046875,0.182281494140625,0.10847997665405273,-0.053138598799705505
1775341415323261200,10.42326123046875,0.3186206817626953,0.35699462890625,-0.20014089345932007
1775341415333261300,10.43326123046875,0.32602882385253906,0.6558127403259277,0.237808957695961
1775341415343261200,10.44326123046875,0.6198067665100098,0.44905996322631836,0.2590038776397705
1775341415353261300,10.45326123046875,0.2842860221862793,0.842994213104248,-0.20625907182693481
1775341415363261200,10.46326123046875,0.45864343643188477,0.6863751411437988,-0.05239289999008179
1775341415373261300,10.47326123046875,0.7515897750854492,0.8392257690429688,0.09349287301301956
1775341415383261200,10.48326123046875,0.8760623931884766,0.9306826591491699,-0.018589437007904053
1775341415393261300,10.49326123046875,0.84979248046875,1.3440380096435547,-0.048820093274116516
1775341415403261200,10.50326123046875,1.12727689743042,1.2157902717590332,0.06350688636302948
1775341415413261300,10.51326123046875,0.9861721992492676,2.069322109222412,0.30032357573509216
1775341415423261200,10.52326123046875,1.7290997505187988,1.0813236236572266,-0.17527766525745392
1775341415433261300,10.53326123046875,0.6831169128417969,1.6228790283203125,-0.07860657572746277
1775341415443261200,10.54326123046875,1.3357839584350586,1.613304615020752,0.04314464330673218
1775341415453261300,10.55326123046875,1.1349940299987793,1.687108039855957,-0.0795184075832367
1775341415463261200,10.56326123046875,1.151710033416748,1.7254977226257324,-0.16677428781986237
1775341415473261300,10.57326123046875,1.609968662261963,1.5403327941894531,-0.08056700229644775
1775341415483261200,10.58326123046875,0.8796548843383789,1.5247001647949219,-0.0010431408882141113
1775341415493261300,10.59326123046875,1.2576642036437988,1.2549076080322266,-0.22870352864265442
1775341415503261200,10.60326123046875,0.9348082542419434,1.219400405883789,-0.15089529752731323
1775341415513261300,10.61326123046875,0.9446992874145508,1.1879115104675293,-0.15508832037448883
1775341415523261200,10.62326123046875,0.6791443824768066,1.0419416427612305,-0.1385970413684845
1775341415533261300,10.63326123046875,0.8754181861877441,0.8823981285095215,0.19590668380260468
1775341415543261200,10.64326123046875,0.7704739570617676,1.0322151184082031,0.21682654321193695
1775341415553261300,10.65326123046875,0.3452129364013672,0.9585142135620117,0.1559932827949524
1775341415563261200,10.66326123046875,0.33557748794555664,0.4014759063720703,-0.037570610642433167
1775341415573261300,10.67326123046875,0.6040072441101074,0.45066308975219727,0.1242879256606102
1775341415583261200,10.68326123046875,0.5213160514831543,0.8378682136535645,0.14106929302215576
1775341415593261300,10.69326123046875,0.4886150360107422,0.5822772979736328,-0.052360400557518005
1775341415603261200,10.70326123046875,0.7432708740234375,0.8193936347961426,0.1671132743358612
1775341415613261300,10.71326123046875,0.4256768226623535,0.6048836708068848,-0.02174292504787445
1775341415623261200,10.72326123046875,0.5372228622436523,0.6832442283630371,0.005450591444969177
1775341415633261300,10.73326123046875,0.3120908737182617,0.49567508697509766,0.046501368284225464
1775341415643261200,10.74326123046875,0.16768836975097656,0.3479795455932617,0.19202415645122528
1775341415653261300,10.75326123046875,0.0644083023071289,0.6298484802246094,-0.07606497406959534
1775341415663261200,10.76326123046875,0.6368622779846191,0.27858924865722656,-0.18136656284332275
1775341415673261300,10.77326123046875,0.1727743148803711,0.39090585708618164,0.08800777792930603
1775341415683261200,10.78326123046875,0.6573495864868164,0.5196900367736816,-0.39896100759506226
1775341415693261300,10.79326123046875,0.21470975875854492,0.30654048919677734,0.016000717878341675
1775341415703261200,10.80326123046875,0.13634824752807617,0.02930450439453125,0.001924067735671997
1775341415713261300,10.81326123046875,0.1972975730895996,0.5447344779968262,-0.3776380121707916
1775341415723261200,10.82326123046875,0.09140205383300781,-0.1490311622619629,0.24828073382377625
1775341415733261300,10.83326123046875,-0.35848331451416016,0.3058023452758789,0.27045702934265137
1775341415743261200,10.84326123046875,0.44914770126342773,-0.40265703201293945,-0.4022332429885864
1775341415753261300,10.85326123046875,-0.13372087478637695,0.24795961380004883,-0.09822365641593933
1775341415763261200,10.86326123046875,0.290738582611084,0.11179637908935547,0.2271050214767456
1775341415773261300,10.87326123046875,0.18923330307006836,-0.1784963607788086,0.02121448516845703
1775341415783261200,10.88326123046875,-0.26194190979003906,0.2476806640625,-0.011865109205245972
1775341415793261300,10.89326123046875,0.2526845932006836,-0.6940340995788574,0.042950257658958435
1775341415803261200,10.90326123046875,-0.3267488479614258,0.32139158248901367,0.4383314549922943
1775341415813261300,10.91326123046875,-0.3457913398742676,-0.11905097961425781,-0.08089222013950348
1775341415823261200,10.92326123046875,0.04205942153930664,-0.1984705924987793,-0.15080547332763672
1775341415833261300,10.93326123046875,-0.7106723785400391,-0.11930036544799805,-0.03663429617881775
1775341415843261200,10.94326123046875,0.05587482452392578,-0.5439777374267578,-0.12697067856788635
1775341415853261300,10.95326123046875,-0.5760431289672852,-0.07625532150268555,-0.06388150155544281
1775341415863261200,10.96326123046875,-0.32541894912719727,-0.8335690498352051,-0.04242093861103058
1775341415873261300,10.97326123046875,0.38366174697875977,0.038530826568603516,-0.07373097538948059
1775341415883261200,10.98326123046875,-0.2727017402648926,-0.6249608993530273,0.03036855161190033
1775341415893261300,10.99326123046875,-0.4129600524902344,-0.7620549201965332,0.006373941898345947
1775341415903261200,11.00326123046875,-0.8775520324707031,-0.0631709098815918,-0.1068696677684784
1775341415913261300,11.01326123046875,-0.20132684707641602,-0.7079129219055176,0.29563549160957336
1775341415923261200,11.02326123046875,-0.7913069725036621,-0.6823740005493164,0.1488642394542694
1775341415933261300,11.03326123046875,-0.17685604095458984,-0.6006326675415039,-0.3408276438713074
1775341415943261200,11.04326123046875,-0.9236745834350586,-0.9381027221679688,0.3008075952529907
1775341415953261300,11.05326123046875,-0.44579505920410156,-0.4895329475402832,0.44379156827926636
1775341415963261200,11.06326123046875,0.13956928253173828,-0.9482312202453613,0.0367245078086853
1775341415973261300,11.07326123046875,-1.283198356628418,-0.7117276191711426,0.14741168916225433
1775341415983261200,11.08326123046875,-0.4439382553100586,-1.1782608032226562,-0.09027858078479767
1775341415993261300,11.09326123046875,-0.5660490989685059,-0.6513171195983887,-0.02549983561038971
1775341416003261200,11.10326123046875,-0.47461366653442383,-0.5610380172729492,-0.03671027719974518
1775341416013261300,11.11326123046875,-0.7892942428588867,-1.1474580764770508,-0.07837632298469543
1775341416023261200,11.12326123046875,-1.2425007820129395,-1.165637493133545,-0.14407208561897278
1775341416033261300,11.13326123046875,0.15758657455444336,-0.888918399810791,0.02065996825695038
1775341416043261200,11.14326123046875,-0.9581823348999023,-0.41272544860839844,-0.20848463475704193
1775341416053261300,11.15326123046875,0.4522829055786133,-1.13084077835083,-0.09272855520248413
1775341416063261200,11.16326123046875,-2.2094779014587402,-0.564094066619873,0.10321084409952164
1775341416073261300,11.17326123046875,-0.3407893180847168,-1.2763175964355469,-0.24856190383434296
1775341416083261200,11.18326123046875,-0.9028759002685547,-0.6855945587158203,0.1513504534959793
1775341416093261300,11.19326123046875,-0.9775362014770508,-0.8086628913879395,0.3803976774215698
1775341416103261200,11.20326123046875,-0.32223987579345703,-1.1691317558288574,0.05127093195915222
1775341416113261300,11.21326123046875,-0.9347400665283203,-0.6794915199279785,-0.12317095696926117
1775341416123261200,11.22326123046875,-0.41739320755004883,-1.3641772270202637,-0.060230553150177
1775341416133261300,11.23326123046875,-0.8804531097412109,-1.001326560974121,-0.03228265047073364
1775341416143261200,11.24326123046875,-0.6972141265869141,-1.0758862495422363,-0.1303664743900299
1775341416153261300,11.25326123046875,-0.6395363807678223,-1.235145092010498,-0.16140291094779968
1775341416163261200,11.26326123046875,-0.932896614074707,-0.6469449996948242,0.2655392587184906
1775341416173261300,11.27326123046875,-0.6651349067687988,-1.3837213516235352,-0.1952313929796219
1775341416183261200,11.28326123046875,-1.3332509994506836,-0.9782290458679199,-0.28651130199432373
1775341416193261300,11.29326123046875,-0.6049408912658691,-1.1397523880004883,-0.2746923863887787
1775341416203261200,11.30326123046875,-0.8170027732849121,-1.3127574920654297,-0.026856303215026855
1775341416213261300,11.31326123046875,-0.8669009208679199,-0.6595988273620605,-0.11654579639434814
1775341416223261200,11.32326123046875,-0.43311500549316406,-1.48040771484375,-0.06419496238231659
1775341416233261300,11.33326123046875,-1.3152246475219727,-1.1441450119018555,0.1591510772705078
1775341416243261200,11.34326123046875,-1.0552449226379395,-1.5731492042541504,-0.3611612021923065
1775341416253261300,11.35326123046875,-1.1487622261047363,-1.4208331108093262,-0.03893129527568817
1775341416263261200,11.36326123046875,-1.505033016204834,-1.5143485069274902,0.2518150806427002
1775341416273261300,11.37326123046875,-0.9312915802001953,-1.8639802932739258,0.06396239995956421
1775341416283261200,11.38326123046875,-1.4715619087219238,-1.5620522499084473,-0.16614431142807007
1775341416293261300,11.39326123046875,-1.2185359001159668,-2.1504769325256348,0.21948857605457306
1775341416303261200,11.40326123046875,-2.2585768699645996,-2.0196094512939453,0.11627788841724396
1775341416313261300,11.41326123046875,-1.400841236114502,-2.5209999084472656,-0.2707538902759552
1775341416323261200,11.42326123046875,-2.2161011695861816,-2.083195209503174,0.254265695810318
1775341416333261300,11.43326123046875,-1.8134565353393555,-2.5544981956481934,0.5986902117729187
1775341416343261200,11.44326123046875,-1.5500831604003906,-2.790349006652832,-0.024222299456596375
1775341416353261300,11.45326123046875,-2.9607486724853516,-2.0433425903320312,0.009399965405464172
1775341416363261200,11.46326123046875,-1.180419921875,-3.066523551940918,0.28049391508102417
1775341416373261300,11.47326123046875,-2.5262746810913086,-2.5083627700805664,0.140712708234787
1775341416383261200,11.48326123046875,-1.5150046348571777,-2.6026177406311035,-0.29073643684387207
1775341416393261300,11.49326123046875,-1.8211321830749512,-2.491976737976074,0.0933038592338562
1775341416403261200,11.50326123046875,-1.9524188041687012,-2.319581985473633,0.22866088151931763
1775341416413261300,11.51326123046875,-1.2901391983032227,-2.377943515777588,-0.0781630426645279
1775341416423261200,11.52326123046875,-1.9217157363891602,-1.8415021896362305,0.04879181087017059
1775341416433261300,11.53326123046875,-1.9612994194030762,-1.647535800933838,0.1187039166688919
1775341416443261200,11.54326123046875,-0.5256924629211426,-2.105581760406494,-0.15010526776313782
1775341416453261300,11.55326123046875,-1.9501495361328125,-1.3866305351257324,-0.11740458011627197
1775341416463261200,11.56326123046875,-1.1307663917541504,-1.5319905281066895,-0.11213204264640808
1775341416473261300,11.57326123046875,-1.0796623229980469,-1.5750384330749512,0.20164738595485687
1775341416483261200,11.58326123046875,-0.9829964637756348,-0.9354453086853027,0.19401603937149048
1775341416493261300,11.59326123046875,-0.5034575462341309,-1.2082300186157227,-0.009161219000816345
1775341416503261200,11.60326123046875,-0.8804221153259277,-1.3473362922668457,0.01815299689769745
1775341416513261300,11.61326123046875,-0.8245010375976562,-0.9920926094055176,-0.3840358257293701
1775341416523261200,11.62326123046875,-0.5611257553100586,-0.9316496849060059,-0.24200309813022614
1775341416533261300,11.63326123046875,-0.6398653984069824,-0.8077406883239746,0.3786124885082245
1775341416543261200,11.64326123046875,-1.019059658050537,-1.0611872673034668,-0.20881783962249756
1775341416553261300,11.65326123046875,-0.8073992729187012,-0.7155556678771973,-0.5608314275741577
1775341416563261200,11.66326123046875,-0.10201025009155273,-0.7539830207824707,0.23912601172924042
1775341416573261300,11.67326123046875,-0.7270622253417969,-0.7855081558227539,0.18936333060264587
1775341416583261200,11.68326123046875,-0.4414701461791992,-1.1013598442077637,-0.6877068877220154
1775341416593261300,11.69326123046875,-0.6681861877441406,-0.3100595474243164,-0.034693434834480286
1775341416603261200,11.70326123046875,-0.22963762283325195,-0.29311418533325195,0.9987170696258545
1775341416613261300,11.71326123046875,-0.580108642578125,-0.813392162322998,0.3729780912399292
1775341416623261200,11.72326123046875,-0.5698380470275879,-0.6114630699157715,-0.8511521816253662
1775341416633261300,11.73326123046875,-0.4459495544433594,-0.6683826446533203,-0.07901531457901001
1775341416643261200,11.74326123046875,-0.24811983108520508,-0.6805610656738281,0.6771034002304077
1775341416653261300,11.75326123046875,-0.6371145248413086,-0.6210236549377441,-0.630284309387207
1775341416663261200,11.76326123046875,-0.044028282165527344,-0.40689945220947266,-0.9387393593788147
1775341416673261300,11.77326123046875,0.16674184799194336,-0.17108678817749023,0.7181385159492493
1775341416683261200,11.78326123046875,-0.6433773040771484,-0.26833391189575195,0.5179590582847595
1775341416693261300,11.79326123046875,-0.11061716079711914,-0.2648344039916992,-0.7286629676818848
1775341416703261200,11.80326123046875,-0.008868217468261719,-0.11125326156616211,0.1519411951303482
1775341416713261300,11.81326123046875,-0.13619709014892578,-0.7738337516784668,0.8057324290275574
1775341416723261200,11.82326123046875,-0.603172779083252,-0.05419588088989258,-0.3013871908187866
1775341416733261300,11.83326123046875,0.16823911666870117,0.017354488372802734,-0.389076828956604
1775341416743261200,11.84326123046875,-0.054453372955322266,0.017677783966064453,0.8168228268623352
1775341416753261300,11.85326123046875,0.13833141326904297,-0.19556188583374023,-0.00902201235294342
1775341416763261200,11.86326123046875,-0.16507196426391602,0.14371585845947266,-0.9740968346595764
1775341416773261300,11.87326123046875,-0.10539817810058594,0.54180908203125,0.5304640531539917
1775341416783261200,11.88326123046875,0.3598508834838867,-0.013782978057861328,0.9242145419120789
1775341416793261300,11.89326123046875,-0.3327622413635254,0.4080820083618164,-0.3505670428276062
1775341416803261200,11.90326123046875,0.017530441284179688,0.1793060302734375,-0.30183249711990356
1775341416813261300,11.91326123046875,0.04339742660522461,0.043146610260009766,0.8798548579216003
1775341416823261200,11.92326123046875,0.3684220314025879,0.1615447998046875,-0.10746023058891296
1775341416833261300,11.93326123046875,0.6085586547851562,0.14667177200317383,-0.5376234650611877
1775341416843261200,11.94326123046875,-0.2071986198425293,0.26636266708374023,0.495231956243515
1775341416853261300,11.95326123046875,0.0953073501586914,0.10007047653198242,0.16116684675216675
1775341416863261200,11.96326123046875,0.3443422317504883,0.4138603210449219,-0.33895182609558105
1775341416873261300,11.97326123046875,0.08751058578491211,0.07657670974731445,0.2466028332710266
1775341416883261200,11.98326123046875,-0.028218746185302734,-0.20212507247924805,-0.10709434747695923
1775341416893261300,11.99326123046875,0.2778792381286621,0.24581432342529297,-0.44881224632263184
1775341416903261200,12.00326123046875,-0.2252049446105957,0.2311854362487793,0.06470727920532227
1775341416913261300,12.01326123046875,-0.190032958984375,-0.36646509170532227,0.0521228164434433
1775341416923261200,12.02326123046875,0.03203296661376953,0.39145708084106445,-0.38971227407455444
1775341416933261300,12.03326123046875,0.40104055404663086,-0.04791736602783203,-0.05465877056121826
1775341416943261200,12.04326123046875,-0.34932756423950195,0.020850658416748047,0.23857980966567993
1775341416953261300,12.05326123046875,-0.005175590515136719,-0.08371305465698242,-0.3670033812522888
1775341416963261200,12.06326123046875,-0.0468592643737793,-0.0034427642822265625,-0.16773420572280884
1775341416973261300,12.07326123046875,-0.23238134384155273,-0.1258082389831543,0.4393077790737152
1775341416983261200,12.08326123046875,0.20695734024047852,-0.351593017578125,-0.4648292660713196
1775341416993261300,12.09326123046875,-0.16553878784179688,-0.12233543395996094,-0.5480676889419556
1775341417003261200,12.10326123046875,-0.37386178970336914,-0.15505123138427734,0.23560768365859985
1775341417013261300,12.11326123046875,0.31238222122192383,-0.2393965721130371,0.13903088867664337
1775341417023261200,12.12326123046875,-0.376157283782959,0.12433099746704102,-0.2607594132423401
1775341417033261300,12.13326123046875,-0.0720815658569336,-0.2352604866027832,0.028977572917938232
1775341417043261200,12.14326123046875,0.24126243591308594,-0.22393369674682617,0.26092374324798584
1775341417053261300,12.15326123046875,-0.48737478256225586,0.14966297149658203,0.07894816994667053
1775341417063261200,12.16326123046875,0.21797895431518555,-0.23437213897705078,0.09137933701276779
1775341417073261300,12.17326123046875,-0.334747314453125,0.004271984100341797,0.36763185262680054
1775341417083261200,12.18326123046875,-0.17850112915039062,-0.29982566833496094,0.025719061493873596
1775341417093261300,12.19326123046875,0.2700634002685547,-0.14444589614868164,0.0438736230134964
1775341417103261200,12.20326123046875,-0.4957857131958008,-0.04577970504760742,0.07631736993789673
1775341417113261300,12.21326123046875,0.34656333923339844,-0.03622150421142578,-0.046183183789253235
1775341417123261200,12.22326123046875,-0.06411886215209961,0.01656341552734375,0.061029329895973206
1775341417133261300,12.23326123046875,0.08669233322143555,-0.051128387451171875,-0.013982594013214111
