time,seconds_elapsed,z,y,x
1774657505154217200,0.09621728515625,0.0013744457392022014,0.00045814859913662076,-0.0015271619195118546
1774657505171006200,0.113006103515625,-0.0010690133785828948,0.0010690133785828948,0.0009162971982732415
1774657505187795500,0.12979541015625,0.0013744457392022014,0.00045814859913662076,0.000305432389723137
1774657505204584400,0.14658447265625,-0.002290742937475443,0.00045814859913662076,-0.000305432389723137
1774657505221373400,0.16337353515625,0.0013744457392022014,-0.0007635809597559273,0.000305432389723137
1774657505238162400,0.180162353515625,-0.0010690133785828948,0.001679878099821508,-0.000305432389723137
1774657505254951400,0.196951416015625,0.0013744457392022014,-0.0001527161948615685,-0.0009162971982732415
1774657505271740400,0.213740478515625,-0.0010690133785828948,-0.0001527161948615685,0.000305432389723137
1774657505288529700,0.23052978515625,0.0007635809597559273,0.00045814859913662076,-0.000305432389723137
1774657505305318700,0.247318603515625,-0.0010690133785828948,0.00045814859913662076,-0.000305432389723137
1774657505322107600,0.264107666015625,0.0007635809597559273,0.0010690133785828948,-0.0009162971982732415
1774657505338896600,0.280896728515625,-0.00045814859913662076,0.00045814859913662076,-0.000305432389723137
1774657505355685600,0.297685546875,0.0001527161948615685,-0.0007635809597559273,-0.0009162971982732415
1774657505372474600,0.314474609375,0.0001527161948615685,-0.0001527161948615685,0.000305432389723137
1774657505389264000,0.331263916015625,0.0013744457392022014,0.00045814859913662076,-0.0009162971982732415
1774657505406052900,0.348052978515625,-0.00045814859913662076,0.00045814859913662076,-0.000305432389723137
1774657505422841900,0.364841796875,0.0001527161948615685,0.0010690133785828948,0.000305432389723137
1774657505439630800,0.381630859375,0.0001527161948615685,-0.0001527161948615685,0.0009162971982732415
1774657505456419800,0.398419921875,-0.00045814859913662076,0.00045814859913662076,-0.000305432389723137
1774657505473208800,0.415208740234375,0.0007635809597559273,-0.0001527161948615685,0.0009162971982732415
1774657505489998000,0.431998046875,-0.00045814859913662076,0.0010690133785828948,-0.000305432389723137
1774657505506787000,0.448787109375,-0.00045814859913662076,0.00045814859913662076,-0.0015271619195118546
1774657505523576000,0.465576171875,0.0001527161948615685,0.0010690133785828948,-0.0015271619195118546
1774657505540365000,0.482364990234375,-0.0010690133785828948,-0.0001527161948615685,-0.0009162971982732415
1774657505557154000,0.499154052734375,0.0001527161948615685,0.00045814859913662076,0.000305432389723137
1774657505573943300,0.515943359375,0.0001527161948615685,-0.0001527161948615685,-0.0015271619195118546
1774657505590732300,0.532732177734375,0.0007635809597559273,0.0010690133785828948,-0.0009162971982732415
1774657505607521300,0.549521240234375,-0.00045814859913662076,0.00045814859913662076,0.003970621153712273
1774657505624310300,0.566310302734375,0.0007635809597559273,-0.0007635809597559273,-0.003359756199643016
1774657505641099300,0.583099365234375,-0.00045814859913662076,0.00045814859913662076,0.0027488914784044027
1774657505657888300,0.59988818359375,-0.00045814859913662076,-0.0007635809597559273,-0.000305432389723137
1774657505674677500,0.616677490234375,0.0001527161948615685,0.0010690133785828948,-0.0015271619195118546
1774657505691466500,0.633466552734375,0.0001527161948615685,0.0010690133785828948,0.0015271619195118546
1774657505708255500,0.65025537109375,0.0001527161948615685,-0.0007635809597559273,-0.000305432389723137
1774657505725044500,0.66704443359375,0.0001527161948615685,0.0010690133785828948,-0.0009162971982732415
1774657505741833500,0.68383349609375,-0.0010690133785828948,0.00045814859913662076,0.000305432389723137
1774657505758622700,0.700622802734375,0.0013744457392022014,-0.0007635809597559273,0.0009162971982732415
1774657505775411700,0.71741162109375,-0.00045814859913662076,-0.0007635809597559273,-0.000305432389723137
1774657505792200700,0.73420068359375,0.0007635809597559273,-0.0001527161948615685,0.000305432389723137
1774657505808989700,0.75098974609375,-0.00045814859913662076,0.0010690133785828948,0.000305432389723137
1774657505825778700,0.76777880859375,0.0001527161948615685,0.00045814859913662076,0.000305432389723137
1774657505842567700,0.784567626953125,0.0001527161948615685,0.0010690133785828948,0.0009162971982732415
1774657505859357000,0.80135693359375,-0.00045814859913662076,0.00045814859913662076,-0.0009162971982732415
1774657505876146000,0.81814599609375,0.0001527161948615685,-0.0001527161948615685,-0.0009162971982732415
1774657505892935000,0.834934814453125,0.0001527161948615685,-0.0007635809597559273,-0.0009162971982732415
1774657505909724000,0.851723876953125,-0.0010690133785828948,-0.0001527161948615685,-0.0027488914784044027
1774657505926513000,0.868512939453125,0.0001527161948615685,0.00045814859913662076,-0.007635809946805239
1774657505943302100,0.88530224609375,-0.00045814859913662076,0.0010690133785828948,-0.007024944759905338
1774657505960091100,0.902091064453125,0.0007635809597559273,-0.0007635809597559273,-0.005803215317428112
1774657505976880000,0.918880126953125,0.0001527161948615685,-0.0007635809597559273,-0.004581485874950886
1774657505993669000,0.935669189453125,0.0001527161948615685,-0.0001527161948615685,-0.005192350596189499
1774657506010458000,0.9524580078125,0.0001527161948615685,-0.0007635809597559273,-0.007635809946805239
1774657506027247400,0.969247314453125,-0.00045814859913662076,0.001679878099821508,-0.008246674202382565
1774657506044036400,0.986036376953125,0.0013744457392022014,-0.0013744457392022014,-0.013133592903614044
1774657506060825300,1.002825439453125,-0.001679878099821508,-0.0007635809597559273,-0.010079269297420979
1774657506077614300,1.0196142578125,-0.0010690133785828948,0.0010690133785828948,-0.005803215317428112
1774657506094403300,1.0364033203125,0.0013744457392022014,0.0010690133785828948,0.003970621153712273
1774657506111192300,1.0531923828125,0.0019853105768561363,0.001679878099821508,0.003970621153712273
1774657506127981600,1.069981689453125,0.0001527161948615685,-0.0001527161948615685,0.0021380267571657896
1774657506144770600,1.0867705078125,-0.001679878099821508,-0.0013744457392022014,0.0021380267571657896
1774657506161559600,1.1035595703125,0.0001527161948615685,-0.0013744457392022014,0.003970621153712273
1774657506178348500,1.1203486328125,0.0007635809597559273,-0.0001527161948615685,0.005192350596189499
1774657506195137500,1.137137451171875,0.0001527161948615685,-0.0001527161948615685,0.0009162971982732415
1774657506211926800,1.1539267578125,-0.00045814859913662076,-0.0001527161948615685,-0.0015271619195118546
1774657506228715800,1.1707158203125,0.0007635809597559273,0.001679878099821508,-0.013133592903614044
1774657506245504800,1.1875048828125,0.0007635809597559273,-0.0007635809597559273,-0.003359756199643016
1774657506262293800,1.204293701171875,-0.0010690133785828948,0.00045814859913662076,-0.000305432389723137
1774657506279082800,1.221082763671875,0.0007635809597559273,0.0010690133785828948,0.0015271619195118546
1774657506295871700,1.237871826171875,-0.00045814859913662076,-0.0013744457392022014,0.010690134018659592
1774657506312661000,1.254660888671875,0.0007635809597559273,-0.0001527161948615685,0.005803215317428112
1774657506329450000,1.271449951171875,-0.00045814859913662076,0.001679878099821508,0.0015271619195118546
1774657506346239000,1.288239013671875,0.0025961752980947495,-0.0013744457392022014,0.0021380267571657896
1774657506363028000,1.305028076171875,-0.00045814859913662076,-0.0001527161948615685,0.0015271619195118546
1774657506379817200,1.321817138671875,0.0013744457392022014,-0.0013744457392022014,0.0009162971982732415
1774657506396606200,1.338606201171875,0.0007635809597559273,-0.0007635809597559273,0.007024944759905338
1774657506413395200,1.355395263671875,-0.00045814859913662076,-0.0001527161948615685,0.007024944759905338
1774657506430184200,1.37218408203125,0.0007635809597559273,-0.0001527161948615685,0.0027488914784044027
1774657506446973200,1.38897314453125,0.0007635809597559273,-0.0001527161948615685,0.007635809946805239
1774657506463762400,1.405762451171875,0.0013744457392022014,-0.0007635809597559273,0.005192350596189499
1774657506480551400,1.422551513671875,-0.0010690133785828948,0.00045814859913662076,0.007635809946805239
1774657506497340400,1.43934033203125,0.0019853105768561363,-0.0007635809597559273,0.010079269297420979
1774657506514129400,1.45612939453125,0.0001527161948615685,-0.0001527161948615685,0.005803215317428112
1774657506530918400,1.47291845703125,0.0001527161948615685,-0.0001527161948615685,0.003359756199643016
1774657506547707600,1.489707763671875,0.0001527161948615685,-0.0019853105768561363,-0.0015271619195118546
1774657506564496600,1.50649658203125,0.0007635809597559273,-0.0013744457392022014,-0.003970621153712273
1774657506581285600,1.52328564453125,0.0007635809597559273,-0.0001527161948615685,-0.0027488914784044027
1774657506598074600,1.54007470703125,0.0001527161948615685,-0.0001527161948615685,0.000305432389723137
1774657506614863600,1.556863525390625,0.0019853105768561363,0.00045814859913662076,0.0015271619195118546
1774657506631652900,1.57365283203125,-0.001679878099821508,0.002901607658714056,0.0021380267571657896
1774657506648441900,1.59044189453125,0.0013744457392022014,-0.0007635809597559273,0.000305432389723137
1774657506665230800,1.60723095703125,-0.002290742937475443,0.00045814859913662076,-0.0027488914784044027
1774657506682019800,1.624019775390625,-0.0010690133785828948,-0.0025961752980947495,-0.005192350596189499
1774657506698809000,1.64080908203125,-0.0010690133785828948,0.00045814859913662076,-0.005803215317428112
1774657506715598000,1.65759814453125,0.0013744457392022014,-0.0001527161948615685,-0.008857538923621178
1774657506732387000,1.674386962890625,0.0013744457392022014,-0.0007635809597559273,-0.013133592903614044
1774657506749176000,1.691176025390625,-0.00045814859913662076,0.00045814859913662076,-0.010079269297420979
1774657506765965000,1.707965087890625,-0.001679878099821508,-0.0001527161948615685,-0.006414080038666725
1774657506782754300,1.72475439453125,0.0007635809597559273,-0.0001527161948615685,-0.000305432389723137
1774657506799543300,1.741543212890625,-0.002290742937475443,0.0010690133785828948,0.007024944759905338
1774657506816332300,1.758332275390625,0.0007635809597559273,0.00045814859913662076,0.0021380267571657896
1774657506833121300,1.775121337890625,-0.0010690133785828948,0.001679878099821508,-0.000305432389723137
1774657506849910500,1.79191064453125,0.0013744457392022014,-0.0001527161948615685,-0.0027488914784044027
1774657506866699500,1.808699462890625,0.0007635809597559273,0.001679878099821508,-0.004581485874950886
1774657506883488500,1.825488525390625,-0.002290742937475443,-0.0001527161948615685,-0.0021380267571657896
1774657506900277500,1.842277587890625,0.0007635809597559273,-0.0019853105768561363,0.0021380267571657896
1774657506917066500,1.85906640625,0.0001527161948615685,0.0010690133785828948,-0.0021380267571657896
1774657506933855700,1.875855712890625,-0.0010690133785828948,0.00045814859913662076,-0.0021380267571657896
1774657506950644700,1.892644775390625,-0.001679878099821508,0.0010690133785828948,0.0027488914784044027
1774657506967433700,1.909433837890625,-0.0010690133785828948,0.00045814859913662076,0.000305432389723137
1774657506984222700,1.92622265625,-0.0010690133785828948,0.001679878099821508,0.003970621153712273
1774657507001011700,1.94301171875,-0.001679878099821508,0.002901607658714056,0.004581485874950886
1774657507017801000,1.959801025390625,-0.0010690133785828948,0.002290742937475443,0.000305432389723137
1774657507034590000,1.97658984375,0.0007635809597559273,-0.0001527161948615685,-0.003970621153712273
1774657507051379000,1.99337890625,-0.00045814859913662076,-0.0001527161948615685,-0.012522728182375431
1774657507068168200,2.010168212890625,0.0001527161948615685,0.00045814859913662076,-0.013133592903614044
1774657507084957200,2.026957275390625,-0.00045814859913662076,0.00045814859913662076,-0.013744457624852657
1774657507101746200,2.04374609375,-0.0010690133785828948,0.001679878099821508,-0.000305432389723137
1774657507118535200,2.06053515625,-0.001679878099821508,0.002290742937475443,0.004581485874950886
1774657507135324200,2.07732421875,-0.001679878099821508,0.002290742937475443,0.007024944759905338
1774657507152113200,2.094113037109375,-0.0010690133785828948,0.00045814859913662076,0.003970621153712273
1774657507168902400,2.11090234375,-0.00045814859913662076,-0.0001527161948615685,0.000305432389723137
1774657507185691400,2.12769140625,-0.00045814859913662076,0.00045814859913662076,-0.0009162971982732415
1774657507202480400,2.14448046875,0.0001527161948615685,0.00045814859913662076,0.0009162971982732415
1774657507219269600,2.16126953125,-0.00045814859913662076,0.001679878099821508,-0.0009162971982732415
1774657507236058600,2.17805859375,0.0013744457392022014,0.00045814859913662076,0.0015271619195118546
1774657507252847600,2.19484765625,-0.0010690133785828948,0.00045814859913662076,0.0027488914784044027
1774657507269636600,2.21163671875,-0.001679878099821508,0.0010690133785828948,-0.000305432389723137
1774657507286425600,2.228425537109375,-0.001679878099821508,0.0010690133785828948,0.003970621153712273
1774657507303214800,2.24521484375,-0.0010690133785828948,0.0010690133785828948,0.003359756199643016
1774657507320003800,2.26200390625,0.0013744457392022014,-0.0001527161948615685,0.0009162971982732415
1774657507336792800,2.278792724609375,0.0001527161948615685,0.001679878099821508,-0.000305432389723137
1774657507353581800,2.295581787109375,-0.00045814859913662076,0.0010690133785828948,-0.000305432389723137
1774657507370371000,2.31237109375,-0.0010690133785828948,0.00045814859913662076,0.0015271619195118546
1774657507387160000,2.32916015625,0.0013744457392022014,0.00045814859913662076,0.004581485874950886
1774657507403949000,2.345948974609375,-0.001679878099821508,0.001679878099821508,0.003359756199643016
1774657507420738000,2.362738037109375,0.0001527161948615685,0.00045814859913662076,0.0015271619195118546
1774657507437527300,2.37952734375,-0.0010690133785828948,0.0010690133785828948,-0.000305432389723137
1774657507454316300,2.39631640625,0.0013744457392022014,-0.0001527161948615685,0.0027488914784044027
1774657507471105300,2.413105224609375,-0.002290742937475443,0.002290742937475443,0.000305432389723137
1774657507487894300,2.429894287109375,0.0013744457392022014,0.0010690133785828948,-0.0015271619195118546
1774657507504683500,2.44668359375,-0.0010690133785828948,0.0010690133785828948,0.0009162971982732415
1774657507521472500,2.463472412109375,0.0001527161948615685,-0.0001527161948615685,-0.0009162971982732415
1774657507538261500,2.480261474609375,-0.00045814859913662076,0.00045814859913662076,0.000305432389723137
1774657507555050500,2.497050537109375,-0.0010690133785828948,0.00045814859913662076,0.000305432389723137
1774657507571839700,2.51383984375,0.0007635809597559273,-0.0007635809597559273,0.0015271619195118546
1774657507588628700,2.530628662109375,-0.00045814859913662076,0.0010690133785828948,0.0027488914784044027
1774657507605417700,2.547417724609375,-0.0010690133785828948,-0.0001527161948615685,0.0009162971982732415
1774657507622206700,2.564206787109375,-0.001679878099821508,-0.0001527161948615685,0.0027488914784044027
1774657507638996000,2.580995849609375,0.0007635809597559273,-0.0007635809597559273,0.003359756199643016
1774657507655785000,2.597784912109375,0.0001527161948615685,-0.0001527161948615685,0.0009162971982732415
1774657507672574000,2.614573974609375,-0.00045814859913662076,-0.0001527161948615685,-0.000305432389723137
1774657507689363000,2.631363037109375,0.0001527161948615685,0.00045814859913662076,-0.0009162971982732415
1774657507706152200,2.648152099609375,0.0007635809597559273,-0.0007635809597559273,0.000305432389723137
1774657507722941200,2.664941162109375,-0.00045814859913662076,-0.0007635809597559273,0.000305432389723137
1774657507739730200,2.681730224609375,0.0001527161948615685,-0.0001527161948615685,0.0009162971982732415
1774657507756519400,2.69851953125,-0.001679878099821508,0.001679878099821508,0.000305432389723137
1774657507773308400,2.715308349609375,0.0001527161948615685,0.00045814859913662076,0.0009162971982732415
1774657507790097400,2.732097412109375,-0.00045814859913662076,0.0010690133785828948,-0.0021380267571657896
1774657507806886400,2.748886474609375,-0.0010690133785828948,-0.0007635809597559273,0.0027488914784044027
1774657507823675400,2.76567529296875,-0.00045814859913662076,-0.0001527161948615685,0.0009162971982732415
1774657507840464600,2.782464599609375,-0.00045814859913662076,-0.0001527161948615685,-0.0027488914784044027
1774657507857253000,2.799253173828125,0.0001527161948615685,0.00045814859913662076,0.0009162971982732415
1774657507874042000,2.8160419921875,-0.0010690133785828948,0.00045814859913662076,0.0009162971982732415
1774657507890831000,2.8328310546875,-0.00045814859913662076,0.001679878099821508,0.0009162971982732415
1774657507907620400,2.849620361328125,0.0013744457392022014,-0.0001527161948615685,0.010079269297420979
1774657507924409300,2.866409423828125,0.0007635809597559273,0.001679878099821508,-0.014966187067329884
1774657507941198300,2.8831982421875,0.0001527161948615685,0.002290742937475443,-0.0009162971982732415
1774657507957987600,2.899987548828125,-0.00045814859913662076,-0.0013744457392022014,0.008246674202382565
1774657507974776600,2.916776611328125,0.0019853105768561363,0.0010690133785828948,-0.004581485874950886
1774657507991565600,2.933565673828125,-0.002290742937475443,0.0010690133785828948,0.003359756199643016
1774657508008354600,2.9503544921875,0.0019853105768561363,-0.0025961752980947495,0.004581485874950886
1774657508025143800,2.967143798828125,-0.003512472379952669,0.002901607658714056,-0.003970621153712273
1774657508041932800,2.983932861328125,0.0019853105768561363,-0.0013744457392022014,0.0027488914784044027
1774657508058721800,3.0007216796875,-0.002290742937475443,0.0010690133785828948,0.006414080038666725
1774657508075510800,3.0175107421875,0.0025961752980947495,-0.0001527161948615685,-0.005803215317428112
1774657508092300000,3.034300048828125,-0.00045814859913662076,0.002290742937475443,-0.0009162971982732415
1774657508109089000,3.051089111328125,-0.00045814859913662076,-0.0013744457392022014,-0.0015271619195118546
1774657508125878000,3.0678779296875,-0.00045814859913662076,-0.0001527161948615685,-0.003970621153712273
1774657508142667300,3.084667236328125,0.0001527161948615685,0.0010690133785828948,-0.0027488914784044027
1774657508159456300,3.101456298828125,0.0007635809597559273,0.00045814859913662076,0.0027488914784044027
1774657508176245200,3.118245361328125,-0.00045814859913662076,-0.0001527161948615685,-0.000305432389723137
1774657508193034200,3.1350341796875,0.0019853105768561363,-0.0019853105768561363,-0.0021380267571657896
1774657508209823500,3.151823486328125,-0.001679878099821508,-0.0001527161948615685,0.0015271619195118546
1774657508226612500,3.168612548828125,0.0019853105768561363,-0.0013744457392022014,-0.0009162971982732415
1774657508243401500,3.1854013671875,-0.001679878099821508,0.0010690133785828948,0.0027488914784044027
1774657508260190700,3.202190673828125,0.0038179049734026194,0.00045814859913662076,-0.000305432389723137
1774657508276979700,3.218979736328125,-0.001679878099821508,0.0010690133785828948,-0.004581485874950886
1774657508293768700,3.235768798828125,-0.00045814859913662076,-0.0007635809597559273,0.000305432389723137
1774657508310558000,3.252557861328125,-0.0010690133785828948,0.001679878099821508,0.003970621153712273
1774657508327347000,3.269346923828125,0.0025961752980947495,-0.0007635809597559273,0.0015271619195118546
1774657508344136000,3.286135986328125,-0.002290742937475443,0.0010690133785828948,0.007635809946805239
1774657508360925000,3.302925048828125,0.0001527161948615685,0.0010690133785828948,-0.0021380267571657896
1774657508377714200,3.319714111328125,0.0013744457392022014,-0.0007635809597559273,-0.0027488914784044027
1774657508394503200,3.336503173828125,-0.0010690133785828948,0.00045814859913662076,-0.0021380267571657896
1774657508411292200,3.353292236328125,0.0001527161948615685,-0.0001527161948615685,0.0009162971982732415
1774657508428081400,3.370081298828125,0.0001527161948615685,-0.0001527161948615685,-0.0009162971982732415
1774657508444870400,3.386870361328125,0.0001527161948615685,-0.0001527161948615685,0.0021380267571657896
1774657508461659400,3.403659423828125,-0.00045814859913662076,0.00045814859913662076,0.0015271619195118546
1774657508478448600,3.42044873046875,0.0001527161948615685,0.002290742937475443,-0.003359756199643016
1774657508495237600,3.437237548828125,-0.00045814859913662076,0.0010690133785828948,0.0027488914784044027
1774657508512026600,3.454026611328125,0.0013744457392022014,-0.0001527161948615685,0.005192350596189499
1774657508528815900,3.47081591796875,-0.001679878099821508,0.00045814859913662076,0.003970621153712273
1774657508545604900,3.48760498046875,0.0001527161948615685,-0.0001527161948615685,0.0015271619195118546
1774657508562393900,3.504393798828125,-0.0010690133785828948,0.001679878099821508,-0.0021380267571657896
1774657508579182800,3.521182861328125,-0.00045814859913662076,0.0010690133785828948,-0.000305432389723137
1774657508595972000,3.53797216796875,0.0013744457392022014,-0.0001527161948615685,-0.000305432389723137
1774657508612761000,3.554760986328125,-0.001679878099821508,0.001679878099821508,0.000305432389723137
1774657508629550000,3.571550048828125,0.0013744457392022014,-0.0007635809597559273,0.0015271619195118546
1774657508646339300,3.58833935546875,-0.0010690133785828948,0.0010690133785828948,0.0027488914784044027
1774657508663128300,3.60512841796875,0.0013744457392022014,-0.0019853105768561363,0.007024944759905338
1774657508679917300,3.621917236328125,-0.0010690133785828948,0.001679878099821508,0.005192350596189499
1774657508696706600,3.63870654296875,0.0013744457392022014,0.0010690133785828948,0.0027488914784044027
1774657508713495600,3.65549560546875,0.0001527161948615685,0.00045814859913662076,-0.000305432389723137
1774657508730284500,3.672284423828125,0.0007635809597559273,0.0010690133785828948,0.0021380267571657896
1774657508747073800,3.68907373046875,0.0007635809597559273,0.0010690133785828948,-0.003359756199643016
1774657508763862800,3.70586279296875,-0.00045814859913662076,0.00045814859913662076,-0.0027488914784044027
1774657508780651800,3.72265185546875,-0.0010690133785828948,-0.0007635809597559273,0.003970621153712273
1774657508797441000,3.73944091796875,-0.0010690133785828948,0.001679878099821508,-0.010079269297420979
1774657508814230000,3.75622998046875,0.0001527161948615685,0.001679878099821508,-0.011911863461136818
1774657508831019000,3.77301904296875,-0.001679878099821508,0.00045814859913662076,0.0015271619195118546
1774657508847808300,3.789808349609375,0.0007635809597559273,0.00045814859913662076,0.007024944759905338
1774657508864597200,3.80659716796875,-0.00045814859913662076,0.001679878099821508,-0.0009162971982732415
1774657508881386200,3.82338623046875,0.0001527161948615685,0.001679878099821508,-0.006414080038666725
1774657508898175500,3.840175537109375,-0.00045814859913662076,0.0010690133785828948,-0.0027488914784044027
1774657508914964500,3.856964599609375,-0.0010690133785828948,-0.0007635809597559273,0.004581485874950886
1774657508931753500,3.87375341796875,-0.00045814859913662076,-0.0013744457392022014,0.005803215317428112
1774657508948542700,3.890542724609375,0.0007635809597559273,-0.0007635809597559273,-0.007024944759905338
1774657508965331700,3.907331787109375,-0.00045814859913662076,0.00045814859913662076,0.0015271619195118546
1774657508982120700,3.92412060546875,-0.00045814859913662076,-0.0013744457392022014,0.008857538923621178
1774657508998910000,3.940909912109375,0.0001527161948615685,0.00045814859913662076,0.004581485874950886
1774657509015699000,3.957698974609375,-0.00045814859913662076,0.002290742937475443,0.003970621153712273
1774657509032488000,3.974488037109375,0.0001527161948615685,-0.0007635809597559273,0.000305432389723137
1774657509049277200,3.991277099609375,-0.0010690133785828948,-0.0032070400193333626,0.005803215317428112
1774657509066066200,4.008066162109375,-0.00045814859913662076,-0.0013744457392022014,0.007635809946805239
1774657509082855400,4.02485546875,0.0001527161948615685,0.00045814859913662076,-0.008857538923621178
1774657509099644400,4.04164453125,0.0038179049734026194,0.003512472379952669,-0.013744457624852657
1774657509116433400,4.058433349609375,-0.0010690133785828948,0.003512472379952669,-0.003359756199643016
1774657509133222700,4.07522265625,0.0032070400193333626,0.0010690133785828948,-0.0015271619195118546
1774657509150011600,4.09201171875,-0.002901607658714056,0.00045814859913662076,0.0021380267571657896
1774657509166800600,4.108800537109375,0.0025961752980947495,-0.0007635809597559273,-0.004581485874950886
1774657509183590000,4.12558984375,-0.001679878099821508,-0.0001527161948615685,0.005803215317428112
1774657509200379000,4.14237890625,0.0007635809597559273,-0.0025961752980947495,0.019242240116000175
1774657509217168100,4.159168212890625,-0.00045814859913662076,0.001679878099821508,0.003359756199643016
1774657509233957000,4.17595703125,0.0032070400193333626,-0.0007635809597559273,-0.007024944759905338
1774657509250746400,4.192746337890625,0.0001527161948615685,-0.0025961752980947495,-0.011300998739898205
1774657509267535400,4.209535400390625,0.0013744457392022014,0.00045814859913662076,-0.03817904740571976
1774657509284324400,4.226324462890625,-0.0010690133785828948,-0.0013744457392022014,-0.022907428443431854
1774657509301113600,4.243113525390625,0.0019853105768561363,-0.0019853105768561363,-0.022907428443431854
1774657509317902600,4.259902587890625,0.0013744457392022014,0.002290742937475443,-0.02107483521103859
1774657509334691800,4.27669189453125,-0.001679878099821508,0.002901607658714056,-0.01802051067352295
1774657509351480800,4.293480712890625,0.0032070400193333626,-0.0001527161948615685,-0.019242240116000175
1774657509368270000,4.31027001953125,-0.001679878099821508,0.004123337101191282,-0.028405211865901947
1774657509385059000,4.32705908203125,0.004428769461810589,-0.0007635809597559273,-0.0204639695584774
1774657509401848000,4.34384814453125,-0.001679878099821508,0.00045814859913662076,-0.012522728182375431
1774657509418637300,4.36063720703125,-0.001679878099821508,0.0010690133785828948,-0.008246674202382565
1774657509435426300,4.37742626953125,-0.00045814859913662076,0.00045814859913662076,-0.0015271619195118546
1774657509452215600,4.394215576171875,0.0032070400193333626,0.00045814859913662076,-0.011300998739898205
1774657509469004500,4.411004638671875,-0.002901607658714056,0.004734201822429895,-0.022296564653515816
1774657509485793500,4.42779345703125,0.0019853105768561363,0.001679878099821508,-0.028405211865901947
1774657509502582800,4.444582763671875,-0.0010690133785828948,0.0010690133785828948,-0.019853105768561363
1774657509519371800,4.461371826171875,0.0013744457392022014,0.002901607658714056,-0.021685699000954628
1774657509536161000,4.4781611328125,0.0001527161948615685,0.001679878099821508,-0.024740023538470268
1774657509552950000,4.494949951171875,0.0007635809597559273,0.002290742937475443,-0.011911863461136818
1774657509569739300,4.5117392578125,0.0007635809597559273,0.003512472379952669,-0.025961752980947495
1774657509586528300,4.5285283203125,-0.001679878099821508,0.0010690133785828948,-0.024740023538470268
1774657509603317200,4.545317138671875,-0.006566796451807022,0.004123337101191282,-0.01740964688360691
1774657509620106500,4.5621064453125,0.005650499369949102,0.00045814859913662076,-0.02718348242342472
1774657509636895500,4.5788955078125,-0.004734201822429895,0.007788525894284248,-0.01740964688360691
1774657509653684700,4.595684814453125,-0.00045814859913662076,0.0010690133785828948,-0.013744457624852657
1774657509670473700,4.6124736328125,-0.00045814859913662076,0.002901607658714056,-0.021685699000954628
1774657509687263000,4.629262939453125,-0.002901607658714056,0.004123337101191282,0.00946840364485979
1774657509704052000,4.646052001953125,-0.005955931730568409,-0.006872228812426329,0.03756818547844887
1774657509720841000,4.662841064453125,0.0007635809597559273,0.0102319847792387,-0.01802051067352295
1774657509737630200,4.679630126953125,0.0013744457392022014,0.002290742937475443,-0.00946840364485979
1774657509754419200,4.696419189453125,0.0019853105768561363,-0.0025961752980947495,0.004581485874950886
1774657509771208400,4.71320849609375,-0.008399390615522861,0.009010255336761475,-0.07605266571044922
1774657509787997400,4.72999755859375,0.006872228812426329,0.003512472379952669,-0.01802051067352295
1774657509804786700,4.74678662109375,-0.005955931730568409,-0.0019853105768561363,0.0204639695584774
1774657509821575700,4.76357568359375,0.0001527161948615685,0.007177661173045635,-0.029626941308379173
1774657509838365000,4.780364990234375,-0.0010690133785828948,0.00045814859913662076,0.02412915788590908
1774657509855154000,4.79715380859375,-0.002290742937475443,-0.0001527161948615685,0.0015271619195118546
1774657509871943200,4.813943115234375,-0.003512472379952669,0.003512472379952669,0.018631376326084137
1774657509888732200,4.830732177734375,-0.00045814859913662076,0.001679878099821508,0.04367683082818985
1774657509905521200,4.847521240234375,0.0001527161948615685,0.004734201822429895,0.023518294095993042
1774657509922310400,4.864310302734375,0.0019853105768561363,0.001679878099821508,0.00946840364485979
1774657509939099400,4.881099365234375,0.0007635809597559273,0.0010690133785828948,-0.005803215317428112
1774657509955888600,4.897888671875,-0.004734201822429895,0.007788525894284248,-0.044898562133312225
1774657509972677600,4.914677734375,-0.001679878099821508,0.002901607658714056,-0.0308486707508564
1774657509989467000,4.931466796875,-0.002901607658714056,0.004123337101191282,-0.01802051067352295
1774657510006255900,4.948255859375,0.0025961752980947495,0.003512472379952669,-0.02107483521103859
1774657510023044900,4.965044921875,-0.009621120058000088,0.012675444595515728,-0.10659590363502502
1774657510039834000,4.981834228515625,0.0025961752980947495,-0.0001527161948615685,-0.04978547990322113
1774657510056623000,4.998623046875,-0.012675444595515728,0.012675444595515728,-0.17073670029640198
1774657510073412400,5.015412353515625,-0.008399390615522861,0.002901607658714056,-0.14813470840454102
1774657510090201300,5.032201416015625,0.0013744457392022014,0.0010690133785828948,-0.15546508133411407
1774657510106990600,5.048990478515625,-0.0102319847792387,0.013897174037992954,-0.2617555558681488
1774657510123779600,5.065779541015625,0.01359174121171236,-0.005039634648710489,-0.24709481000900269
1774657510140568800,5.08256884765625,-0.015729768201708794,0.010842849500477314,-0.40408703684806824
1774657510157357800,5.09935791015625,0.007483093533664942,0.008399390615522861,-0.4731147587299347
1774657510174147000,5.11614697265625,-0.005345067009329796,0.007788525894284248,-0.42852163314819336
1774657510190936000,5.13293603515625,0.0013744457392022014,0.004123337101191282,-0.536644697189331
1774657510207725000,5.14972509765625,-0.013897174037992954,0.027947064489126205,-1.1016945838928223
1774657510224514300,5.166514404296875,-0.013897174037992954,0.0010690133785828948,-1.0882556438446045
1774657510241303300,5.18330322265625,-0.021227551624178886,0.031612250953912735,-1.4663809537887573
1774657510258092500,5.200092529296875,-0.024281874299049377,0.03649916872382164,-1.3771946430206299
1774657510274881500,5.216881591796875,-0.02367101050913334,0.012675444595515728,-1.0406081676483154
1774657510291670800,5.2336708984375,-0.027336198836565018,0.01695149764418602,-1.0583232641220093
1774657510308459800,5.250459716796875,-0.02672533318400383,0.018173227086663246,-0.9947932958602905
1774657510325249000,5.2672490234375,-0.021227551624178886,0.014508038759231567,-0.8426879644393921
1774657510342038000,5.2840380859375,-0.030390523374080658,0.012675444595515728,-0.7522799968719482
1774657510358827300,5.3008271484375,-0.027947064489126205,0.027947064489126205,-1.008843183517456
1774657510375616300,5.3176162109375,-0.0334448479115963,0.041386090219020844,-1.489593744277954
1774657510392405500,5.334405517578125,-0.0487164668738842,0.05238165333867073,-1.968511700630188
1774657510409194500,5.351194580078125,-0.043829549103975296,0.04932733252644539,-2.2586724758148193
1774657510425983500,5.3679833984375,-0.060322895646095276,0.06215549260377884,-2.5103487968444824
1774657510442772700,5.384772705078125,-0.05604684352874756,0.06276635825634003,-2.8848090171813965
1774657510459561700,5.401561767578125,-0.05787943676114082,0.060322895646095276,-3.126711368560791
1774657510476351000,5.41835107421875,-0.0334448479115963,0.0951421856880188,-2.9776604175567627
1774657510493140000,5.435139892578125,0.007483093533664942,-0.24694208800792694,2.5024075508117676
1774657510509929200,5.45192919921875,-0.38591381907463074,-0.1052214577794075,-0.17318016290664673
1774657510526718200,5.46871826171875,0.16264274716377258,-0.12904518842697144,-0.2880227565765381
1774657510543507500,5.485507568359375,0.05635227635502815,0.22159120440483093,-1.3820815086364746
1774657510560296400,5.50229638671875,-0.07498364895582199,-0.06368265300989151,1.17499840259552
1774657510577085700,5.519085693359375,0.04230238497257233,0.006566796451807022,-0.5696313977241516
1774657510593874700,5.535874755859375,0.019700389355421066,0.0010690133785828948,-0.1029307171702385
1774657510610664000,5.552663818359375,-0.07009673118591309,0.0206166859716177,0.09071341902017593
1774657510627453000,5.569452880859375,0.07040216773748398,-0.039248060435056686,-0.04428769648075104
1774657510644242200,5.5862421875,-0.07376192510128021,0.0383317656815052,0.022907428443431854
1774657510661031200,5.60303125,0.025809036567807198,-0.010537417605519295,0.013133592903614044
1774657510677820400,5.6198203125,-0.013897174037992954,0.017562363296747208,-0.03329212963581085
1774657510694609400,5.636609375,-0.019394956529140472,0.01695149764418602,0.04367683082818985
1774657510711398700,5.653398681640625,0.01847865991294384,0.014508038759231567,-0.061391908675432205
1774657510728187600,5.670187744140625,-0.04260781779885292,0.02367101050913334,0.025350889191031456
1774657510744977000,5.686976806640625,0.017256930470466614,-0.0001527161948615685,-0.021685699000954628
1774657510761766000,5.703765869140625,-0.024281874299049377,0.013286309316754341,0.01802051067352295
1774657510778555100,5.72055517578125,-0.00045814859913662076,0.002901607658714056,0.007024944759905338
1774657510795344100,5.73734423828125,-0.009010255336761475,0.007788525894284248,-0.007635809946805239
1774657510812133400,5.75413330078125,-0.013897174037992954,0.003512472379952669,0.021685699000954628
1774657510828922400,5.77092236328125,0.012370011769235134,-0.0019853105768561363,0.004581485874950886
1774657510845711600,5.787711669921875,-0.013897174037992954,0.007177661173045635,0.02718348242342472
1774657510862500600,5.80450048828125,0.012370011769235134,0.004734201822429895,-0.016798781231045723
1774657510879289900,5.821289794921875,0.006872228812426329,0.00045814859913662076,0.008246674202382565
1774657510896078800,5.838078857421875,0.0019853105768561363,0.004123337101191282,-0.0015271619195118546
1774657510912868000,5.8548681640625,0.008093958720564842,-0.005039634648710489,-0.0204639695584774
1774657510929657000,5.871656982421875,-0.002290742937475443,-0.008093958720564842,0.03023780696094036
1774657510946446300,5.8884462890625,0.0038179049734026194,-0.009926552884280682,-0.021685699000954628
1774657510963235300,5.9052353515625,-0.004734201822429895,-0.0032070400193333626,0.010690134018659592
1774657510980024600,5.922024658203125,0.0001527161948615685,-0.008704823441803455,0.007635809946805239
1774657510996813800,5.938813720703125,0.009926552884280682,-0.008093958720564842,-0.000305432389723137
1774657511013602800,5.955602783203125,0.0007635809597559273,-0.0013744457392022014,0.005803215317428112
1774657511030392000,5.97239208984375,0.01908952370285988,-0.0062613640911877155,0.0009162971982732415
1774657511047181000,5.98918115234375,0.0032070400193333626,0.002901607658714056,0.007635809946805239
1774657511063970300,6.00597021484375,0.011759147047996521,0.00045814859913662076,-0.003970621153712273
1774657511080759300,6.02275927734375,0.006872228812426329,-0.0001527161948615685,-0.010690134018659592
1774657511097548500,6.039548583984375,0.005039634648710489,-0.010537417605519295,0.005803215317428112
1774657511114337500,6.056337646484375,-0.00045814859913662076,-0.008093958720564842,-0.007635809946805239
1774657511131126800,6.073126708984375,0.0019853105768561363,-0.01359174121171236,0.004581485874950886
1774657511147916000,6.089916015625,-0.003512472379952669,-0.0062613640911877155,-0.007024944759905338
1774657511164705000,6.106705078125,0.016035201027989388,-0.011759147047996521,-0.02107483521103859
1774657511181494000,6.123493896484375,-0.007177661173045635,-0.0007635809597559273,0.01740964688360691
1774657511198283300,6.140283203125,0.026419902220368385,-0.012980876490473747,-0.012522728182375431
1774657511215072500,6.157072509765625,-0.007177661173045635,0.005345067009329796,0.007635809946805239
1774657511231861500,6.173861572265625,0.020922118797898293,-0.0038179049734026194,-0.008246674202382565
1774657511248650800,6.190650634765625,0.0007635809597559273,-0.0007635809597559273,-0.011300998739898205
1774657511265439700,6.207439697265625,0.0038179049734026194,-0.0025961752980947495,0.008857538923621178
1774657511282229000,6.22422900390625,-0.004734201822429895,-0.0007635809597559273,0.0021380267571657896
1774657511299018000,6.24101806640625,-0.004123337101191282,-0.0007635809597559273,0.0015271619195118546
1774657511315807200,6.25780712890625,-0.002290742937475443,-0.0019853105768561363,-0.0009162971982732415
1774657511332596200,6.27459619140625,-0.003512472379952669,-0.0007635809597559273,-0.0021380267571657896
1774657511349385500,6.291385498046875,0.0001527161948615685,0.003512472379952669,-0.008246674202382565
1774657511366174700,6.3081748046875,-0.001679878099821508,0.005345067009329796,0.004581485874950886
1774657511382963700,6.324963623046875,0.0062613640911877155,0.004734201822429895,-0.019242240116000175
1774657511399753000,6.3417529296875,-0.001679878099821508,0.005345067009329796,-0.00946840364485979
1774657511416542000,6.3585419921875,0.005039634648710489,0.001679878099821508,-0.0027488914784044027
1774657511433331200,6.375331298828125,0.0019853105768561363,0.00045814859913662076,-0.000305432389723137
1774657511450120200,6.3921201171875,-0.002290742937475443,-0.0019853105768561363,-0.0009162971982732415
1774657511466909400,6.408909423828125,-0.004123337101191282,-0.0013744457392022014,-0.0021380267571657896
1774657511483698700,6.42569873046875,-0.001679878099821508,-0.005039634648710489,0.004581485874950886
1774657511500487700,6.44248779296875,0.0032070400193333626,-0.005650499369949102,-0.008857538923621178
1774657511517277000,6.45927685546875,-0.002290742937475443,0.00045814859913662076,-0.005192350596189499
1774657511534066000,6.47606591796875,0.005650499369949102,-0.0013744457392022014,-0.010079269297420979
1774657511550855200,6.492855224609375,0.012980876490473747,-0.0019853105768561363,-0.007024944759905338
1774657511567644200,6.50964404296875,0.008704823441803455,-0.0025961752980947495,-0.003970621153712273
1774657511584433400,6.526433349609375,0.010537417605519295,-0.0025961752980947495,-0.013744457624852657
1774657511601222700,6.54322265625,0.0007635809597559273,-0.004428769461810589,0.0009162971982732415
1774657511618011600,6.56001171875,0.007483093533664942,-0.012370011769235134,0.00946840364485979
1774657511634801000,6.57680078125,-0.002290742937475443,-0.006872228812426329,-0.008246674202382565
1774657511651590000,6.59358984375,0.005039634648710489,-0.009315688163042068,0.0009162971982732415
1774657511668379100,6.610379150390625,0.0001527161948615685,-0.005039634648710489,-0.006414080038666725
1774657511685168000,6.627168212890625,0.0062613640911877155,-0.005039634648710489,-0.025350889191031456
1774657511701957400,6.643957275390625,0.006872228812426329,-0.0019853105768561363,-0.007635809946805239
1774657511718746600,6.66074658203125,0.0013744457392022014,0.00045814859913662076,-0.004581485874950886
1774657511735535600,6.67753564453125,0.012370011769235134,-0.0032070400193333626,-0.007024944759905338
1774657511752324900,6.694324951171875,0.0013744457392022014,-0.0062613640911877155,0.01740964688360691
1774657511769113900,6.71111376953125,0.006872228812426329,-0.006872228812426329,0.011300998739898205
1774657511785903000,6.727903076171875,-0.002901607658714056,-0.0019853105768561363,-0.0009162971982732415
1774657511802692000,6.744692138671875,0.0007635809597559273,-0.0062613640911877155,0.0015271619195118546
1774657511819481300,6.7614814453125,-0.003512472379952669,-0.0032070400193333626,-0.04367683082818985
1774657511836270600,6.7782705078125,0.0001527161948615685,-0.0025961752980947495,-0.048563748598098755
1774657511853059600,6.7950595703125,-0.005345067009329796,0.004734201822429895,-0.011911863461136818
1774657511869848800,6.811848876953125,-0.001679878099821508,0.003512472379952669,-0.0204639695584774
1774657511886637800,6.828637939453125,0.009926552884280682,-0.0025961752980947495,0.01740964688360691
1774657511903427000,6.845427001953125,-0.006566796451807022,0.007788525894284248,-0.006414080038666725
1774657511920216000,6.862216064453125,0.0154243353754282,-0.0038179049734026194,0.003359756199643016
1774657511937005300,6.87900537109375,-0.008399390615522861,0.001679878099821508,0.007635809946805239
1774657511953794600,6.895794677734375,0.005039634648710489,-0.0013744457392022014,-0.006414080038666725
1774657511970583600,6.91258349609375,-0.009010255336761475,0.0010690133785828948,0.015577051788568497
1774657511987372800,6.929372802734375,0.0007635809597559273,-0.0032070400193333626,-0.003359756199643016
1774657512004161800,6.946161865234375,-0.004123337101191282,0.001679878099821508,-0.000305432389723137
1774657512020951000,6.962950927734375,-0.0010690133785828948,0.002290742937475443,0.003970621153712273
1774657512037740000,6.979739990234375,0.0032070400193333626,0.005345067009329796,-0.003970621153712273
1774657512054529300,6.996529296875,0.0007635809597559273,0.007177661173045635,0.01802051067352295
1774657512071318500,7.013318603515625,0.008093958720564842,0.004123337101191282,0.05100720748305321
1774657512088107500,7.030107421875,0.0013744457392022014,0.007177661173045635,0.07849612087011337
1774657512104896800,7.046896728515625,0.009315688163042068,0.012675444595515728,-0.060781046748161316
1774657512121685800,7.063685791015625,0.005039634648710489,0.0010690133785828948,0.04306596517562866
1774657512138475000,7.08047509765625,-0.008399390615522861,0.009621120058000088,-0.023518294095993042
1774657512155264300,7.09726416015625,0.0007635809597559273,0.002290742937475443,0.018631376326084137
1774657512172053200,7.11405322265625,-0.006566796451807022,0.001679878099821508,0.003970621153712273
1774657512188842500,7.130842529296875,-0.007177661173045635,0.005955931730568409,-0.0015271619195118546
1774657512205631500,7.147631591796875,-0.005955931730568409,0.003512472379952669,-0.0015271619195118546
1774657512222420700,7.164420654296875,-0.005345067009329796,0.009621120058000088,-0.010690134018659592
1774657512239210000,7.1812099609375,-0.009010255336761475,0.009010255336761475,-0.004581485874950886
1774657512255999000,7.1979990234375,0.0038179049734026194,0.010842849500477314,-0.016187917441129684
1774657512272788200,7.214788330078125,-0.011453714221715927,0.01511890348047018,0.007024944759905338
1774657512289577200,7.2315771484375,0.007483093533664942,0.004734201822429895,-0.03940077871084213
1774657512306366500,7.248366455078125,-0.009621120058000088,0.012675444595515728,-0.006414080038666725
1774657512323155700,7.26515576171875,-0.004123337101191282,0.007788525894284248,-0.02718348242342472
1774657512339944700,7.28194482421875,-0.0102319847792387,-0.0032070400193333626,0.019242240116000175
1774657512356734000,7.29873388671875,-0.010842849500477314,-0.0019853105768561363,-0.004581485874950886
1774657512373523000,7.31552294921875,-0.007177661173045635,-0.0032070400193333626,-0.0021380267571657896
1774657512390312200,7.332312255859375,-0.011453714221715927,0.005345067009329796,-0.01740964688360691
1774657512407101200,7.34910107421875,-0.013286309316754341,0.006566796451807022,-0.0668896958231926
1774657512423890400,7.365890380859375,-0.001679878099821508,0.003512472379952669,-0.029626941308379173
1774657512440679700,7.3826796875,-0.007788525894284248,0.011453714221715927,-0.0009162971982732415
1774657512457468700,7.39946875,-0.004734201822429895,0.003512472379952669,0.0009162971982732415
1774657512474258000,7.4162578125,-0.008399390615522861,0.012675444595515728,0.025961752980947495
1774657512491047000,7.433046875,-0.0102319847792387,0.009621120058000088,0.008857538923621178
1774657512507836200,7.449836181640625,0.0013744457392022014,0.0010690133785828948,0.051618073135614395
1774657512524625400,7.46662548828125,-0.017562363296747208,0.011453714221715927,0.029626941308379173
1774657512541414400,7.483414306640625,0.007483093533664942,0.00045814859913662076,-0.000305432389723137
1774657512558203600,7.50020361328125,-0.018784092739224434,0.009621120058000088,0.011300998739898205
1774657512574992600,7.51699267578125,0.011759147047996521,-0.0025961752980947495,-0.007635809946805239
1774657512591782000,7.533781982421875,-0.002290742937475443,0.001679878099821508,-0.011300998739898205
1774657512608571100,7.550571044921875,0.014202605932950974,-0.0154243353754282,0.01740964688360691
1774657512625360100,7.567360107421875,0.0019853105768561363,-0.006872228812426329,-0.011300998739898205
1774657512642149400,7.5841494140625,0.009926552884280682,-0.012980876490473747,0.006414080038666725
1774657512658938400,7.6009384765625,0.008093958720564842,-0.016646064817905426,0.010690134018659592
1774657512675727600,7.6177275390625,0.012980876490473747,-0.020311253145337105,0.007635809946805239
1774657512692516900,7.634516845703125,0.014202605932950974,-0.014202605932950974,-0.025350889191031456
1774657512709305900,7.651305908203125,0.0038179049734026194,-0.009926552884280682,-0.016187917441129684
1774657512726095000,7.66809521484375,0.0154243353754282,-0.014202605932950974,0.005192350596189499
1774657512742884000,7.684884033203125,0.007483093533664942,-0.006872228812426329,-0.02779434807598591
1774657512759673300,7.70167333984375,0.009315688163042068,-0.009926552884280682,-0.019242240116000175
1774657512776462600,7.718462646484375,0.009315688163042068,-0.005039634648710489,-0.0027488914784044027
1774657512793251600,7.73525146484375,0.0019853105768561363,-0.0032070400193333626,-0.005803215317428112
1774657512810040800,7.752040771484375,0.017867794260382652,-0.009315688163042068,0.022296564653515816
1774657512826829800,7.768829833984375,-0.009621120058000088,-0.0001527161948615685,0.005803215317428112
1774657512843619000,7.785619140625,0.0013744457392022014,-0.004428769461810589,0.013133592903614044
1774657512860408300,7.802408203125,-0.01511890348047018,-0.0013744457392022014,0.004581485874950886
1774657512877197300,7.819197265625,0.0001527161948615685,-0.005039634648710489,0.006414080038666725
1774657512893986600,7.835986572265625,-0.014508038759231567,0.006566796451807022,0.003970621153712273
1774657512910775800,7.85277587890625,-0.002290742937475443,-0.0019853105768561363,0.0015271619195118546
1774657512927564800,7.869564697265625,-0.008399390615522861,0.0102319847792387,-0.010690134018659592
1774657512944354000,7.88635400390625,0.0038179049734026194,0.003512472379952669,0.010690134018659592
1774657512961143000,7.90314306640625,-0.001679878099821508,0.01206457894295454,-0.003359756199643016
1774657512977932300,7.919932373046875,0.004428769461810589,0.002901607658714056,0.061391908675432205
1774657512994721500,7.936721435546875,-0.006566796451807022,0.009010255336761475,0.07116574794054031
1774657513011510500,7.953510498046875,0.012370011769235134,0.007788525894284248,0.023518294095993042
1774657513028299800,7.9702998046875,-0.010842849500477314,0.015729768201708794,-0.006414080038666725
1774657513045089000,7.987089111328125,0.0013744457392022014,0.001679878099821508,0.03145953640341759
1774657513061878000,8.0038779296875,-0.001679878099821508,0.003512472379952669,0.0204639695584774
1774657513078667300,8.020667236328125,-0.002290742937475443,0.005955931730568409,-0.000305432389723137
1774657513095456500,8.03745654296875,0.005650499369949102,0.0010690133785828948,0.022907428443431854
1774657513112245500,8.05424560546875,0.012370011769235134,-0.005650499369949102,-0.010079269297420979
1774657513129034800,8.07103466796875,-0.005955931730568409,0.0010690133785828948,-0.016798781231045723
1774657513145824000,8.087823974609375,0.0019853105768561363,-0.008093958720564842,-0.025350889191031456
1774657513162613000,8.104613037109376,-0.010842849500477314,-0.0013744457392022014,-0.0821613147854805
1774657513179402200,8.12140234375,-0.003512472379952669,-0.009315688163042068,-0.022907428443431854
1774657513196191500,8.13819140625,0.0038179049734026194,-0.009926552884280682,0.011911863461136818
1774657513212980500,8.15498046875,-0.007788525894284248,-0.0007635809597559273,-0.022296564653515816
1774657513229769700,8.171769775390626,0.005039634648710489,-0.0038179049734026194,0.003970621153712273
1774657513246559000,8.18855908203125,-0.013286309316754341,0.005345067009329796,0.0027488914784044027
1774657513263348000,8.205347900390626,0.012980876490473747,-0.0001527161948615685,0.013744457624852657
1774657513280137200,8.22213720703125,-0.009010255336761475,0.011453714221715927,0.008857538923621178
1774657513296926200,8.23892626953125,0.005039634648710489,-0.0007635809597559273,-0.000305432389723137
1774657513313715500,8.255715576171875,-0.015729768201708794,0.01511890348047018,-0.003359756199643016
1774657513330504700,8.272504638671874,0.008704823441803455,-0.0025961752980947495,0.005192350596189499
1774657513347293700,8.289293701171875,-0.02306014485657215,0.008399390615522861,0.01802051067352295
1774657513364083000,8.3060830078125,0.010537417605519295,0.002290742937475443,0.004581485874950886
1774657513380872200,8.3228720703125,-0.011453714221715927,0.001679878099821508,-0.000305432389723137
1774657513397661400,8.339661376953124,-0.009010255336761475,0.002901607658714056,0.03695731982588768
1774657513414450400,8.356450439453125,-0.007177661173045635,0.012675444595515728,-0.05345066636800766
1774657513431239700,8.37323974609375,-0.006566796451807022,0.002901607658714056,0.0009162971982732415
1774657513448029000,8.39002880859375,0.011148282326757908,-0.0032070400193333626,-0.01435532234609127
1774657513464818000,8.40681787109375,0.0062613640911877155,-0.011759147047996521,0.010690134018659592
1774657513481607200,8.423607177734375,0.008704823441803455,-0.006872228812426329,0.025961752980947495
1774657513498396200,8.440396240234374,0.0038179049734026194,-0.008093958720564842,0.007635809946805239
1774657513515185400,8.457185302734375,0.0038179049734026194,-0.012370011769235134,0.041844237595796585
1774657513531974700,8.473974609375,0.011759147047996521,-0.005650499369949102,-0.008246674202382565
1774657513548764000,8.490763916015625,0.016646064817905426,-0.009315688163042068,0.015577051788568497
1774657513565553000,8.507552978515625,0.007483093533664942,0.002290742937475443,-0.04978547990322113
1774657513582342100,8.524342041015625,0.03436114266514778,-0.011759147047996521,0.032070402055978775
1774657513599131400,8.54113134765625,0.005039634648710489,0.012675444595515728,-0.11087195575237274
1774657513615920400,8.55792041015625,0.029474224895238876,-0.005039634648710489,-0.05222893878817558
1774657513632709600,8.574709716796875,0.01908952370285988,-0.012370011769235134,0.010690134018659592
1774657513649499000,8.591498779296876,-0.004734201822429895,0.003512472379952669,-0.03756818547844887
1774657513666287900,8.608287841796875,0.009315688163042068,-0.012980876490473747,0.007024944759905338
1774657513683077000,8.6250771484375,-0.011453714221715927,-0.007483093533664942,-0.03145953640341759
1774657513699866400,8.641866455078125,-0.002290742937475443,-0.020311253145337105,0.02107483521103859
1774657513716655400,8.6586552734375,-0.0102319847792387,-0.008093958720564842,-0.029016077518463135
1774657513733444600,8.675444580078125,-0.006566796451807022,-0.01359174121171236,0.016798781231045723
1774657513750233900,8.69223388671875,-0.016340631991624832,0.003512472379952669,-0.03145953640341759
1774657513767022800,8.70902294921875,-0.01206457894295454,-0.0025961752980947495,0.019242240116000175
1774657513783812000,8.72581201171875,0.0025961752980947495,0.004123337101191282,-0.02412915788590908
1774657513800601300,8.742601318359375,-0.017562363296747208,0.021838415414094925,0.006414080038666725
1774657513817390300,8.759390380859376,-0.009621120058000088,0.01511890348047018,0.004581485874950886
1774657513834179600,8.7761796875,0.0032070400193333626,0.017562363296747208,-0.011911863461136818
1774657513850968800,8.79296875,-0.02977965772151947,0.02672533318400383,-0.005192350596189499
1774657513867757800,8.8097578125,-0.013286309316754341,0.018784092739224434,0.021685699000954628
1774657513884547000,8.826547119140624,-0.02672533318400383,0.017562363296747208,0.08765909820795059
1774657513901336300,8.84333642578125,-0.024892739951610565,0.021227551624178886,0.018631376326084137
1774657513918125300,8.860125244140624,-0.005955931730568409,0.01511890348047018,0.02107483521103859
1774657513934914600,8.87691455078125,-0.014508038759231567,0.02672533318400383,-0.02718348242342472
1774657513951703800,8.893703857421874,-0.015729768201708794,0.021227551624178886,0.021685699000954628
1774657513968492800,8.910492919921875,0.011148282326757908,0.007788525894284248,-0.016187917441129684
1774657513985282000,8.927281982421874,0.0001527161948615685,0.001679878099821508,0.013744457624852657
1774657514002071300,8.9440712890625,0.0154243353754282,-0.009926552884280682,-0.0009162971982732415
1774657514018860300,8.9608603515625,0.0062613640911877155,-0.014202605932950974,-0.006414080038666725
1774657514035649500,8.9776494140625,0.011759147047996521,-0.02153298258781433,0.008246674202382565
1774657514052438800,8.994438720703124,0.008093958720564842,-0.026419902220368385,0.005192350596189499
1774657514069227800,9.011227783203125,0.014813470654189587,-0.023976443335413933,0.000305432389723137
1774657514086017000,9.02801708984375,0.008704823441803455,-0.01847865991294384,-0.013133592903614044
1774657514102806300,9.04480615234375,0.01908952370285988,-0.022754713892936707,-0.018631376326084137
1774657514119595300,9.06159521484375,0.006872228812426329,-0.010537417605519295,-0.035735588520765305
1774657514136384500,9.078384521484375,0.014813470654189587,-0.009315688163042068,0.000305432389723137
1774657514153173800,9.095173828125,0.005039634648710489,-0.005039634648710489,-0.0015271619195118546
1774657514169962800,9.111962646484375,0.019700389355421066,-0.011148282326757908,-0.000305432389723137
1774657514186752000,9.128751953125,0.004428769461810589,-0.0019853105768561363,0.0021380267571657896
1774657514203541200,9.145541259765626,0.0038179049734026194,0.00045814859913662076,-0.019242240116000175
1774657514220330200,9.162330322265625,0.0062613640911877155,0.00045814859913662076,-0.01802051067352295
1774657514237119500,9.179119384765626,-0.004123337101191282,0.002901607658714056,0.008246674202382565
1774657514253908700,9.19590869140625,0.0032070400193333626,-0.0001527161948615685,-0.0015271619195118546
1774657514270697700,9.21269775390625,-0.010842849500477314,0.005955931730568409,0.006414080038666725
1774657514287487000,9.229487060546875,-0.004734201822429895,0.005345067009329796,0.0021380267571657896
1774657514304276200,9.246276123046876,-0.006566796451807022,0.005345067009329796,0.013744457624852657
1774657514321065200,9.263065185546875,0.0007635809597559273,-0.0001527161948615685,0.03940077871084213
1774657514337854500,9.2798544921875,-0.009010255336761475,0.007177661173045635,0.007635809946805239
1774657514354643700,9.296643798828125,-0.004734201822429895,0.008399390615522861,0.0027488914784044027
1774657514371432700,9.3134326171875,-0.013897174037992954,0.01206457894295454,0.004581485874950886
1774657514388222000,9.330221923828125,-0.002901607658714056,0.005955931730568409,0.008246674202382565
1774657514405011200,9.34701123046875,-0.017562363296747208,0.014508038759231567,0.0021380267571657896
1774657514421800200,9.36380029296875,-0.006566796451807022,0.006566796451807022,-0.015577051788568497
1774657514438589400,9.38058935546875,-0.01695149764418602,0.0102319847792387,0.03390299528837204
1774657514455378700,9.397378662109375,-0.004734201822429895,0.009010255336761475,-0.010690134018659592
1774657514472167700,9.414167724609374,0.0025961752980947495,0.001679878099821508,0.0021380267571657896
1774657514488957000,9.43095703125,-0.008399390615522861,0.003512472379952669,0.014966187067329884
1774657514505746200,9.44774609375,0.012980876490473747,-0.0038179049734026194,-0.007024944759905338
1774657514522535200,9.46453515625,-0.005345067009329796,0.00045814859913662076,0.005803215317428112
1774657514539324400,9.481324462890624,0.016646064817905426,-0.01359174121171236,0.01435532234609127
1774657514556113700,9.49811376953125,-0.0010690133785828948,-0.0062613640911877155,-0.00946840364485979
1774657514572902700,9.514902587890624,0.016035201027989388,-0.016035201027989388,0.005803215317428112
1774657514589692000,9.53169189453125,0.0007635809597559273,-0.005650499369949102,-0.01435532234609127
1774657514606481200,9.548481201171874,0.006872228812426329,-0.007483093533664942,-0.02107483521103859
1774657514623270100,9.565270263671875,0.008704823441803455,-0.009926552884280682,-0.013744457624852657
1774657514640059400,9.582059326171875,0.007483093533664942,-0.007483093533664942,-0.0021380267571657896
1774657514656848600,9.5988486328125,0.006872228812426329,-0.0038179049734026194,0.0027488914784044027
1774657514673637600,9.6156376953125,0.007483093533664942,-0.006872228812426329,0.019853105768561363
1774657514690427000,9.632427001953126,0.011759147047996521,-0.006872228812426329,0.025961752980947495
1774657514707216100,9.649216064453125,0.0032070400193333626,-0.0025961752980947495,-0.000305432389723137
1774657514724005000,9.666005126953126,0.01359174121171236,-0.006872228812426329,0.0015271619195118546
1774657514740794400,9.68279443359375,0.0013744457392022014,-0.005039634648710489,0.011911863461136818
1774657514757583600,9.69958349609375,0.009315688163042068,-0.0038179049734026194,-0.008246674202382565
1774657514774372600,9.71637255859375,-0.002290742937475443,-0.0007635809597559273,-0.007635809946805239
1774657514791161900,9.733161865234376,0.007483093533664942,-0.005650499369949102,0.005803215317428112
1774657514807951000,9.749951171875,-0.004123337101191282,0.0010690133785828948,0.0009162971982732415
1774657514824740000,9.766739990234376,0.006872228812426329,-0.0025961752980947495,0.013744457624852657
1774657514841529300,9.783529296875,-0.003512472379952669,0.002290742937475443,-0.003359756199643016
1774657514858318600,9.800318603515626,0.005039634648710489,0.002290742937475443,-0.005192350596189499
1774657514875107600,9.817107666015625,-0.001679878099821508,0.001679878099821508,-0.003970621153712273
1774657514891896800,9.833896728515626,-0.0010690133785828948,0.005345067009329796,-0.00946840364485979
1774657514908686000,9.85068603515625,-0.002290742937475443,0.004123337101191282,-0.004581485874950886
1774657514925475000,9.86747509765625,-0.002290742937475443,0.0010690133785828948,0.003359756199643016
1774657514942264300,9.884264404296875,-0.005345067009329796,0.004734201822429895,-0.004581485874950886
1774657514959053600,9.901053466796874,-0.002901607658714056,0.005955931730568409,-0.008857538923621178
1774657514975842600,9.917842529296875,-0.001679878099821508,0.002901607658714056,0.005192350596189499
1774657514992631800,9.9346318359375,-0.00045814859913662076,0.006566796451807022,-0.0021380267571657896
1774657515009421000,9.951421142578125,-0.00045814859913662076,0.005955931730568409,-0.000305432389723137
1774657515026210000,9.9682099609375,-0.002901607658714056,0.004123337101191282,-0.003970621153712273
1774657515042999300,9.984999267578125,-0.001679878099821508,0.008399390615522861,-0.016798781231045723
1774657515059788500,10.00178857421875,-0.009621120058000088,0.007177661173045635,0.0027488914784044027
1774657515076577800,10.018577880859375,0.011759147047996521,0.007177661173045635,-0.09865466505289078
1774657515093366800,10.03536669921875,-0.012675444595515728,-0.0001527161948615685,0.04550942778587341
1774657515110156000,10.052156005859375,0.0032070400193333626,0.007177661173045635,-0.019242240116000175
1774657515126945000,10.068945068359374,-0.021227551624178886,0.011453714221715927,-0.0308486707508564
1774657515143734300,10.085734375,0.016646064817905426,-0.005039634648710489,0.019242240116000175
1774657515160523500,10.1025234375,-0.025503603741526604,0.014508038759231567,-0.025961752980947495
1774657515177312500,10.1193125,0.01908952370285988,-0.0038179049734026194,-0.00946840364485979
1774657515194101800,10.136101806640625,-0.025503603741526604,0.013897174037992954,-0.0021380267571657896
1774657515210891000,10.15289111328125,0.011148282326757908,-0.004428769461810589,-0.02779434807598591
1774657515227680000,10.169679931640625,-0.017562363296747208,0.008399390615522861,0.01435532234609127
1774657515244469200,10.18646923828125,0.0001527161948615685,-0.0001527161948615685,-0.01740964688360691
1774657515261258500,10.203258544921875,-0.00045814859913662076,-0.0001527161948615685,0.013744457624852657
1774657515278047700,10.2200478515625,-0.010842849500477314,0.005345067009329796,-0.0021380267571657896
1774657515294836700,10.236836669921875,0.008093958720564842,-0.0025961752980947495,-0.006414080038666725
1774657515311626000,10.2536259765625,-0.01511890348047018,0.004734201822429895,0.0015271619195118546
1774657515328415200,10.270415283203125,0.01359174121171236,-0.006872228812426329,-0.0009162971982732415
1774657515345204200,10.287204345703126,-0.012675444595515728,0.006566796451807022,-0.01802051067352295
1774657515361993500,10.303993408203125,-0.00045814859913662076,0.0010690133785828948,-0.011911863461136818
1774657515378782700,10.32078271484375,-0.008399390615522861,0.0010690133785828948,0.0021380267571657896
1774657515395572000,10.337572021484375,-0.001679878099821508,-0.0013744457392022014,0.0009162971982732415
1774657515412361000,10.35436083984375,0.0001527161948615685,0.00045814859913662076,-0.00946840364485979
1774657515429150200,10.371150146484375,-0.010842849500477314,0.009010255336761475,-0.010690134018659592
1774657515445939500,10.387939453125,0.007483093533664942,-0.005650499369949102,0.006414080038666725
1774657515462728400,10.404728515625,0.0032070400193333626,-0.0007635809597559273,0.010079269297420979
1774657515479517700,10.421517578125,0.0007635809597559273,0.00045814859913662076,0.005803215317428112
1774657515496307000,10.438306884765625,-0.0010690133785828948,0.004123337101191282,-0.006414080038666725
1774657515513096200,10.45509619140625,0.0019853105768561363,-0.0032070400193333626,0.004581485874950886
1774657515529885200,10.47188525390625,-0.002901607658714056,0.0010690133785828948,0.00946840364485979
1774657515546674400,10.48867431640625,0.0013744457392022014,-0.0032070400193333626,-0.011911863461136818
1774657515563463700,10.505463623046875,-0.0010690133785828948,-0.008093958720564842,0.011911863461136818
1774657515580252700,10.522252685546874,0.0038179049734026194,-0.009315688163042068,0.008857538923621178
1774657515597042000,10.5390419921875,0.0019853105768561363,-0.0038179049734026194,0.007024944759905338
1774657515613831200,10.5558310546875,0.004428769461810589,-0.005650499369949102,-0.016187917441129684
1774657515630620200,10.5726201171875,0.0019853105768561363,0.00045814859913662076,-0.010690134018659592
1774657515647409400,10.589409423828124,0.004428769461810589,-0.0007635809597559273,0.021685699000954628
1774657515664198700,10.60619873046875,0.0019853105768561363,0.00045814859913662076,-0.005803215317428112
1774657515680988000,10.62298779296875,0.0062613640911877155,-0.0007635809597559273,0.010079269297420979
1774657515697777000,10.63977685546875,-0.007788525894284248,0.005955931730568409,0.010079269297420979
1774657515714566100,10.656566162109375,-0.0010690133785828948,0.00045814859913662076,0.015577051788568497
1774657515731355400,10.67335546875,-0.010842849500477314,0.004123337101191282,-0.005803215317428112
1774657515748144400,10.690144287109375,-0.002901607658714056,0.001679878099821508,0.003359756199643016
1774657515764933600,10.70693359375,-0.008399390615522861,0.007788525894284248,0.019853105768561363
1774657515781723000,10.723722900390625,-0.002901607658714056,0.002901607658714056,-0.0009162971982732415
1774657515798512000,10.74051220703125,0.0013744457392022014,0.001679878099821508,0.00946840364485979
1774657515815301000,10.757301025390625,-0.003512472379952669,0.011453714221715927,-0.0009162971982732415
1774657515832090400,10.77409033203125,-0.003512472379952669,0.008399390615522861,0.006414080038666725
1774657515848879600,10.790879638671875,-0.004123337101191282,0.004734201822429895,0.005803215317428112
1774657515865668900,10.8076689453125,0.0062613640911877155,-0.004428769461810589,0.003970621153712273
1774657515882457900,10.824457763671875,-0.007177661173045635,0.005955931730568409,0.016798781231045723
1774657515899247000,10.8412470703125,-0.004734201822429895,-0.0001527161948615685,0.01435532234609127
1774657515916036400,10.858036376953125,-0.010842849500477314,0.001679878099821508,0.003970621153712273
1774657515932825600,10.87482568359375,-0.004123337101191282,0.002901607658714056,0.0204639695584774
1774657515949614600,10.891614501953125,-0.007177661173045635,0.005955931730568409,-0.005803215317428112
1774657515966403800,10.90840380859375,0.0019853105768561363,-0.0013744457392022014,0.013744457624852657
1774657515983193000,10.925193115234375,0.006872228812426329,-0.0013744457392022014,0.02412915788590908
1774657515999982000,10.941982177734374,0.007483093533664942,-0.0001527161948615685,-0.006414080038666725
1774657516016771300,10.958771240234375,0.012980876490473747,-0.0062613640911877155,0.007024944759905338
1774657516033560600,10.975560546875,0.007483093533664942,-0.005650499369949102,0.007024944759905338
1774657516050349800,10.992349853515625,0.008093958720564842,-0.010537417605519295,0.03451386094093323
1774657516067138800,11.009138916015624,0.0032070400193333626,-0.005650499369949102,0.003359756199643016
1774657516083928000,11.025927978515625,0.009926552884280682,-0.014202605932950974,0.010690134018659592
1774657516100717300,11.04271728515625,0.0025961752980947495,-0.006872228812426329,0.008246674202382565
1774657516117506300,11.05950634765625,0.0019853105768561363,-0.0062613640911877155,-0.014966187067329884
1774657516134295600,11.076295654296874,-0.004123337101191282,0.00045814859913662076,-0.04001164436340332
1774657516151084800,11.093084716796875,0.0062613640911877155,-0.0025961752980947495,0.000305432389723137
1774657516167874000,11.1098740234375,0.0001527161948615685,0.004123337101191282,-0.0204639695584774
1774657516184663000,11.1266630859375,-0.0010690133785828948,0.007177661173045635,-0.026572618633508682
1774657516201452300,11.143452392578125,-0.001679878099821508,0.009621120058000088,-0.019853105768561363
1774657516218241500,11.160241455078125,-0.013897174037992954,0.0102319847792387,-0.006414080038666725
1774657516235030500,11.177030517578125,-0.002901607658714056,-0.0007635809597559273,0.035124726593494415
1774657516251819800,11.19381982421875,-0.028557928279042244,0.0102319847792387,0.038789913058280945
1774657516268609000,11.210609130859375,-0.002901607658714056,0.009010255336761475,-0.010690134018659592
1774657516285398300,11.227398193359376,-0.017562363296747208,0.0102319847792387,-0.0015271619195118546
1774657516302187300,11.244187255859375,0.0001527161948615685,0.002901607658714056,0.019853105768561363
1774657516318976500,11.2609765625,-0.002901607658714056,0.012675444595515728,-0.0027488914784044027
1774657516335765800,11.277765869140625,0.0007635809597559273,0.004123337101191282,0.006414080038666725
1774657516352555000,11.294554931640626,0.004428769461810589,0.001679878099821508,0.007635809946805239
1774657516369344000,11.311343994140625,0.0001527161948615685,0.003512472379952669,-0.014966187067329884
1774657516386133200,11.32813330078125,0.009926552884280682,-0.009315688163042068,-0.005803215317428112
1774657516402922500,11.344922607421875,-0.001679878099821508,-0.008704823441803455,0.0009162971982732415
1774657516419711500,11.36171142578125,0.007483093533664942,-0.02214384824037552,0.03145953640341759
1774657516436500700,11.378500732421875,-0.001679878099821508,-0.014202605932950974,-0.005803215317428112
1774657516453290000,11.3952900390625,0.014202605932950974,-0.025809036567807198,0.04734202101826668
1774657516470079200,11.412079345703125,0.007483093533664942,-0.011759147047996521,-0.02412915788590908
1774657516486868200,11.4288681640625,0.020311253145337105,-0.0154243353754282,0.028405211865901947
1774657516503657500,11.445657470703125,0.010537417605519295,0.002901607658714056,-0.013133592903614044
1774657516520446700,11.46244677734375,0.019700389355421066,0.001679878099821508,-0.048563748598098755
1774657516537236000,11.479236083984375,0.017256930470466614,-0.006872228812426329,0.035735588520765305
1774657516554025000,11.49602490234375,0.008704823441803455,0.007177661173045635,-0.10537417232990265
1774657516570814200,11.512814208984375,0.020922118797898293,-0.005650499369949102,0.0021380267571657896
1774657516587603500,11.529603515625,0.004428769461810589,0.009010255336761475,-0.044898562133312225
1774657516604392400,11.546392333984375,0.004428769461810589,0.001679878099821508,-0.003970621153712273
1774657516621181700,11.563181640625,-0.011453714221715927,0.004123337101191282,-0.012522728182375431
1774657516637971000,11.579970947265625,-0.004123337101191282,0.001679878099821508,0.0015271619195118546
1774657516654760200,11.59676025390625,-0.02000582218170166,0.002901607658714056,-0.013744457624852657
1774657516671549200,11.613549072265625,-0.009621120058000088,-0.005039634648710489,0.044898562133312225
1774657516688338400,11.63033837890625,-0.018784092739224434,0.008399390615522861,-0.04917461425065994
1774657516705127700,11.647127685546875,-0.002290742937475443,0.003512472379952669,0.03329212963581085
1774657516721916700,11.663916748046875,-0.024281874299049377,0.0206166859716177,-0.03329212963581085
1774657516738706000,11.680705810546876,-0.013286309316754341,-0.0032070400193333626,0.1127045527100563
1774657516755495200,11.6974951171875,-0.027947064489126205,0.009010255336761475,-0.013744457624852657
1774657516772284400,11.714284423828126,-0.012675444595515728,-0.0007635809597559273,0.05711585655808449
1774657516789073400,11.731073486328125,-0.018784092739224434,0.015729768201708794,-0.015577051788568497
1774657516805862700,11.747862548828126,-0.001679878099821508,0.009010255336761475,0.026572618633508682
1774657516822652000,11.76465185546875,0.005650499369949102,0.018784092739224434,-0.04062250629067421
1774657516839441000,11.78144091796875,0.008093958720564842,0.01206457894295454,-0.008246674202382565
1774657516856230100,11.798230224609375,0.005039634648710489,0.002901607658714056,0.012522728182375431
1774657516873019400,11.815019287109376,0.0032070400193333626,0.001679878099821508,-0.0021380267571657896
1774657516889808400,11.831808349609375,0.012370011769235134,-0.005039634648710489,-0.010079269297420979
1774657516906597600,11.84859765625,0.007483093533664942,-0.009926552884280682,-0.004581485874950886
1774657516923387000,11.865386962890625,0.0013744457392022014,-0.011148282326757908,0.018631376326084137
1774657516940176100,11.882176025390624,0.0007635809597559273,-0.010537417605519295,-0.012522728182375431
1774657516956965000,11.898965087890625,0.0025961752980947495,-0.014202605932950974,-0.003970621153712273
1774657516973754400,11.91575439453125,0.011148282326757908,-0.017867794260382652,0.019242240116000175
1774657516990543600,11.932543701171875,0.0025961752980947495,-0.005039634648710489,-0.04367683082818985
1774657517007332600,11.94933251953125,-0.00045814859913662076,-0.0025961752980947495,-0.019242240116000175
1774657517024121900,11.966121826171875,0.012980876490473747,-0.005650499369949102,-0.0204639695584774
1774657517040911000,11.9829111328125,-0.004734201822429895,0.002901607658714056,0.019242240116000175
1774657517057700400,11.999700439453125,0.008704823441803455,-0.0032070400193333626,0.005192350596189499
1774657517074489300,12.0164892578125,-0.010842849500477314,0.012675444595515728,-0.02107483521103859
1774657517091278600,12.033278564453125,0.0019853105768561363,-0.0001527161948615685,0.02412915788590908
1774657517108067800,12.05006787109375,-0.010842849500477314,0.003512472379952669,0.022296564653515816
1774657517124856800,12.06685693359375,-0.010842849500477314,0.0102319847792387,0.004581485874950886
1774657517141646000,12.08364599609375,0.0007635809597559273,0.001679878099821508,0.022907428443431854
1774657517158435300,12.100435302734375,-0.007788525894284248,0.009621120058000088,-0.00946840364485979
1774657517175224600,12.117224609375,0.0001527161948615685,0.0102319847792387,0.004581485874950886
1774657517192013600,12.134013671875,0.0013744457392022014,0.009010255336761475,0.0021380267571657896
1774657517208802800,12.150802734375,0.0019853105768561363,0.009010255336761475,-0.0027488914784044027
1774657517225592000,12.167592041015626,0.008704823441803455,-0.0007635809597559273,-0.0009162971982732415
1774657517242381000,12.184381103515625,-0.006566796451807022,0.00045814859913662076,-0.005803215317428112
1774657517259170300,12.20117041015625,-0.00045814859913662076,-0.0025961752980947495,-0.003970621153712273
1774657517275959600,12.21795947265625,-0.001679878099821508,-0.005039634648710489,-0.008246674202382565
1774657517292748500,12.23474853515625,-0.002290742937475443,-0.009926552884280682,0.02107483521103859
1774657517309537800,12.251537841796875,0.0013744457392022014,-0.0019853105768561363,-0.007024944759905338
1774657517326327000,12.2683271484375,0.0032070400193333626,-0.008093958720564842,-0.010690134018659592
1774657517343116300,12.2851162109375,0.014202605932950974,-0.009315688163042068,0.010690134018659592
1774657517359905300,12.3019052734375,-0.0010690133785828948,0.004734201822429895,-0.008246674202382565
1774657517376694500,12.318694580078125,0.005650499369949102,0.001679878099821508,-0.003359756199643016
1774657517393483800,12.33548388671875,0.005039634648710489,0.001679878099821508,-0.003359756199643016
1774657517410272800,12.352272705078125,0.0013744457392022014,0.00045814859913662076,-0.000305432389723137
1774657517427062000,12.36906201171875,-0.003512472379952669,0.005345067009329796,-0.003359756199643016
1774657517443851300,12.385851318359375,-0.004734201822429895,0.0010690133785828948,0.006414080038666725
1774657517460640500,12.402640625,-0.004734201822429895,-0.0019853105768561363,0.007635809946805239
1774657517477429500,12.419429443359375,-0.008399390615522861,0.005345067009329796,0.008246674202382565
1774657517494218800,12.43621875,-0.004123337101191282,0.002290742937475443,0.004581485874950886
1774657517511008000,12.453008056640625,-0.007177661173045635,0.005345067009329796,-0.000305432389723137
1774657517527797200,12.46979736328125,0.0025961752980947495,0.003512472379952669,0.004581485874950886
1774657517544586200,12.486586181640625,-0.0010690133785828948,0.005345067009329796,0.0021380267571657896
1774657517561375500,12.50337548828125,0.004428769461810589,0.002290742937475443,-0.007024944759905338
1774657517578164700,12.520164794921875,0.0025961752980947495,-0.0007635809597559273,0.0021380267571657896
1774657517594953700,12.53695361328125,0.005039634648710489,-0.0038179049734026194,0.0009162971982732415
1774657517611743000,12.553742919921875,0.0038179049734026194,-0.0062613640911877155,-0.000305432389723137
1774657517628532200,12.5705322265625,0.004428769461810589,-0.0062613640911877155,0.005803215317428112
1774657517645321200,12.5873212890625,-0.002290742937475443,-0.004428769461810589,-0.004581485874950886
1774657517662110500,12.6041103515625,0.005650499369949102,-0.0062613640911877155,0.0015271619195118546
1774657517678899700,12.620899658203125,-0.002901607658714056,-0.0019853105768561363,0.006414080038666725
1774657517695688700,12.637688720703125,0.004428769461810589,-0.0007635809597559273,-0.007024944759905338
1774657517712478000,12.65447802734375,0.0032070400193333626,0.0010690133785828948,0.005192350596189499
1774657517729267200,12.67126708984375,0.0019853105768561363,0.00045814859913662076,-0.0009162971982732415
1774657517746056400,12.688056396484376,0.0001527161948615685,0.005345067009329796,-0.003359756199643016
1774657517762845400,12.704845458984375,-0.003512472379952669,0.004123337101191282,-0.004581485874950886
1774657517779634700,12.721634765625,-0.002901607658714056,0.002901607658714056,0.0027488914784044027
1774657517796424000,12.738423828125,-0.005345067009329796,0.004123337101191282,-0.0021380267571657896
1774657517813213000,12.755212890625,-0.005345067009329796,0.0010690133785828948,0.005192350596189499
1774657517830002200,12.772002197265625,-0.001679878099821508,0.002290742937475443,-0.000305432389723137
1774657517846791400,12.78879150390625,-0.005955931730568409,0.004734201822429895,-0.007024944759905338
1774657517863580400,12.805580322265625,0.0038179049734026194,-0.0001527161948615685,0.004581485874950886
1774657517880369700,12.82236962890625,-0.00045814859913662076,0.002901607658714056,-0.0027488914784044027
1774657517897159000,12.839158935546875,0.0025961752980947495,0.001679878099821508,-0.0009162971982732415
1774657517913948200,12.8559482421875,0.004428769461810589,-0.0007635809597559273,0.004581485874950886
1774657517930737200,12.872737060546875,0.0001527161948615685,0.00045814859913662076,-0.0021380267571657896
1774657517947526400,12.8895263671875,0.004428769461810589,0.00045814859913662076,-0.004581485874950886
1774657517964315600,12.906315673828125,-0.002901607658714056,0.0010690133785828948,-0.0009162971982732415
1774657517981104600,12.923104736328124,0.0007635809597559273,0.003512472379952669,-0.004581485874950886
1774657517997894000,12.939893798828125,-0.004734201822429895,0.001679878099821508,-0.0009162971982732415
1774657518014683100,12.95668310546875,0.0013744457392022014,-0.0007635809597559273,0.008857538923621178
1774657518031472400,12.973472412109375,-0.002901607658714056,0.008399390615522861,-0.0009162971982732415
1774657518048261400,12.990261474609374,-0.00045814859913662076,0.005345067009329796,-0.007024944759905338
1774657518065050600,13.007050537109375,0.0038179049734026194,0.005345067009329796,-0.02107483521103859
1774657518081839900,13.02383984375,-0.010842849500477314,0.005955931730568409,-0.003359756199643016
1774657518098628900,13.04062890625,0.01908952370285988,0.002901607658714056,-0.038789913058280945
1774657518115418000,13.057418212890624,-0.022449281066656113,0.007788525894284248,0.005192350596189499
1774657518132207400,13.074207275390625,0.017256930470466614,-0.0025961752980947495,0.0015271619195118546
1774657518148996600,13.09099658203125,-0.017562363296747208,0.010842849500477314,-0.032681263983249664
1774657518165785600,13.10778564453125,0.0062613640911877155,-0.006872228812426329,0.019242240116000175
1774657518182574800,13.124574951171875,-0.009621120058000088,0.003512472379952669,-0.0204639695584774
1774657518199364000,13.141364013671875,0.0038179049734026194,-0.0038179049734026194,0.003970621153712273
1774657518216153000,13.158153076171875,-0.003512472379952669,-0.004428769461810589,-0.0027488914784044027
1774657518232942300,13.1749423828125,0.004428769461810589,-0.0001527161948615685,-0.005803215317428112
1774657518249731600,13.191731689453125,0.0007635809597559273,0.002290742937475443,-0.0021380267571657896
1774657518266520600,13.2085205078125,0.0013744457392022014,-0.0032070400193333626,-0.005803215317428112
1774657518283309800,13.225309814453125,0.007483093533664942,-0.0062613640911877155,0.000305432389723137
1774657518300099000,13.24209912109375,-0.005345067009329796,-0.0001527161948615685,-0.003970621153712273
1774657518316888300,13.258888427734375,0.0025961752980947495,-0.005039634648710489,-0.03756818547844887
1774657518333677300,13.27567724609375,0.0001527161948615685,-0.0032070400193333626,-0.013133592903614044
1774657518350466600,13.292466552734375,-0.0102319847792387,-0.0007635809597559273,0.000305432389723137
1774657518367255800,13.309255859375,0.0013744457392022014,-0.0038179049734026194,-0.010079269297420979
1774657518384044800,13.326044921875,-0.0010690133785828948,-0.0062613640911877155,0.026572618633508682
1774657518400834000,13.342833984375,0.0032070400193333626,0.003512472379952669,-0.000305432389723137
1774657518417623300,13.359623291015625,0.0032070400193333626,0.002901607658714056,-0.005803215317428112
1774657518434412500,13.37641259765625,0.005039634648710489,-0.0019853105768561363,0.008857538923621178
1774657518451201500,13.393201416015625,0.0013744457392022014,0.002901607658714056,0.010079269297420979
1774657518467990800,13.40999072265625,0.005650499369949102,-0.0062613640911877155,-0.010079269297420979
1774657518484780000,13.426780029296875,0.008093958720564842,-0.010537417605519295,-0.0027488914784044027
1774657518501569300,13.4435693359375,0.0001527161948615685,-0.008704823441803455,0.004581485874950886
1774657518518358300,13.460358154296875,-0.002290742937475443,-0.0007635809597559273,-0.02412915788590908
1774657518535147500,13.4771474609375,0.0038179049734026194,-0.010537417605519295,0.011911863461136818
1774657518551936800,13.493936767578125,0.0032070400193333626,-0.006872228812426329,-0.01740964688360691
1774657518568726000,13.51072607421875,0.0007635809597559273,0.001679878099821508,-0.010690134018659592
1774657518585515000,13.527514892578125,0.007483093533664942,-0.004428769461810589,-0.00946840364485979
1774657518602304300,13.54430419921875,0.006872228812426329,-0.0032070400193333626,0.004581485874950886
1774657518619093500,13.561093505859375,0.008704823441803455,0.003512472379952669,-0.010079269297420979
1774657518635882800,13.5778828125,-0.005345067009329796,0.002901607658714056,-0.02107483521103859
1774657518652671700,13.594671630859375,0.011148282326757908,-0.008704823441803455,0.006414080038666725
1774657518669461000,13.6114609375,-0.011453714221715927,0.005955931730568409,-0.00946840364485979
1774657518686250200,13.628250244140625,0.0025961752980947495,-0.009926552884280682,-0.0021380267571657896
1774657518703039500,13.64503955078125,-0.004123337101191282,-0.0025961752980947495,0.011300998739898205
1774657518719828500,13.661828369140625,0.004428769461810589,-0.0032070400193333626,-0.011300998739898205
1774657518736617700,13.67861767578125,-0.011453714221715927,0.004734201822429895,0.008857538923621178
1774657518753407000,13.695406982421876,0.008704823441803455,0.002901607658714056,0.005803215317428112
1774657518770196200,13.7121962890625,0.0001527161948615685,0.002901607658714056,-0.007024944759905338
1774657518786985200,13.728985107421876,0.0001527161948615685,0.007177661173045635,-0.0027488914784044027
1774657518803774500,13.7457744140625,-0.003512472379952669,0.004734201822429895,0.0015271619195118546
1774657518820563700,13.762563720703126,0.0001527161948615685,0.00045814859913662076,-0.005803215317428112
1774657518837353000,13.77935302734375,-0.002290742937475443,-0.0001527161948615685,0.016187917441129684
1774657518854142000,13.796141845703126,-0.009010255336761475,0.005955931730568409,-0.008857538923621178
1774657518870931200,13.81293115234375,-0.01206457894295454,0.003512472379952669,0.006414080038666725
1774657518887720400,13.829720458984376,0.0013744457392022014,-0.0007635809597559273,0.0027488914784044027
1774657518904509700,13.846509765625,-0.005345067009329796,0.002290742937475443,-0.003970621153712273
1774657518921299000,13.863298828125,-0.00045814859913662076,0.003512472379952669,0.008246674202382565
1774657518938088000,13.880087890625,-0.00045814859913662076,0.008399390615522861,-0.011300998739898205
1774657518954877200,13.896877197265624,0.004428769461810589,0.004734201822429895,-0.000305432389723137
1774657518971666400,13.91366650390625,0.0025961752980947495,0.002290742937475443,-0.0021380267571657896
1774657518988455400,13.930455322265624,-0.001679878099821508,0.001679878099821508,0.0015271619195118546
1774657519005244700,13.94724462890625,-0.002901607658714056,-0.0013744457392022014,0.007635809946805239
1774657519022034000,13.964033935546874,-0.004123337101191282,-0.005039634648710489,0.016798781231045723
1774657519038823200,13.9808232421875,-0.003512472379952669,-0.0025961752980947495,0.004581485874950886
1774657519055612400,13.9976123046875,-0.005345067009329796,-0.0019853105768561363,0.008246674202382565
1774657519072401400,14.0144013671875,0.0001527161948615685,-0.0032070400193333626,0.011911863461136818
1774657519089190700,14.031190673828124,0.0013744457392022014,-0.0013744457392022014,-0.008246674202382565
1774657519105980000,14.04797998046875,0.0032070400193333626,0.003512472379952669,0.000305432389723137
1774657519122769200,14.06476904296875,0.005650499369949102,0.003512472379952669,0.004581485874950886
1774657519139558100,14.08155810546875,0.005039634648710489,0.003512472379952669,-0.007024944759905338
1774657519156347400,14.098347412109375,0.0007635809597559273,0.005345067009329796,0.0027488914784044027
1774657519173136600,14.11513671875,-0.004734201822429895,0.002290742937475443,-0.0027488914784044027
1774657519189926000,14.13192578125,-0.002901607658714056,-0.0032070400193333626,0.03329212963581085
1774657519206715100,14.148715087890626,-0.01511890348047018,0.007788525894284248,0.007635809946805239
1774657519223504100,14.165504150390625,-0.009010255336761475,0.001679878099821508,0.008857538923621178
1774657519240293400,14.18229345703125,-0.007177661173045635,0.003512472379952669,0.016798781231045723
1774657519257082600,14.19908251953125,0.0007635809597559273,0.002901607658714056,0.008246674202382565
1774657519273872000,14.215871826171876,-0.002901607658714056,0.0010690133785828948,0.03817904740571976
1774657519290660900,14.232660888671875,0.009315688163042068,0.0010690133785828948,0.023518294095993042
1774657519307450000,14.2494501953125,0.008704823441803455,-0.005039634648710489,0.04550942778587341
1774657519324239400,14.2662392578125,0.008093958720564842,-0.004428769461810589,-0.010690134018659592
1774657519341028600,14.283028564453126,0.01359174121171236,-0.0062613640911877155,0.0308486707508564
1774657519357817900,14.29981787109375,-0.002290742937475443,-0.009315688163042068,0.007635809946805239
1774657519374606800,14.31660693359375,0.011759147047996521,-0.020311253145337105,0.032681263983249664
1774657519391396000,14.33339599609375,-0.0010690133785828948,-0.012370011769235134,0.010690134018659592
1774657519408185300,14.350185302734374,0.011759147047996521,-0.012980876490473747,-0.02718348242342472
1774657519424974600,14.366974609375,0.0019853105768561363,-0.0062613640911877155,-0.06505709886550903
1774657519441763600,14.383763671875,0.005650499369949102,-0.0062613640911877155,-0.03695731982588768
1774657519458552800,14.400552734375,0.0019853105768561363,-0.0062613640911877155,0.007635809946805239
1774657519475342000,14.417342041015624,0.0154243353754282,-0.0062613640911877155,-0.03695731982588768
1774657519492131300,14.43413134765625,0.0062613640911877155,-0.0038179049734026194,-0.0021380267571657896
1774657519508920300,14.45092041015625,0.0062613640911877155,0.001679878099821508,-0.011911863461136818
1774657519525709600,14.46770947265625,0.0013744457392022014,0.006566796451807022,-0.022907428443431854
1774657519542498800,14.484498779296874,-0.00045814859913662076,0.003512472379952669,-0.000305432389723137
1774657519559288000,14.5012880859375,0.0032070400193333626,-0.0001527161948615685,-0.005803215317428112
1774657519576077300,14.518077392578125,-0.009010255336761475,0.001679878099821508,0.000305432389723137
1774657519592866300,14.5348662109375,-0.006566796451807022,0.004123337101191282,-0.004581485874950886
1774657519609655600,14.551655517578125,-0.018784092739224434,0.004123337101191282,0.0204639695584774
1774657519626444800,14.56844482421875,-0.007788525894284248,0.006566796451807022,-0.004581485874950886
1774657519643234000,14.585234130859375,-0.013286309316754341,0.009010255336761475,0.01740964688360691
1774657519660023000,14.60202294921875,0.006872228812426329,0.004734201822429895,0.0009162971982732415
1774657519676812300,14.618812255859375,-0.014508038759231567,0.018784092739224434,0.0027488914784044027
1774657519693601500,14.6356015625,-0.0010690133785828948,0.0102319847792387,0.04978547990322113
1774657519710390800,14.652390869140625,-0.005345067009329796,0.008399390615522861,0.03695731982588768
1774657519727180000,14.669179931640626,-0.006566796451807022,-0.0013744457392022014,0.0717766135931015
1774657519743969000,14.685968994140625,-0.009621120058000088,0.006566796451807022,-0.00946840364485979
1774657519760758300,14.70275830078125,-0.007177661173045635,-0.0025961752980947495,0.06200277432799339
1774657519777547500,14.719547607421875,0.0032070400193333626,-0.01359174121171236,0.03329212963581085
1774657519794336800,14.736336669921876,0.007483093533664942,-0.014202605932950974,-0.02107483521103859
1774657519811126000,14.7531259765625,-0.013286309316754341,-0.008093958720564842,0.005192350596189499
1774657519827915000,14.7699150390625,0.008093958720564842,-0.011148282326757908,-0.005192350596189499
1774657519844704300,14.786704345703125,0.02764163166284561,-0.009315688163042068,0.011911863461136818
1774657519861493500,14.803493408203124,0.012980876490473747,0.006566796451807022,-0.019242240116000175
1774657519878282800,14.82028271484375,0.03252854943275452,-0.012370011769235134,0.05528326332569122
1774657519895071700,14.83707177734375,0.008704823441803455,0.014508038759231567,-0.20189081132411957
1774657519911861000,14.853861083984375,0.01847865991294384,-0.008704823441803455,0.026572618633508682
1774657519928650200,14.870650146484374,0.005039634648710489,-0.0001527161948615685,0.008246674202382565
1774657519945439500,14.887439453125,0.017867794260382652,0.006566796451807022,-0.10048725455999374
1774657519962228700,14.904228759765624,-0.004734201822429895,0.002290742937475443,0.010079269297420979
1774657519979017700,14.921017822265625,0.0007635809597559273,-0.014813470654189587,-0.028405211865901947
1774657519995807000,14.937806884765624,-0.015729768201708794,-0.005650499369949102,-0.048563748598098755
1774657520012596200,14.95459619140625,-0.030390523374080658,-0.006872228812426329,0.022296564653515816
1774657520029385500,14.971385498046875,-0.017562363296747208,-0.01359174121171236,-0.010079269297420979
1774657520046174700,14.9881748046875,-0.04505127668380737,0.01206457894295454,0.016798781231045723
1774657520062963700,15.004963623046875,-0.003512472379952669,0.001679878099821508,-0.013133592903614044
1774657520079753000,15.0217529296875,-0.01695149764418602,0.014508038759231567,0.018631376326084137
1774657520096542200,15.038542236328125,0.007483093533664942,0.021227551624178886,0.03634645417332649
1774657520113331500,15.05533154296875,-0.005955931730568409,0.04505127668380737,-0.0021380267571657896
1774657520130120400,15.072120361328125,0.0062613640911877155,0.017562363296747208,0.09498947113752365
1774657520146909700,15.08890966796875,0.004428769461810589,0.0334448479115963,-0.06261363625526428
1774657520163699000,15.105698974609375,-0.018784092739224434,0.02611446939408779,-0.018631376326084137
1774657520180488200,15.12248828125,-0.013286309316754341,0.005345067009329796,0.025961752980947495
1774657520197277400,15.13927734375,-0.024281874299049377,0.009010255336761475,-0.025961752980947495
1774657520214066400,15.15606640625,-0.01206457894295454,-0.011148282326757908,0.03695731982588768
1774657520230855700,15.172855712890625,0.0025961752980947495,-0.011759147047996521,-0.01435532234609127
1774657520247645000,15.18964501953125,-0.004734201822429895,-0.004428769461810589,0.0027488914784044027
1774657520264434200,15.20643408203125,0.03191768378019333,-0.01847865991294384,-0.010690134018659592
1774657520281223200,15.22322314453125,0.011759147047996521,-0.0019853105768561363,-0.000305432389723137
1774657520298012400,15.240012451171875,0.030695954337716103,-0.009926552884280682,-0.012522728182375431
1774657520314801700,15.2568017578125,0.016035201027989388,-0.009315688163042068,-0.003970621153712273
1774657520331591000,15.2735908203125,0.010537417605519295,-0.012370011769235134,-0.003970621153712273
1774657520348380000,15.2903798828125,0.007483093533664942,-0.017256930470466614,0.0027488914784044027
1774657520365169200,15.307169189453125,-0.01206457894295454,-0.011759147047996521,-0.019242240116000175
1774657520381958400,15.32395849609375,-0.003512472379952669,-0.012980876490473747,-0.05345066636800766
1774657520398747600,15.34074755859375,-0.01695149764418602,-0.004428769461810589,-0.0021380267571657896
1774657520415537000,15.357536865234374,0.005039634648710489,-0.007483093533664942,-0.005192350596189499
1774657520432326000,15.374325927734375,0.0038179049734026194,0.007788525894284248,0.007024944759905338
1774657520449115100,15.391115234375,0.014202605932950974,0.005955931730568409,-0.005192350596189499
1774657520465904400,15.407904296875,0.017867794260382652,0.009621120058000088,0.025961752980947495
1774657520482693600,15.424693603515625,0.004428769461810589,0.011453714221715927,0.06994401663541794
1774657520499483000,15.44148291015625,-0.0010690133785828948,0.01695149764418602,-0.028405211865901947
1774657520516272000,15.458272216796875,-0.011453714221715927,0.00045814859913662076,0.05039634555578232
1774657520533061000,15.47506103515625,-0.01695149764418602,0.007177661173045635,-0.038789913058280945
1774657520549850400,15.491850341796875,-0.021838415414094925,0.002901607658714056,0.02718348242342472
1774657520566639600,15.5086396484375,-0.016340631991624832,0.003512472379952669,-0.008246674202382565
1774657520583428900,15.525428955078125,-0.005955931730568409,0.001679878099821508,-0.005803215317428112
1774657520600218000,15.542218017578126,0.007483093533664942,0.001679878099821508,0.008857538923621178
1774657520617007000,15.559007080078125,0.0062613640911877155,0.007177661173045635,-0.010690134018659592
1774657520633796400,15.57579638671875,0.011759147047996521,0.007788525894284248,-0.004581485874950886
1774657520650585600,15.592585693359375,0.012980876490473747,-0.0007635809597559273,0.0021380267571657896
1774657520667374800,15.609374755859376,0.014202605932950974,-0.005650499369949102,-0.003970621153712273
1774657520684164000,15.6261640625,0.004428769461810589,-0.0038179049734026194,0.0009162971982732415
1774657520700953000,15.642953125,-0.005955931730568409,-0.009926552884280682,-0.011300998739898205
1774657520717742300,15.659742431640625,-0.0010690133785828948,-0.011759147047996521,0.005192350596189499
1774657520734531600,15.676531494140624,-0.013897174037992954,-0.004428769461810589,-0.013133592903614044
1774657520751320800,15.69332080078125,-0.004123337101191282,-0.005650499369949102,-0.01802051067352295
1774657520768110000,15.710110107421874,-0.007177661173045635,0.007177661173045635,0.013133592903614044
1774657520784899300,15.7268994140625,0.011759147047996521,0.001679878099821508,-0.0009162971982732415
1774657520801688600,15.7436884765625,0.007483093533664942,0.009010255336761475,0.028405211865901947
1774657520818477600,15.7604775390625,0.0062613640911877155,0.013897174037992954,-0.008857538923621178
1774657520835266800,15.777266845703124,-0.0010690133785828948,0.007788525894284248,0.0009162971982732415
1774657520852056000,15.79405615234375,-0.001679878099821508,0.001679878099821508,0.008857538923621178
1774657520868845300,15.81084521484375,-0.011453714221715927,0.003512472379952669,0.000305432389723137
1774657520885634600,15.827634521484375,-0.01206457894295454,-0.0032070400193333626,0.008857538923621178
1774657520902423600,15.844423583984375,-0.011453714221715927,-0.0062613640911877155,0.005192350596189499
1774657520919212800,15.861212890625,-0.002901607658714056,-0.005650499369949102,-0.0015271619195118546
1774657520936002000,15.878001953125,0.0001527161948615685,-0.0013744457392022014,0.0021380267571657896
1774657520952791300,15.894791259765626,0.005650499369949102,0.00045814859913662076,0.0015271619195118546
1774657520969580500,15.91158056640625,0.016646064817905426,0.0010690133785828948,-0.005803215317428112
1774657520986369800,15.928369873046876,0.006872228812426329,0.001679878099821508,0.005803215317428112
1774657521003159000,15.945158935546875,0.014813470654189587,-0.0013744457392022014,0.007635809946805239
1774657521019948000,15.961947998046876,-0.0010690133785828948,0.00045814859913662076,-0.008246674202382565
1774657521036737300,15.9787373046875,0.0013744457392022014,-0.006872228812426329,0.011300998739898205
1774657521053526500,15.995526611328126,-0.003512472379952669,-0.007483093533664942,0.005192350596189499
1774657521070315800,16.012315673828127,-0.010842849500477314,-0.004428769461810589,-0.005192350596189499
1774657521087105000,16.02910498046875,-0.005345067009329796,-0.0013744457392022014,0.0021380267571657896
1774657521103894300,16.045894287109373,-0.004734201822429895,0.001679878099821508,-0.003359756199643016
1774657521120683500,16.06268359375,0.0001527161948615685,0.008399390615522861,-0.003970621153712273
1774657521137472500,16.079472412109375,0.0038179049734026194,0.009621120058000088,0.0015271619195118546
1774657521154261800,16.09626171875,0.0025961752980947495,0.009621120058000088,-0.007024944759905338
1774657521171051000,16.113051025390625,0.005039634648710489,0.007788525894284248,0.0021380267571657896
1774657521187840300,16.12984033203125,-0.00045814859913662076,0.005955931730568409,-0.008857538923621178
1774657521204629500,16.14662939453125,-0.002901607658714056,0.001679878099821508,-0.0015271619195118546
1774657521221418500,16.16341845703125,-0.005345067009329796,0.0010690133785828948,-0.014966187067329884
1774657521238207700,16.180207763671874,-0.009621120058000088,-0.0007635809597559273,-0.01802051067352295
1774657521254997000,16.1969970703125,-0.00045814859913662076,-0.0038179049734026194,-0.006414080038666725
1774657521271786200,16.2137861328125,-0.007177661173045635,0.002290742937475443,-0.005803215317428112
1774657521288575500,16.230575439453126,0.011759147047996521,-0.0013744457392022014,-0.010079269297420979
1774657521305364700,16.24736474609375,0.007483093533664942,0.007177661173045635,-0.04367683082818985
1774657521322154000,16.264154052734376,0.01359174121171236,0.001679878099821508,-0.007635809946805239
1774657521338943200,16.280943115234376,0.008704823441803455,0.002901607658714056,-0.011300998739898205
1774657521355732200,16.297732177734375,0.005039634648710489,-0.0038179049734026194,0.004581485874950886
1774657521372521500,16.314521484375,0.008704823441803455,-0.0038179049734026194,-0.025961752980947495
1774657521389310700,16.331310791015625,-0.008399390615522861,-0.005650499369949102,0.0021380267571657896
1774657521406100000,16.348099853515624,0.008704823441803455,-0.014202605932950974,-0.013744457624852657
1774657521422889200,16.36488916015625,-0.004734201822429895,-0.005650499369949102,-0.015577051788568497
1774657521439678500,16.381678466796874,-0.005955931730568409,-0.0007635809597559273,-0.0412333719432354
1774657521456467700,16.3984677734375,0.0062613640911877155,-0.0032070400193333626,-0.07605266571044922
1774657521473256700,16.415256591796876,-0.002290742937475443,-0.009315688163042068,0.054672397673130035
1774657521490046000,16.4320458984375,0.016646064817905426,-0.009926552884280682,0.0027488914784044027
1774657521506835200,16.448835205078126,-0.004123337101191282,0.007177661173045635,-0.04917461425065994
1774657521523624400,16.46562451171875,0.009926552884280682,-0.005039634648710489,0.014966187067329884
1774657521540413700,16.48241357421875,-0.001679878099821508,-0.0038179049734026194,0.007635809946805239
1774657521557203000,16.499202880859375,-0.00045814859913662076,-0.005650499369949102,-0.01435532234609127
1774657521573992000,16.515991943359374,-0.002290742937475443,-0.005650499369949102,-0.003359756199643016
1774657521590781200,16.53278125,-0.006566796451807022,-0.0001527161948615685,-0.016187917441129684
1774657521607570400,16.5495703125,-0.004734201822429895,0.001679878099821508,-0.010690134018659592
1774657521624359700,16.566359619140623,-0.0102319847792387,0.002290742937475443,0.010079269297420979
1774657521641149000,16.58314892578125,0.009315688163042068,-0.005039634648710489,0.004581485874950886
1774657521657938200,16.599938232421874,-0.001679878099821508,-0.0007635809597559273,0.02107483521103859
1774657521674727400,16.6167275390625,0.007483093533664942,0.004734201822429895,-0.0021380267571657896
1774657521691516400,16.633516357421875,-0.007788525894284248,0.005955931730568409,0.0021380267571657896
1774657521708305700,16.6503056640625,0.011759147047996521,-0.005039634648710489,0.0204639695584774
1774657521725095000,16.667094970703126,-0.011453714221715927,0.002901607658714056,0.0015271619195118546
1774657521741884200,16.68388427734375,-0.002290742937475443,-0.004428769461810589,0.008857538923621178
1774657521758673400,16.70067333984375,-0.009010255336761475,-0.0032070400193333626,0.026572618633508682
1774657521775462700,16.717462646484375,-0.011453714221715927,0.001679878099821508,0.022907428443431854
1774657521792252000,16.734251953125,0.0007635809597559273,-0.0025961752980947495,0.000305432389723137
1774657521809041200,16.751041259765625,-0.009010255336761475,0.008399390615522861,0.005192350596189499
1774657521825830100,16.767830078125,0.006872228812426329,-0.0001527161948615685,0.02107483521103859
1774657521842619400,16.784619384765627,0.008093958720564842,0.002290742937475443,0.024740023538470268
1774657521859408600,16.80140869140625,0.0019853105768561363,0.004123337101191282,0.011911863461136818
1774657521876198000,16.818197998046877,0.010537417605519295,-0.007483093533664942,0.005192350596189499
1774657521892987100,16.834987060546876,0.0013744457392022014,-0.0013744457392022014,0.005803215317428112
1774657521909776400,16.8517763671875,-0.006566796451807022,0.004123337101191282,-0.04306596517562866
1774657521926565400,16.8685654296875,0.0019853105768561363,-0.010537417605519295,0.01435532234609127
1774657521943354600,16.885354736328125,-0.005955931730568409,-0.004428769461810589,-0.025350889191031456
1774657521960144000,16.902143798828124,-0.001679878099821508,-0.009315688163042068,-0.022296564653515816
1774657521976933000,16.91893310546875,0.009315688163042068,-0.01359174121171236,0.026572618633508682
1774657521993722400,16.935722412109374,0.005039634648710489,0.0010690133785828948,-0.03145953640341759
1774657522010511600,16.95251171875,0.0062613640911877155,0.0010690133785828948,-0.007635809946805239
1774657522027300900,16.96930078125,0.009926552884280682,0.00045814859913662076,-0.00946840364485979
1774657522044090000,16.986090087890624,0.014202605932950974,-0.005650499369949102,-0.024740023538470268
1774657522060879400,17.00287939453125,0.007483093533664942,-0.004428769461810589,0.013744457624852657
1774657522077668400,17.01966845703125,0.0025961752980947495,-0.0038179049734026194,-0.013133592903614044
1774657522094457600,17.03645751953125,0.0062613640911877155,-0.008093958720564842,0.003359756199643016
1774657522111246800,17.053246826171875,-0.009010255336761475,-0.0007635809597559273,-0.0027488914784044027
1774657522128036000,17.0700361328125,-0.003512472379952669,-0.0013744457392022014,-0.008246674202382565
1774657522144825300,17.086825439453126,-0.007177661173045635,-0.0001527161948615685,0.007635809946805239
1774657522161614600,17.103614501953125,-0.002901607658714056,0.004734201822429895,-0.013133592903614044
1774657522178403800,17.12040380859375,-0.001679878099821508,0.005345067009329796,0.01435532234609127
1774657522195192800,17.13719287109375,-0.002901607658714056,0.010842849500477314,-0.005803215317428112
1774657522211982000,17.153982177734374,-0.002290742937475443,0.012675444595515728,-0.0015271619195118546
1774657522228771300,17.170771240234377,-0.002901607658714056,0.009010255336761475,0.006414080038666725
1774657522245560600,17.187560546875,-0.006566796451807022,0.007177661173045635,-0.007024944759905338
1774657522262349800,17.204349853515627,0.0038179049734026194,-0.0001527161948615685,0.003970621153712273
1774657522279138800,17.221138916015626,-0.012675444595515728,0.004123337101191282,0.011300998739898205
1774657522295928000,17.237927978515625,-0.009010255336761475,0.0010690133785828948,0.012522728182375431
1774657522312717300,17.25471728515625,-0.009621120058000088,0.008399390615522861,-0.022907428443431854
1774657522329506600,17.271506591796875,-0.00045814859913662076,-0.0001527161948615685,0.01435532234609127
1774657522346295800,17.2882958984375,-0.007177661173045635,0.004123337101191282,0.008246674202382565
1774657522363085000,17.3050849609375,0.005650499369949102,0.004734201822429895,-0.0009162971982732415
1774657522379874300,17.321874267578124,-0.005955931730568409,0.012675444595515728,0.0027488914784044027
1774657522396663600,17.33866357421875,0.0032070400193333626,0.005345067009329796,-0.013133592903614044
1774657522413452800,17.355452880859374,-0.00045814859913662076,0.001679878099821508,0.022907428443431854
1774657522430241800,17.37224169921875,0.0038179049734026194,-0.005039634648710489,0.03329212963581085
1774657522447031000,17.389031005859376,-0.009621120058000088,0.007788525894284248,-0.026572618633508682
1774657522463820300,17.4058203125,-0.004734201822429895,0.002901607658714056,-0.02107483521103859
1774657522480609500,17.422609619140626,-0.001679878099821508,-0.005039634648710489,0.012522728182375431
1774657522497398800,17.439398681640625,-0.002901607658714056,0.001679878099821508,-0.003970621153712273
1774657522514187800,17.456187744140625,-0.002290742937475443,0.003512472379952669,-0.0009162971982732415
1774657522530977300,17.472977294921876,-0.002901607658714056,0.004734201822429895,0.0021380267571657896
1774657522547766300,17.489766357421875,-0.002901607658714056,0.007788525894284248,0.014966187067329884
1774657522564555500,17.506555419921874,-0.002901607658714056,0.009010255336761475,-0.0027488914784044027
1774657522581344800,17.5233447265625,-0.00045814859913662076,0.003512472379952669,0.03390299528837204
1774657522598134000,17.540134033203124,-0.003512472379952669,0.004123337101191282,0.032681263983249664
1774657522614923300,17.55692333984375,-0.009621120058000088,0.011453714221715927,0.013133592903614044
1774657522631712500,17.57371240234375,-0.001679878099821508,-0.0013744457392022014,0.03451386094093323
1774657522648501500,17.59050146484375,-0.006566796451807022,0.011453714221715927,-0.0308486707508564
1774657522665290800,17.607290771484376,-0.0010690133785828948,0.002290742937475443,0.022296564653515816
1774657522682080000,17.624080078125,0.0001527161948615685,-0.0001527161948615685,0.007024944759905338
1774657522698869200,17.640869140625,-0.003512472379952669,0.003512472379952669,-0.007024944759905338
1774657522715658500,17.657658447265625,0.005039634648710489,-0.0019853105768561363,0.008857538923621178
1774657522732447700,17.67444775390625,0.0007635809597559273,-0.0025961752980947495,-0.018631376326084137
1774657522749237000,17.691237060546875,0.0062613640911877155,-0.006872228812426329,0.016187917441129684
1774657522766026000,17.70802587890625,0.0013744457392022014,-0.005650499369949102,0.010690134018659592
1774657522782815200,17.724815185546873,0.005039634648710489,-0.0062613640911877155,0.008246674202382565
1774657522799604500,17.7416044921875,0.0025961752980947495,-0.0062613640911877155,0.016187917441129684
1774657522816393700,17.758393798828124,0.0038179049734026194,-0.006872228812426329,0.004581485874950886
1774657522833183000,17.775182861328126,0.005039634648710489,-0.005039634648710489,-0.0009162971982732415
1774657522849972200,17.79197216796875,0.007483093533664942,-0.0038179049734026194,-0.003359756199643016
1774657522866761200,17.80876123046875,0.0025961752980947495,-0.0032070400193333626,-0.0021380267571657896
1774657522883550500,17.825550537109375,0.004428769461810589,-0.0025961752980947495,0.003970621153712273
1774657522900339700,17.842339599609375,0.0019853105768561363,-0.0032070400193333626,-0.0009162971982732415
1774657522917129000,17.85912890625,0.0013744457392022014,-0.005039634648710489,0.011300998739898205
1774657522933918200,17.875918212890625,-0.002290742937475443,0.00045814859913662076,-0.010690134018659592
1774657522950707500,17.89270751953125,-0.005955931730568409,-0.0019853105768561363,-0.010690134018659592
1774657522967496700,17.90949658203125,0.0013744457392022014,-0.0013744457392022014,-0.008246674202382565
1774657522984285700,17.92628564453125,-0.005345067009329796,0.003512472379952669,-0.012522728182375431
1774657523001075000,17.943074951171877,0.0001527161948615685,0.003512472379952669,-0.004581485874950886
1774657523017864200,17.9598642578125,-0.004123337101191282,0.008399390615522861,0.0027488914784044027
1774657523034653400,17.9766533203125,0.0007635809597559273,0.004734201822429895,0.006414080038666725
1774657523051442700,17.993442626953126,-0.005345067009329796,0.0102319847792387,0.019242240116000175
1774657523068232000,18.01023193359375,-0.001679878099821508,0.008399390615522861,-0.000305432389723137
1774657523085021200,18.027021240234376,-0.008399390615522861,0.01206457894295454,-0.011911863461136818
1774657523101810200,18.04381005859375,-0.008399390615522861,0.01206457894295454,-0.0027488914784044027
1774657523118599400,18.060599365234374,-0.008399390615522861,0.007788525894284248,-0.004581485874950886
1774657523135388700,18.077388671875,-0.007177661173045635,0.005955931730568409,0.0021380267571657896
1774657523152178000,18.094177978515624,-0.005345067009329796,0.002901607658714056,0.007024944759905338
1774657523168967200,18.11096728515625,-0.002901607658714056,0.003512472379952669,-0.0015271619195118546
1774657523185756400,18.12775634765625,0.0001527161948615685,-0.0001527161948615685,0.010079269297420979
1774657523202545700,18.144545654296873,0.0019853105768561363,-0.0007635809597559273,-0.004581485874950886
1774657523219334700,18.161334716796876,0.0032070400193333626,-0.0025961752980947495,0.0015271619195118546
1774657523236124000,18.1781240234375,0.005039634648710489,-0.0032070400193333626,-0.005803215317428112
1774657523252913200,18.1949130859375,0.005650499369949102,-0.005039634648710489,-0.005803215317428112
1774657523269702400,18.211702392578125,0.0062613640911877155,-0.0032070400193333626,0.0021380267571657896
1774657523286491600,18.22849169921875,0.0007635809597559273,-0.0007635809597559273,-0.005192350596189499
1774657523303281000,18.245281005859376,0.005039634648710489,-0.0007635809597559273,0.007024944759905338
1774657523320070100,18.262070068359375,-0.007177661173045635,0.003512472379952669,-0.005803215317428112
1774657523336859100,18.278859130859374,0.0025961752980947495,-0.0007635809597559273,0.004581485874950886
1774657523353648400,18.2956484375,-0.007788525894284248,0.005345067009329796,-0.000305432389723137
1774657523370437600,18.312437744140624,-0.001679878099821508,0.002901607658714056,0.005192350596189499
1774657523387227000,18.329226806640627,-0.007788525894284248,0.004123337101191282,0.0027488914784044027
1774657523404016000,18.34601611328125,-0.00045814859913662076,0.001679878099821508,0.0009162971982732415
1774657523420805400,18.362805419921877,-0.004734201822429895,0.006566796451807022,-0.011911863461136818
1774657523437594600,18.3795947265625,0.0007635809597559273,0.001679878099821508,-0.0027488914784044027
1774657523454383600,18.396383544921875,0.0019853105768561363,-0.0007635809597559273,0.0027488914784044027
1774657523471172900,18.4131728515625,0.0019853105768561363,-0.0025961752980947495,-0.003359756199643016
1774657523487962000,18.429962158203125,0.005039634648710489,-0.006872228812426329,0.003359756199643016
1774657523504751400,18.44675146484375,0.005039634648710489,-0.0038179049734026194,-0.011300998739898205
1774657523521540600,18.46354052734375,0.004428769461810589,-0.004428769461810589,-0.0015271619195118546
1774657523538329600,18.48032958984375,0.0032070400193333626,-0.0032070400193333626,-0.011911863461136818
1774657523555118800,18.497118896484373,0.0013744457392022014,-0.0007635809597559273,-0.0021380267571657896
1774657523571908000,18.513908203125,0.0013744457392022014,-0.0007635809597559273,0.005192350596189499
1774657523588697300,18.530697265625,-0.002290742937475443,0.002901607658714056,-0.006414080038666725
1774657523605486600,18.547486572265626,-0.003512472379952669,0.006566796451807022,0.0027488914784044027
1774657523622275800,18.56427587890625,-0.004123337101191282,0.001679878099821508,-0.0021380267571657896
1774657523639065000,18.581065185546876,-0.006566796451807022,0.004734201822429895,0.010079269297420979
1774657523655854000,18.59785400390625,-0.005345067009329796,0.006566796451807022,0.005192350596189499
1774657523672643300,18.614643310546874,-0.003512472379952669,0.002290742937475443,-0.0021380267571657896
1774657523689432600,18.6314326171875,0.0025961752980947495,-0.0032070400193333626,0.01740964688360691
1774657523706221800,18.648221923828125,0.0007635809597559273,-0.004428769461810589,0.007024944759905338
1774657523723011000,18.665010986328124,-0.0010690133785828948,-0.0032070400193333626,0.004581485874950886
1774657523739800300,18.68180029296875,0.007483093533664942,-0.007483093533664942,0.011911863461136818
1774657523756589600,18.698589599609374,0.004428769461810589,-0.009315688163042068,0.005803215317428112
1774657523773378600,18.715378662109377,0.008704823441803455,-0.007483093533664942,0.004581485874950886
1774657523790167800,18.732167724609376,0.0019853105768561363,-0.0025961752980947495,-0.007024944759905338
1774657523806957000,18.74895703125,0.0007635809597559273,-0.005039634648710489,-0.003970621153712273
1774657523823746300,18.765746337890626,0.009315688163042068,-0.007483093533664942,-0.008857538923621178
1774657523840535600,18.78253564453125,-0.004123337101191282,-0.0038179049734026194,-0.007635809946805239
1774657523857324800,18.79932470703125,0.005039634648710489,-0.006872228812426329,0.011300998739898205
1774657523874114000,18.816114013671875,0.0007635809597559273,0.00045814859913662076,-0.013133592903614044
1774657523890903000,18.832903076171874,0.007483093533664942,-0.0062613640911877155,0.005192350596189499
1774657523907692300,18.8496923828125,-0.001679878099821508,-0.0001527161948615685,0.000305432389723137
1774657523924481500,18.8664814453125,0.0019853105768561363,-0.0032070400193333626,0.00946840364485979
1774657523941270800,18.883270751953123,-0.002901607658714056,-0.0007635809597559273,0.013744457624852657
1774657523958060000,18.90006005859375,0.005650499369949102,-0.005039634648710489,0.015577051788568497
1774657523974849000,18.91684912109375,-0.006566796451807022,0.005955931730568409,0.007635809946805239
1774657523991638300,18.93363818359375,-0.002290742937475443,0.003512472379952669,-0.01802051067352295
1774657524008427500,18.950427490234375,0.0001527161948615685,-0.0019853105768561363,0.006414080038666725
1774657524025216800,18.967216796875,-0.002901607658714056,0.001679878099821508,0.003359756199643016
1774657524042006000,18.984006103515625,0.007483093533664942,0.001679878099821508,-0.01802051067352295
1774657524058795300,19.000795166015624,-0.002901607658714056,-0.0013744457392022014,0.03145953640341759
1774657524075584500,19.01758447265625,0.006872228812426329,0.005955931730568409,-0.04978547990322113
1774657524092373500,19.03437353515625,0.0019853105768561363,-0.0025961752980947495,0.006414080038666725
1774657524109162800,19.051162841796874,0.006872228812426329,-0.005650499369949102,0.0027488914784044027
1774657524125952000,19.067951904296876,0.006872228812426329,-0.0019853105768561363,0.0009162971982732415
1774657524142741200,19.0847412109375,0.005039634648710489,-0.0032070400193333626,0.004581485874950886
1774657524159530500,19.101530517578126,0.011148282326757908,-0.009926552884280682,-0.004581485874950886
1774657524176319500,19.118319580078126,0.006872228812426329,-0.005039634648710489,0.008857538923621178
1774657524193108700,19.135108642578125,0.0001527161948615685,-0.0019853105768561363,-0.0308486707508564
1774657524209898000,19.15189794921875,0.004428769461810589,-0.0025961752980947495,0.012522728182375431
1774657524226687200,19.168687255859375,0.0013744457392022014,-0.005650499369949102,-0.010079269297420979
1774657524243476500,19.1854765625,-0.002901607658714056,0.009010255336761475,-0.022907428443431854
1774657524260265700,19.202265625,0.0019853105768561363,-0.0038179049734026194,-0.008857538923621178
1774657524277055000,19.219054931640624,-0.008399390615522861,0.003512472379952669,-0.000305432389723137
1774657524293844000,19.235843994140627,-0.007788525894284248,0.005955931730568409,-0.025350889191031456
1774657524310633200,19.25263330078125,0.0007635809597559273,-0.0032070400193333626,0.013744457624852657
1774657524327422500,19.26942236328125,-0.015729768201708794,0.011453714221715927,-0.010690134018659592
1774657524344211700,19.286211669921876,-0.00045814859913662076,0.002290742937475443,0.05345066636800766
1774657524361001000,19.3030009765625,-0.01206457894295454,0.008399390615522861,0.019242240116000175
1774657524377790200,19.319790283203126,0.0001527161948615685,0.009010255336761475,0.00946840364485979
1774657524394579500,19.336579345703125,-0.022449281066656113,0.018784092739224434,-0.005803215317428112
1774657524411368400,19.353368408203124,0.0007635809597559273,0.005345067009329796,-0.0009162971982732415
1774657524428157700,19.37015771484375,-0.01206457894295454,0.013897174037992954,0.013744457624852657
1774657524444947000,19.386947021484374,0.006872228812426329,0.004734201822429895,-0.01435532234609127
1774657524461736200,19.403736083984374,-0.007177661173045635,0.005345067009329796,0.0015271619195118546
1774657524478525400,19.420525390625,0.0019853105768561363,-0.0001527161948615685,-0.003970621153712273
1774657524495314400,19.437314453125,0.0032070400193333626,-0.007483093533664942,0.007024944759905338
1774657524512103700,19.454103759765626,0.0025961752980947495,-0.0013744457392022014,-0.010079269297420979
1774657524528893000,19.470892822265625,0.007483093533664942,-0.0062613640911877155,0.007024944759905338
1774657524545682200,19.48768212890625,0.0001527161948615685,-0.005650499369949102,0.003359756199643016
1774657524562471400,19.504471435546876,0.006872228812426329,-0.006872228812426329,0.006414080038666725
1774657524579260700,19.5212607421875,0.0013744457392022014,-0.005650499369949102,0.000305432389723137
1774657524596050000,19.5380498046875,0.009926552884280682,-0.007483093533664942,0.006414080038666725
1774657524612839000,19.5548388671875,0.0001527161948615685,-0.0038179049734026194,-0.007024944759905338
1774657524629628200,19.571628173828124,0.004428769461810589,-0.006872228812426329,0.0021380267571657896
1774657524646417400,19.58841748046875,-0.002901607658714056,0.002290742937475443,0.011300998739898205
1774657524663206700,19.60520654296875,0.005650499369949102,0.002901607658714056,-0.01740964688360691
1774657524679996000,19.621995849609377,-0.004123337101191282,0.004734201822429895,0.0027488914784044027
1774657524696785000,19.638784912109376,0.007483093533664942,-0.0032070400193333626,-0.000305432389723137
1774657524713574100,19.65557421875,-0.004123337101191282,0.003512472379952669,-0.003970621153712273
1774657524730363400,19.67236328125,0.0019853105768561363,0.0010690133785828948,0.003359756199643016
