time,seconds_elapsed,z,y,x
1775719649657570600,0.047570556640625,-0.4639434814453125,-0.855926513671875,0.106719970703125
1775719649667583700,0.057583740234375,-0.45684814453125,-0.871917724609375,0.1096954345703125
1775719649677596700,0.0675966796875,-0.4624481201171875,-0.8884429931640625,0.1181182861328125
1775719649687610600,0.077610595703125,-0.4676971435546875,-0.89813232421875,0.1288604736328125
1775719649697623800,0.087623779296875,-0.47210693359375,-0.89959716796875,0.139373779296875
1775719649707637500,0.097637451171875,-0.47821044921875,-0.9004974365234375,0.148956298828125
1775719649717650700,0.107650634765625,-0.4834136962890625,-0.8969879150390625,0.1612701416015625
1775719649727663900,0.117663818359375,-0.4829559326171875,-0.907958984375,0.172943115234375
1775719649737677600,0.127677490234375,-0.4638519287109375,-0.92877197265625,0.1849822998046875
1775719649747690800,0.137690673828125,-0.48211669921875,-0.956085205078125,0.192962646484375
1775719649757703400,0.147703369140625,-0.5124969482421875,-0.9841461181640625,0.1919403076171875
1775719649767717600,0.157717529296875,-0.53009033203125,-0.99609375,0.194976806640625
1775719649777730800,0.167730712890625,-0.552154541015625,-1.0011138916015625,0.185791015625
1775719649787743500,0.177743408203125,-0.52587890625,-0.9976043701171875,0.1595916748046875
1775719649797757700,0.1877578125,-0.5037841796875,-0.981903076171875,0.129547119140625
1775719649807770600,0.1977705078125,-0.5428466796875,-0.9649810791015625,0.1025848388671875
1775719649817783600,0.207783447265625,-0.5883331298828125,-1.00860595703125,0.12640380859375
1775719649827797800,0.2177978515625,-0.6336517333984375,-1.0351104736328125,0.1647491455078125
1775719649837810700,0.227810791015625,-0.5731353759765625,-0.980987548828125,0.181182861328125
1775719649847823600,0.23782373046875,-0.4667205810546875,-0.94390869140625,0.173004150390625
1775719649857837600,0.247837646484375,-0.4202880859375,-0.9168548583984375,0.160919189453125
1775719649867850500,0.2578505859375,-0.444488525390625,-0.884735107421875,0.16107177734375
1775719649877864700,0.26786474609375,-0.4857940673828125,-0.856292724609375,0.148773193359375
1775719649887877600,0.277877685546875,-0.477691650390625,-0.853271484375,0.12371826171875
1775719649897890600,0.287890625,-0.4619293212890625,-0.8651580810546875,0.086090087890625
1775719649907904500,0.297904541015625,-0.426605224609375,-0.8577880859375,0.0421600341796875
1775719649917917700,0.307917724609375,-0.4031219482421875,-0.8192291259765625,0.0010528564453125
1775719649927930600,0.3179306640625,-0.3298797607421875,-0.8448028564453125,0.01031494140625
1775719649937944600,0.327944580078125,-0.329345703125,-0.9322052001953125,0.1524200439453125
1775719649947957800,0.337957763671875,-0.452850341796875,-1.0173797607421875,0.292266845703125
1775719649957970700,0.347970703125,-0.5123138427734375,-0.9705352783203125,0.3164520263671875
1775719649967984600,0.357984619140625,-0.47271728515625,-0.863861083984375,0.244476318359375
1775719649977997600,0.36799755859375,-0.40081787109375,-0.842620849609375,0.1324615478515625
1775719649988010800,0.3780107421875,-0.3367767333984375,-0.8672332763671875,0.026214599609375
1775719649998024700,0.388024658203125,-0.2479400634765625,-0.8615875244140625,-0.039306640625
1775719650008037600,0.39803759765625,-0.1488800048828125,-0.85235595703125,-0.0635986328125
1775719650018050600,0.408050537109375,-0.07391357421875,-0.868499755859375,-0.0587158203125
1775719650028064800,0.418064697265625,-0.0601959228515625,-0.89251708984375,-0.0112457275390625
1775719650038077700,0.42807763671875,-0.0626678466796875,-0.9133453369140625,0.063018798828125
1775719650048091600,0.438091552734375,-0.0374298095703125,-0.923095703125,0.1309814453125
1775719650058104800,0.448104736328125,-0.00994873046875,-0.9072723388671875,0.1986083984375
1775719650068117500,0.458117431640625,0.0101470947265625,-0.88177490234375,0.2360382080078125
1775719650078131700,0.468131591796875,0.0265960693359375,-0.85906982421875,0.2523040771484375
1775719650088144600,0.47814453125,0.01715087890625,-0.83612060546875,0.2564239501953125
1775719650098157600,0.488157470703125,-0.0359649658203125,-0.8121795654296875,0.21002197265625
1775719650108171800,0.498171875,-0.077850341796875,-0.786895751953125,0.154815673828125
1775719650118184400,0.508184326171875,-0.078765869140625,-0.7742767333984375,0.1342315673828125
1775719650128197600,0.51819775390625,-0.04595947265625,-0.7415924072265625,0.162139892578125
1775719650138211800,0.5282119140625,-0.0197296142578125,-0.7047271728515625,0.212127685546875
1775719650148224500,0.538224609375,-0.0115203857421875,-0.7044525146484375,0.2636871337890625
1775719650158237700,0.54823779296875,0.0297698974609375,-0.69219970703125,0.2804718017578125
1775719650168251600,0.558251708984375,0.083740234375,-0.6612548828125,0.2960357666015625
1775719650178264600,0.5682646484375,0.1179046630859375,-0.6053314208984375,0.3290557861328125
1775719650188277800,0.57827783203125,0.11114501953125,-0.5597381591796875,0.3533935546875
1775719650198291700,0.588291748046875,0.071990966796875,-0.5143280029296875,0.3497467041015625
1775719650208304600,0.5983046875,-0.00323486328125,-0.4625244140625,0.3100128173828125
1775719650218317800,0.60831787109375,-0.0768280029296875,-0.427642822265625,0.269775390625
1775719650228331500,0.61833154296875,-0.1219024658203125,-0.40380859375,0.254119873046875
1775719650238344700,0.6283447265625,-0.1659088134765625,-0.375091552734375,0.2769927978515625
1775719650248358000,0.63835791015625,-0.198211669921875,-0.3504486083984375,0.2886505126953125
1775719650258371600,0.64837158203125,-0.18243408203125,-0.352203369140625,0.26409912109375
1775719650268384800,0.658384765625,-0.1503143310546875,-0.353790283203125,0.1922454833984375
1775719650278398700,0.668398681640625,-0.102386474609375,-0.369964599609375,0.0850830078125
1775719650288411600,0.67841162109375,-0.073486328125,-0.4015960693359375,0.0638275146484375
1775719650298424800,0.6884248046875,-0.056671142578125,-0.43951416015625,0.178131103515625
1775719650308438800,0.698438720703125,-0.019317626953125,-0.4615478515625,0.3354339599609375
1775719650318451700,0.70845166015625,0.0029296875,-0.4907989501953125,0.4212188720703125
1775719650328464600,0.718464599609375,0.017822265625,-0.54571533203125,0.3937225341796875
1775719650338478800,0.728478759765625,0.0822601318359375,-0.57122802734375,0.279571533203125
1775719650348491800,0.73849169921875,0.1065826416015625,-0.5971527099609375,0.1674041748046875
1775719650358504700,0.748504638671875,0.12628173828125,-0.635162353515625,0.10357666015625
1775719650368518700,0.7585185546875,0.17718505859375,-0.6543731689453125,0.102569580078125
1775719650378531600,0.768531494140625,0.1904449462890625,-0.6675262451171875,0.163909912109375
1775719650388544800,0.778544677734375,0.1276092529296875,-0.7027130126953125,0.250579833984375
1775719650398558700,0.788558837890625,0.0633544921875,-0.748016357421875,0.317962646484375
1775719650408571600,0.798571533203125,0.0357208251953125,-0.793792724609375,0.364532470703125
1775719650418584600,0.80858447265625,0.0661468505859375,-0.856842041015625,0.3748626708984375
1775719650428598500,0.8185986328125,0.128448486328125,-0.8966522216796875,0.3338165283203125
1775719650438611700,0.82861181640625,0.207244873046875,-0.930572509765625,0.2758331298828125
1775719650448624600,0.838624755859375,0.275482177734375,-0.9598388671875,0.2470550537109375
1775719650458638600,0.848638671875,0.2960968017578125,-0.975799560546875,0.2491302490234375
1775719650468651800,0.85865185546875,0.26788330078125,-1.00115966796875,0.2685546875
1775719650478665500,0.86866552734375,0.1971282958984375,-1.026397705078125,0.254425048828125
1775719650488678700,0.8786787109375,0.1308135986328125,-1.0622711181640625,0.21759033203125
1775719650498691800,0.88869189453125,0.0912017822265625,-1.113433837890625,0.2216949462890625
1775719650508705500,0.89870556640625,0.094818115234375,-1.144866943359375,0.252105712890625
1775719650518718700,0.90871875,0.1035919189453125,-1.1639556884765625,0.280487060546875
1775719650528731600,0.918731689453125,0.0919189453125,-1.1776885986328125,0.30035400390625
1775719650538745600,0.92874560546875,0.069915771484375,-1.1869049072265625,0.3076171875
1775719650548758800,0.9387587890625,0.048736572265625,-1.189178466796875,0.29083251953125
1775719650558771700,0.948771728515625,0.031951904296875,-1.1978302001953125,0.244415283203125
1775719650568785700,0.95878564453125,0.018157958984375,-1.2256622314453125,0.2145538330078125
1775719650578798800,0.968798828125,0.0162353515625,-1.2377471923828125,0.2022857666015625
1775719650588811500,0.9788115234375,0.0077667236328125,-1.234344482421875,0.191436767578125
1775719650598825700,0.98882568359375,-0.018096923828125,-1.2386627197265625,0.196441650390625
1775719650608839000,0.9988388671875,-0.047119140625,-1.2421417236328125,0.2087249755859375
1775719650618851600,1.0088515625,-0.04315185546875,-1.242584228515625,0.21893310546875
1775719650628865800,1.01886572265625,-0.0264434814453125,-1.23248291015625,0.2203369140625
1775719650638878500,1.02887841796875,-0.019500732421875,-1.216949462890625,0.2186431884765625
1775719650648891600,1.0388916015625,-0.0353546142578125,-1.2151947021484375,0.2089996337890625
1775719650658905900,1.04890576171875,-0.046844482421875,-1.2156982421875,0.175079345703125
1775719650668918500,1.05891845703125,-0.046661376953125,-1.2250213623046875,0.1460418701171875
1775719650678931700,1.068931640625,-0.0144195556640625,-1.227203369140625,0.1241455078125
1775719650688945700,1.078945556640625,0.0370025634765625,-1.2310791015625,0.1355743408203125
1775719650698958600,1.08895849609375,0.0798797607421875,-1.2201995849609375,0.1822662353515625
1775719650708972800,1.098972900390625,0.1043548583984375,-1.2085113525390625,0.226898193359375
1775719650718985700,1.10898583984375,0.1112060546875,-1.197265625,0.2498321533203125
1775719650728998700,1.11899853515625,0.094512939453125,-1.173065185546875,0.2764129638671875
1775719650739012600,1.1290126953125,0.0613250732421875,-1.1369476318359375,0.2949676513671875
1775719650749025500,1.139025634765625,0.0295257568359375,-1.09942626953125,0.2939605712890625
1775719650759038700,1.149038818359375,0.0012054443359375,-1.0763702392578125,0.27423095703125
1775719650769052700,1.159052734375,-0.0237274169921875,-1.0395660400390625,0.256805419921875
1775719650779065600,1.169065673828125,-0.035491943359375,-1.002899169921875,0.258453369140625
1775719650789078800,1.179078857421875,-0.03057861328125,-0.9788970947265625,0.2655487060546875
1775719650799092700,1.1890927734375,-0.019012451171875,-0.96533203125,0.2829437255859375
1775719650809105700,1.199105712890625,-0.0134735107421875,-0.9561309814453125,0.32672119140625
1775719650819118800,1.209118896484375,-0.00347900390625,-0.9432373046875,0.378814697265625
1775719650829132800,1.2191328125,0.0088958740234375,-0.9201507568359375,0.435272216796875
1775719650839145700,1.229145751953125,0.01025390625,-0.8968353271484375,0.49407958984375
1775719650849158700,1.23915869140625,0.002777099609375,-0.881805419921875,0.54144287109375
1775719650859172600,1.249172607421875,0.003875732421875,-0.863677978515625,0.5633087158203125
1775719650869185800,1.259185791015625,0.0177764892578125,-0.852874755859375,0.5531463623046875
1775719650879198700,1.26919873046875,0.0411529541015625,-0.866180419921875,0.493743896484375
1775719650889212700,1.279212646484375,0.0666656494140625,-0.89190673828125,0.4230194091796875
1775719650899225600,1.2892255859375,0.0872650146484375,-0.9080352783203125,0.371124267578125
1775719650909238500,1.299238525390625,0.1097564697265625,-0.927703857421875,0.33856201171875
1775719650919252700,1.309252685546875,0.122314453125,-0.9407806396484375,0.31982421875
1775719650929265700,1.319265625,0.122222900390625,-0.953277587890625,0.3486785888671875
1775719650939278600,1.329278564453125,0.09912109375,-0.9788055419921875,0.4020233154296875
1775719650949292500,1.33929248046875,0.0605926513671875,-0.9855499267578125,0.4607391357421875
1775719650959305700,1.3493056640625,-0.0012054443359375,-0.994415283203125,0.5425872802734375
1775719650969319700,1.359319580078125,-0.060272216796875,-1.0144805908203125,0.5582122802734375
1775719650979332600,1.36933251953125,-0.086151123046875,-1.0342559814453125,0.5022125244140625
1775719650989345800,1.379345703125,-0.0964813232421875,-1.07666015625,0.4560699462890625
1775719650999359500,1.389359375,-0.0659942626953125,-1.10394287109375,0.4199371337890625
1775719651009372700,1.39937255859375,-0.0198211669921875,-1.1261444091796875,0.4012603759765625
1775719651019385600,1.409385498046875,0.0320281982421875,-1.153076171875,0.3870391845703125
1775719651029399600,1.419399658203125,0.06268310546875,-1.188385009765625,0.3654022216796875
1775719651039412700,1.429412841796875,0.04925537109375,-1.199920654296875,0.3363800048828125
1775719651049425700,1.43942578125,-0.01129150390625,-1.211212158203125,0.35748291015625
1775719651059439600,1.449439697265625,-0.0904388427734375,-1.243743896484375,0.406494140625
1775719651069452800,1.459452880859375,-0.1236114501953125,-1.27093505859375,0.412841796875
1775719651079465700,1.4694658203125,-0.09942626953125,-1.2975616455078125,0.433258056640625
1775719651089479700,1.479479736328125,-0.1015472412109375,-1.32171630859375,0.5104217529296875
1775719651099492900,1.489492919921875,-0.08465576171875,-1.3253173828125,0.5783233642578125
1775719651109505500,1.499505615234375,-0.0544586181640625,-1.3258819580078125,0.6316986083984375
1775719651119519700,1.509519775390625,-0.0251617431640625,-1.336212158203125,0.708038330078125
1775719651129532700,1.51953271484375,0.03228759765625,-1.3572235107421875,0.8114166259765625
1775719651139545000,1.529545166015625,0.0992279052734375,-1.370361328125,0.900543212890625
1775719651149559000,1.53955908203125,0.1462249755859375,-1.3784637451171875,0.9271697998046875
1775719651159572200,1.549572265625,0.175079345703125,-1.361572265625,0.8661956787109375
1775719651169585000,1.5595849609375,0.154937744140625,-1.33978271484375,0.7709808349609375
1775719651179599000,1.56959912109375,0.1186676025390625,-1.30792236328125,0.7079925537109375
1775719651189612000,1.579612060546875,0.094573974609375,-1.2522735595703125,0.6871795654296875
1775719651199625000,1.589625,0.052398681640625,-1.189361572265625,0.6796875
1775719651209639200,1.59963916015625,-0.0117950439453125,-1.16082763671875,0.6994171142578125
1775719651219651800,1.60965185546875,-0.0482940673828125,-1.180419921875,0.738677978515625
1775719651229666000,1.619666015625,-0.0465850830078125,-1.1747589111328125,0.732666015625
1775719651239679000,1.629678955078125,-0.0166473388671875,-1.148040771484375,0.6663818359375
1775719651249692000,1.63969189453125,0.006500244140625,-1.1176300048828125,0.534210205078125
1775719651259706000,1.6497060546875,0.00701904296875,-1.1071319580078125,0.445953369140625
1775719651269719000,1.659718994140625,-0.0010833740234375,-1.103240966796875,0.4355316162109375
1775719651279732000,1.66973193359375,-0.0322418212890625,-1.0881805419921875,0.431304931640625
1775719651289746000,1.679745849609375,-0.0615234375,-1.0745391845703125,0.40008544921875
1775719651299758800,1.6897587890625,-0.0666046142578125,-1.0753021240234375,0.36163330078125
1775719651309772000,1.69977197265625,-0.0440521240234375,-1.0808258056640625,0.366180419921875
1775719651319786000,1.709785888671875,0.0068511962890625,-1.0867156982421875,0.380615234375
1775719651329799000,1.719798828125,0.0563812255859375,-1.0897979736328125,0.378173828125
1775719651339812000,1.72981201171875,0.0702972412109375,-1.1029205322265625,0.3962249755859375
1775719651349826000,1.739825927734375,0.071929931640625,-1.1073760986328125,0.4324951171875
1775719651359839000,1.7498388671875,0.0775299072265625,-1.113006591796875,0.48193359375
1775719651369852200,1.75985205078125,0.0711517333984375,-1.1107025146484375,0.5278167724609375
1775719651379866000,1.7698662109375,0.06982421875,-1.0915069580078125,0.5670623779296875
1775719651389879000,1.779879150390625,0.0789337158203125,-1.096343994140625,0.59967041015625
1775719651399892000,1.78989208984375,0.113800048828125,-1.1063690185546875,0.593780517578125
1775719651409906000,1.799906005859375,0.1545257568359375,-1.089752197265625,0.5602874755859375
1775719651419919000,1.809919189453125,0.1731414794921875,-1.0701751708984375,0.5154571533203125
1775719651429932000,1.81993212890625,0.144927978515625,-1.0484771728515625,0.46221923828125
1775719651439946000,1.829946044921875,0.08514404296875,-1.0127105712890625,0.4293670654296875
1775719651449959000,1.839958984375,0.036712646484375,-0.9834747314453125,0.4467010498046875
1775719651459971800,1.849971923828125,-0.0137939453125,-0.9819183349609375,0.515594482421875
1775719651469986000,1.859986083984375,-0.060821533203125,-0.9849090576171875,0.5838623046875
1775719651479999000,1.8699990234375,-0.0824737548828125,-0.9963836669921875,0.607635498046875
1775719651490012000,1.880011962890625,-0.0682525634765625,-0.991943359375,0.5710296630859375
1775719651500026000,1.890026123046875,-0.054107666015625,-0.9870758056640625,0.5018310546875
1775719651510039000,1.9000390625,-0.048187255859375,-0.9829254150390625,0.40966796875
1775719651520053000,1.910052978515625,-0.0446929931640625,-0.958709716796875,0.2923126220703125
1775719651530066000,1.92006591796875,-0.0714111328125,-0.9523468017578125,0.1793365478515625
1775719651540079000,1.9300791015625,-0.107879638671875,-0.9438629150390625,0.1099090576171875
1775719651550093000,1.940093017578125,-0.135284423828125,-0.9371337890625,0.106536865234375
1775719651560106000,1.95010595703125,-0.144439697265625,-0.9673004150390625,0.1457366943359375
1775719651570119000,1.960118896484375,-0.1177825927734375,-0.99462890625,0.1747283935546875
1775719651580132900,1.9701328125,-0.0418243408203125,-1.0139617919921875,0.1936187744140625
1775719651590146000,1.98014599609375,0.035614013671875,-1.0245513916015625,0.215484619140625
1775719651600159000,1.990158935546875,0.087432861328125,-1.01165771484375,0.22991943359375
1775719651610173000,2.0001728515625,0.1181640625,-1.0105133056640625,0.240692138671875
1775719651620186000,2.01018603515625,0.14056396484375,-1.00750732421875,0.220855712890625
1775719651630199000,2.020198974609375,0.1461029052734375,-0.9800262451171875,0.1945037841796875
1775719651640213000,2.030212890625,0.1341705322265625,-0.948638916015625,0.1834259033203125
1775719651650226200,2.04022607421875,0.12054443359375,-0.918487548828125,0.168304443359375
1775719651660239000,2.050239013671875,0.106170654296875,-0.8731536865234375,0.1607666015625
1775719651670253000,2.060253173828125,0.087890625,-0.811187744140625,0.1687774658203125
1775719651680266000,2.070265869140625,0.0624847412109375,-0.7568511962890625,0.1918182373046875
1775719651690279000,2.08027880859375,0.025146484375,-0.7276763916015625,0.220428466796875
1775719651700293000,2.090293212890625,-0.01593017578125,-0.691650390625,0.227783203125
1775719651710306000,2.10030615234375,-0.0435943603515625,-0.6583251953125,0.2243194580078125
1775719651720319000,2.110319091796875,-0.0576324462890625,-0.6431121826171875,0.2102813720703125
1775719651730333200,2.120333251953125,-0.055999755859375,-0.6335601806640625,0.1697845458984375
1775719651740345900,2.130345947265625,-0.0529937744140625,-0.6319580078125,0.1288299560546875
1775719651750359000,2.140359130859375,-0.0523529052734375,-0.626922607421875,0.099761962890625
1775719651760373000,2.150373046875,-0.0429840087890625,-0.6181640625,0.06488037109375
1775719651770386000,2.160385986328125,-0.0130462646484375,-0.6327972412109375,0.0269012451171875
1775719651780399000,2.170399169921875,0.009002685546875,-0.6553955078125,-0.002349853515625
1775719651790412800,2.180412841796875,0.045623779296875,-0.6612091064453125,-0.005950927734375
1775719651800426000,2.190426025390625,0.0892333984375,-0.68096923828125,0.040985107421875
1775719651810439200,2.200439208984375,0.1327056884765625,-0.6856231689453125,0.08062744140625
1775719651820452900,2.210452880859375,0.1710968017578125,-0.6840667724609375,0.10809326171875
1775719651830466000,2.220466064453125,0.1848297119140625,-0.685089111328125,0.1407623291015625
1775719651840480000,2.23047998046875,0.1650848388671875,-0.6912841796875,0.1591949462890625
1775719651850493000,2.240492919921875,0.1181488037109375,-0.6964874267578125,0.1455230712890625
1775719651860506000,2.250506103515625,0.06573486328125,-0.7202606201171875,0.115478515625
1775719651870520000,2.26052001953125,-0.00408935546875,-0.7373504638671875,0.073211669921875
1775719651880533000,2.270532958984375,-0.0395965576171875,-0.7615966796875,0.0483551025390625
1775719651890546200,2.280546142578125,-0.031158447265625,-0.7856597900390625,0.0693359375
1775719651900560000,2.290559814453125,0.013702392578125,-0.7991790771484375,0.1085968017578125
1775719651910573000,2.300572998046875,0.0693817138671875,-0.81365966796875,0.14398193359375
1775719651920586000,2.3105859375,0.1170501708984375,-0.8110809326171875,0.158111572265625
1775719651930600000,2.320599853515625,0.136383056640625,-0.81719970703125,0.1567230224609375
1775719651940613000,2.330613037109375,0.1155548095703125,-0.8165740966796875,0.1402740478515625
1775719651950626000,2.3406259765625,0.072113037109375,-0.803192138671875,0.150970458984375
1775719651960640000,2.350639892578125,0.0181884765625,-0.792938232421875,0.199554443359375
1775719651970653200,2.360653076171875,-0.0619964599609375,-0.77056884765625,0.250091552734375
1775719651980665900,2.370665771484375,-0.153106689453125,-0.7823333740234375,0.312255859375
1775719651990680000,2.38068017578125,-0.21673583984375,-0.7913665771484375,0.3464508056640625
1775719652000693000,2.39069287109375,-0.2436981201171875,-0.7918853759765625,0.3666534423828125
1775719652010706000,2.400705810546875,-0.233856201171875,-0.8107147216796875,0.3649139404296875
1775719652020720000,2.41072021484375,-0.192047119140625,-0.8187255859375,0.330535888671875
1775719652030733000,2.420733154296875,-0.14337158203125,-0.8302154541015625,0.282470703125
1775719652040746000,2.43074609375,-0.1149444580078125,-0.836944580078125,0.248382568359375
1775719652050760000,2.440760009765625,-0.10687255859375,-0.8372039794921875,0.237945556640625
1775719652060773000,2.450773193359375,-0.1198272705078125,-0.84246826171875,0.24298095703125
1775719652070786000,2.4607861328125,-0.16741943359375,-0.8384552001953125,0.26922607421875
1775719652080800000,2.470800048828125,-0.2507171630859375,-0.8616790771484375,0.288116455078125
1775719652090813000,2.48081298828125,-0.31927490234375,-0.86785888671875,0.2880706787109375
1775719652100826000,2.490826171875,-0.356201171875,-0.8768463134765625,0.2904510498046875
1775719652110840000,2.500840087890625,-0.357513427734375,-0.88543701171875,0.2930450439453125
1775719652120853000,2.51085302734375,-0.319091796875,-0.8890380859375,0.29522705078125
1775719652130866200,2.5208662109375,-0.2594146728515625,-0.896484375,0.3136444091796875
1775719652140880600,2.530880615234375,-0.2028961181640625,-0.901336669921875,0.32763671875
1775719652150893600,2.5408935546875,-0.161590576171875,-0.909759521484375,0.3378753662109375
1775719652160907800,2.55090771484375,-0.1255340576171875,-0.930206298828125,0.36529541015625
1775719652170920700,2.560920654296875,-0.0817413330078125,-0.9440765380859375,0.40277099609375
1775719652180933600,2.57093359375,-0.0545501708984375,-0.9531707763671875,0.4310302734375
1775719652190947600,2.580947509765625,-0.0577239990234375,-0.962371826171875,0.4431915283203125
1775719652200960500,2.59096044921875,-0.07415771484375,-0.958984375,0.4347381591796875
1775719652210973700,2.6009736328125,-0.1014556884765625,-0.9279327392578125,0.4158935546875
1775719652220987600,2.610987548828125,-0.1230010986328125,-0.9117279052734375,0.4123382568359375
1775719652231000600,2.62100048828125,-0.13916015625,-0.9114990234375,0.4164276123046875
1775719652241013500,2.631013427734375,-0.1542510986328125,-0.90875244140625,0.420989990234375
1775719652251027700,2.64102783203125,-0.1564788818359375,-0.9000396728515625,0.417724609375
1775719652261040600,2.65104052734375,-0.1328277587890625,-0.9033050537109375,0.4039306640625
1775719652271053600,2.661053466796875,-0.1099853515625,-0.894195556640625,0.3768768310546875
1775719652281067500,2.671067626953125,-0.108551025390625,-0.8909454345703125,0.34356689453125
1775719652291080700,2.681080810546875,-0.0936126708984375,-0.8946075439453125,0.323028564453125
1775719652301093600,2.69109375,-0.075897216796875,-0.9020538330078125,0.324798583984375
1775719652311107600,2.701107666015625,-0.0651092529296875,-0.91253662109375,0.341796875
1775719652321120800,2.711120849609375,-0.0641937255859375,-0.92626953125,0.3582305908203125
1775719652331133700,2.7211337890625,-0.0511932373046875,-0.93829345703125,0.36322021484375
1775719652341147600,2.731147705078125,-0.029998779296875,-0.94830322265625,0.3615570068359375
1775719652351160600,2.74116064453125,-0.0143890380859375,-0.956268310546875,0.3587493896484375
1775719652361173500,2.751173583984375,-0.0019073486328125,-0.958648681640625,0.35906982421875
1775719652371187700,2.761187744140625,0.0027618408203125,-0.9605560302734375,0.3614044189453125
1775719652381200600,2.77120068359375,0.0089111328125,-0.9558258056640625,0.3447418212890625
1775719652391213600,2.781213623046875,0.02655029296875,-0.9552764892578125,0.3094635009765625
1775719652401227800,2.791227783203125,0.04010009765625,-0.9504241943359375,0.2753753662109375
1775719652411240700,2.80124072265625,0.048004150390625,-0.944488525390625,0.264556884765625
1775719652421253600,2.811253662109375,0.0453948974609375,-0.945220947265625,0.2777862548828125
1775719652431267800,2.821267822265625,0.039031982421875,-0.9365234375,0.3009796142578125
1775719652441280500,2.831280517578125,0.033111572265625,-0.9296112060546875,0.3258209228515625
1775719652451293700,2.841293701171875,0.0332489013671875,-0.929656982421875,0.3473968505859375
1775719652461307600,2.8513076171875,0.0453033447265625,-0.9274139404296875,0.3516845703125
1775719652471320600,2.861320556640625,0.0535888671875,-0.92578125,0.343170166015625
1775719652481333800,2.871333740234375,0.0532073974609375,-0.9189453125,0.3332366943359375
1775719652491347500,2.881347412109375,0.0383148193359375,-0.921356201171875,0.3373565673828125
1775719652501360600,2.891360595703125,0.0203857421875,-0.92242431640625,0.3436431884765625
1775719652511374600,2.90137451171875,0.008575439453125,-0.9220733642578125,0.33685302734375
1775719652521387500,2.911387451171875,-0.0029144287109375,-0.92718505859375,0.3257904052734375
1775719652531400700,2.921400634765625,-0.013031005859375,-0.9334564208984375,0.318817138671875
1775719652541414700,2.93141455078125,-0.011474609375,-0.9409942626953125,0.328460693359375
1775719652551427600,2.941427490234375,-0.0012664794921875,-0.953704833984375,0.351226806640625
1775719652561440800,2.951440673828125,0.0048065185546875,-0.9644775390625,0.3680572509765625
1775719652571454500,2.961454345703125,0.005706787109375,-0.9730224609375,0.387542724609375
1775719652581467600,2.971467529296875,0.0035247802734375,-0.9851837158203125,0.400421142578125
1775719652591480800,2.981480712890625,0.0045928955078125,-0.9934234619140625,0.404327392578125
1775719652601494500,2.99149462890625,0.00665283203125,-1.0000762939453125,0.41180419921875
1775719652611507700,3.0015078125,0.00982666015625,-1.003814697265625,0.413116455078125
1775719652621520600,3.011520751953125,0.0080413818359375,-0.9959716796875,0.4015960693359375
1775719652631534600,3.02153466796875,0.0020904541015625,-0.9833526611328125,0.3848724365234375
1775719652641547800,3.0315478515625,-0.0168609619140625,-0.971099853515625,0.3656463623046875
1775719652651560400,3.041560546875,-0.0430450439453125,-0.9569091796875,0.3550567626953125
1775719652661574700,3.05157470703125,-0.0627593994140625,-0.9366912841796875,0.35980224609375
1775719652671587600,3.061587646484375,-0.07562255859375,-0.9145050048828125,0.3708953857421875
1775719652681600500,3.0716005859375,-0.0865936279296875,-0.89080810546875,0.3845367431640625
1775719652691614700,3.08161474609375,-0.091705322265625,-0.863616943359375,0.4006500244140625
1775719652701627600,3.091627685546875,-0.090362548828125,-0.846038818359375,0.4199066162109375
1775719652711640600,3.101640625,-0.0778350830078125,-0.8311309814453125,0.426300048828125
1775719652721654500,3.111654541015625,-0.0684051513671875,-0.8105926513671875,0.4203338623046875
1775719652731667700,3.121667724609375,-0.0635986328125,-0.79010009765625,0.40789794921875
1775719652741680600,3.1316806640625,-0.061370849609375,-0.775848388671875,0.393280029296875
1775719652751694600,3.141694580078125,-0.0642852783203125,-0.7635650634765625,0.3789520263671875
1775719652761707500,3.15170751953125,-0.0596466064453125,-0.7453460693359375,0.37103271484375
1775719652771720700,3.161720703125,-0.0694580078125,-0.7250823974609375,0.362701416015625
1775719652781734700,3.171734619140625,-0.0781707763671875,-0.701263427734375,0.3484954833984375
1775719652791747600,3.18174755859375,-0.073394775390625,-0.678680419921875,0.335357666015625
1775719652801760800,3.1917607421875,-0.0633544921875,-0.65618896484375,0.33074951171875
1775719652811774700,3.201774658203125,-0.05218505859375,-0.6369171142578125,0.33135986328125
1775719652821787600,3.21178759765625,-0.0337066650390625,-0.6237335205078125,0.3221893310546875
1775719652831800600,3.221800537109375,-0.0162506103515625,-0.6059112548828125,0.3119964599609375
1775719652841814800,3.231814697265625,-0.024322509765625,-0.5924224853515625,0.3136138916015625
1775719652851827700,3.24182763671875,-0.05120849609375,-0.5805511474609375,0.310943603515625
1775719652861840600,3.251840576171875,-0.080230712890625,-0.57928466796875,0.3042144775390625
1775719652871854600,3.2618544921875,-0.09539794921875,-0.5841522216796875,0.2983856201171875
1775719652881867500,3.271867431640625,-0.0996856689453125,-0.589752197265625,0.2850189208984375
1775719652891880700,3.281880615234375,-0.107330322265625,-0.592437744140625,0.2659454345703125
1775719652901894700,3.291894775390625,-0.1367034912109375,-0.5958251953125,0.2459869384765625
1775719652911907600,3.301907470703125,-0.1681671142578125,-0.6161956787109375,0.232635498046875
1775719652921920500,3.31192041015625,-0.1855010986328125,-0.6480712890625,0.220245361328125
1775719652931934700,3.321934814453125,-0.1801605224609375,-0.681915283203125,0.209381103515625
1775719652941947600,3.33194775390625,-0.1603240966796875,-0.714019775390625,0.1954193115234375
1775719652951960600,3.341960693359375,-0.12408447265625,-0.74102783203125,0.1731414794921875
1775719652961974500,3.351974609375,-0.0887298583984375,-0.762603759765625,0.16131591796875
1775719652971987700,3.36198779296875,-0.065704345703125,-0.7947998046875,0.1270294189453125
1775719652982001700,3.372001708984375,-0.037322998046875,-0.813018798828125,0.0424652099609375
1775719652992014600,3.3820146484375,-0.0117645263671875,-0.8382415771484375,-0.04364013671875
1775719653002027800,3.39202783203125,0.001434326171875,-0.865081787109375,-0.0866546630859375
1775719653012041500,3.40204150390625,0.0135040283203125,-0.8879852294921875,-0.0751190185546875
1775719653022054700,3.4120546875,0.015106201171875,-0.904998779296875,-0.0270538330078125
1775719653032067600,3.422067626953125,-0.0018157958984375,-0.9128875732421875,0.0220184326171875
1775719653042081500,3.43208154296875,-0.0190582275390625,-0.9152374267578125,0.0601348876953125
1775719653052094700,3.4420947265625,-0.0106048583984375,-0.912841796875,0.074798583984375
1775719653062107600,3.452107666015625,0.02001953125,-0.912384033203125,0.0706939697265625
1775719653072121600,3.46212158203125,0.052001953125,-0.92138671875,0.088714599609375
1775719653082134800,3.472134765625,0.09442138671875,-0.9338836669921875,0.114776611328125
1775719653092147700,3.482147705078125,0.1255645751953125,-0.9448089599609375,0.1287689208984375
1775719653102161700,3.49216162109375,0.1515350341796875,-0.940155029296875,0.1120147705078125
1775719653112174800,3.5021748046875,0.178466796875,-0.9316253662109375,0.0805511474609375
1775719653122187500,3.5121875,0.1839141845703125,-0.93341064453125,0.0991058349609375
1775719653132201700,3.52220166015625,0.159820556640625,-0.937957763671875,0.1562652587890625
1775719653142214700,3.532214599609375,0.116973876953125,-0.9380340576171875,0.215576171875
1775719653152227600,3.5422275390625,0.08538818359375,-0.93670654296875,0.2789306640625
1775719653162241800,3.55224169921875,0.0758514404296875,-0.9351806640625,0.3271942138671875
1775719653172254500,3.56225439453125,0.0844573974609375,-0.936370849609375,0.3493194580078125
1775719653182267600,3.572267578125,0.084075927734375,-0.93975830078125,0.3697509765625
1775719653192281600,3.582281494140625,0.07501220703125,-0.941864013671875,0.3769378662109375
1775719653202294500,3.59229443359375,0.059814453125,-0.9465789794921875,0.360137939453125
1775719653212307700,3.6023076171875,0.045379638671875,-0.954437255859375,0.348724365234375
1775719653222321700,3.61232177734375,0.0173187255859375,-0.955474853515625,0.3410491943359375
1775719653232334600,3.62233447265625,-0.00250244140625,-0.9628753662109375,0.3392181396484375
1775719653242347800,3.63234765625,0.0037689208984375,-0.96563720703125,0.341705322265625
1775719653252361500,3.642361572265625,0.014862060546875,-0.969512939453125,0.3402557373046875
1775719653262374700,3.652374755859375,0.023193359375,-0.9762725830078125,0.317474365234375
1775719653272387800,3.662387939453125,0.01226806640625,-0.97821044921875,0.30078125
1775719653282401500,3.672401611328125,-0.00360107421875,-0.977752685546875,0.2892913818359375
1775719653292414700,3.682414794921875,-0.0236358642578125,-0.9705963134765625,0.2666778564453125
1775719653302427600,3.692427734375,-0.0411376953125,-0.959228515625,0.2642059326171875
1775719653312441600,3.702441650390625,-0.046905517578125,-0.968109130859375,0.3003387451171875
1775719653322454800,3.712454833984375,-0.035125732421875,-0.9792633056640625,0.334991455078125
1775719653332467500,3.722467529296875,-0.020721435546875,-0.9834442138671875,0.353057861328125
1775719653342481700,3.732481689453125,0.018890380859375,-0.9918060302734375,0.3547515869140625
1775719653352494600,3.74249462890625,0.0808563232421875,-0.9996490478515625,0.34417724609375
1775719653362507500,3.752507568359375,0.1334381103515625,-1.004547119140625,0.346282958984375
1775719653372521700,3.762521728515625,0.1638946533203125,-1.0080718994140625,0.3372802734375
1775719653382534700,3.77253466796875,0.1675262451171875,-0.99603271484375,0.3159027099609375
1775719653392547600,3.782547607421875,0.142730712890625,-0.9846954345703125,0.3063507080078125
1775719653402561800,3.792561767578125,0.09906005859375,-0.9696044921875,0.3016510009765625
1775719653412574500,3.802574462890625,0.0492095947265625,-0.9551544189453125,0.3074493408203125
1775719653422587600,3.812587646484375,0.0243988037109375,-0.9411163330078125,0.30908203125
1775719653432601600,3.8226015625,0.0447998046875,-0.943878173828125,0.3251190185546875
1775719653442614500,3.832614501953125,0.059661865234375,-0.9600830078125,0.383697509765625
1775719653452627700,3.842627685546875,0.0877838134765625,-0.9484405517578125,0.41845703125
1775719653462641700,3.8526416015625,0.1165771484375,-0.9430999755859375,0.402740478515625
1775719653472654600,3.862654541015625,0.1376495361328125,-0.9495086669921875,0.3707122802734375
1775719653482667800,3.872667724609375,0.1693572998046875,-0.948883056640625,0.3511810302734375
1775719653492681700,3.882681640625,0.187286376953125,-0.956024169921875,0.3502197265625
1775719653502694700,3.892694580078125,0.178863525390625,-0.981842041015625,0.373443603515625
1775719653512707600,3.90270751953125,0.150238037109375,-0.996612548828125,0.394073486328125
1775719653522721500,3.912721435546875,0.1085052490234375,-1.0121612548828125,0.3984375
1775719653532734700,3.922734619140625,0.0847930908203125,-1.0297698974609375,0.4127655029296875
1775719653542747600,3.93274755859375,0.07012939453125,-1.05438232421875,0.41632080078125
1775719653552761600,3.94276171875,0.0608978271484375,-1.0684814453125,0.4490509033203125
1775719653562774800,3.95277490234375,0.05682373046875,-1.0869598388671875,0.504974365234375
1775719653572787700,3.96278759765625,0.021148681640625,-1.115264892578125,0.53839111328125
1775719653582801700,3.9728017578125,-0.028900146484375,-1.15081787109375,0.541412353515625
1775719653592814600,3.982814697265625,-0.0615081787109375,-1.1851348876953125,0.5203399658203125
1775719653602827500,3.99282763671875,-0.0659942626953125,-1.2151336669921875,0.4928436279296875
1775719653612841700,4.002841796875,-0.055267333984375,-1.239990234375,0.47265625
1775719653622854700,4.012854736328125,-0.0437774658203125,-1.2779998779296875,0.4763946533203125
1775719653632867600,4.02286767578125,-0.03717041015625,-1.313720703125,0.500335693359375
1775719653642881500,4.032881591796875,-0.0301971435546875,-1.3532562255859375,0.510772705078125
1775719653652894700,4.042894775390625,-0.0167694091796875,-1.39923095703125,0.5193023681640625
1775719653662907600,4.05290771484375,-0.01080322265625,-1.4405059814453125,0.524383544921875
1775719653672921600,4.062921630859375,0.0106658935546875,-1.4590911865234375,0.5029144287109375
1775719653682934800,4.072934814453125,0.0569915771484375,-1.4813232421875,0.483123779296875
1775719653692947700,4.08294775390625,0.094970703125,-1.4962310791015625,0.464996337890625
1775719653702961700,4.092961669921875,0.0975189208984375,-1.5069122314453125,0.4382781982421875
1775719653712974600,4.102974609375,0.1004180908203125,-1.51739501953125,0.4327545166015625
1775719653722988500,4.112988525390625,0.1189727783203125,-1.5370941162109375,0.4800262451171875
1775719653733001700,4.123001708984375,0.1287994384765625,-1.5364227294921875,0.5340423583984375
1775719653743014700,4.1330146484375,0.122802734375,-1.5254669189453125,0.5884857177734375
1775719653753028600,4.143028564453125,0.0925140380859375,-1.502655029296875,0.5929412841796875
1775719653763041800,4.153041748046875,0.067535400390625,-1.4802703857421875,0.56292724609375
1775719653773054700,4.1630546875,0.062774658203125,-1.4680633544921875,0.5291748046875
1775719653783068700,4.173068603515625,0.0670013427734375,-1.45599365234375,0.497833251953125
1775719653793081900,4.183081787109375,0.07574462890625,-1.452178955078125,0.4928131103515625
1775719653803094500,4.193094482421875,0.077484130859375,-1.4339447021484375,0.5064239501953125
1775719653813108700,4.203108642578125,0.0716400146484375,-1.4112701416015625,0.5026092529296875
1775719653823121700,4.21312158203125,0.0562744140625,-1.3879547119140625,0.50714111328125
1775719653833134600,4.223134521484375,0.0428314208984375,-1.3564605712890625,0.5107574462890625
1775719653843148800,4.233148681640625,0.0111541748046875,-1.3143157958984375,0.4846038818359375
1775719653853161500,4.243161376953125,-0.0152435302734375,-1.266510009765625,0.4283294677734375
1775719653863174700,4.253174560546875,-0.0255584716796875,-1.2297821044921875,0.38214111328125
1775719653873188600,4.263188720703125,-0.02276611328125,-1.200164794921875,0.366790771484375
1775719653883201500,4.273201416015625,-0.02496337890625,-1.1797332763671875,0.3735504150390625
1775719653893214700,4.283214599609375,-0.038330078125,-1.15447998046875,0.3930511474609375
1775719653903228700,4.293228759765625,-0.0523529052734375,-1.135589599609375,0.4242706298828125
1775719653913241600,4.30324169921875,-0.050506591796875,-1.1135406494140625,0.4517059326171875
1775719653923254800,4.3132548828125,-0.0345458984375,-1.0967559814453125,0.4658355712890625
1775719653933268500,4.3232685546875,0.0010528564453125,-1.0754852294921875,0.4523773193359375
1775719653943281700,4.33328173828125,0.0443267822265625,-1.0454864501953125,0.4139862060546875
1775719653953294800,4.343294921875,0.0714874267578125,-1.0173187255859375,0.380859375
1775719653963308500,4.35330859375,0.082275390625,-0.9915008544921875,0.3557281494140625
1775719653973321700,4.36332177734375,0.0775909423828125,-0.9597930908203125,0.34967041015625
1775719653983334700,4.373334716796875,0.05047607421875,-0.93133544921875,0.36767578125
1775719653993348600,4.3833486328125,0.024566650390625,-0.9213714599609375,0.3950958251953125
1775719654003361800,4.39336181640625,0.0147552490234375,-0.9140472412109375,0.406402587890625
1775719654013374500,4.40337451171875,0.023956298828125,-0.908782958984375,0.4028472900390625
1775719654023388700,4.413388671875,0.0406646728515625,-0.9055633544921875,0.391845703125
1775719654033401600,4.423401611328125,0.0556488037109375,-0.89398193359375,0.3652191162109375
1775719654043414500,4.43341455078125,0.067840576171875,-0.8825225830078125,0.327056884765625
1775719654053428700,4.4434287109375,0.0671539306640625,-0.866363525390625,0.2960968017578125
1775719654063441700,4.453441650390625,0.0628814697265625,-0.8470306396484375,0.278533935546875
1775719654073454600,4.46345458984375,0.058502197265625,-0.83038330078125,0.28106689453125
1775719654083468800,4.47346875,0.0601959228515625,-0.8130340576171875,0.3043670654296875
1775719654093481500,4.4834814453125,0.0613250732421875,-0.8048095703125,0.3362274169921875
1775719654103494700,4.49349462890625,0.0542144775390625,-0.80853271484375,0.35992431640625
1775719654113508600,4.503508544921875,0.0387115478515625,-0.8127288818359375,0.3653411865234375
1775719654123521500,4.513521484375,0.033660888671875,-0.810821533203125,0.3383941650390625
1775719654133534700,4.52353466796875,0.0522003173828125,-0.8117523193359375,0.278228759765625
1775719654143548000,4.5335478515625,0.079742431640625,-0.8118896484375,0.214569091796875
1775719654153561000,4.54356103515625,0.107421875,-0.8244781494140625,0.1907806396484375
1775719654163574000,4.553573974609375,0.1293792724609375,-0.84844970703125,0.1952362060546875
1775719654173588000,4.563587890625,0.1617279052734375,-0.862701416015625,0.207977294921875
1775719654183601200,4.57360107421875,0.201995849609375,-0.8568572998046875,0.2288818359375
1775719654193614000,4.583614013671875,0.2264862060546875,-0.837249755859375,0.2631072998046875
1775719654203628000,4.5936279296875,0.217864990234375,-0.8298492431640625,0.303741455078125
1775719654213641200,4.60364111328125,0.1674652099609375,-0.797698974609375,0.33026123046875
1775719654223654100,4.613654052734375,0.0766143798828125,-0.783416748046875,0.3543853759765625
1775719654233668000,4.623668212890625,-0.0190887451171875,-0.7758331298828125,0.3605804443359375
1775719654243681000,4.633680908203125,-0.0797882080078125,-0.7575225830078125,0.3426971435546875
1775719654253694000,4.64369384765625,-0.0818023681640625,-0.7514801025390625,0.320343017578125
1775719654263708200,4.653708251953125,-0.040802001953125,-0.752685546875,0.2971649169921875
1775719654273721000,4.66372119140625,0.020904541015625,-0.752655029296875,0.2667388916015625
1775719654283734000,4.673734130859375,0.0809783935546875,-0.7682342529296875,0.2628326416015625
1775719654293748200,4.683748291015625,0.119232177734375,-0.7848052978515625,0.2717132568359375
1775719654303761000,4.693760986328125,0.13787841796875,-0.800384521484375,0.2811737060546875
1775719654313774000,4.703774169921875,0.1455078125,-0.806854248046875,0.2888336181640625
1775719654323788300,4.713788330078125,0.1450042724609375,-0.79583740234375,0.2892303466796875
1775719654333801000,4.723801025390625,0.1216888427734375,-0.7752685546875,0.2969207763671875
1775719654343814100,4.733814208984375,0.0788726806640625,-0.7633819580078125,0.3129119873046875
1775719654353827800,4.743827880859375,0.0214080810546875,-0.758148193359375,0.32037353515625
1775719654363841000,4.753841064453125,-0.0355377197265625,-0.7763671875,0.3137054443359375
1775719654373854200,4.763854248046875,-0.073577880859375,-0.801422119140625,0.292938232421875
1775719654383868000,4.773867919921875,-0.06866455078125,-0.8141326904296875,0.25677490234375
1775719654393881000,4.783881103515625,-0.0345611572265625,-0.8365936279296875,0.23907470703125
1775719654403894000,4.79389404296875,0.031097412109375,-0.854736328125,0.2425689697265625
1775719654413908000,4.803907958984375,0.1086578369140625,-0.869903564453125,0.2547607421875
1775719654423921200,4.813921142578125,0.1682891845703125,-0.88018798828125,0.27069091796875
1775719654433934000,4.82393408203125,0.2007904052734375,-0.8801422119140625,0.281280517578125
1775719654443948000,4.833947998046875,0.1982269287109375,-0.861846923828125,0.2878570556640625
1775719654453961200,4.843961181640625,0.1640167236328125,-0.8392791748046875,0.3076934814453125
1775719654463974000,4.853973876953125,0.115997314453125,-0.8170166015625,0.33697509765625
1775719654473988000,4.863988037109375,0.0462493896484375,-0.808441162109375,0.3631744384765625
1775719654484001300,4.874001220703125,-0.03741455078125,-0.8137054443359375,0.37811279296875
1775719654494014000,4.884013916015625,-0.1039581298828125,-0.81878662109375,0.3563995361328125
1775719654504028200,4.894028076171875,-0.117645263671875,-0.826629638671875,0.3096923828125
1775719654514040800,4.904040771484375,-0.08135986328125,-0.8349609375,0.2550048828125
1775719654524054000,4.914053955078125,-0.0221099853515625,-0.8433380126953125,0.1894683837890625
1775719654534068200,4.924068115234375,0.0322265625,-0.8619537353515625,0.1614990234375
1775719654544081000,4.934080810546875,0.0754547119140625,-0.87890625,0.177947998046875
1775719654554094000,4.944093994140625,0.089691162109375,-0.8849334716796875,0.2221527099609375
1775719654564108000,4.95410791015625,0.07220458984375,-0.887054443359375,0.2850494384765625
1775719654574121000,4.964120849609375,0.03863525390625,-0.8789215087890625,0.34344482421875
1775719654584134100,4.974134033203125,-0.006866455078125,-0.8614349365234375,0.3803253173828125
1775719654594148000,4.984148193359375,-0.0547027587890625,-0.844512939453125,0.3880462646484375
1775719654604161000,4.9941611328125,-0.09246826171875,-0.8246002197265625,0.3870697021484375
1775719654614174200,5.00417431640625,-0.1187591552734375,-0.8051300048828125,0.3934478759765625
1775719654624188000,5.01418798828125,-0.137664794921875,-0.7891387939453125,0.400482177734375
1775719654634201000,5.024201171875,-0.139251708984375,-0.7831268310546875,0.3986358642578125
1775719654644214300,5.03421435546875,-0.12939453125,-0.78082275390625,0.369476318359375
1775719654654228000,5.04422802734375,-0.10931396484375,-0.7831573486328125,0.3310394287109375
1775719654664241200,5.0542412109375,-0.0878143310546875,-0.795501708984375,0.3294525146484375
1775719654674254000,5.064254150390625,-0.0743255615234375,-0.8012847900390625,0.3542938232421875
1775719654684268000,5.07426806640625,-0.0717315673828125,-0.819183349609375,0.3821868896484375
1775719654694281200,5.08428125,-0.0670928955078125,-0.8253173828125,0.401885986328125
1775719654704294000,5.0942939453125,-0.057464599609375,-0.8285675048828125,0.4115447998046875
1775719654714308000,5.10430810546875,-0.0449066162109375,-0.8251190185546875,0.4052734375
1775719654724321000,5.114321044921875,-0.051025390625,-0.816131591796875,0.3946380615234375
1775719654734334000,5.124333984375,-0.0648040771484375,-0.8052215576171875,0.374237060546875
1775719654744348200,5.13434814453125,-0.08306884765625,-0.7959442138671875,0.342987060546875
1775719654754361000,5.144361083984375,-0.1153106689453125,-0.7904510498046875,0.3248748779296875
1775719654764374000,5.1543740234375,-0.13031005859375,-0.7875213623046875,0.335174560546875
1775719654774388000,5.164387939453125,-0.132843017578125,-0.790557861328125,0.3523101806640625
1775719654784401200,5.174401123046875,-0.13873291015625,-0.7978057861328125,0.368682861328125
1775719654794414000,5.1844140625,-0.160858154296875,-0.8079681396484375,0.382720947265625
1775719654804428000,5.194427978515625,-0.1859588623046875,-0.8153839111328125,0.3830718994140625
1775719654814441000,5.20444091796875,-0.19525146484375,-0.8132781982421875,0.3695526123046875
1775719654824454100,5.2144541015625,-0.1634063720703125,-0.8039093017578125,0.3316192626953125
1775719654834468000,5.224468017578125,-0.11126708984375,-0.79681396484375,0.29083251953125
1775719654844481000,5.23448095703125,-0.0723114013671875,-0.80279541015625,0.262237548828125
1775719654854494200,5.244494140625,-0.0616912841796875,-0.821441650390625,0.2531585693359375
1775719654864508200,5.254508056640625,-0.0736846923828125,-0.837127685546875,0.271575927734375
1775719654874521000,5.26452099609375,-0.09930419921875,-0.867706298828125,0.292724609375
1775719654884534000,5.274533935546875,-0.1209564208984375,-0.8873138427734375,0.2906494140625
1775719654894548200,5.28454833984375,-0.12554931640625,-0.9031219482421875,0.2960357666015625
1775719654904561200,5.29456103515625,-0.1155548095703125,-0.9224700927734375,0.3195037841796875
1775719654914574000,5.304573974609375,-0.109893798828125,-0.940765380859375,0.335174560546875
1775719654924588000,5.314588134765625,-0.1021728515625,-0.9505615234375,0.3399658203125
1775719654934601000,5.32460107421875,-0.0811614990234375,-0.957183837890625,0.352447509765625
1775719654944614100,5.3346142578125,-0.0528411865234375,-0.9631500244140625,0.364349365234375
1775719654954628000,5.344628173828125,-0.0237884521484375,-0.9698944091796875,0.359466552734375
1775719654964641000,5.35464111328125,-0.002288818359375,-0.967681884765625,0.3502044677734375
1775719654974654000,5.364654052734375,0.006866455078125,-0.9735870361328125,0.35888671875
1775719654984668000,5.37466796875,-0.00286865234375,-0.98406982421875,0.37017822265625
1775719654994681000,5.38468115234375,-0.015472412109375,-0.983245849609375,0.37579345703125
1775719655004694000,5.394694091796875,-0.030029296875,-0.9821319580078125,0.38775634765625
1775719655014708000,5.4047080078125,-0.048431396484375,-0.9806671142578125,0.392974853515625
1775719655024721200,5.41472119140625,-0.06451416015625,-0.9874114990234375,0.3997802734375
1775719655034734000,5.424734130859375,-0.065704345703125,-1.0015869140625,0.3936767578125
1775719655044748000,5.434748046875,-0.0476226806640625,-1.010040283203125,0.3739471435546875
1775719655054761200,5.44476123046875,-0.02850341796875,-1.013946533203125,0.3554229736328125
1775719655064774100,5.454774169921875,-0.0233612060546875,-1.0116729736328125,0.33685302734375
1775719655074788000,5.4647880859375,-0.0213165283203125,-1.01422119140625,0.3189697265625
1775719655084801000,5.474801025390625,-0.01995849609375,-1.019317626953125,0.3081512451171875
1775719655094814000,5.48481396484375,-0.0296783447265625,-1.014190673828125,0.30194091796875
1775719655104828200,5.494828125,-0.0442657470703125,-1.004638671875,0.2960968017578125
1775719655114841000,5.504841064453125,-0.0654449462890625,-0.996856689453125,0.2894287109375
1775719655124854000,5.51485400390625,-0.089111328125,-0.985565185546875,0.28863525390625
1775719655134868200,5.5248681640625,-0.109222412109375,-0.974639892578125,0.2938385009765625
1775719655144882000,5.5348818359375,-0.1223602294921875,-0.96954345703125,0.2834930419921875
1775719655154895000,5.54489501953125,-0.1170501708984375,-0.9588775634765625,0.2534942626953125
1775719655164909000,5.554908935546875,-0.1094207763671875,-0.947265625,0.2373046875
1775719655174922000,5.564921875,-0.0943145751953125,-0.9387664794921875,0.2418060302734375
1775719655184935200,5.57493505859375,-0.07476806640625,-0.93939208984375,0.25152587890625
1775719655194947800,5.58494775390625,-0.0460357666015625,-0.9300079345703125,0.2366790771484375
1775719655204962000,5.594962158203125,-0.02301025390625,-0.92376708984375,0.21142578125
1775719655214975200,5.604975341796875,-0.0084991455078125,-0.919952392578125,0.2091522216796875
1775719655224988000,5.61498779296875,-0.003936767578125,-0.9225006103515625,0.2268524169921875
1775719655235002000,5.625002197265625,-0.0019683837890625,-0.9272613525390625,0.2470550537109375
1775719655245014800,5.635014892578125,0.0068206787109375,-0.9284820556640625,0.242279052734375
1775719655255028000,5.645028076171875,0.028411865234375,-0.9315643310546875,0.2256317138671875
1775719655265042200,5.655042236328125,0.032012939453125,-0.93365478515625,0.224700927734375
1775719655275054800,5.665054931640625,0.0265655517578125,-0.9341583251953125,0.2411041259765625
1775719655285068000,5.675068115234375,0.0134735107421875,-0.9412841796875,0.27069091796875
1775719655295082000,5.68508203125,0.00946044921875,-0.9460296630859375,0.2792816162109375
1775719655305095000,5.695094970703125,0.0241851806640625,-0.9478912353515625,0.252227783203125
1775719655315108000,5.705108154296875,0.04388427734375,-0.9508514404296875,0.232086181640625
1775719655325122000,5.7151220703125,0.0578460693359375,-0.9599151611328125,0.2368927001953125
1775719655335135000,5.725135009765625,0.0625,-0.9774017333984375,0.2437744140625
1775719655345148200,5.735148193359375,0.0666351318359375,-0.9805145263671875,0.2367706298828125
1775719655355161900,5.745161865234375,0.06884765625,-0.9820404052734375,0.2322235107421875
1775719655365175000,5.755175048828125,0.0638275146484375,-0.981414794921875,0.2305450439453125
1775719655375188200,5.765188232421875,0.0552215576171875,-0.9791412353515625,0.23162841796875
1775719655385202000,5.775201904296875,0.04119873046875,-0.9770355224609375,0.2310638427734375
1775719655395215000,5.785215087890625,0.028228759765625,-0.9768524169921875,0.234161376953125
1775719655405227800,5.795227783203125,0.0162506103515625,-0.97930908203125,0.2432708740234375
1775719655415242000,5.805241943359375,0.00830078125,-0.9848175048828125,0.2543182373046875
1775719655425255200,5.815255126953125,0.0037689208984375,-0.983673095703125,0.2565765380859375
1775719655435267800,5.825267822265625,0.0045166015625,-0.9835662841796875,0.2493133544921875
1775719655445282000,5.835281982421875,0.005889892578125,-0.980377197265625,0.246368408203125
1775719655455295000,5.845294921875,0.003875732421875,-0.9790191650390625,0.2501068115234375
1775719655465308000,5.855307861328125,0.0023040771484375,-0.9765777587890625,0.2578125
1775719655475322000,5.865322021484375,-0.00518798828125,-0.976531982421875,0.2692718505859375
1775719655485335000,5.8753349609375,-0.013153076171875,-0.9727325439453125,0.27130126953125
1775719655495348000,5.885347900390625,-0.0174407958984375,-0.97235107421875,0.2617340087890625
1775719655505362000,5.89536181640625,-0.028045654296875,-0.965972900390625,0.2494964599609375
1775719655515375000,5.905375,-0.0404510498046875,-0.9615478515625,0.2484283447265625
1775719655525388000,5.915387939453125,-0.0533905029296875,-0.957244873046875,0.2596282958984375
1775719655535402000,5.925402099609375,-0.0620880126953125,-0.9579620361328125,0.2794036865234375
1775719655545415000,5.935414794921875,-0.0624237060546875,-0.955413818359375,0.2993621826171875
1775719655555428000,5.945427978515625,-0.0643310546875,-0.952362060546875,0.3128509521484375
1775719655565442000,5.955442138671875,-0.064178466796875,-0.94989013671875,0.314300537109375
1775719655575455000,5.965455078125,-0.06280517578125,-0.944610595703125,0.3143310546875
1775719655585468200,5.97546826171875,-0.05853271484375,-0.9394073486328125,0.32037353515625
1775719655595482000,5.985482177734375,-0.04522705078125,-0.938690185546875,0.3178863525390625
1775719655605495000,5.9954951171875,-0.02960205078125,-0.9398651123046875,0.316131591796875
1775719655615508000,6.005508056640625,-0.027679443359375,-0.9384765625,0.322723388671875
1775719655625522200,6.015522216796875,-0.0379638671875,-0.9373321533203125,0.3257904052734375
1775719655635535000,6.02553515625,-0.0451507568359375,-0.933929443359375,0.3232269287109375
1775719655645548000,6.035548095703125,-0.0438995361328125,-0.92962646484375,0.32147216796875
1775719655655562000,6.04556201171875,-0.040557861328125,-0.92889404296875,0.3127593994140625
1775719655665575000,6.055574951171875,-0.0375213623046875,-0.930633544921875,0.2989959716796875
1775719655675588000,6.065588134765625,-0.0358428955078125,-0.9328460693359375,0.2938385009765625
1775719655685602000,6.07560205078125,-0.0317230224609375,-0.932861328125,0.29290771484375
1775719655695615000,6.085614990234375,-0.030364990234375,-0.9405059814453125,0.30035400390625
1775719655705628000,6.0956279296875,-0.02703857421875,-0.947021484375,0.311187744140625
1775719655715641900,6.105641845703125,-0.01837158203125,-0.9483795166015625,0.3209991455078125
1775719655725655000,6.115655029296875,-0.01324462890625,-0.951324462890625,0.3201446533203125
1775719655735668000,6.12566796875,-0.0118408203125,-0.9535980224609375,0.3098602294921875
1775719655745682000,6.135681884765625,-0.015716552734375,-0.9565277099609375,0.3005218505859375
1775719655755695000,6.145695068359375,-0.0179290771484375,-0.962493896484375,0.29901123046875
1775719655765708000,6.1557080078125,-0.01361083984375,-0.9678802490234375,0.29803466796875
1775719655775722000,6.165721923828125,-0.00494384765625,-0.96832275390625,0.303253173828125
1775719655785735200,6.175735107421875,0.000244140625,-0.9666595458984375,0.322021484375
1775719655795748000,6.185748046875,0.001953125,-0.9639129638671875,0.34375
1775719655805762000,6.195761962890625,0.0028228759765625,-0.9576873779296875,0.35150146484375
1775719655815775000,6.20577490234375,-0.00494384765625,-0.95343017578125,0.34844970703125
1775719655825788000,6.215787841796875,-0.0127105712890625,-0.9494781494140625,0.3389129638671875
1775719655835802000,6.225802001953125,-0.0091094970703125,-0.939453125,0.33514404296875
1775719655845815000,6.23581494140625,-0.009735107421875,-0.928680419921875,0.3436126708984375
1775719655855828000,6.245827880859375,-0.019256591796875,-0.9164581298828125,0.357696533203125
1775719655865842200,6.25584228515625,-0.024993896484375,-0.90447998046875,0.35791015625
1775719655875854800,6.265854736328125,-0.0204315185546875,-0.892791748046875,0.3462066650390625
1775719655885868000,6.275867919921875,-0.00555419921875,-0.87103271484375,0.3248138427734375
1775719655895882200,6.28588232421875,0.00738525390625,-0.85260009765625,0.3069305419921875
1775719655905895000,6.29589501953125,0.0185089111328125,-0.827362060546875,0.3005523681640625
1775719655915908000,6.305908203125,0.02130126953125,-0.799530029296875,0.3109283447265625
1775719655925921800,6.315921875,0.0137481689453125,-0.776641845703125,0.3311004638671875
1775719655935935000,6.32593505859375,0.0080108642578125,-0.7489166259765625,0.3459320068359375
1775719655945948200,6.3359482421875,-0.0004425048828125,-0.7285614013671875,0.3497314453125
1775719655955961000,6.345961181640625,-0.011474609375,-0.711883544921875,0.352294921875
1775719655965975000,6.35597509765625,-0.0203704833984375,-0.702606201171875,0.3584442138671875
1775719655975988000,6.365988037109375,-0.0220947265625,-0.69097900390625,0.363739013671875
1775719655986001000,6.3760009765625,-0.018096923828125,-0.685791015625,0.3646087646484375
1775719655996015000,6.38601513671875,-0.00994873046875,-0.684967041015625,0.35504150390625
1775719656006028000,6.396028076171875,0.0093536376953125,-0.683868408203125,0.3339080810546875
1775719656016041000,6.406041015625,0.0224456787109375,-0.683380126953125,0.3133697509765625
1775719656026055200,6.41605517578125,0.02862548828125,-0.675933837890625,0.3005828857421875
1775719656036067800,6.42606787109375,0.0088043212890625,-0.6721954345703125,0.2860260009765625
1775719656046081000,6.4360810546875,-0.017913818359375,-0.6741180419921875,0.2627105712890625
1775719656056095200,6.44609521484375,-0.05316162109375,-0.6768646240234375,0.24615478515625
1775719656066108000,6.45610791015625,-0.0735015869140625,-0.6800384521484375,0.2399749755859375
1775719656076121000,6.46612109375,-0.084716796875,-0.6831512451171875,0.2416534423828125
1775719656086134800,6.476134765625,-0.0863189697265625,-0.6915283203125,0.251617431640625
1775719656096148000,6.48614794921875,-0.0849761962890625,-0.704986572265625,0.2614288330078125
1775719656106161200,6.4961611328125,-0.0660400390625,-0.72296142578125,0.2708740234375
1775719656116174800,6.5061748046875,-0.03009033203125,-0.7426300048828125,0.2805023193359375
1775719656126188000,6.51618798828125,0.000579833984375,-0.7650299072265625,0.27996826171875
1775719656136201000,6.526200927734375,0.01226806640625,-0.7852783203125,0.2686004638671875
1775719656146214000,6.5362138671875,0.022796630859375,-0.802093505859375,0.2465667724609375
1775719656156227000,6.54622705078125,0.0281524658203125,-0.8133544921875,0.2217864990234375
1775719656166240000,6.556239990234375,0.0214385986328125,-0.821044921875,0.2103729248046875
1775719656176254000,6.56625390625,0.0065765380859375,-0.826751708984375,0.2126312255859375
1775719656186267100,6.57626708984375,-0.00811767578125,-0.830322265625,0.2248992919921875
1775719656196280000,6.586280029296875,-0.0221099853515625,-0.8432769775390625,0.2440338134765625
1775719656206294000,6.5962939453125,-0.0228424072265625,-0.85345458984375,0.266265869140625
1775719656216307200,6.60630712890625,-0.0067901611328125,-0.8639678955078125,0.2832183837890625
1775719656226320100,6.616320068359375,0.01727294921875,-0.875274658203125,0.286407470703125
1775719656236334000,6.626333984375,0.050811767578125,-0.8769073486328125,0.270751953125
1775719656246347000,6.636346923828125,0.0657806396484375,-0.880340576171875,0.2573699951171875
1775719656256360000,6.64635986328125,0.06488037109375,-0.8753662109375,0.2420654296875
1775719656266374100,6.6563740234375,0.06964111328125,-0.87542724609375,0.2438507080078125
1775719656276387000,6.666386962890625,0.0744171142578125,-0.8658905029296875,0.256500244140625
1775719656286400000,6.67639990234375,0.06488037109375,-0.861083984375,0.272216796875
1775719656296414200,6.686414306640625,0.0463714599609375,-0.8571319580078125,0.2945098876953125
1775719656306427000,6.696427001953125,0.0481719970703125,-0.8455352783203125,0.317718505859375
1775719656316440000,6.706440185546875,0.0701446533203125,-0.846649169921875,0.3434295654296875
1775719656326454300,6.716454345703125,0.0926055908203125,-0.8488311767578125,0.3621978759765625
1775719656336467000,6.726467041015625,0.107879638671875,-0.84765625,0.3671875
1775719656346480000,6.736480224609375,0.115997314453125,-0.8461456298828125,0.3743438720703125
1775719656356493800,6.746493896484375,0.107879638671875,-0.8592376708984375,0.392913818359375
1775719656366507000,6.756507080078125,0.0978851318359375,-0.870758056640625,0.39532470703125
1775719656376520200,6.766520263671875,0.1026153564453125,-0.878997802734375,0.3871002197265625
1775719656386534000,6.776533935546875,0.1099853515625,-0.889434814453125,0.37408447265625
1775719656396547000,6.786547119140625,0.115814208984375,-0.8919219970703125,0.3566131591796875
1775719656406560000,6.79656005859375,0.1081390380859375,-0.8922882080078125,0.3489227294921875
1775719656416573000,6.806572998046875,0.091766357421875,-0.9027557373046875,0.35626220703125
1775719656426587100,6.816587158203125,0.0654296875,-0.921173095703125,0.374755859375
1775719656436600000,6.82660009765625,0.0383758544921875,-0.93682861328125,0.379608154296875
1775719656446613000,6.836613037109375,0.021575927734375,-0.9469757080078125,0.3682403564453125
1775719656456627200,6.846627197265625,0.028167724609375,-0.964996337890625,0.360809326171875
1775719656466640000,6.856639892578125,0.056915283203125,-0.9860992431640625,0.357635498046875
1775719656476653000,6.866653076171875,0.0850067138671875,-1.003814697265625,0.3524932861328125
1775719656486667300,6.876667236328125,0.0957183837890625,-1.0241546630859375,0.34881591796875
1775719656496680000,6.886679931640625,0.096282958984375,-1.0338287353515625,0.3369598388671875
1775719656506693000,6.896693115234375,0.09539794921875,-1.0337677001953125,0.309356689453125
1775719656516706800,6.906706787109375,0.088836669921875,-1.0292510986328125,0.2858428955078125
1775719656526720000,6.916719970703125,0.0762786865234375,-1.026641845703125,0.2838287353515625
1775719656536733200,6.926733154296875,0.0601806640625,-1.025146484375,0.2764434814453125
1775719656546747000,6.936746826171875,0.0462188720703125,-1.0254974365234375,0.2777099609375
1775719656556760000,6.946760009765625,0.02716064453125,-1.0304718017578125,0.2964324951171875
1775719656566773200,6.956773193359375,-0.003204345703125,-1.0241546630859375,0.31451416015625
1775719656576787000,6.966786865234375,-0.0389556884765625,-1.0140533447265625,0.3190460205078125
1775719656586800000,6.976800048828125,-0.055511474609375,-1.01104736328125,0.3060150146484375
1775719656596813000,6.98681298828125,-0.0455322265625,-1.0209503173828125,0.3021087646484375
1775719656606827000,6.996826904296875,-0.023223876953125,-1.0374908447265625,0.3037872314453125
1775719656616840200,7.006840087890625,0.0129852294921875,-1.0492401123046875,0.2864837646484375
1775719656626852900,7.016852783203125,0.0688018798828125,-1.050262451171875,0.266448974609375
1775719656636867000,7.0268671875,0.1185302734375,-1.039886474609375,0.25653076171875
1775719656646880300,7.03688037109375,0.14044189453125,-1.02728271484375,0.250946044921875
1775719656656893000,7.046892822265625,0.1401519775390625,-1.01129150390625,0.2449493408203125
1775719656666907100,7.0569072265625,0.1219482421875,-0.9900360107421875,0.242950439453125
1775719656676920000,7.066920166015625,0.0825958251953125,-0.989990234375,0.2522430419921875
1775719656686933000,7.07693310546875,0.052276611328125,-0.9944000244140625,0.2752838134765625
1775719656696947200,7.086947265625,0.0646209716796875,-1.011444091796875,0.3181915283203125
1775719656706960000,7.0969599609375,0.107940673828125,-1.03033447265625,0.3660430908203125
1775719656716973000,7.10697314453125,0.1488037109375,-1.0476837158203125,0.39801025390625
1775719656726987000,7.116987060546875,0.1799468994140625,-1.051910400390625,0.4036712646484375
1775719656737000000,7.127,0.1757965087890625,-1.061309814453125,0.3687896728515625
1775719656747013000,7.13701318359375,0.13848876953125,-1.0672760009765625,0.3224029541015625
1775719656757027000,7.147027099609375,0.082855224609375,-1.0866851806640625,0.2756500244140625
1775719656767040000,7.1570400390625,0.032989501953125,-1.1138763427734375,0.2237091064453125
1775719656777053200,7.16705322265625,-0.0128631591796875,-1.133392333984375,0.1898040771484375
1775719656787067100,7.177067138671875,-0.03875732421875,-1.15533447265625,0.19927978515625
1775719656797080000,7.187080078125,-0.0406951904296875,-1.164825439453125,0.22882080078125
1775719656807093200,7.19709326171875,-0.0284881591796875,-1.1610107421875,0.2650909423828125
1775719656817106000,7.20710595703125,0.0010833740234375,-1.1414794921875,0.3069610595703125
1775719656827120000,7.2171201171875,0.0224456787109375,-1.1129302978515625,0.3305511474609375
1775719656837133000,7.227133056640625,0.035888671875,-1.0839385986328125,0.343902587890625
1775719656847146000,7.23714599609375,0.040191650390625,-1.069793701171875,0.368194580078125
1775719656857160200,7.24716015625,0.035186767578125,-1.0688018798828125,0.4005279541015625
1775719656867172900,7.2571728515625,0.0357513427734375,-1.0821685791015625,0.42889404296875
1775719656877186000,7.26718603515625,0.0418701171875,-1.101654052734375,0.46136474609375
1775719656887200000,7.277199951171875,0.0621337890625,-1.1134185791015625,0.502227783203125
1775719656897213000,7.287212890625,0.093170166015625,-1.1395416259765625,0.5559539794921875
1775719656907226000,7.29722607421875,0.1393890380859375,-1.1701507568359375,0.5896759033203125
1775719656917240000,7.307239990234375,0.1795196533203125,-1.186737060546875,0.5949859619140625
1775719656927253000,7.3172529296875,0.1863861083984375,-1.2036590576171875,0.5895843505859375
1775719656937266200,7.32726611328125,0.17474365234375,-1.232513427734375,0.581451416015625
1775719656947280100,7.337280029296875,0.1595458984375,-1.2605743408203125,0.573089599609375
1775719656957293000,7.34729296875,0.13983154296875,-1.29095458984375,0.59332275390625
1775719656967306200,7.35730615234375,0.1285247802734375,-1.3375244140625,0.6284332275390625
1775719656977320000,7.36731982421875,0.1400299072265625,-1.376495361328125,0.6467437744140625
1775719656987333000,7.3773330078125,0.1610565185546875,-1.4077606201171875,0.638702392578125
1775719656997346000,7.387345947265625,0.1724853515625,-1.4332122802734375,0.6082000732421875
1775719657007360000,7.397360107421875,0.17431640625,-1.449676513671875,0.539825439453125
1775719657017373200,7.407373291015625,0.1768035888671875,-1.472808837890625,0.4747161865234375
1775719657027385900,7.4173857421875,0.1699371337890625,-1.4936370849609375,0.4366455078125
1775719657037400000,7.427400146484375,0.146270751953125,-1.4912872314453125,0.4153900146484375
1775719657047413000,7.4374130859375,0.098663330078125,-1.487335205078125,0.427398681640625
1775719657057426000,7.447426025390625,0.0386962890625,-1.4754486083984375,0.4444732666015625
1775719657067440000,7.457440185546875,-0.0130767822265625,-1.4554901123046875,0.458740234375
1775719657077453000,7.467453125,-0.0439300537109375,-1.4430694580078125,0.4648895263671875
1775719657087466000,7.477466064453125,-0.068450927734375,-1.424835205078125,0.4522857666015625
1775719657097480000,7.48747998046875,-0.0834197998046875,-1.4084930419921875,0.4274749755859375
1775719657107493000,7.4974931640625,-0.08343505859375,-1.39178466796875,0.41455078125
1775719657117506000,7.507506103515625,-0.066497802734375,-1.3618011474609375,0.3745880126953125
1775719657127519200,7.517519287109375,-0.0478668212890625,-1.330047607421875,0.3187408447265625
1775719657137533000,7.527532958984375,-0.0313720703125,-1.29144287109375,0.2828216552734375
1775719657147547000,7.537546875,-0.012481689453125,-1.2504119873046875,0.251861572265625
1775719657157559800,7.547559814453125,-0.0019378662109375,-1.221099853515625,0.249755859375
1775719657167573800,7.55757373046875,0.00628662109375,-1.1998291015625,0.278656005859375
1775719657177586700,7.567586669921875,0.0087890625,-1.1731109619140625,0.313751220703125
1775719657187599600,7.577599609375,0.0176239013671875,-1.1445159912109375,0.3372802734375
1775719657197613800,7.58761376953125,0.04559326171875,-1.11444091796875,0.3545989990234375
1775719657207626800,7.597626708984375,0.070343017578125,-1.07867431640625,0.357818603515625
1775719657217639700,7.6076396484375,0.085662841796875,-1.0523529052734375,0.3496856689453125
1775719657227653600,7.617653564453125,0.0853729248046875,-1.0255279541015625,0.3484039306640625
1775719657237666800,7.627666748046875,0.074981689453125,-0.9976959228515625,0.3525848388671875
1775719657247679700,7.6376796875,0.0596160888671875,-0.9842987060546875,0.356658935546875
1775719657257693700,7.647693603515625,0.0586700439453125,-0.9683074951171875,0.3474578857421875
1775719657267707000,7.657706787109375,0.0521392822265625,-0.9497833251953125,0.338470458984375
1775719657277719800,7.6677197265625,0.0428466796875,-0.941314697265625,0.331451416015625
1775719657287733800,7.677733642578125,0.038330078125,-0.93475341796875,0.3261260986328125
1775719657297746700,7.68774658203125,0.038299560546875,-0.9282379150390625,0.3171539306640625
1775719657307759900,7.697759765625,0.04034423828125,-0.9187164306640625,0.296142578125
1775719657317773800,7.70777392578125,0.0482025146484375,-0.91265869140625,0.2858734130859375
1775719657327786800,7.717786865234375,0.0581512451171875,-0.9146728515625,0.2843170166015625
1775719657337799700,7.727799560546875,0.0641632080078125,-0.910614013671875,0.28021240234375
1775719657347814000,7.73781396484375,0.072113037109375,-0.9110565185546875,0.2707672119140625
1775719657357826800,7.747826904296875,0.0889739990234375,-0.90814208984375,0.251617431640625
1775719657367839700,7.75783984375,0.109039306640625,-0.90899658203125,0.218658447265625
1775719657377854000,7.76785400390625,0.130523681640625,-0.9077301025390625,0.18304443359375
1775719657387866600,7.77786669921875,0.1234283447265625,-0.9048919677734375,0.1540374755859375
1775719657397879800,7.7878798828125,0.0967254638671875,-0.90740966796875,0.1372528076171875
1775719657407893800,7.797893798828125,0.06890869140625,-0.9032745361328125,0.138519287109375
1775719657417906700,7.80790673828125,0.0453643798828125,-0.891265869140625,0.1539764404296875
1775719657427920000,7.817919921875,0.0302734375,-0.8870697021484375,0.18060302734375
1775719657437932800,7.827932861328125,0.024993896484375,-0.8813018798828125,0.1950225830078125
1775719657447946800,7.83794677734375,0.0431976318359375,-0.8660888671875,0.1869659423828125
1775719657457959700,7.847959716796875,0.078369140625,-0.851593017578125,0.1592254638671875
1775719657467972900,7.857972900390625,0.1185455322265625,-0.8328094482421875,0.1385040283203125
1775719657477986800,7.86798681640625,0.1500396728515625,-0.80938720703125,0.1473846435546875
1775719657487999700,7.877999755859375,0.15130615234375,-0.796875,0.1771240234375
1775719657498012700,7.8880126953125,0.1190338134765625,-0.785888671875,0.1990814208984375
1775719657508027000,7.89802685546875,0.063812255859375,-0.778961181640625,0.214935302734375
1775719657518039800,7.908039794921875,0.0158233642578125,-0.7659149169921875,0.2265167236328125
1775719657528052700,7.918052734375,-0.0216064453125,-0.7627410888671875,0.233154296875
1775719657538067000,7.92806689453125,-0.03704833984375,-0.7639007568359375,0.2171783447265625
1775719657548079600,7.93807958984375,-0.02490234375,-0.75933837890625,0.18756103515625
1775719657558092800,7.9480927734375,0.003265380859375,-0.7527618408203125,0.15643310546875
1775719657568106800,7.958106689453125,0.03875732421875,-0.7491912841796875,0.13018798828125
1775719657578119700,7.96811962890625,0.0793609619140625,-0.7458648681640625,0.1233673095703125
1775719657588132900,7.9781328125,0.11419677734375,-0.74310302734375,0.1419677734375
1775719657598146600,7.988146484375,0.12933349609375,-0.7481689453125,0.182403564453125
1775719657608159700,7.99815966796875,0.123321533203125,-0.757110595703125,0.221466064453125
1775719657618173000,8.0081728515625,0.092620849609375,-0.7644805908203125,0.243408203125
1775719657628186600,8.0181865234375,0.045623779296875,-0.775238037109375,0.2472381591796875
1775719657638199800,8.02819970703125,0.0074920654296875,-0.7721099853515625,0.234039306640625
1775719657648212700,8.038212646484375,-0.0113525390625,-0.762939453125,0.2054901123046875
1775719657658226700,8.048226806640624,-0.0202484130859375,-0.7499542236328125,0.1718902587890625
1775719657668240000,8.058239990234375,-0.0407257080078125,-0.7435455322265625,0.1341400146484375
1775719657678252800,8.068252685546875,-0.0400848388671875,-0.74359130859375,0.104095458984375
1775719657688265700,8.078265625,-0.010284423828125,-0.74566650390625,0.0963134765625
1775719657698280000,8.088280029296875,0.0285491943359375,-0.7496337890625,0.1012115478515625
1775719657708292600,8.098292724609376,0.063079833984375,-0.7571258544921875,0.1237335205078125
1775719657718305800,8.108305908203125,0.0961151123046875,-0.76397705078125,0.1671600341796875
1775719657728320000,8.118320068359376,0.106719970703125,-0.7734527587890625,0.22802734375
1775719657738332700,8.128332763671875,0.0873260498046875,-0.79583740234375,0.283966064453125
1775719657748345900,8.138345947265625,0.0526885986328125,-0.8057708740234375,0.3077545166015625
1775719657758359600,8.148359619140624,0.0176544189453125,-0.799713134765625,0.305908203125
1775719657768372700,8.158372802734375,-0.021331787109375,-0.805084228515625,0.28875732421875
1775719657778386000,8.168385986328126,-0.05499267578125,-0.7986907958984375,0.2655181884765625
1775719657788399600,8.178399658203125,-0.062164306640625,-0.794281005859375,0.2370147705078125
1775719657798412800,8.188412841796875,-0.04144287109375,-0.79071044921875,0.2156982421875
1775719657808425700,8.19842578125,-0.0091094970703125,-0.7965545654296875,0.221588134765625
1775719657818439700,8.208439697265625,0.023468017578125,-0.80511474609375,0.2294158935546875
1775719657828452900,8.218452880859376,0.0448150634765625,-0.8146209716796875,0.239013671875
1775719657838465800,8.2284658203125,0.055908203125,-0.8239593505859375,0.2667236328125
1775719657848479700,8.238479736328125,0.032196044921875,-0.841217041015625,0.3038330078125
1775719657858493000,8.248492919921874,-0.01690673828125,-0.8536529541015625,0.32647705078125
1775719657868505600,8.258505615234375,-0.054229736328125,-0.8553314208984375,0.323455810546875
1775719657878519800,8.268519775390626,-0.0614013671875,-0.857879638671875,0.3147125244140625
1775719657888533000,8.278532958984375,-0.050262451171875,-0.8548736572265625,0.295989990234375
1775719657898545700,8.288545654296875,-0.0320892333984375,-0.8513336181640625,0.2691650390625
1775719657908558800,8.298558837890624,-0.0149993896484375,-0.8523712158203125,0.2554931640625
1775719657918572500,8.308572509765625,0.0021514892578125,-0.85858154296875,0.250762939453125
1775719657928585700,8.318585693359376,0.0028076171875,-0.8737030029296875,0.239654541015625
1775719657938599000,8.328598876953125,0.002593994140625,-0.8784027099609375,0.23077392578125
1775719657948612600,8.338612548828126,0.0023651123046875,-0.8763427734375,0.2403411865234375
1775719657958625800,8.348625732421874,0.0030364990234375,-0.8720855712890625,0.26019287109375
1775719657968638700,8.358638671875,0.00323486328125,-0.8600311279296875,0.2769927978515625
1775719657978652700,8.368652587890624,-0.00250244140625,-0.8563995361328125,0.2875213623046875
1775719657988665900,8.378665771484375,-0.01495361328125,-0.8557586669921875,0.2850189208984375
1775719657998678800,8.3886787109375,-0.027374267578125,-0.8625946044921875,0.28271484375
1775719658008692700,8.398692626953125,-0.0331268310546875,-0.861907958984375,0.2789154052734375
1775719658018706000,8.408705810546875,-0.027740478515625,-0.8603668212890625,0.274322509765625
1775719658028718600,8.418718505859376,-0.008056640625,-0.8507843017578125,0.254180908203125
1775719658038732800,8.42873291015625,0.014129638671875,-0.83905029296875,0.2400054931640625
1775719658048746000,8.43874609375,0.0229949951171875,-0.84552001953125,0.258056640625
1775719658058758700,8.448758544921875,0.0206756591796875,-0.854644775390625,0.28668212890625
1775719658068772900,8.45877294921875,0.0182647705078125,-0.86053466796875,0.311981201171875
1775719658078785500,8.46878564453125,0.0172882080078125,-0.86553955078125,0.3373260498046875
1775719658088798700,8.478798828125,0.016754150390625,-0.87890625,0.353179931640625
1775719658098813000,8.48881298828125,0.018463134765625,-0.8919677734375,0.3507232666015625
1775719658108825600,8.49882568359375,0.0220947265625,-0.9053955078125,0.3465118408203125
1775719658118838800,8.5088388671875,0.023223876953125,-0.9163360595703125,0.3365936279296875
1775719658128851700,8.518851806640624,0.02496337890625,-0.936065673828125,0.327880859375
1775719658138865700,8.52886572265625,0.03240966796875,-0.9550018310546875,0.317962646484375
1775719658148879000,8.538879150390626,0.0442352294921875,-0.97125244140625,0.3056488037109375
1775719658158892000,8.54889208984375,0.0542144775390625,-0.99005126953125,0.294281005859375
1775719658168906000,8.558906005859376,0.0577392578125,-1.00299072265625,0.280517578125
1775719658178919200,8.568919189453124,0.059326171875,-1.0133209228515625,0.276214599609375
1775719658188931800,8.578931884765625,0.0475311279296875,-1.02838134765625,0.291534423828125
1775719658198946000,8.588946044921874,0.0302886962890625,-1.0373382568359375,0.3041229248046875
1775719658208959000,8.598958984375,0.0065765380859375,-1.04376220703125,0.3010406494140625
1775719658218972000,8.608971923828125,-0.0176849365234375,-1.0491790771484375,0.2842864990234375
1775719658228986000,8.618986083984375,-0.0351104736328125,-1.049530029296875,0.2618255615234375
1775719658238999000,8.6289990234375,-0.0483856201171875,-1.0429840087890625,0.236907958984375
1775719658249012000,8.639011962890624,-0.0579986572265625,-1.0433197021484375,0.221832275390625
1775719658259026200,8.649026123046875,-0.069732666015625,-1.04449462890625,0.22137451171875
1775719658269038800,8.659038818359376,-0.0639801025390625,-1.048370361328125,0.2187957763671875
1775719658279052000,8.669052001953125,-0.046539306640625,-1.0501708984375,0.203369140625
1775719658289066000,8.67906591796875,-0.021026611328125,-1.0522003173828125,0.1943817138671875
1775719658299079000,8.689078857421874,-0.0027923583984375,-1.055908203125,0.203094482421875
1775719658309092000,8.699092041015625,0.0070953369140625,-1.052825927734375,0.2120361328125
1775719658319106000,8.70910595703125,0.0110626220703125,-1.0413970947265625,0.2202606201171875
1775719658329119000,8.719118896484375,0.0076446533203125,-1.032501220703125,0.2265472412109375
1775719658339132200,8.729132080078125,-0.000244140625,-1.02325439453125,0.2284088134765625
1775719658349146000,8.73914599609375,-0.004913330078125,-1.0090484619140625,0.2200469970703125
1775719658359159000,8.749158935546875,0.002960205078125,-0.998779296875,0.2046051025390625
1775719658369172200,8.759172119140626,0.0075531005859375,-0.9930572509765625,0.18939208984375
1775719658379185000,8.769184814453125,0.0188140869140625,-0.983001708984375,0.1686859130859375
1775719658389199000,8.77919921875,0.0318756103515625,-0.97607421875,0.1547698974609375
1775719658399212000,8.7892119140625,0.0399169921875,-0.9697265625,0.1607666015625
1775719658409225000,8.799224853515625,0.0556182861328125,-0.9676513671875,0.175933837890625
1775719658419239200,8.8092392578125,0.069915771484375,-0.96282958984375,0.1932220458984375
1775719658429251800,8.819251953125,0.07830810546875,-0.957427978515625,0.2131195068359375
1775719658439265000,8.82926513671875,0.0828094482421875,-0.9553375244140625,0.23211669921875
1775719658449279000,8.839279052734375,0.0858612060546875,-0.95416259765625,0.251708984375
1775719658459292000,8.8492919921875,0.0895233154296875,-0.9456329345703125,0.26068115234375
1775719658469305000,8.85930517578125,0.0951080322265625,-0.941925048828125,0.260894775390625
1775719658479319000,8.869319091796875,0.0976715087890625,-0.93743896484375,0.246795654296875
1775719658489332000,8.87933203125,0.096221923828125,-0.930755615234375,0.2397308349609375
1775719658499345200,8.88934521484375,0.0908660888671875,-0.9286041259765625,0.237640380859375
1775719658509359000,8.899359130859375,0.0868377685546875,-0.92919921875,0.24700927734375
1775719658519372000,8.9093720703125,0.07843017578125,-0.9342498779296875,0.2622528076171875
1775719658529385200,8.91938525390625,0.0698699951171875,-0.935546875,0.2805938720703125
1775719658539399000,8.92939892578125,0.0547943115234375,-0.9380950927734375,0.297943115234375
1775719658549412000,8.939412109375,0.032379150390625,-0.939788818359375,0.2946929931640625
1775719658559425000,8.949425048828125,0.0018157958984375,-0.9391021728515625,0.2804412841796875
1775719658569438000,8.95943798828125,-0.0203399658203125,-0.9349822998046875,0.256500244140625
1775719658579452200,8.9694521484375,-0.0295867919921875,-0.9351043701171875,0.23590087890625
1775719658589464800,8.97946484375,-0.0311431884765625,-0.93572998046875,0.217803955078125
1775719658599478000,8.98947802734375,-0.023834228515625,-0.9384765625,0.212188720703125
1775719658609492000,8.999491943359375,-0.0094146728515625,-0.9469451904296875,0.2237548828125
1775719658619505000,9.0095048828125,0.00439453125,-0.9530487060546875,0.2378692626953125
1775719658629518000,9.01951806640625,0.013275146484375,-0.9596710205078125,0.255767822265625
1775719658639532000,9.029531982421876,0.018768310546875,-0.9677276611328125,0.27166748046875
1775719658649545000,9.039544921875,0.0214385986328125,-0.9674530029296875,0.27685546875
1775719658659558100,9.04955810546875,0.0218658447265625,-0.969818115234375,0.2750701904296875
1775719658669572000,9.059572021484374,0.01922607421875,-0.965301513671875,0.267852783203125
1775719658679585000,9.0695849609375,0.013275146484375,-0.9611358642578125,0.25689697265625
1775719658689598200,9.07959814453125,0.0086517333984375,-0.9568328857421875,0.2431182861328125
1775719658699612000,9.08961181640625,0.0075836181640625,-0.952911376953125,0.2393341064453125
1775719658709625000,9.099625,0.0030975341796875,-0.95159912109375,0.240570068359375
1775719658719638000,9.109637939453124,0.00079345703125,-0.9613800048828125,0.234039306640625
1775719658729652000,9.11965185546875,0.005584716796875,-0.9683380126953125,0.2286529541015625
1775719658739665200,9.1296650390625,0.01739501953125,-0.9688873291015625,0.2214508056640625
1775719658749678000,9.139677978515625,0.0382080078125,-0.975341796875,0.216217041015625
1775719658759691000,9.14969091796875,0.0579833984375,-0.9793548583984375,0.2179412841796875
1775719658769705000,9.159705078125,0.069732666015625,-0.9797210693359375,0.2266998291015625
1775719658779718000,9.1697177734375,0.066131591796875,-0.9798431396484375,0.2420196533203125
1775719658789731000,9.17973095703125,0.0566253662109375,-0.978240966796875,0.253631591796875
1775719658799745000,9.1897451171875,0.040374755859375,-0.9791717529296875,0.2550048828125
1775719658809758000,9.199758056640626,0.0247650146484375,-0.981170654296875,0.2398223876953125
1775719658819771100,9.209771240234375,0.0217437744140625,-0.982574462890625,0.217315673828125
1775719658829785000,9.21978515625,0.0240631103515625,-0.98297119140625,0.208892822265625
1775719658839798000,9.229798095703124,0.02783203125,-0.9798583984375,0.2068023681640625
1775719658849811200,9.239811279296875,0.0349578857421875,-0.981231689453125,0.2115325927734375
1775719658859825200,9.2498251953125,0.0452423095703125,-0.9825897216796875,0.21978759765625
1775719658869838000,9.259838134765625,0.0579376220703125,-0.9814453125,0.2185211181640625
1775719658879851000,9.26985107421875,0.0622100830078125,-0.983306884765625,0.208770751953125
1775719658889865000,9.279864990234374,0.0602874755859375,-0.9838104248046875,0.1937103271484375
1775719658899878100,9.289878173828125,0.0514068603515625,-0.984588623046875,0.1888275146484375
1775719658909891000,9.29989111328125,0.0417938232421875,-0.9819488525390625,0.193206787109375
1775719658919905000,9.309905029296875,0.028961181640625,-0.9824676513671875,0.205352783203125
1775719658929918000,9.31991796875,0.0179290771484375,-0.982269287109375,0.216400146484375
1775719658939931000,9.329930908203124,0.011871337890625,-0.97637939453125,0.2181243896484375
1775719658949944000,9.339944091796875,0.0143585205078125,-0.97412109375,0.2070770263671875
1775719658959958000,9.3499580078125,0.020111083984375,-0.97381591796875,0.1928253173828125
1775719658969971000,9.359970947265625,0.0344390869140625,-0.9765625,0.1814117431640625
1775719658979984100,9.369984130859375,0.055633544921875,-0.9739837646484375,0.1762542724609375
1775719658989998000,9.379998046875,0.0660858154296875,-0.975128173828125,0.1871185302734375
1775719659000011000,9.390010986328125,0.0683746337890625,-0.9774017333984375,0.2094879150390625
1775719659010024200,9.400024169921876,0.0659332275390625,-0.9777069091796875,0.21807861328125
1775719659020038100,9.4100380859375,0.0618896484375,-0.9782562255859375,0.2176666259765625
1775719659030051000,9.420051025390626,0.0601959228515625,-0.9780426025390625,0.213958740234375
1775719659040064000,9.43006396484375,0.0607452392578125,-0.9828033447265625,0.21783447265625
1775719659050078000,9.440077880859375,0.057373046875,-0.988189697265625,0.2269439697265625
1775719659060091100,9.450091064453124,0.05340576171875,-0.9991912841796875,0.2393341064453125
1775719659070104000,9.46010400390625,0.0637054443359375,-1.0090789794921875,0.25274658203125
1775719659080118000,9.470117919921876,0.0756378173828125,-1.0319366455078125,0.273223876953125
1775719659090131000,9.480130859375,0.0830078125,-1.0382232666015625,0.2849578857421875
1775719659100143900,9.490143798828125,0.078216552734375,-1.0513763427734375,0.2947235107421875
1775719659110158000,9.500157958984374,0.0618743896484375,-1.0647125244140625,0.3037567138671875
1775719659120171000,9.5101708984375,0.055694580078125,-1.0673828125,0.3026123046875
1775719659130184000,9.520183837890626,0.04278564453125,-1.064697265625,0.2890625
1775719659140197000,9.530197021484375,0.029876708984375,-1.065093994140625,0.2783355712890625
1775719659150210600,9.54021044921875,0.0186004638671875,-1.0589447021484375,0.2790679931640625
1775719659160223500,9.550223388671874,0.01043701171875,-1.05084228515625,0.2896270751953125
1775719659170236700,9.560236572265625,0.006103515625,-1.0428619384765625,0.295318603515625
1775719659180250400,9.57025048828125,0.011260986328125,-1.0338287353515625,0.2959442138671875
1775719659190263600,9.580263671875,0.027008056640625,-1.0211944580078125,0.2913970947265625
1775719659200276700,9.59027685546875,0.0487823486328125,-1.006378173828125,0.284759521484375
1775719659210290400,9.60029052734375,0.05328369140625,-0.998016357421875,0.2763519287109375
1775719659220303600,9.6103037109375,0.0499725341796875,-0.9853363037109375,0.2634735107421875
1775719659230316300,9.62031640625,0.0442047119140625,-0.964599609375,0.2574310302734375
1775719659240330500,9.63033056640625,0.03692626953125,-0.9427032470703125,0.2607574462890625
1775719659250343700,9.64034375,0.0321807861328125,-0.9241180419921875,0.2755584716796875
1775719659260356400,9.6503564453125,0.0308074951171875,-0.905670166015625,0.2972412109375
1775719659270370600,9.66037060546875,0.0281219482421875,-0.880828857421875,0.2982635498046875
1775719659280383500,9.670383544921876,0.0262298583984375,-0.8622894287109375,0.288055419921875
1775719659290396400,9.680396484375,0.02752685546875,-0.8405303955078125,0.2861480712890625
1775719659300409600,9.69040966796875,0.0396270751953125,-0.820281982421875,0.292694091796875
1775719659310423600,9.700423583984374,0.06036376953125,-0.799530029296875,0.2949066162109375
1775719659320436500,9.7104365234375,0.0823822021484375,-0.78173828125,0.2969512939453125
1775719659330449700,9.72044970703125,0.0984039306640625,-0.759735107421875,0.3063201904296875
1775719659340463400,9.73046337890625,0.1061859130859375,-0.7351531982421875,0.3182525634765625
1775719659350476500,9.7404765625,0.1018829345703125,-0.71533203125,0.3309478759765625
1775719659360489700,9.75048974609375,0.0932159423828125,-0.6934814453125,0.3358154296875
1775719659370503400,9.76050341796875,0.088470458984375,-0.6846160888671875,0.342620849609375
1775719659380516600,9.7705166015625,0.093841552734375,-0.66912841796875,0.3438873291015625
1775719659390529500,9.780529541015625,0.1046600341796875,-0.658203125,0.3426361083984375
1775719659400543500,9.79054345703125,0.1177978515625,-0.6539154052734375,0.3398895263671875
1775719659410556700,9.800556640625,0.1207275390625,-0.641754150390625,0.3231964111328125
1775719659420569300,9.8105693359375,0.1277618408203125,-0.6346435546875,0.296051025390625
1775719659430583600,9.82058349609375,0.1300201416015625,-0.625946044921875,0.27313232421875
1775719659440596500,9.830596435546875,0.1385650634765625,-0.6156005859375,0.264312744140625
1775719659450609400,9.840609375,0.14605712890625,-0.6128692626953125,0.267913818359375
1775719659460623600,9.85062353515625,0.148834228515625,-0.60052490234375,0.2797698974609375
1775719659470636500,9.860636474609375,0.14447021484375,-0.594146728515625,0.3040008544921875
1775719659480649500,9.8706494140625,0.13970947265625,-0.595062255859375,0.3201141357421875
1775719659490662700,9.88066259765625,0.1349029541015625,-0.5956268310546875,0.3262176513671875
1775719659500676600,9.890676513671876,0.1295928955078125,-0.6017608642578125,0.3180694580078125
1775719659510689500,9.900689453125,0.1154327392578125,-0.6117401123046875,0.3014984130859375
1775719659520702700,9.91070263671875,0.0934600830078125,-0.6218414306640625,0.2866668701171875
1775719659530716400,9.92071630859375,0.073577880859375,-0.642120361328125,0.2815093994140625
1775719659540729600,9.9307294921875,0.0621337890625,-0.6593780517578125,0.2739715576171875
1775719659550742500,9.940742431640626,0.0590667724609375,-0.6673431396484375,0.256317138671875
1775719659560756500,9.950756591796875,0.057403564453125,-0.690887451171875,0.2390594482421875
1775719659570769700,9.960769775390625,0.061920166015625,-0.711029052734375,0.2202606201171875
1775719659580782300,9.9707822265625,0.0684814453125,-0.731201171875,0.1909332275390625
1775719659590796500,9.980796630859375,0.0633392333984375,-0.7574310302734375,0.16064453125
1775719659600809500,9.9908095703125,0.04595947265625,-0.78558349609375,0.1309967041015625
1775719659610822400,10.000822509765625,0.0188446044921875,-0.8109130859375,0.0952911376953125
1775719659620836600,10.010836669921876,-0.0040283203125,-0.827301025390625,0.0518035888671875
1775719659630849500,10.020849609375,-0.0268096923828125,-0.8437957763671875,0.0152740478515625
1775719659640862500,10.030862548828125,-0.044158935546875,-0.867462158203125,0.001495361328125
1775719659650875600,10.040875732421876,-0.050811767578125,-0.8858184814453125,0.002899169921875
1775719659660889600,10.0508896484375,-0.047637939453125,-0.90167236328125,0.01226806640625
1775719659670902500,10.060902587890626,-0.02960205078125,-0.910919189453125,0.01116943359375
1775719659680915700,10.070915771484374,-0.006256103515625,-0.924041748046875,0.0151519775390625
1775719659690929400,10.080929443359375,0.0170135498046875,-0.9316558837890625,0.032135009765625
1775719659700942600,10.090942626953124,0.047149658203125,-0.9408721923828125,0.0546875
1775719659710955500,10.10095556640625,0.0746307373046875,-0.9485626220703125,0.08984375
1775719659720969500,10.110969482421876,0.09112548828125,-0.9618072509765625,0.1298828125
1775719659730982700,10.120982666015625,0.0928955078125,-0.9808197021484375,0.1628570556640625
1775719659740995300,10.130995361328125,0.0908966064453125,-1.0034637451171875,0.183990478515625
1775719659751009500,10.141009521484374,0.1028900146484375,-1.016204833984375,0.1784820556640625
1775719659761022500,10.1510224609375,0.130950927734375,-1.022674560546875,0.165496826171875
1775719659771035400,10.161035400390626,0.15704345703125,-1.0307464599609375,0.1629791259765625
1775719659781049600,10.171049560546875,0.1813201904296875,-1.0379180908203125,0.1609954833984375
1775719659791062500,10.1810625,0.197784423828125,-1.05389404296875,0.1591644287109375
1775719659801075500,10.191075439453124,0.2150115966796875,-1.0675201416015625,0.16131591796875
1775719659811088600,10.201088623046875,0.2206878662109375,-1.07818603515625,0.1746063232421875
1775719659821102600,10.2111025390625,0.2143707275390625,-1.087890625,0.190399169921875
1775719659831115500,10.221115478515625,0.1914215087890625,-1.0920867919921875,0.1942138671875
1775719659841128700,10.231128662109375,0.1483001708984375,-1.0854644775390625,0.186981201171875
1775719659851142400,10.241142333984374,0.0994415283203125,-1.086761474609375,0.1783294677734375
1775719659861155600,10.251155517578125,0.0557098388671875,-1.090362548828125,0.1641845703125
1775719659871168500,10.26116845703125,0.035247802734375,-1.087738037109375,0.142913818359375
1775719659881182500,10.271182373046875,0.027130126953125,-1.0965423583984375,0.125518798828125
1775719659891195600,10.281195556640625,0.0286102294921875,-1.102752685546875,0.1122589111328125
1775719659901208300,10.291208251953124,0.037384033203125,-1.105255126953125,0.1241455078125
1775719659911222500,10.301222412109375,0.042266845703125,-1.1029052734375,0.1526641845703125
1775719659921235500,10.3112353515625,0.04364013671875,-1.102813720703125,0.1837310791015625
1775719659931248400,10.321248291015625,0.044219970703125,-1.100616455078125,0.21173095703125
1775719659941262600,10.3312626953125,0.047607421875,-1.0980682373046875,0.2337188720703125
1775719659951275500,10.341275634765625,0.059783935546875,-1.1007080078125,0.2492828369140625
1775719659961288400,10.351288330078125,0.07159423828125,-1.110565185546875,0.2631683349609375
1775719659971301600,10.361301513671876,0.0708770751953125,-1.12969970703125,0.274688720703125
1775719659981315600,10.371315673828125,0.077301025390625,-1.1472320556640625,0.2701873779296875
1775719659991328500,10.38132861328125,0.0864715576171875,-1.16021728515625,0.2441558837890625
1775719660001341700,10.391341796875,0.0916900634765625,-1.1629486083984375,0.2049713134765625
1775719660011355400,10.40135546875,0.0910797119140625,-1.167449951171875,0.175537109375
1775719660021368600,10.41136865234375,0.076263427734375,-1.1598358154296875,0.1676025390625
1775719660031381500,10.421381591796875,0.05572509765625,-1.1503753662109375,0.1839599609375
1775719660041395500,10.4313955078125,0.0310516357421875,-1.144561767578125,0.2084197998046875
1775719660051408600,10.44140869140625,0.001800537109375,-1.1423187255859375,0.22802734375
1775719660061421600,10.451421630859375,-0.0283355712890625,-1.14013671875,0.231719970703125
1775719660071435500,10.461435546875,-0.033355712890625,-1.1316986083984375,0.2186126708984375
1775719660081448400,10.471448486328125,-0.0233001708984375,-1.1156768798828125,0.1988067626953125
1775719660091461400,10.48146142578125,-0.0203704833984375,-1.1012725830078125,0.1890411376953125
1775719660101475600,10.4914755859375,-0.027252197265625,-1.079986572265625,0.17974853515625
1775719660111488500,10.501488525390625,-0.0325164794921875,-1.068328857421875,0.1907501220703125
1775719660121501400,10.51150146484375,-0.0336761474609375,-1.0661773681640625,0.21234130859375
1775719660131514600,10.5215146484375,-0.015838623046875,-1.058837890625,0.2195587158203125
1775719660141528600,10.531528564453126,0.007110595703125,-1.0529937744140625,0.2251739501953125
1775719660151541000,10.541541015625,0.0358428955078125,-1.0539703369140625,0.241943359375
1775719660161554200,10.55155419921875,0.067779541015625,-1.047637939453125,0.2571258544921875
1775719660171568000,10.561568115234374,0.091705322265625,-1.0415191650390625,0.27203369140625
1775719660181581000,10.5715810546875,0.098052978515625,-1.0380859375,0.27471923828125
1775719660191594200,10.58159423828125,0.087432861328125,-1.042022705078125,0.2660369873046875
1775719660201608000,10.59160791015625,0.0719146728515625,-1.03411865234375,0.249603271484375
1775719660211621000,10.60162109375,0.0589599609375,-1.022491455078125,0.240020751953125
1775719660221634000,10.611634033203124,0.051544189453125,-1.016448974609375,0.24139404296875
1775719660231648000,10.62164794921875,0.050506591796875,-1.0086822509765625,0.2463226318359375
1775719660241661200,10.6316611328125,0.0625152587890625,-0.9995269775390625,0.26385498046875
1775719660251674000,10.641674072265625,0.077728271484375,-1.0028839111328125,0.2914581298828125
1775719660261688000,10.65168798828125,0.09661865234375,-1.0030059814453125,0.3157196044921875
1775719660271701000,10.661700927734374,0.107177734375,-1.0056304931640625,0.337066650390625
1775719660281714000,10.6717138671875,0.1062469482421875,-1.0076141357421875,0.3386993408203125
1775719660291727000,10.68172705078125,0.1033172607421875,-1.0062713623046875,0.3206634521484375
1775719660301741000,10.691740966796875,0.1048126220703125,-1.001312255859375,0.313690185546875
1775719660311754000,10.70175390625,0.1102447509765625,-0.9946441650390625,0.306854248046875
1775719660321767200,10.71176708984375,0.1046905517578125,-0.9869384765625,0.2942047119140625
1775719660331781000,10.721781005859375,0.096893310546875,-0.9692230224609375,0.2771759033203125
1775719660341794000,10.7317939453125,0.0972137451171875,-0.9553375244140625,0.2733001708984375
1775719660351807200,10.74180712890625,0.090087890625,-0.94805908203125,0.287994384765625
1775719660361821200,10.7518212890625,0.0742034912109375,-0.9506378173828125,0.3137969970703125
1775719660371834000,10.761834228515625,0.0522918701171875,-0.965057373046875,0.340728759765625
1775719660381847000,10.771846923828125,0.0430450439453125,-0.9654388427734375,0.350189208984375
1775719660391861000,10.781861083984374,0.043548583984375,-0.9645233154296875,0.3438262939453125
1775719660401874200,10.791874267578125,0.0679931640625,-0.968841552734375,0.3346405029296875
1775719660411887000,10.80188720703125,0.1279296875,-0.97528076171875,0.326751708984375
1775719660421901000,10.811901123046875,0.1821136474609375,-0.98388671875,0.3380889892578125
1775719660431914000,10.8219140625,0.2041473388671875,-0.986602783203125,0.345428466796875
1775719660441927000,10.831927001953124,0.1719512939453125,-0.993682861328125,0.3297882080078125
1775719660451940000,10.841940185546875,0.110504150390625,-0.9964141845703125,0.3215789794921875
1775719660461954000,10.8519541015625,0.0526885986328125,-0.9859619140625,0.32684326171875
1775719660471967000,10.861967041015625,0.008087158203125,-0.9767608642578125,0.3277587890625
1775719660481980200,10.871980224609375,-0.0249481201171875,-0.9537353515625,0.3404998779296875
1775719660491994000,10.881994140625,-0.0287933349609375,-0.9513397216796875,0.3558502197265625
1775719660502007000,10.892007080078125,-0.0029144287109375,-0.948883056640625,0.3785858154296875
1775719660512020200,10.902020263671876,0.0515899658203125,-0.9490509033203125,0.4095458984375
1775719660522034200,10.9120341796875,0.09991455078125,-0.9544525146484375,0.425628662109375
1775719660532047000,10.922047119140625,0.140899658203125,-0.9587554931640625,0.44000244140625
1775719660542060000,10.93206005859375,0.1675872802734375,-0.9533843994140625,0.4562835693359375
1775719660552074000,10.942073974609375,0.1832427978515625,-0.933868408203125,0.4536895751953125
1775719660562087200,10.952087158203126,0.17926025390625,-0.9141998291015625,0.44647216796875
1775719660572100000,10.96210009765625,0.1620025634765625,-0.8939208984375,0.4489898681640625
1775719660582114000,10.972114013671876,0.1453399658203125,-0.86993408203125,0.464447021484375
1775719660592127000,10.982126953125,0.1300811767578125,-0.85546875,0.4866790771484375
1775719660602140000,10.992139892578125,0.1112823486328125,-0.84503173828125,0.521026611328125
1775719660612154000,11.002154052734374,0.10272216796875,-0.840667724609375,0.5579833984375
1775719660622167000,11.0121669921875,0.1014556884765625,-0.84246826171875,0.5941314697265625
1775719660632180000,11.022179931640625,0.119720458984375,-0.837799072265625,0.60833740234375
1775719660642193200,11.032193115234374,0.166961669921875,-0.83258056640625,0.5843505859375
1775719660652207000,11.04220703125,0.192535400390625,-0.824005126953125,0.525909423828125
1775719660662220000,11.052219970703124,0.21075439453125,-0.81646728515625,0.4617767333984375
1775719660672233200,11.062233154296875,0.1722412109375,-0.826385498046875,0.43035888671875
1775719660682247200,11.0722470703125,0.1204681396484375,-0.856597900390625,0.413116455078125
1775719660692260000,11.082260009765625,0.088714599609375,-0.894866943359375,0.445098876953125
1775719660702273000,11.09227294921875,0.048248291015625,-0.925384521484375,0.5153045654296875
1775719660712287000,11.102286865234374,0.0211334228515625,-0.9682464599609375,0.5841827392578125
1775719660722300200,11.112300048828125,0.02117919921875,-1.0077667236328125,0.6468505859375
1775719660732313000,11.12231298828125,0.028167724609375,-1.0389862060546875,0.68389892578125
1775719660742327000,11.1323271484375,0.047149658203125,-1.076995849609375,0.679962158203125
1775719660752340000,11.142340087890625,0.0868682861328125,-1.10455322265625,0.6420135498046875
1775719660762353000,11.152352783203124,0.13470458984375,-1.1185455322265625,0.5888214111328125
1775719660772366000,11.162365966796875,0.17950439453125,-1.1309661865234375,0.527496337890625
1775719660782380000,11.172380126953126,0.20648193359375,-1.131317138671875,0.458984375
1775719660792393000,11.18239306640625,0.2000732421875,-1.1151123046875,0.4077911376953125
1775719660802406100,11.19240625,0.168121337890625,-1.1049041748046875,0.3811492919921875
1775719660812420000,11.202420166015624,0.120635986328125,-1.08343505859375,0.372650146484375
1775719660822433000,11.21243310546875,0.0758056640625,-1.05157470703125,0.403076171875
1775719660832446200,11.2224462890625,0.045562744140625,-1.03125,0.43853759765625
1775719660842460200,11.232460205078125,0.0430755615234375,-1.0101776123046875,0.4517822265625
1775719660852473000,11.24247314453125,0.0757904052734375,-1.009674072265625,0.4719390869140625
1775719660862486000,11.252486083984374,0.1172332763671875,-1.0094757080078125,0.4863128662109375
1775719660872500000,11.2625,0.161407470703125,-1.003997802734375,0.4656982421875
1775719660882513200,11.27251318359375,0.197662353515625,-1.00732421875,0.4329681396484375
1775719660892526000,11.282526123046875,0.22857666015625,-1.017852783203125,0.3892974853515625
1775719660902540000,11.2925400390625,0.248077392578125,-1.0287933349609375,0.34405517578125
1775719660912553000,11.302552978515624,0.2451629638671875,-1.04571533203125,0.308197021484375
1775719660922566100,11.312566162109375,0.24493408203125,-1.0594940185546875,0.2864837646484375
1775719660932579000,11.3225791015625,0.2200927734375,-1.0704498291015625,0.30120849609375
1775719660942593000,11.332593017578125,0.1864471435546875,-1.0789794921875,0.3326263427734375
1775719660952606000,11.34260595703125,0.13848876953125,-1.0918426513671875,0.3579559326171875
1775719660962619100,11.352619140625,0.104339599609375,-1.107513427734375,0.34954833984375
1775719660972633000,11.362633056640625,0.09564208984375,-1.1226806640625,0.3308563232421875
1775719660982646000,11.37264599609375,0.113189697265625,-1.1305694580078125,0.3254852294921875
1775719660992659200,11.3826591796875,0.130340576171875,-1.14794921875,0.32757568359375
1775719661002673200,11.392673095703126,0.12310791015625,-1.1668243408203125,0.3202972412109375
1775719661012686000,11.40268603515625,0.0919952392578125,-1.1666412353515625,0.2940826416015625
1775719661022699000,11.412698974609375,0.0546722412109375,-1.161468505859375,0.226531982421875
1775719661032713200,11.422713134765624,0.006134033203125,-1.159027099609375,0.1384735107421875
1775719661042726100,11.43272607421875,-0.0594024658203125,-1.1728057861328125,0.0838165283203125
1775719661052739000,11.442739013671876,-0.0902557373046875,-1.187744140625,0.0301513671875
1775719661062753000,11.4527529296875,-0.08551025390625,-1.192840576171875,0.009002685546875
1775719661072766000,11.462765869140625,-0.0474700927734375,-1.196929931640625,0.039215087890625
1775719661082779100,11.472779052734374,-0.0007781982421875,-1.1978302001953125,0.0926513671875
1775719661092793000,11.48279296875,0.04156494140625,-1.18487548828125,0.134918212890625
1775719661102806000,11.492805908203126,0.0895233154296875,-1.177825927734375,0.1676483154296875
1775719661112819000,11.50281884765625,0.12493896484375,-1.1674957275390625,0.1886444091796875
1775719661122832100,11.51283203125,0.1439666748046875,-1.157257080078125,0.20166015625
1775719661132846000,11.52284619140625,0.1504669189453125,-1.1549835205078125,0.19390869140625
1775719661142859000,11.53285888671875,0.1397857666015625,-1.1607513427734375,0.1777191162109375
1775719661152872400,11.54287255859375,0.1036529541015625,-1.16973876953125,0.1558685302734375
1775719661162886700,11.55288671875,0.073638916015625,-1.1697235107421875,0.133544921875
1775719661172899600,11.562899658203126,0.0585174560546875,-1.1749725341796875,0.1204833984375
1775719661182912500,11.57291259765625,0.051177978515625,-1.1728973388671875,0.10418701171875
1775719661192926500,11.582926513671875,0.0374755859375,-1.1732940673828125,0.08367919921875
1775719661202939400,11.592939453125,0.0410614013671875,-1.1674652099609375,0.0627899169921875
1775719661212952600,11.60295263671875,0.05047607421875,-1.1519927978515625,0.0492401123046875
1775719661222966500,11.612966552734376,0.0463714599609375,-1.139862060546875,0.0465545654296875
1775719661232979500,11.6229794921875,0.0394744873046875,-1.1331329345703125,0.0481414794921875
1775719661242992400,11.632992431640625,0.0299224853515625,-1.1216583251953125,0.0615692138671875
1775719661253006300,11.64300634765625,0.0136871337890625,-1.11883544921875,0.089447021484375
1775719661263019500,11.65301953125,-0.01904296875,-1.1248779296875,0.1179962158203125
1775719661273032400,11.663032470703126,-0.0401458740234375,-1.133453369140625,0.1170501708984375
1775719661283045600,11.673045654296875,-0.026947021484375,-1.124969482421875,0.0907745361328125
1775719661293059600,11.6830595703125,0.02301025390625,-1.1192474365234375,0.0438232421875
1775719661303072500,11.693072509765624,0.0740966796875,-1.1088409423828125,0.0064239501953125
1775719661313085400,11.70308544921875,0.110626220703125,-1.0904998779296875,0.0006256103515625
1775719661323099600,11.713099609375,0.1259765625,-1.071533203125,0.0289154052734375
1775719661333112600,11.723112548828125,0.09906005859375,-1.0594940185546875,0.0679779052734375
1775719661343125500,11.73312548828125,0.0380859375,-1.0576934814453125,0.08685302734375
1775719661353139500,11.743139404296874,-0.02056884765625,-1.045928955078125,0.0798797607421875
1775719661363152400,11.75315234375,-0.0558013916015625,-1.04193115234375,0.056793212890625
1775719661373165600,11.76316552734375,-0.0594635009765625,-1.036224365234375,0.02288818359375
1775719661383179500,11.773179443359375,-0.022125244140625,-1.0180816650390625,-0.0074005126953125
1775719661393192400,11.7831923828125,0.0347900390625,-1.0005035400390625,-0.0243682861328125
1775719661403205600,11.79320556640625,0.0908050537109375,-0.9839324951171875,-0.0230255126953125
1775719661413218600,11.803218505859375,0.1269378662109375,-0.9564971923828125,-0.0000457763671875
1775719661423232500,11.813232421875,0.1490325927734375,-0.932464599609375,0.0346832275390625
1775719661433245400,11.823245361328125,0.1356048583984375,-0.9189300537109375,0.0827484130859375
1775719661443258600,11.833258544921875,0.08489990234375,-0.919921875,0.134521484375
1775719661453272600,11.8432724609375,0.013580322265625,-0.9199371337890625,0.15960693359375
1775719661463285500,11.853285400390625,-0.0418853759765625,-0.9117279052734375,0.13702392578125
1775719661473298400,11.86329833984375,-0.0577239990234375,-0.894256591796875,0.0797882080078125
1775719661483312600,11.873312744140625,-0.041290283203125,-0.878021240234375,0.0227813720703125
1775719661493325600,11.88332568359375,0.0009765625,-0.864898681640625,-0.0135955810546875
1775719661503338500,11.89333837890625,0.0572357177734375,-0.858154296875,-0.0290679931640625
1775719661513352700,11.903352783203125,0.1283416748046875,-0.8504638671875,-0.0415191650390625
1775719661523365400,11.913365478515624,0.173553466796875,-0.84783935546875,-0.024169921875
1775719661533378600,11.923378662109375,0.1722259521484375,-0.84014892578125,0.0270538330078125
1775719661543392500,11.933392578125,0.138458251953125,-0.824249267578125,0.0903167724609375
1775719661553405400,11.943405517578125,0.078369140625,-0.8075408935546875,0.139373779296875
1775719661563418600,11.953418701171875,-0.006927490234375,-0.802093505859375,0.1664886474609375
1775719661573432300,11.963432373046874,-0.091278076171875,-0.7941436767578125,0.1589813232421875
1775719661583445500,11.973445556640625,-0.1431884765625,-0.77203369140625,0.125091552734375
1775719661593458400,11.98345849609375,-0.1449432373046875,-0.7624359130859375,0.082489013671875
1775719661603471600,11.9934716796875,-0.109283447265625,-0.7517547607421875,0.051055908203125
1775719661613485600,12.003485595703125,-0.0518951416015625,-0.7466583251953125,0.0391998291015625
1775719661623498500,12.01349853515625,0.0081634521484375,-0.7525787353515625,0.0394744873046875
1775719661633511400,12.023511474609375,0.0539398193359375,-0.7698211669921875,0.0467681884765625
1775719661643525600,12.033525634765626,0.0561981201171875,-0.78271484375,0.068695068359375
1775719661653538600,12.04353857421875,0.02117919921875,-0.7893829345703125,0.091278076171875
1775719661663551500,12.053551513671875,-0.032257080078125,-0.813507080078125,0.1033172607421875
1775719661673565700,12.063565673828125,-0.0799407958984375,-0.82659912109375,0.094085693359375
1775719661683578400,12.073578369140625,-0.0987396240234375,-0.8235626220703125,0.056854248046875
1775719661693591600,12.083591552734376,-0.0939788818359375,-0.828369140625,0.0036163330078125
1775719661703605500,12.09360546875,-0.0840606689453125,-0.8388214111328125,-0.0328369140625
1775719661713618400,12.103618408203126,-0.0674591064453125,-0.852813720703125,-0.049835205078125
1775719661723631600,12.113631591796874,-0.045074462890625,-0.8743133544921875,-0.041290283203125
1775719661733645300,12.123645263671875,-0.0112762451171875,-0.885345458984375,-0.009033203125
1775719661743658500,12.133658447265624,0.0303955078125,-0.895721435546875,0.03802490234375
1775719661753671400,12.14367138671875,0.06829833984375,-0.897064208984375,0.0701751708984375
1775719661763684600,12.1536845703125,0.089263916015625,-0.886016845703125,0.094329833984375
1775719661773698600,12.163698486328125,0.079925537109375,-0.8901824951171875,0.1203460693359375
1775719661783711500,12.17371142578125,0.0290679931640625,-0.922882080078125,0.1343994140625
1775719661793724400,12.183724365234376,-0.0455474853515625,-0.946319580078125,0.115142822265625
1775719661803738600,12.193738525390625,-0.0894317626953125,-0.947509765625,0.0736236572265625
1775719661813751600,12.20375146484375,-0.09912109375,-0.9450531005859375,0.03863525390625
1775719661823764500,12.213764404296874,-0.087249755859375,-0.93768310546875,0.0201263427734375
1775719661833778700,12.22377880859375,-0.0462188720703125,-0.936370849609375,0.0228729248046875
1775719661843791400,12.233791259765624,0.0073394775390625,-0.9344329833984375,0.04608154296875
1775719661853804500,12.243804443359375,0.054351806640625,-0.9315643310546875,0.0672149658203125
1775719661863818500,12.253818603515626,0.0772705078125,-0.935150146484375,0.079437255859375
1775719661873831400,12.26383154296875,0.0547332763671875,-0.9352264404296875,0.0983123779296875
1775719661883844600,12.2738447265625,-0.0034942626953125,-0.9341278076171875,0.1326751708984375
1775719661893858600,12.283858642578124,-0.063018798828125,-0.9218292236328125,0.1661529541015625
1775719661903871500,12.29387158203125,-0.1116485595703125,-0.8980865478515625,0.1868438720703125
1775719661913884400,12.303884521484376,-0.1492462158203125,-0.8696136474609375,0.2007293701171875
1775719661923897600,12.313897705078125,-0.175628662109375,-0.842254638671875,0.20526123046875
1775719661933911600,12.32391162109375,-0.1928863525390625,-0.825103759765625,0.207916259765625
1775719661943924500,12.333924560546874,-0.1922760009765625,-0.81048583984375,0.2232208251953125
1775719661953937400,12.3439375,-0.1871185302734375,-0.8016510009765625,0.240020751953125
1775719661963951600,12.35395166015625,-0.177337646484375,-0.80255126953125,0.2567138671875
1775719661973964500,12.363964599609375,-0.1656951904296875,-0.80511474609375,0.267486572265625
1775719661983977500,12.3739775390625,-0.168060302734375,-0.809478759765625,0.257537841796875
1775719661993991700,12.38399169921875,-0.1849212646484375,-0.8251495361328125,0.217742919921875
1775719662004004400,12.39400439453125,-0.2056884765625,-0.8448638916015625,0.1676788330078125
1775719662014017500,12.404017578125,-0.218536376953125,-0.85455322265625,0.131378173828125
1775719662024031500,12.414031494140625,-0.21978759765625,-0.8723297119140625,0.1118011474609375
1775719662034044400,12.42404443359375,-0.195556640625,-0.88043212890625,0.10125732421875
1775719662044057600,12.4340576171875,-0.15771484375,-0.8911590576171875,0.1009979248046875
1775719662054071600,12.444071533203125,-0.1263275146484375,-0.9066314697265625,0.10089111328125
1775719662064084500,12.45408447265625,-0.101348876953125,-0.9178466796875,0.085540771484375
1775719662074097700,12.46409765625,-0.08880615234375,-0.92462158203125,0.0781402587890625
1775719662084110600,12.474110595703126,-0.097259521484375,-0.9322357177734375,0.08990478515625
1775719662094124500,12.48412451171875,-0.1263885498046875,-0.943328857421875,0.1077728271484375
1775719662104137500,12.494137451171875,-0.1600494384765625,-0.948944091796875,0.1262359619140625
1775719662114150400,12.504150390625,-0.177581787109375,-0.9469451904296875,0.14373779296875
1775719662124164600,12.51416455078125,-0.181304931640625,-0.9453277587890625,0.15435791015625
1775719662134177500,12.524177490234376,-0.166961669921875,-0.9423980712890625,0.1525726318359375
1775719662144190500,12.5341904296875,-0.138580322265625,-0.9333953857421875,0.1444549560546875
1775719662154205000,12.544204833984375,-0.12213134765625,-0.9387664794921875,0.14923095703125
1775719662164217600,12.554217529296874,-0.1126251220703125,-0.9468841552734375,0.1660308837890625
1775719662174230800,12.564230712890625,-0.0955963134765625,-0.9504852294921875,0.170196533203125
1775719662184245000,12.574244873046876,-0.0755157470703125,-0.957550048828125,0.1644134521484375
1775719662194257700,12.584257568359375,-0.0755767822265625,-0.9723968505859375,0.1678466796875
1775719662204270800,12.594270751953125,-0.0868072509765625,-0.98309326171875,0.1704864501953125
1775719662214284500,12.604284423828124,-0.0959014892578125,-0.98968505859375,0.177978515625
1775719662224297700,12.614297607421875,-0.0959014892578125,-1.0009002685546875,0.1912841796875
1775719662234311000,12.624310791015626,-0.089599609375,-1.01123046875,0.20343017578125
1775719662244323800,12.63432373046875,-0.077301025390625,-1.016326904296875,0.205841064453125
1775719662254337800,12.644337890625,-0.063751220703125,-1.0178680419921875,0.2049102783203125
1775719662264350700,12.654350830078124,-0.0549774169921875,-1.0222625732421875,0.2098388671875
1775719662274363600,12.66436376953125,-0.055084228515625,-1.0287933349609375,0.2108154296875
1775719662284377900,12.6743779296875,-0.0673065185546875,-1.0289764404296875,0.2081756591796875
1775719662294390800,12.684390869140625,-0.09844970703125,-1.0349884033203125,0.1970977783203125
1775719662304403700,12.69440380859375,-0.133056640625,-1.03741455078125,0.1865997314453125
1775719662314418000,12.70441796875,-0.1559906005859375,-1.0348663330078125,0.1815948486328125
1775719662324430600,12.7144306640625,-0.1656341552734375,-1.038177490234375,0.1804962158203125
1775719662334443800,12.72444384765625,-0.1736602783203125,-1.0443115234375,0.1772613525390625
1775719662344458000,12.7344580078125,-0.1741790771484375,-1.048980712890625,0.163421630859375
1775719662354470700,12.744470703125,-0.166778564453125,-1.04364013671875,0.14398193359375
1775719662364483800,12.75448388671875,-0.1561737060546875,-1.03924560546875,0.1261749267578125
1775719662374496800,12.764496826171875,-0.141448974609375,-1.033905029296875,0.1142578125
1775719662384510700,12.7745107421875,-0.129364013671875,-1.023193359375,0.103515625
1775719662394524000,12.78452392578125,-0.126617431640625,-1.01318359375,0.1022491455078125
1775719662404536800,12.794536865234376,-0.1331024169921875,-0.999481201171875,0.109954833984375
1775719662414550800,12.80455078125,-0.1458282470703125,-0.9885101318359375,0.1190338134765625
1775719662424564000,12.81456396484375,-0.15362548828125,-0.9805450439453125,0.1248931884765625
1775719662434576600,12.82457666015625,-0.1491241455078125,-0.965240478515625,0.1194000244140625
1775719662444590800,12.8345908203125,-0.136749267578125,-0.957489013671875,0.1130828857421875
1775719662454603800,12.844603759765626,-0.1230010986328125,-0.95330810546875,0.1139678955078125
1775719662464616700,12.85461669921875,-0.1140289306640625,-0.9503631591796875,0.125
1775719662474631000,12.864630859375,-0.1135406494140625,-0.9479217529296875,0.1419525146484375
1775719662484643600,12.8746435546875,-0.1183929443359375,-0.9503326416015625,0.1501922607421875
1775719662494656800,12.88465673828125,-0.1140289306640625,-0.9493255615234375,0.147613525390625
1775719662504671000,12.8946708984375,-0.0986175537109375,-0.94293212890625,0.1318206787109375
1775719662514683600,12.90468359375,-0.076507568359375,-0.9397430419921875,0.1136932373046875
1775719662524696800,12.91469677734375,-0.0502166748046875,-0.9362640380859375,0.099761962890625
1775719662534709800,12.924709716796874,-0.0299835205078125,-0.92919921875,0.1031951904296875
1775719662544723700,12.9347236328125,-0.023895263671875,-0.9343414306640625,0.12615966796875
1775719662554737000,12.94473681640625,-0.0201263427734375,-0.9368438720703125,0.1494598388671875
1775719662564749800,12.954749755859375,-0.01953125,-0.9333648681640625,0.159271240234375
1775719662574763800,12.964763671875,-0.0284576416015625,-0.93499755859375,0.157318115234375
1775719662584777000,12.97477685546875,-0.03448486328125,-0.933502197265625,0.1462249755859375
1775719662594789600,12.98478955078125,-0.040496826171875,-0.9312744140625,0.1318817138671875
1775719662604803800,12.994803955078124,-0.0538330078125,-0.9343109130859375,0.1187591552734375
1775719662614816800,13.004816650390625,-0.0684967041015625,-0.938140869140625,0.1081695556640625
