time,seconds_elapsed,z,y,x
1775719649665080600,0.05508056640625,-4.406216605350375,-8.677159063336253,1.2093586924962698
1775719649675094500,0.065094482421875,-4.378618112067878,-8.687522636440395,1.234924949298799
1775719649685107700,0.075107666015625,-4.352426270712912,-8.697098858559132,1.2598587534166872
1775719649695121400,0.085121337890625,-4.327026456518471,-8.70653596446812,1.2819764772005378
1775719649705134600,0.095134521484375,-4.30244731105715,-8.715954365676641,1.300569387859106
1775719649715147800,0.105147705078125,-4.278032123985886,-8.72569191583693,1.315721510414034
1775719649725161500,0.115161376953125,-4.253631549961865,-8.73587662524283,1.3272060503721237
1775719649735174700,0.125174560546875,-4.230255350549519,-8.746009896722436,1.3351473647654055
1775719649745187800,0.135187744140625,-4.207763240495324,-8.756156612205505,1.3397200795084236
1775719649755201500,0.145201416015625,-4.185487111279368,-8.766754578587411,1.3401824363231658
1775719649765214700,0.155214599609375,-4.161243481382727,-8.77822757423818,1.340578303772956
1775719649775227600,0.1652275390625,-4.132724950645864,-8.791780883294344,1.3399901286214588
1775719649785241600,0.17524169921875,-4.094036615811288,-8.809826827594637,1.3402264215953648
1775719649795254800,0.1852548828125,-4.046329108218848,-8.830872538232803,1.3465889423646031
1775719649805267500,0.195267333984375,-3.999220151041448,-8.850604828184842,1.3577248150154948
1775719649815281700,0.20528173828125,-3.9567157650500535,-8.868053391113877,1.3683550762318073
1775719649825294800,0.215294921875,-3.918644393070042,-8.885118507683277,1.3672092671975493
1775719649835307500,0.2253076171875,-3.8815950576141476,-8.904055263343453,1.349590900659561
1775719649845321700,0.23532177734375,-3.836259539850056,-8.928230504179,1.3191611294738947
1775719649855334700,0.245334716796875,-3.7806513421356676,-8.957943505397438,1.2776191587738692
1775719649865348600,0.2553486328125,-3.719629594939947,-8.990695435920356,1.2256158536836503
1775719649875361800,0.26536181640625,-3.6595942284330722,-9.023690527549386,1.1622189017891884
1775719649885374500,0.27537451171875,-3.6028231244191526,-9.055132544517516,1.0929822108905762
1775719649895388700,0.285388671875,-3.54944195510447,-9.084227121576665,1.0240483023308218
1775719649905401600,0.295401611328125,-3.49813554623723,-9.111734721705316,0.9538030189115554
1775719649915414500,0.30541455078125,-3.4454672013670202,-9.139306034719944,0.8787680169977247
1775719649925428700,0.3154287109375,-3.3797362535670397,-9.171025115063786,0.8000490658741444
1775719649935441700,0.325441650390625,-3.2872447246134278,-9.211335498142242,0.7181321954920887
1775719649945454600,0.33545458984375,-3.169256935353577,-9.258757759052514,0.6337283305998891
1775719649955468500,0.345468505859375,-3.0291695424884555,-9.31109643357694,0.5458927742259576
1775719649965481700,0.355481689453125,-2.8670483047306536,-9.366706677117943,0.4639357179639861
1775719649975494700,0.36549462890625,-2.6834818356230854,-9.42391441898346,0.3989283717308193
1775719649985508600,0.375508544921875,-2.4863386765837667,-9.479623446723819,0.3538926406309008
1775719649995521500,0.385521484375,-2.2874722008831796,-9.530370468142628,0.3314809023365378
1775719650005534700,0.39553466796875,-2.097102773762494,-9.573875847870111,0.3368093673503026
1775719650015548700,0.405548583984375,-1.9181933366805315,-9.609977673342824,0.37317850198969243
1775719650025561600,0.4155615234375,-1.7508854900650679,-9.639145315638183,0.437787569620274
1775719650035574800,0.42557470703125,-1.5953306250855326,-9.66201765718162,0.5202963780134916
1775719650045588700,0.435588623046875,-1.4491525141298771,-9.679564419788122,0.6134997815635055
1775719650055601700,0.4456015625,-1.3127389874719082,-9.692264326885342,0.7121287903588265
1775719650065615600,0.45561572265625,-1.1860456945132463,-9.700852122488618,0.8106473245169967
1775719650075628800,0.46562890625,-1.0696581800568847,-9.706128601586817,0.904029007243365
1775719650085641700,0.475641845703125,-0.9671579558514058,-9.708798113057016,0.9870221285548061
1775719650095655700,0.48565576171875,-0.8731192705210298,-9.709832716801762,1.0616883702214808
1775719650105668600,0.495668701171875,-0.7801351357448846,-9.708888713949918,1.1398536329850555
1775719650115681500,0.505681640625,-0.6812207341369241,-9.70508055383861,1.2319611310571432
1775719650125695700,0.51569580078125,-0.5815144514989108,-9.697622639048099,1.3372982591889797
1775719650135708700,0.525708740234375,-0.48386484566237775,-9.686669283357261,1.450760972239822
1775719650145721600,0.5357216796875,-0.38829705106858164,-9.6731159743011,1.5653877606339752
1775719650155735800,0.54573583984375,-0.29716718412330373,-9.657219901511073,1.6793470250301061
1775719650165748500,0.55574853515625,-0.21251617606962098,-9.639407765966654,1.790817102959007
1775719650175761700,0.56576171875,-0.13920487440954893,-9.620487376919389,1.8966371923021972
1775719650185775900,0.57577587890625,-0.08355774205741472,-9.601153730896115,1.9953062408469615
1775719650195788500,0.58578857421875,-0.0469299564818386,-9.582388240149617,2.0847150013543665
1775719650205801700,0.5958017578125,-0.022668373086687642,-9.564423544391989,2.1660262339934704
1775719650215815700,0.605815673828125,-0.004903549566003493,-9.546170094820857,2.2452128756940364
1775719650225828600,0.61582861328125,0.01272397067610873,-9.527130463308096,2.3246543689385053
1775719650235841800,0.625841796875,0.035166451168607456,-9.507244444099069,2.404466887452453
1775719650245855500,0.63585546875,0.06525477708901745,-9.487636657309531,2.4801006589770314
1775719650255868700,0.64586865234375,0.11051767257489263,-9.469877128735185,2.54549959834367
1775719650265882600,0.655882568359375,0.1760749991073273,-9.453180260956287,2.603218504601717
1775719650275895600,0.6658955078125,0.2578711474528536,-9.435169387969374,2.6611051686421034
1775719650285908700,0.67590869140625,0.34277781076803804,-9.411572239282727,2.7340868182227016
1775719650295922700,0.685922607421875,0.41676111167185004,-9.381040907418727,2.8271488405406475
1775719650305935600,0.695935546875,0.4783188289077952,-9.348571885490417,2.9233175967022773
1775719650315948800,0.70594873046875,0.5372428366392851,-9.320449952855705,3.0018282388374207
1775719650325962800,0.715962646484375,0.5984889306427911,-9.299693580552935,3.054159899099171
1775719650335975700,0.7259755859375,0.6590973843298852,-9.286394538518786,3.082019381405413
1775719650345988900,0.73598876953125,0.7176723228953779,-9.276821239009498,3.0977269458860155
1775719650356002600,0.74600244140625,0.7678617834966629,-9.266069543370604,3.1178117025375363
1775719650366015700,0.756015625,0.8044109143454581,-9.252932998421787,3.147462159913778
1775719650376028700,0.766028564453125,0.826086155058816,-9.238874662452936,3.1829499451413747
1775719650386042600,0.776042724609375,0.8353828295838087,-9.225674989140034,3.218610748848319
1775719650396055800,0.786055908203125,0.8389275895185768,-9.213979290649295,3.2510257025018334
1775719650406068700,0.79606884765625,0.8408841304138303,-9.204340524688362,3.277714095202088
1775719650416082700,0.806082763671875,0.8445558777291328,-9.198480692744255,3.2931820057079193
1775719650426095600,0.816095703125,0.8513895231414585,-9.196944569218159,3.2957109396636484
1775719650436108500,0.826108642578125,0.8567199974492192,-9.199027805233001,3.2885084609389303
1775719650446122800,0.836122802734375,0.8537315562229603,-9.204547445437312,3.2738103657618165
1775719650456135700,0.8461357421875,0.8356016599662601,-9.213433347204328,3.253430425556004
1775719650466149600,0.856149658203125,0.7997456259481608,-9.225052473327517,3.229431418070197
1775719650476162600,0.86616259765625,0.7463214942745864,-9.238117122083901,3.204777161546051
1775719650486175700,0.87617578125,0.6826763397727161,-9.250144829007983,3.1842087130308148
1775719650496189700,0.886189697265625,0.6179904440462589,-9.25919381238222,3.1710891192167994
1775719650506202600,0.89620263671875,0.5561369952667504,-9.266009922137856,3.1626199815571305
1775719650516215800,0.9062158203125,0.49731107761487364,-9.27243498674929,3.1535768434017895
1775719650526229500,0.9162294921875,0.4405244107056409,-9.27945041846931,3.141352737122774
1775719650536242700,0.92624267578125,0.38510797270368785,-9.287758228087425,3.124043290403485
1775719650546255600,0.936255615234375,0.3319861119123175,-9.297719650131464,3.1004186691880222
1775719650556269600,0.94626953125,0.28447003523875025,-9.308007235389947,3.0741569774672386
1775719650566282800,0.95628271484375,0.24336356987915933,-9.316644130831957,3.051440411007404
1775719650576295700,0.966295654296875,0.20445907154325393,-9.322765828582645,3.0355577822208404
1775719650586309600,0.9763095703125,0.16631335568539798,-9.326379342904687,3.0267750485673544
1775719650596322800,0.98632275390625,0.1315097259302158,-9.327880979639291,3.0238559462502597
1775719650606335700,0.996335693359375,0.10271723709017969,-9.327893839120865,3.024937019485235
1775719650616349700,1.006349609375,0.08156513433493673,-9.327035176464914,3.0282261241585013
1775719650626363000,1.01636279296875,0.06761983941965737,-9.326105202138423,3.031429304113984
1775719650636375600,1.02637548828125,0.059221483707567676,-9.32536812003553,3.033878158570826
1775719650646389800,1.0363896484375,0.057713029073108914,-9.325025590208172,3.0349536788478493
1775719650656402700,1.046402587890625,0.06711670306995511,-9.324493675288558,3.036394525305927
1775719650666415600,1.05641552734375,0.08632642131946049,-9.322169031733274,3.0430431695401667
1775719650676429800,1.066429931640625,0.11081512115150689,-9.317093043643236,3.0577576313301917
1775719650686442500,1.0764423828125,0.13704512082608417,-9.30889687770605,3.0815690072894095
1775719650696455700,1.08645556640625,0.16054069056808948,-9.298584742528199,3.111424339587986
1775719650706470000,1.096469970703125,0.17815810725800693,-9.288182590979337,3.141389854262769
1775719650716482600,1.106482666015625,0.19008523988444356,-9.278692293578386,3.1686162993624802
1775719650726496800,1.116496826171875,0.19659743479005992,-9.270578545227647,3.191884946747124
1775719650736509700,1.126509765625,0.1998665013222955,-9.264637464740872,3.208884304603934
1775719650746522600,1.136522705078125,0.2020314608038403,-9.260849762895702,3.219662303727865
1775719650756536800,1.146536865234375,0.2016351914952509,-9.257721401742101,3.2286750467449425
1775719650766549500,1.156549560546875,0.19872434554984791,-9.254095612460373,3.239226835897565
1775719650776562700,1.166562744140625,0.19768813436990604,-9.249564398771524,3.2522128664597867
1775719650786576600,1.17657666015625,0.20192595460275187,-9.244007349166273,3.2677076649725434
1775719650796589600,1.186589599609375,0.21269745092066003,-9.237242092815041,3.2861049069285393
1775719650806602800,1.196602783203125,0.22792393561974167,-9.229601222673057,3.306492738179862
1775719650816616700,1.20661669921875,0.24672252491824329,-9.221850462415814,3.3267075509518382
1775719650826629600,1.216629638671875,0.26852151987543327,-9.214521726962923,3.3452734274730083
1775719650836642800,1.226642822265625,0.2882894291301258,-9.20857830838859,3.359966261953115
1775719650846656800,1.23665673828125,0.30661767923682925,-9.205056564003229,3.3679873635843394
1775719650856669700,1.246669677734375,0.32548893191274253,-9.204560304918886,3.367572060781717
1775719650866683000,1.256682861328125,0.3431386069044471,-9.207619692489505,3.3574338208660484
1775719650876696600,1.266696533203125,0.35610096433013677,-9.213416396069526,3.3401389871940013
1775719650886709800,1.276709716796875,0.3624693303182721,-9.21988062364757,3.3215652196273204
1775719650896722700,1.28672265625,0.36028526427745816,-9.225806506565213,3.305309373614192
1775719650906736600,1.296736572265625,0.350547933312878,-9.230934517103433,3.2920141309723254
1775719650916749800,1.306749755859375,0.33421646478027106,-9.235010972762108,3.2822695665493606
1775719650926762500,1.316762451171875,0.3080063205836341,-9.238273773950338,3.275639042493701
1775719650936776700,1.326776611328125,0.26828719966290515,-9.241523131135105,3.269963334944844
1775719650946789600,1.33678955078125,0.21601267641587182,-9.24504136838913,3.2638843072921038
1775719650956802600,1.346802490234375,0.15564623305741696,-9.249708191156387,3.2540836287677286
1775719650966816800,1.356816650390625,0.09278058416121639,-9.256671600428223,3.2366362348824738
1775719650976829700,1.36682958984375,0.03196909359913552,-9.264186798363923,3.216240220324695
1775719650986843600,1.37684375,-0.02780360338356113,-9.270061827877162,3.199307497963309
1775719650996856600,1.386856689453125,-0.08519404715551063,-9.273643193495273,3.187896461632848
1775719651006869800,1.396869873046875,-0.1379007786741946,-9.275125541007519,3.181730340218544
1775719651016883700,1.4068837890625,-0.18839222702989353,-9.274640972360968,3.18055282087177
1775719651026896600,1.416896728515625,-0.23573307500071822,-9.272262552791833,3.184332923932373
1775719651036909600,1.42690966796875,-0.28118951573073864,-9.26691593106687,3.1961849820286035
1775719651046923500,1.436923583984375,-0.3278833162359893,-9.257540784478188,3.2188202999457713
1775719651056936700,1.446936767578125,-0.3701968923630193,-9.244541017651557,3.251428438083827
1775719651066949600,1.45694970703125,-0.4001578404605388,-9.228654881733656,3.2927453678563237
1775719651076963600,1.466963623046875,-0.41152971382439135,-9.209259276390075,3.3452287115484474
1775719651086976800,1.476976806640625,-0.4057021401820704,-9.185660958659648,3.410191889846325
1775719651096989700,1.48698974609375,-0.3848885943319648,-9.158920835772156,3.4837349727019666
1775719651107003600,1.497003662109375,-0.3496040765915066,-9.129695910331606,3.5632626829251643
1775719651117016800,1.507016845703125,-0.3020391923401505,-9.097290016767381,3.6494495587766167
1775719651127029800,1.51702978515625,-0.24642206240063533,-9.063028266203403,3.7378023804903027
1775719651137043000,1.52704296875,-0.18147130519291385,-9.030553399056195,3.8192341707691546
1775719651147056000,1.53705615234375,-0.10985373790659941,-9.003101913028955,3.886191737754643
1775719651157069000,1.547069091796875,-0.03912564853960648,-8.98062003210783,3.9392011511474845
1775719651167083000,1.5570830078125,0.022184736021899153,-8.95969590202272,3.986696477293968
1775719651177096200,1.56709619140625,0.07217701866682619,-8.937253184068203,4.036172455863654
1775719651187109000,1.577109130859375,0.11644444140852428,-8.913042871919274,4.088338111908733
1775719651197123000,1.587123046875,0.16083052209382875,-8.887987925639749,4.141035098351538
1775719651207136000,1.597135986328125,0.20613345276257022,-8.863027087384461,4.192213789185882
1775719651217149000,1.60714892578125,0.2502163949159905,-8.840024981981516,4.238130906230211
1775719651227163100,1.6171630859375,0.2877961657204665,-8.820674969345331,4.275894235174357
1775719651237176000,1.627176025390625,0.31928233235757797,-8.806936366850136,4.301896399176121
1775719651247190000,1.63718994140625,0.35004798443410545,-8.79878228648901,4.316166916590928
1775719651257203200,1.647203125,0.37944749925658106,-8.793579457148908,4.324278619115054
1775719651267216000,1.6572158203125,0.40809126380831,-8.790748617637156,4.327424223664402
1775719651277230000,1.66722998046875,0.4402335380002856,-8.791151353219151,4.323452105163038
1775719651287243000,1.677242919921875,0.4786676788780838,-8.793250955846904,4.315091396313905
1775719651297256000,1.687255859375,0.5204720268413424,-8.794647963163255,4.307398795984685
1775719651307270100,1.697270263671875,0.5604974920311943,-8.794065194839238,4.3035631633445615
1775719651317282800,1.70728271484375,0.5945999603802338,-8.793551984620093,4.300032651130855
1775719651327296000,1.7172958984375,0.6223677823476493,-8.794519368347524,4.294120796738564
1775719651337310000,1.72731005859375,0.6443238858290016,-8.796331386205553,4.287162063641846
1775719651347323000,1.737322998046875,0.6593959288850426,-8.799081561696529,4.279221626031399
1775719651357336000,1.747336181640625,0.6650595076046883,-8.802880369457602,4.270523940312862
1775719651367350000,1.75735009765625,0.6579395195316523,-8.807690984609723,4.261701459170878
1775719651377363000,1.767363037109375,0.6427216382641345,-8.813756568259,4.251470280274749
1775719651387376000,1.777376220703125,0.6240564660869539,-8.82218946556151,4.236735360218584
1775719651397390000,1.78739013671875,0.6010398572346195,-8.8334683999449,4.216512071879208
1775719651407403000,1.797403076171875,0.5714180414309725,-8.846634755510092,4.192961100421845
1775719651417416200,1.807416259765625,0.5330803101323545,-8.861681517994404,4.166151711690426
1775719651427430000,1.817429931640625,0.4850756827568635,-8.877207588428258,4.138873244142532
1775719651437443000,1.827443115234375,0.43081864392310376,-8.890724072605371,4.11579719672054
1775719651447456000,1.8374560546875,0.3747775712167844,-8.900902352270483,4.099247628457844
1775719651457470000,1.847469970703125,0.3185960305938497,-8.909127744302154,4.086112837074697
1775719651467483100,1.857483154296875,0.2627019468764774,-8.918170882457494,4.070332207357883
1775719651477497000,1.8674970703125,0.20804841953841968,-8.930705954381823,4.045936894030869
1775719651487510000,1.877510009765625,0.15474738452155143,-8.94837488206327,4.0091190292432906
1775719651497523000,1.88752294921875,0.10211459502191282,-8.97073576695323,3.9605408762961622
1775719651507537200,1.897537109375,0.0498866097637685,-8.996987229540943,3.901551511710882
1775719651517550000,1.907550048828125,0.0000028316834433255166,-9.02536284467578,3.835783446770906
1775719651527563000,1.91756298828125,-0.04608071467478294,-9.052520900714397,3.7709614305093884
1775719651537577000,1.927576904296875,-0.08579154725777915,-9.075721743559837,3.7140684536814685
1775719651547590100,1.937590087890625,-0.11671653634817339,-9.094521136575937,3.6669404995426533
1775719651557603000,1.94760302734375,-0.13792025969279928,-9.110149498340487,3.6271947646096345
1775719651567617000,1.957616943359375,-0.1489867386355996,-9.124218355703354,3.591216565516591
1775719651577630000,1.9676298828125,-0.14930697443275712,-9.137332104298471,3.5577044642761346
1775719651587643000,1.977642822265625,-0.14311892431443557,-9.149916276061534,3.5254721737131476
1775719651597657000,1.987656982421875,-0.13571844793274065,-9.162792708769441,3.492162317046523
1775719651607670000,1.997669921875,-0.13304124634643086,-9.177072578534483,3.454565576840937
1775719651617683000,2.007682861328125,-0.1387248266744893,-9.19283713389933,3.412168158355355
1775719651627697000,2.01769677734375,-0.15151333450376986,-9.209314805969596,3.3668887546926736
1775719651637710000,2.0277099609375,-0.16997580544939264,-9.225773773339391,3.320628523299098
1775719651647723000,2.037722900390625,-0.19170334260556846,-9.241597949936985,3.275137230451405
1775719651657737000,2.047737060546875,-0.21384561630878596,-9.256410903665422,3.2316458792492746
1775719651667750100,2.057750244140625,-0.2368720707016997,-9.270157104945183,3.1903695737481117
1775719651677763000,2.06776318359375,-0.2635565726781264,-9.283026523390411,3.150612440638244
1775719651687777000,2.077777099609375,-0.295031012344826,-9.296026290217041,3.1092224456295368
1775719651697790000,2.0877900390625,-0.3286570040222257,-9.310140155765414,3.063275517968833
1775719651707803100,2.09780322265625,-0.3606715967139229,-9.325735199782251,3.0118010590583086
1775719651717817000,2.107817138671875,-0.38859099251385776,-9.342864029237628,2.9546982388719916
1775719651727830000,2.117830078125,-0.4117715597562492,-9.360992391124368,2.893553742079437
1775719651737843000,2.127843017578125,-0.42822139397151765,-9.379071068650484,2.831967054477334
1775719651747857200,2.137857177734375,-0.4363275435376912,-9.396467024609446,2.7724390529707073
1775719651757870000,2.1478701171875,-0.4360296931022778,-9.4128546803087,2.7163246592998505
1775719651767883000,2.157883056640625,-0.42818066010233014,-9.427682247084379,2.665684313125908
1775719651777897200,2.167897216796875,-0.4144082649353891,-9.440292137810587,2.6228870816677805
1775719651787910000,2.177909912109375,-0.39633616328053173,-9.450407289111613,2.589038880340755
1775719651797924000,2.187924072265625,-0.3759638949245214,-9.4588641518116,2.5610396973028777
1775719651807937000,2.19793701171875,-0.35842056638412173,-9.466588608583807,2.5348814659565684
1775719651817950000,2.207949951171875,-0.3505758077004924,-9.473370231547952,2.510525900118053
1775719651827964200,2.217964111328125,-0.3563719267586246,-9.479483161470293,2.486519001586735
1775719651837976800,2.227976806640625,-0.3755567754283547,-9.485075282388925,2.4622525753363966
1775719651847990000,2.237989990234375,-0.4038367116363719,-9.489751457506417,2.439654959081113
1775719651858004000,2.24800390625,-0.4323241896478459,-9.493267941194771,2.42102010897696
1775719651868017000,2.258016845703125,-0.45309524806309487,-9.495133735066652,2.409880583064258
1775719651878030000,2.268030029296875,-0.46101391223315147,-9.49474502801001,2.4099109782025216
1775719651888044000,2.2780439453125,-0.4562893313966691,-9.491979070428012,2.421679888059944
1775719651898057000,2.288056884765625,-0.444713459893316,-9.48739934142232,2.4416984476074575
1775719651908070100,2.298070068359375,-0.43322939485926176,-9.4818235871166,2.4653020260348915
1775719651918083800,2.308083740234375,-0.43091169250141825,-9.475780215299128,2.488828155311942
1775719651928097000,2.318096923828125,-0.4450562819816172,-9.46947263958752,2.5102564355269075
1775719651938110200,2.328110107421875,-0.4759384365772828,-9.462360177233816,2.5313287419110537
1775719651948124000,2.3381240234375,-0.5193966161621735,-9.453868827742337,2.5544024512454864
1775719651958137000,2.34813720703125,-0.5702358459090814,-9.44431423293352,2.5787878277003764
1775719651968150000,2.35814990234375,-0.6241307003669441,-9.434277407565713,2.602932965658605
1775719651978164000,2.3681640625,-0.6764453364286571,-9.424504786092042,2.625171100951731
1775719651988177200,2.37817724609375,-0.7222055824108421,-9.415795409935713,2.6441674778446553
1775719651998189800,2.38818994140625,-0.7576677948057651,-9.408952412173152,2.6585613293781876
1775719652008204000,2.3982041015625,-0.7820610623061657,-9.404681310725211,2.6665938291862608
1775719652018217000,2.408217041015625,-0.7989801945336162,-9.4025963211447,2.6689342548325654
1775719652028230000,2.41822998046875,-0.8134943845111876,-9.401351289519667,2.6689351316154
1775719652038244000,2.428244140625,-0.8276068618200719,-9.39994609889686,2.6695406962931156
1775719652048257000,2.438257080078125,-0.842735092042759,-9.397696274143456,2.6727283864185214
1775719652058270000,2.44827001953125,-0.8603078658733516,-9.394470297834276,2.6784704372018573
1775719652068284200,2.4582841796875,-0.8804903838109225,-9.390236021265387,2.6867420064628122
1775719652078296800,2.468296875,-0.8993427491232753,-9.385715328970551,2.6962740971788763
1775719652088310000,2.47831005859375,-0.9109744424670934,-9.381384021767973,2.7074238522246477
1775719652098324000,2.488323974609375,-0.9121981390431523,-9.37741628718078,2.720722894258797
1775719652108337000,2.4983369140625,-0.9008698856253177,-9.37439547805488,2.734876507295668
1775719652118351000,2.50835107421875,-0.8769308646984398,-9.372155590173602,2.7502880114391446
1775719652128364000,2.518364013671875,-0.8445018825195729,-9.369970062828063,2.76782717526108
1775719652138377700,2.528377685546875,-0.8073333776634186,-9.367743618950247,2.786391882738471
1775719652148391700,2.5383916015625,-0.7672254583545028,-9.365196857076883,2.80621828071475
1775719652158404600,2.548404541015625,-0.7260875384107232,-9.362290029719471,2.826785267925262
1775719652168417800,2.558417724609375,-0.6867333600785582,-9.359694168007373,2.845153868308663
1775719652178431700,2.568431640625,-0.6528565171789378,-9.357758816030621,2.8594617951244112
1775719652188444700,2.578444580078125,-0.6276003492388874,-9.356524890321493,2.869134463354945
1775719652198457600,2.58845751953125,-0.6116180594701319,-9.355707728719711,2.8752427171021697
1775719652208471600,2.598471435546875,-0.6029591713920235,-9.355360522717238,2.878200690124929
1775719652218484700,2.608484619140625,-0.597203457409516,-9.356135014221072,2.876887561699748
1775719652228497700,2.61849755859375,-0.5892447534900158,-9.358434523335099,2.8710429273247717
1775719652238511600,2.62851171875,-0.5768867186330259,-9.36216318846941,2.8613810727491975
1775719652248524500,2.638524658203125,-0.5587017311882227,-9.367337376236915,2.8480218249604103
1775719652258537500,2.648537353515625,-0.5331069058783352,-9.373762440848349,2.831739675462246
1775719652268551700,2.6585517578125,-0.5013289714867248,-9.380648693230748,2.8146903409838675
1775719652278564600,2.668564697265625,-0.46632268616575745,-9.387029918700456,2.7993980793058872
1775719652288577500,2.67857763671875,-0.428076651738584,-9.392048039123415,2.7886472604498267
1775719652298591500,2.688591552734375,-0.3881215483712032,-9.395277522563934,2.7836186186328526
1775719652308604700,2.698604736328125,-0.34946276842467483,-9.397060898849368,2.782716116835177
1775719652318617600,2.70861767578125,-0.3132864164110273,-9.397980936303734,2.7839196474060413
1775719652328631600,2.718631591796875,-0.27873242316851393,-9.398399453976749,2.786175317378342
1775719652338644700,2.728644775390625,-0.24640529392892493,-9.398460828775168,2.789010248543322
1775719652348657700,2.73865771484375,-0.21754759436557067,-9.398254492548107,2.792107337775826
1775719652358671600,2.748671630859375,-0.19138254968598484,-9.397997887438535,2.7948841090127825
1775719652368684500,2.7586845703125,-0.16743501665908841,-9.397770508423447,2.7971871252581475
1775719652378697700,2.76869775390625,-0.14606244868673382,-9.39757820072174,2.799031291820109
1775719652388711700,2.778711669921875,-0.12753789055664091,-9.396964452737569,2.8019933564960957
1775719652398724600,2.788724609375,-0.11321972547466866,-9.395281029695273,2.8082451103672383
1775719652408737500,2.798737548828125,-0.1041345108764246,-9.39196445249319,2.819670759744942
1775719652418751700,2.808751708984375,-0.10027823730707168,-9.387281263113021,2.835364880222082
1775719652428764700,2.8187646484375,-0.10000061680893413,-9.381983741226792,2.852854944205284
1775719652438777600,2.828777587890625,-0.10154938062089494,-9.37665465515852,2.870262882862985
1775719652448791800,2.838791748046875,-0.1051155486698728,-9.371996600219607,2.885309353086352
1775719652458804500,2.848804443359375,-0.11067679039305076,-9.368459073743223,2.896565198855102
1775719652468817700,2.858817626953125,-0.11869531647469847,-9.366165409848094,2.9036604178130623
1775719652478831600,2.86883154296875,-0.13013497611144556,-9.36471579556167,2.9078412106290457
1775719652488844500,2.878844482421875,-0.14441350330277344,-9.363751918965578,2.9102684377759696
1775719652498858800,2.888858642578125,-0.15991501468410715,-9.3632802098006,2.9109762937843797
1775719652508871700,2.89887158203125,-0.17517584004420786,-9.363239293268322,2.9102342432454225
1775719652518884600,2.908884521484375,-0.18950437125656752,-9.363228187352417,2.9093706121534106
1775719652528898800,2.91889892578125,-0.2011610529111698,-9.362910791966318,2.9096038363873955
1775719652538911500,2.928911376953125,-0.2090905307361856,-9.362247359621524,2.91118087644577
1775719652548924700,2.938924560546875,-0.2147836643438786,-9.361404479056596,2.9134800932988525
1775719652558938600,2.948938720703125,-0.22007201654296368,-9.360535295006633,2.9158740026980636
1775719652568951600,2.95895166015625,-0.22603713549245147,-9.359857834136486,2.917594835141301
1775719652578964700,2.96896484375,-0.2332572594717145,-9.359562650582193,2.9179759434133765
1775719652588978400,2.978978515625,-0.24140850855493917,-9.359546283969282,2.9173607341244816
1775719652598991600,2.98899169921875,-0.2502113351483829,-9.35983094612956,2.915702153262496
1775719652609004800,2.9990048828125,-0.2604623877887614,-9.360541140225529,2.9125270303577184
1775719652619018500,3.0090185546875,-0.2725772798059508,-9.36145299437344,2.908487984099984
1775719652629031700,3.01903173828125,-0.285704435871914,-9.362277754759788,2.9045646731764077
1775719652639044900,3.029044921875,-0.29881566371638324,-9.362433822104334,2.9027503172308204
1775719652649058600,3.03905859375,-0.3098092418197542,-9.361262440237402,2.905366637209058
1775719652659071700,3.04907177734375,-0.3166706520218402,-9.358736721152066,2.9127614236354824
1775719652669084700,3.059084716796875,-0.3196660344455391,-9.354985844185947,2.924453907255828
1775719652679098600,3.0690986328125,-0.32009185864217576,-9.349950188106298,2.9404700992941857
1775719652689111800,3.07911181640625,-0.31732243046145886,-9.344154653570055,2.959135344536602
1775719652699124500,3.08912451171875,-0.3109209293887019,-9.338318787023425,2.9781732224836945
1775719652709138700,3.099138671875,-0.30234199294531716,-9.33310543628931,2.995354366648197
1775719652719151600,3.109151611328125,-0.29323263941965994,-9.328486544317007,3.010604250489175
1775719652729164500,3.11916455078125,-0.28408260682374237,-9.324580184528232,3.0235563787817954
1775719652739178800,3.1291787109375,-0.2738755029229447,-9.321348947522043,3.0344419299334286
1775719652749191700,3.139191650390625,-0.26300480228057127,-9.318612800556421,3.0437913575589657
1775719652759204600,3.14920458984375,-0.25289949652012433,-9.31641266016364,3.0513728987291455
1775719652769218600,3.159218505859375,-0.24456722831418737,-9.314843218889832,3.056839931963384
1775719652779231500,3.1692314453125,-0.23791052863765508,-9.313772959309816,3.0606247111991047
1775719652789244700,3.17924462890625,-0.23318231280567123,-9.312817850542068,3.0638942343890667
1775719652799258600,3.189258544921875,-0.23047794921780004,-9.31177038731575,3.067276862564683
1775719652809271600,3.199271484375,-0.22998773628175256,-9.310908802050351,3.069926500290632
1775719652819284700,3.20928466796875,-0.2312823609358631,-9.310644598156212,3.0706311414286493
1775719652829298700,3.219298583984375,-0.2332368925371207,-9.311075975310802,3.069180650359392
1775719652839311600,3.2293115234375,-0.23811178683079778,-9.312249110743403,3.065241557344794
1775719652849324800,3.23932470703125,-0.2471611537975259,-9.314035409638285,3.059091218021512
1775719652859338800,3.2493388671875,-0.2581650706318207,-9.316271790388226,3.0513670535102486
1775719652869351700,3.2593515625,-0.2708783851998858,-9.318846609312295,3.042381783021986
1775719652879364600,3.269364501953125,-0.2853918810577132,-9.321869756525754,3.0317806017696856
1775719652889378600,3.279378662109375,-0.30082428185874593,-9.325224912172555,3.019944325764477
1775719652899391700,3.289391845703125,-0.31531755691245195,-9.328971112963556,3.006866817526519
1775719652909404700,3.29940478515625,-0.32345859512891617,-9.333154536128044,2.992993190474808
1775719652919418600,3.309418701171875,-0.32011626243107016,-9.337943523970246,2.9783745902746914
1775719652929431600,3.319431640625,-0.30419700969485564,-9.343464917740226,2.9626822233632204
1775719652939445800,3.32944580078125,-0.2781735471767373,-9.349775416061282,2.9452842215776442
1775719652949458700,3.339458740234375,-0.24540618162266908,-9.356425521600245,2.9270231732219454
1775719652959471600,3.3494716796875,-0.20968690746044738,-9.363420495054125,2.907365994332731
1775719652969485800,3.35948583984375,-0.17378040363043545,-9.37117067078948,2.884675146836042
1775719652979498800,3.369498779296875,-0.13768911781804635,-9.378923184612393,2.8613340187370775
1775719652989511700,3.37951171875,-0.10231686699520796,-9.384715796539187,2.843769135951996
1775719652999525600,3.389525634765625,-0.06871773135869298,-9.386957437986135,2.8373747587397693
1775719653009538600,3.39953857421875,-0.036492507574020415,-9.385238359108566,2.843652816095948
1775719653019551700,3.4095517578125,-0.0051822620469290995,-9.380548155465721,2.8593180027395486
1775719653029565700,3.419565673828125,0.026498898010142147,-9.37417160617113,2.880031412683427
1775719653039578600,3.42957861328125,0.0613613635467831,-9.366703754508494,2.903698119474947
1775719653049591600,3.439591552734375,0.10068181313928216,-9.358649042868613,2.928467819072306
1775719653059605500,3.44960546875,0.14369984774123876,-9.349700597259401,2.9551366302892563
1775719653069618700,3.45961865234375,0.18882818902805446,-9.339550959166884,2.9845442188203335
1775719653079631600,3.469631591796875,0.23458620652053505,-9.328632090267538,3.0152915315225717
1775719653089645600,3.4796455078125,0.2785277674418874,-9.317285935866833,3.0464737285107373
1775719653099658800,3.48965869140625,0.3183238625889644,-9.305366365492343,3.078834029367566
1775719653109671700,3.499671630859375,0.35294947802927346,-9.292083105549215,3.1149653731957074
1775719653119685600,3.509685546875,0.38153278109803795,-9.276830591359735,3.1567750549212095
1775719653129698800,3.51969873046875,0.4046024353118613,-9.260470992711186,3.2016157749056813
1775719653139711700,3.529711669921875,0.42407085016332563,-9.243843683037161,3.2468291275948284
1775719653149725700,3.5397255859375,0.4396340742697939,-9.227830121347308,3.290025587503612
1775719653159738600,3.549738525390625,0.4514514263788238,-9.213780553206801,3.3275857950910925
1775719653169751600,3.55975146484375,0.4617285998411476,-9.20238822157681,3.357561246638
1775719653179765800,3.569765869140625,0.4708373871112242,-9.193594674268365,3.3803114231064915
1775719653189778700,3.57977880859375,0.47742856553718444,-9.187361917358636,3.39629751226753
1775719653199791600,3.58979150390625,0.481713768575713,-9.182856422632932,3.407854094548523
1775719653209805800,3.599805908203125,0.48385742954090233,-9.178809193068743,3.4184368633612987
1775719653219818500,3.609818603515625,0.4816675548138097,-9.174563226062059,3.4301252553284165
1775719653229831700,3.619831787109375,0.4760329099277034,-9.170202692764997,3.4425469300061464
1775719653239845600,3.629845703125,0.46989751244522626,-9.166491563287376,3.4532623852878808
1775719653249858600,3.639858642578125,0.4637412913704291,-9.16434110725522,3.459791787056625
1775719653259871700,3.649871826171875,0.459323876786977,-9.164126003199815,3.460953816573322
1775719653269885400,3.659885498046875,0.45859011915232983,-9.165081696489453,3.4585222055122253
1775719653279898600,3.669898681640625,0.46283170224484055,-9.166443047970533,3.45434491982758
1775719653289911800,3.679911865234375,0.4725916103674099,-9.166899559566378,3.4518118942186233
1775719653299925500,3.689925537109375,0.48709915140848603,-9.164704095348716,3.4556215156346557
1775719653309938700,3.699938720703125,0.5047741435045376,-9.159825675657391,3.466003208917379
1775719653319951600,3.70995166015625,0.5271557423889637,-9.153457309669255,3.4794700087338684
1775719653329965600,3.719965576171875,0.5555870697664097,-9.146459998127817,3.4934164087608455
1775719653339978800,3.729978759765625,0.5889416788902133,-9.139370916649698,3.506479888473451
1775719653349991700,3.73999169921875,0.6254051772821694,-9.132643654221296,3.5176781588360666
1775719653360005600,3.750005615234375,0.6611866847593337,-9.126939889621735,3.5259257626995444
1775719653370018800,3.760018798828125,0.6924916313443332,-9.12306860114634,3.5299387977331875
1775719653380031500,3.770031494140625,0.7185959405463188,-9.120427146726847,3.531541556754708
1775719653390045700,3.780045654296875,0.7374002289332449,-9.117942928695678,3.5340810121044512
1775719653400058600,3.79005859375,0.7472502264920622,-9.114567899304628,3.5407135819867253
1775719653410071600,3.800071533203125,0.7521616716701537,-9.109085083979368,3.5537618641301987
1775719653420085800,3.810085693359375,0.7588380076289176,-9.101146692195535,3.5726273081198334
1775719653430098400,3.820098388671875,0.7718670005500317,-9.090504302150011,3.596849310706556
1775719653440111600,3.830111572265625,0.7894429161857813,-9.07815627723038,3.6241201794698834
1775719653450125600,3.84012548828125,0.8071108209539204,-9.06641089437902,3.649541913235187
1775719653460138500,3.850138427734375,0.8206169298674911,-9.056235537323355,3.671730071906745
1775719653470151700,3.860151611328125,0.8259674971152097,-9.046544164392351,3.6943452238187193
1775719653480165600,3.87016552734375,0.8224255867246538,-9.036820058235525,3.7188565647408365
1775719653490178600,3.880178466796875,0.8097456995021551,-9.02720525767207,3.7448975994482634
1775719653500191700,3.890191650390625,0.7885111152283847,-9.017932402414083,3.7716751317366954
1775719653510205700,3.900205810546875,0.7601573465991764,-9.009986996367573,3.796402453497052
1775719653520218600,3.910218505859375,0.7244185092199593,-9.003314678996801,3.819153506748378
1775719653530231800,3.920231689453125,0.6831188959084451,-8.998258564651012,3.8386265612423416
1775719653540245500,3.93024560546875,0.6410577967051416,-8.994723960784077,3.8541342192366717
1775719653550258700,3.9402587890625,0.5980807517006993,-8.992810236117244,3.865497324772179
1775719653560271600,3.950271728515625,0.5543786072921008,-8.994452742627262,3.8681875867694613
1775719653570285600,3.96028564453125,0.5119818463936447,-9.001018092492222,3.858749604077637
1775719653580298800,3.970298828125,0.47247149111907927,-9.012003596886991,3.8380908469304442
1775719653590311400,3.9803115234375,0.43706564855389296,-9.025221974900365,3.81113035929054
1775719653600325600,3.99032568359375,0.4050546725913882,-9.038813277879356,3.7823499627470967
1775719653610338600,4.000338623046875,0.3792184397410601,-9.052758801123499,3.751552381162345
1775719653620351500,4.0103515625,0.3612790976203978,-9.06637056236863,3.720319038508832
1775719653630365700,4.02036572265625,0.35035876741632815,-9.079806382524966,3.688457334823906
1775719653640378600,4.030378662109375,0.34754937255140395,-9.093617465734482,3.65454454382807
1775719653650392600,4.040392578125,0.35383250794149934,-9.107268974468111,3.6197818580046293
1775719653660405800,4.05040576171875,0.36716136059202253,-9.120630560344457,3.5846462472155687
1775719653670418700,4.060418701171875,0.385486487159878,-9.133004304227232,3.551064295609295
1775719653680432600,4.0704326171875,0.40523470533341166,-9.1439559063524,3.520549330358207
1775719653690445600,4.080445556640625,0.42357060902360827,-9.153632081714273,3.4931378840804097
1775719653700458500,4.09045849609375,0.4376757432762533,-9.161248986458778,3.4713594752535224
1775719653710472700,4.10047265625,0.4457787875698879,-9.165912886616587,3.4579885370269414
1775719653720485600,4.110485595703125,0.44913617170639336,-9.16821824094951,3.4514421841233967
1775719653730498600,4.12049853515625,0.44723114180266854,-9.169816323795914,3.4474417163103817
1775719653740512500,4.130512451171875,0.441491721367836,-9.17194982869327,3.44250309086442
1775719653750525700,4.140525634765625,0.4337460391445085,-9.174871269097924,3.435689319196343
1775719653760538600,4.15053857421875,0.4236797319538891,-9.177668790861963,3.4294746824651954
1775719653770552600,4.160552490234375,0.41098234560731794,-9.179366242429614,3.42647228577882
1775719653780565800,4.170565673828125,0.395159301520884,-9.179622263017297,3.4276483438208696
1775719653790578700,4.18057861328125,0.37790969523005186,-9.178791072890162,3.4318186152428387
1775719653800592600,4.190592529296875,0.36026137194521723,-9.177759391754865,3.436472578528523
1775719653810605600,4.20060546875,0.3410449225608259,-9.177084853494167,3.440232807844877
1775719653820618800,4.21061865234375,0.32062629431243983,-9.176865073263645,3.4427781084135174
1775719653830632700,4.2206328125,0.30062101437160743,-9.177556562659143,3.442741575795412
1775719653840645600,4.230645751953125,0.2818070631071925,-9.179162244290113,3.4400513137981292
1775719653850658600,4.240658447265625,0.26552973591461776,-9.180590815788507,3.437535823845863
1775719653860672800,4.2506728515625,0.25347227317309007,-9.18032427380681,3.439152319131791
1775719653870685700,4.260685791015625,0.24712312334207817,-9.177595725625753,3.446888466341793
1775719653880698600,4.27069873046875,0.24684207791099325,-9.17254662554264,3.4603231174543496
1775719653890712800,4.280712890625,0.2510729021474719,-9.16571824082732,3.478069494286179
1775719653900725500,4.2907255859375,0.26036437077438457,-9.157908443859219,3.4979020297423005
1775719653910738700,4.30073876953125,0.27733530625430863,-9.150134887248278,3.516890223328769
1775719653920752600,4.310752685546875,0.3001831709436141,-9.1434514639616,3.5323633945316075
1775719653930765600,4.320765625,0.32583533419761807,-9.13850991590619,3.54285848506093
1775719653940778800,4.33077880859375,0.35049963719174265,-9.135158851912617,3.5491391727656123
1775719653950792400,4.34079248046875,0.3718178446283564,-9.132733086070418,3.5532179665118453
1775719653960805600,4.3508056640625,0.3890024959241971,-9.130586721691488,3.5568861336305737
1775719653970818800,4.36081884765625,0.4025984750783071,-9.128042297905683,3.561898408834636
1775719653980832500,4.37083251953125,0.41191454842351377,-9.125050714874266,3.5684926925331353
1775719653990845700,4.380845703125,0.4186088949630037,-9.12204101166427,3.5754049561396237
1775719654000858600,4.390858642578125,0.4253673927798867,-9.119813983264565,3.5802830835700035
1775719654010872600,4.40087255859375,0.4348413235679269,-9.118699300020932,3.58198638035655
1775719654020885800,4.4108857421875,0.44666879521217195,-9.118808021092415,3.5802526884317394
1775719654030898700,4.420898681640625,0.45769791955295946,-9.120203274843096,3.5753026648089286
1775719654040912600,4.43091259765625,0.46612610414773226,-9.122188895702362,3.5691467725276946
1775719654050925800,4.44092578125,0.4715265384191647,-9.123878163963555,3.5641093628823755
1775719654060938500,4.4509384765625,0.47365120242293923,-9.124707016003132,3.5617069779157635
1775719654070952700,4.46095263671875,0.4749822683636099,-9.124448072806,3.5621924233451483
1775719654080965600,4.470965576171875,0.47888764177169646,-9.123467829596995,3.5641824281185865
1775719654090978600,4.480978515625,0.48314117103032767,-9.12275179028213,3.5654409037470813
1775719654100992800,4.49099267578125,0.48641547999326135,-9.12293766824305,3.5645199895098805
1775719654111005400,4.50100537109375,0.49241139593981204,-9.12429668163657,3.560214693531394
1775719654121018600,4.5110185546875,0.5028902294540778,-9.126266520404815,3.553692598286271
1775719654131032800,4.52103271484375,0.5187517423873766,-9.127588708919285,3.5480163062155246
1775719654141045000,4.531044921875,0.5404777999725192,-9.126496822029353,3.5475779147982593
1775719654151058000,4.541057861328125,0.5650123391071334,-9.122174867177009,3.5548683640673753
1775719654161072000,4.551072021484375,0.5879612530181184,-9.114972972974181,3.569591593685746
1775719654171085000,4.5610849609375,0.6053324763946235,-9.10588950280845,3.589811374893784
1775719654181098000,4.571097900390625,0.6127239383528009,-9.096288730770349,3.612826047517359
1775719654191112000,4.58111181640625,0.6058155837364494,-9.087963970017432,3.6348727518916126
1775719654201125000,4.591125,0.5828861051782965,-9.082530254530907,3.652158817735314
1775719654211138000,4.601137939453125,0.5452190396828577,-9.080530605146288,3.662935355554521
1775719654221152000,4.611152099609375,0.4991560844270512,-9.081244890895485,3.667728142789006
1775719654231165200,4.621165283203125,0.45579683517199004,-9.083751320758461,3.6671672940358517
1775719654241178000,4.63117822265625,0.4221074046032503,-9.086604956623912,3.6641295337751507
1775719654251192000,4.641192138671875,0.4004614265169948,-9.08862155714333,3.6615523767635225
1775719654261205000,4.651205078125,0.3912427491316572,-9.089713444033265,3.659839143104851
1775719654271218200,4.66121826171875,0.3910607801608741,-9.08996303488016,3.6592359165146946
1775719654281232100,4.671232177734375,0.3937780397629365,-9.089352209505439,3.660465750570595
1775719654291245000,4.6812451171875,0.39351398199927057,-9.088990974977612,3.6613884183734653
1775719654301258000,4.691258056640625,0.38734270948581395,-9.089520551809668,3.660728785420954
1775719654311272200,4.701272216796875,0.3732817066358402,-9.091248398515582,3.6579002839967605
1775719654321285000,4.71128515625,0.35068544208742675,-9.094269792163372,3.6526284810736773
1775719654331298000,4.721298095703125,0.32006518983095883,-9.098349754953384,3.6452652588292955
1775719654341312300,4.731312255859375,0.28336187306744975,-9.1033363111943,3.6358415969237683
1775719654351325000,4.741324951171875,0.24417757140947505,-9.109000912827252,3.6244817062586545
1775719654361338000,4.751338134765625,0.2088655994065106,-9.114783587881922,3.612131050990522
1775719654371352000,4.76135205078125,0.1851998059304431,-9.119946085211634,3.6003704705700277
1775719654381365000,4.771364990234375,0.17718009253870695,-9.123404701232909,3.5920045010238884
1775719654391378200,4.781378173828125,0.18238272094940766,-9.124398972967267,3.5892139935225247
1775719654401391900,4.791391845703125,0.195527595335152,-9.12316037108302,3.5916739538952704
1775719654411405000,4.801405029296875,0.2083772861666046,-9.12092165224552,3.5966315763026473
1775719654421418000,4.81141796875,0.21315489409826693,-9.11889102320075,3.601495675207674
1775719654431432000,4.821431884765625,0.20461596087170764,-9.118037621241807,3.6041505736306307
1775719654441445000,4.831445068359375,0.17983431510822848,-9.11847951979041,3.6043542795091867
1775719654451458000,4.8414580078125,0.13941911081527358,-9.12021379623711,3.6017563719704744
1775719654461472000,4.851471923828125,0.08681341025196015,-9.123259155282378,3.595688157972693
1775719654471485200,4.861485107421875,0.026409993600693994,-9.127531425774096,3.585783726812899
1775719654481498000,4.871498046875,-0.03254204834861448,-9.13287746297717,3.5720965622439977
1775719654491512000,4.881511962890625,-0.08020250421222298,-9.139045922479033,3.555527704758942
1775719654501525200,4.891525146484375,-0.11046930338852107,-9.145025581410527,3.5393051764935253
1775719654511538000,4.901537841796875,-0.1253680083048064,-9.149822752559185,3.526388411775231
1775719654521552100,4.91155224609375,-0.13018122640596702,-9.152211109000444,3.5200101089149713
1775719654531565000,4.92156494140625,-0.13036534166806377,-9.151296916764974,3.5223797606557605
1775719654541578000,4.931577880859375,-0.1319817638887558,-9.147434980639815,3.5323365065246817
1775719654551592200,4.94159228515625,-0.1387758810082916,-9.141915924957393,3.546332883173227
1775719654561604900,4.95160498046875,-0.15190041585890576,-9.13627178159058,3.5603140622526404
1775719654571618000,4.9616181640625,-0.17185149966077878,-9.131716017982363,3.5710789096340534
1775719654581632300,4.97163232421875,-0.19739817498000337,-9.129491327670216,3.575447041715681
1775719654591645000,4.98164501953125,-0.2258976174239069,-9.129082746869326,3.5748008527666326
1775719654601658000,4.991658203125,-0.25408529050489886,-9.130022073546051,3.5705066627040503
1775719654611672000,5.001672119140625,-0.2790840313514694,-9.132009447970987,3.5635502676948905
1775719654621685000,5.01168505859375,-0.29909221563544125,-9.135233086192608,3.553651097232103
1775719654631698200,5.0216982421875,-0.31306689190883186,-9.139771898666023,3.540756836606562
1775719654641711900,5.0317119140625,-0.3218048365725204,-9.145200937977433,3.5259219633072614
1775719654651725000,5.04172509765625,-0.3266551992131397,-9.150236594057082,3.512386189907789
1775719654661738200,5.05173828125,-0.3287104512425139,-9.154090346875787,3.5021371830940247
1775719654671752000,5.061751953125,-0.33041663410589095,-9.157205264025926,3.493822066952288
1775719654681765000,5.07176513671875,-0.33307777960654344,-9.160463973560928,3.4850179982498286
1775719654691778000,5.081778076171875,-0.33631829589772966,-9.164448074761033,3.4742104807704686
1775719654701792000,5.0917919921875,-0.3410225280659273,-9.169850810587405,3.459470592278242
1775719654711805200,5.10180517578125,-0.3478655258284882,-9.17676044384539,3.4404122560650108
1775719654721817900,5.11181787109375,-0.3582633299957961,-9.184694159454107,3.4181057317107912
1775719654731832000,5.12183203125,-0.3732793320156634,-9.193214735040067,3.3934994059816
1775719654741845200,5.13184521484375,-0.39185025003813206,-9.201599701547622,3.3685914669573305
1775719654751858000,5.14185791015625,-0.41112442095912993,-9.209141787490248,3.3456089430376887
1775719654761872100,5.1518720703125,-0.42956060668602586,-9.215842746433616,3.3247719067141412
1775719654771885000,5.161885009765625,-0.4474766044637188,-9.222408680820465,3.30413740722537
1775719654781898000,5.17189794921875,-0.4651930976139381,-9.229677795040606,3.281315334564447
1775719654791912200,5.181912109375,-0.48043059689737855,-9.23839944615662,3.254469120953977
1775719654801924900,5.1919248046875,-0.490381862873584,-9.248805689358711,3.223273187701404
1775719654811938000,5.20193798828125,-0.49344852043520654,-9.260950885182618,3.1877433168977496
1775719654821952000,5.211951904296875,-0.49077173897400495,-9.274454509878158,3.14865166195929
1775719654831965000,5.22196484375,-0.4863225775454193,-9.287960472661256,3.1092882043421266
1775719654841978000,5.23197802734375,-0.4844101680528372,-9.300439430484175,3.072060297448933
1775719654851992000,5.241991943359375,-0.48594227299094195,-9.311346024423838,3.038599926395714
1775719654862005000,5.2520048828125,-0.49186475837510074,-9.320614788028598,3.009088000707328
1775719654872018200,5.26201806640625,-0.501600737632811,-9.32889103346467,2.9817107489600776
1775719654882032000,5.2720322265625,-0.5106603519989177,-9.336422013491392,2.9564924288123846
1775719654892045000,5.282045166015625,-0.5166023092685267,-9.343090823730826,2.9343118689253926
1775719654902058200,5.292058349609375,-0.5189828477295115,-9.34919849295616,2.914368566571176
1775719654912072000,5.302072021484375,-0.5165745079461485,-9.355348247757554,2.8949940040156243
1775719654922085000,5.312085205078125,-0.5093386749411002,-9.361524306043982,2.876251601883769
1775719654932098000,5.32209814453125,-0.49911641000378876,-9.367515070891379,2.858483597742021
1775719654942112000,5.332112060546875,-0.4885781013872474,-9.373494145300985,2.840650419409573
1775719654952125200,5.342125244140625,-0.4802462898390367,-9.379397231864928,2.8225249801322816
1775719654962138000,5.35213818359375,-0.4758732989192009,-9.38472807149887,2.8054923045277596
1775719654972152000,5.362152099609375,-0.4761375758785754,-9.389213107958435,2.790397903509438
1775719654982165000,5.3721650390625,-0.47959286743160334,-9.393159215235709,2.7764973884508013
1775719654992178000,5.382177978515625,-0.4830408889936283,-9.396797863999009,2.7635569505959747
1775719655002192100,5.392192138671875,-0.48486949266027657,-9.400286875158548,2.7513398585796356
1775719655012205000,5.402205078125,-0.4844597062829882,-9.403803943368793,2.73936738897413
1775719655022218000,5.412218017578125,-0.47996338124442844,-9.407411027950047,2.727754108069837
1775719655032232000,5.42223193359375,-0.4704611011447385,-9.411406235066055,2.715601605722308
1775719655042245000,5.4322451171875,-0.4563967007612809,-9.415622975978255,2.703356164394319
1775719655052258000,5.442258056640625,-0.4405266026627272,-9.419773081395029,2.691509659256041
1775719655062272000,5.45227197265625,-0.4245317822059616,-9.42363209491074,2.680541398257017
1775719655072285200,5.46228515625,-0.40937092835530636,-9.427021152827143,2.6709727749228476
1775719655082298000,5.472298095703125,-0.39605325468592345,-9.42986017564535,2.6629455358117817
1775719655092312000,5.48231201171875,-0.38543344179838895,-9.432194756072759,2.6562247031241655
1775719655102325000,5.492324951171875,-0.378098276604712,-9.434235906511544,2.65002409491837
1775719655112338200,5.502338134765625,-0.3731638889424503,-9.435974274611473,2.64453163498193
1775719655122352000,5.51235205078125,-0.36891642409842457,-9.437370697405933,2.640134276805818
1775719655132365000,5.522364990234375,-0.36278950218334793,-9.438725619146227,2.6361361470803617
1775719655142379000,5.53237890625,-0.3537520996490493,-9.440465156289935,2.631133808748424
1775719655152393200,5.542393310546875,-0.3404641635308042,-9.442249117097258,2.6264821835502983
1775719655162406000,5.552406005859375,-0.32236279924884437,-9.44347778210938,2.6243478018701074
1775719655172419000,5.562419189453125,-0.30035821698326615,-9.444079255133866,2.624796422420442
1775719655182433000,5.57243310546875,-0.2756186202632263,-9.444587204656004,2.625680511778593
1775719655192446000,5.582446044921875,-0.24961693118549882,-9.445184586027263,2.626136731113493
1775719655202459100,5.592459228515625,-0.2235026668450795,-9.445338899806142,2.627927706183493
1775719655212472000,5.60247216796875,-0.199211307082884,-9.444655009195207,2.6323379238411784
1775719655222486000,5.612486083984375,-0.17812453378196805,-9.443522205772995,2.6379104632765054
1775719655232499200,5.622499267578125,-0.1598153902345337,-9.442426227229832,2.6429960959777232
1775719655242512000,5.632511962890625,-0.14422805460011587,-9.441651151204109,2.646657248833775
1775719655252526000,5.642526123046875,-0.130914910975378,-9.440897702488302,2.650037246660888
1775719655262539000,5.6525390625,-0.1201175495638512,-9.439981756687164,2.6538071205884215
1775719655272552000,5.662552001953125,-0.11139141406896523,-9.439009696784614,2.6576421687066554
1775719655282566100,5.672566162109375,-0.10343338600290007,-9.43838601192832,2.6601816240563987
1775719655292578800,5.682578857421875,-0.09493148771794513,-9.438736725062132,2.659253987817466
1775719655302592000,5.692592041015625,-0.0857293504754547,-9.439620522159338,2.656429285785556
1775719655312606200,5.702606201171875,-0.07762894566347822,-9.440289215201139,2.6542989957585927
1775719655322619000,5.712618896484375,-0.07210219073179178,-9.440693119826912,2.6530188928201794
1775719655332632000,5.722632080078125,-0.06930598870858085,-9.441320896336435,2.6508605457425114
1775719655342646000,5.73264599609375,-0.06976787973244208,-9.442147994810343,2.6479025727197527
1775719655352659000,5.742658935546875,-0.07296499527331907,-9.44295521954,2.644931447954476
1775719655362672000,5.752672119140625,-0.07849212009776384,-9.44375543000698,2.6419147304818034
1775719655372685800,5.762685791015625,-0.08693636991134844,-9.444321247196196,2.6396254505008456
1775719655382699000,5.772698974609375,-0.09839327294384129,-9.444601233181357,2.6382176295295356
1775719655392712200,5.782712158203125,-0.11097210181150585,-9.444587204656004,2.637769593501091
1775719655402726000,5.792725830078125,-0.12281852475139311,-9.444439905139804,2.637774854198098
1775719655412739000,5.802739013671875,-0.1338369541682303,-9.444248181959987,2.6379288757160304
1775719655422752000,5.812751953125,-0.14427538260687142,-9.444207849949597,2.637517372305691
1775719655432766000,5.822765869140625,-0.1533180823707953,-9.444173363158106,2.6371350949898362
1775719655442779100,5.832779052734375,-0.16161089534917844,-9.443862397512794,2.637750596539676
1775719655452791800,5.842791748046875,-0.17096622299253939,-9.443079138180613,2.6399647654578087
1775719655462806000,5.852805908203125,-0.18186554694119839,-9.441903080138564,2.6434438397452236
1775719655472819200,5.862819091796875,-0.19450183248398825,-9.44056744762063,2.6473104520455
1775719655482832000,5.872831787109375,-0.20875008326806127,-9.439283837550878,2.6507991709440946
1775719655492846000,5.88284619140625,-0.22388567481329663,-9.437910795632003,2.6544492178842423
1775719655502859000,5.89285888671875,-0.23949425416514275,-9.43607247428894,2.6596201907813546
1775719655512872000,5.902871826171875,-0.2545803805454634,-9.433652553665638,2.6667896440193055
1775719655522886100,5.91288623046875,-0.2678971591657027,-9.43058907444179,2.6763012764692307
1775719655532898800,5.92289892578125,-0.2783277513577603,-9.427273081761598,2.6869059648528695
1775719655542912000,5.932912109375,-0.28576257753362877,-9.424037168580293,2.6974577540054914
1775719655552926000,5.942926025390625,-0.2903671669859439,-9.421291084742546,2.7065347944304348
1775719655562939000,5.95293896484375,-0.2925083619994111,-9.419059380167722,2.7140672357618807
1775719655572952000,5.9629521484375,-0.29289074891312045,-9.417097140184044,2.7208228475019336
1775719655582966000,5.972966064453125,-0.29163119557239114,-9.415583228489757,2.726196941755712
1775719655592979000,5.98297900390625,-0.2887207514857873,-9.414615844762325,2.729846696434915
1775719655602992000,5.9929921875,-0.2854908296538517,-9.414023724088072,2.7322236546993253
1775719655613006000,6.003006103515625,-0.28317097187153994,-9.413884023356436,2.7329452469721436
1775719655623019000,6.01301904296875,-0.281253758339677,-9.414399571663141,2.731368206913769
1775719655633032200,6.0230322265625,-0.2782874193473719,-9.415471000286937,2.7279762263879177
1775719655643046000,6.0330458984375,-0.27361734517710284,-9.417025243991613,2.7230758871257303
1775719655653059000,6.04305908203125,-0.26710038276482373,-9.419182714286446,2.716252763107419
1775719655663072000,6.053072021484375,-0.25894036585325375,-9.421592113515734,2.70867911298275
1775719655673086000,6.0630859375,-0.24994749658042564,-9.424014956748485,2.7010873426795006
1775719655683099100,6.07309912109375,-0.2397987352707423,-9.42641091197431,2.6936326427593826
1775719655693112000,6.083112060546875,-0.22855518272798506,-9.428694054475427,2.6866128271251917
1775719655703126000,6.0931259765625,-0.2167179751410149,-9.431009345680474,2.6794571101516484
1775719655713139000,6.103138916015625,-0.2042615031445399,-9.433727956989406,2.6708535324573517
1775719655723152000,6.11315185546875,-0.19199781377380712,-9.436972637999057,2.66028186956048
1775719655733166000,6.123166015625,-0.1802393705114722,-9.4403424066931,2.649118378250301
1775719655743179000,6.133178955078125,-0.16874277478940783,-9.44347602854371,2.6386875851288436
1775719655753192000,6.14319189453125,-0.15663672366579995,-9.446082996171713,2.6300845919564364
1775719655763206000,6.153205810546875,-0.1441325218037702,-9.447975678050517,2.624000011345744
1775719655773219000,6.163218994140625,-0.13168910108511336,-9.448893961939214,2.621348035532236
1775719655783232000,6.17323193359375,-0.11971804711855948,-9.448770043298602,2.6223615964889526
1775719655793246000,6.183245849609375,-0.10894326286502182,-9.447789800089597,2.6263661559551954
1775719655803259100,6.193259033203125,-0.09991327645219862,-9.446132096010446,2.632681330451369
1775719655813272000,6.20327197265625,-0.09228521099286154,-9.443661321982741,2.64180893201977
1775719655823286000,6.2132861328125,-0.08431451524146832,-9.43998643286228,2.655168472069502
1775719655833299000,6.223298828125,-0.07606554140481166,-9.434778342825174,2.6738606053188443
1775719655843312000,6.23331201171875,-0.0680124326335499,-9.427930668887495,2.6981255702644584
1775719655853326000,6.243326171875,-0.059332931025675495,-9.419816336014867,2.726521351404488
1775719655863339000,6.253339111328125,-0.048743444777745754,-9.41080067038834,2.757685720475018
1775719655873352000,6.26335205078125,-0.0362755129556288,-9.400910560014843,2.791406203769147
1775719655883366100,6.2733662109375,-0.023115345102630087,-9.39000513511896,2.8280121793717146
1775719655893379000,6.283379150390625,-0.010053727411903673,-9.377842403638363,2.8681650338008997
1775719655903392000,6.29339208984375,0.0015894774169617448,-9.36425051613748,2.912247336633503
1775719655913405000,6.303405029296875,0.01047101210905821,-9.349335271078347,2.959767797221243
1775719655923419000,6.3134189453125,0.01722456089783227,-9.333754840108751,3.0085075704708695
1775719655933432000,6.32343212890625,0.02365144300701795,-9.31801717275083,3.056860682490468
1775719655943446000,6.333446044921875,0.03090050995297497,-9.302348478975892,3.104153471802175
1775719655953459000,6.343458984375,0.040151457056542855,-9.28689021308124,3.149995185522735
1775719655963472100,6.35347216796875,0.05272128976699896,-9.271637698891759,3.1944241098359227
1775719655973485000,6.363485107421875,0.06857826352249831,-9.256818899944424,3.2368156831026074
1775719655983499000,6.3734990234375,0.0862205132595729,-9.242513311216234,3.277026405198872
1775719655993512000,6.383511962890625,0.10439263208964839,-9.22909561123848,3.314105843532085
1775719656003525000,6.393525146484375,0.12235993079631588,-9.216685042476653,3.347855845181644
1775719656013539000,6.4035390625,0.1379732502553612,-9.204951350063086,3.3793802797362207
1775719656023552000,6.413552001953125,0.14996004978031852,-9.193962923058868,3.40865284371078
1775719656033565000,6.42356494140625,0.15739059250671417,-9.1841675052315,3.434626950661838
1775719656043579100,6.4335791015625,0.16337494587963447,-9.175445854115486,3.4575860937058924
1775719656053592000,6.443592041015625,0.17127707903999834,-9.167219877561926,3.4789565062537786
1775719656063605000,6.45360498046875,0.18349965094905346,-9.159149968352914,3.4995246625080703
1775719656073619200,6.463619140625,0.2006741096444428,-9.150991211816669,3.519870408183336
1775719656083631900,6.4736318359375,0.22278860029159112,-9.142637809491157,3.54019189620018
1775719656093645000,6.48364501953125,0.2485235281919129,-9.134155812349915,3.5603108473822473
1775719656103659000,6.493658935546875,0.27651087466152385,-9.125606595191359,3.5801170793533323
1775719656113672000,6.503671875,0.30605500385276974,-9.11775295908153,3.597678455007076
1775719656123685000,6.51368505859375,0.33499165040384976,-9.111101684498786,3.6119241302415728
1775719656133698800,6.52369873046875,0.3603881035974249,-9.105743372336029,3.6229730552613733
1775719656143711000,6.5337109375,0.38191688504479826,-9.101562287259101,3.631261575657129
1775719656153724000,6.543723876953125,0.40033199145104736,-9.097975660943984,3.6382638556346296
1775719656163738000,6.553738037109375,0.41543121477495876,-9.094311877739429,3.645724400773644
1775719656173751000,6.5637509765625,0.4271298724077642,-9.090200935289262,3.6546126406282182
1775719656183764000,6.573763916015625,0.4375076567003503,-9.085379798743128,3.665359367831051
1775719656193778000,6.58377783203125,0.45000604987610127,-9.079934392818808,3.6773224850863215
1775719656203791000,6.593791015625,0.46652390782628206,-9.074085082268715,3.689678985573351
1775719656213804000,6.603803955078125,0.48731516877934333,-9.068361443924903,3.7010488131105896
1775719656223818000,6.61381787109375,0.5109815833099186,-9.063173227632046,3.7105496319055553
1775719656233831200,6.6238310546875,0.534767934425734,-9.058537384524941,3.7185131581306456
1775719656243844000,6.633843994140625,0.5565130620375275,-9.054379680323601,3.7254382812187075
1775719656253858000,6.643858154296875,0.5745080068029463,-9.050523589417338,3.7320705588400362
1775719656263871000,6.65387109375,0.58932450419534,-9.046588588055968,3.7392929113090037
1775719656273884200,6.66388427734375,0.6013943697607145,-9.042965721383691,3.7461324019402262
1775719656283898000,6.673898193359375,0.6114377709997818,-9.039774816387892,3.7521988623723384
1775719656293911000,6.6839111328125,0.6217693049978464,-9.036713675251603,3.7578734008774157
1775719656303924000,6.693924072265625,0.6348459364529698,-9.033761839708685,3.7627804621413348
1775719656313938200,6.703938232421875,0.6510380695801228,-9.031357701176404,3.7657778903916475
1775719656323951000,6.713951171875,0.6679753950513899,-9.030036097183823,3.7659891950547695
1775719656333964000,6.723964111328125,0.6829145324427635,-9.030028498399258,3.763322898454964
1775719656343978200,6.733978271484375,0.6950762410100549,-9.031205725485085,3.7582661995872853
1775719656353991000,6.743990966796875,0.704244101523608,-9.034052931609748,3.7497099681660533
1775719656364004000,6.754004150390625,0.711395946039632,-9.03878872795999,3.736923259568214
1775719656374018000,6.76401806640625,0.7184536094661802,-9.045310823205114,3.719754390363395
1775719656384031000,6.774031005859375,0.7246005147233605,-9.053611618560552,3.6983088667526838
1775719656394044200,6.784044189453125,0.7278959760721773,-9.063281364181638,3.6738904648110267
1775719656404057000,6.79405712890625,0.7275954587556421,-9.073771778535843,3.6479672112643717
1775719656414071000,6.804071044921875,0.7248455755256116,-9.084732148489355,3.621136487483978
1775719656424084000,6.814083984375,0.721326607619226,-9.096132663425802,3.593109831917286
1775719656434097200,6.82409716796875,0.718994219148904,-9.10777458590269,3.5639690776288506
1775719656444111000,6.834111083984375,0.7194291765000671,-9.11905995002687,3.534904311186075
1775719656454124000,6.8441240234375,0.7239061027184128,-9.129792356443405,3.506170091871917
1775719656464137000,6.854136962890625,0.730502797569707,-9.140027334731817,3.4780241938397287
1775719656474151200,6.864151123046875,0.7361081432960928,-9.150399091142415,3.449451887089014
1775719656484164000,6.8741640625,0.7394863875575364,-9.16109584172368,3.420216147993505
1775719656494177000,6.884177001953125,0.7387652336761354,-9.172284175214171,3.3902553094938397
1775719656504191200,6.894191162109375,0.7324518127456306,-9.183766523215175,3.360403484326601
1775719656514204000,6.904203857421875,0.7206615678392351,-9.194631616100668,3.3331302774757146
1775719656524217000,6.914217041015625,0.7038149163261056,-9.20449600751102,3.3094214851081367
1775719656534231000,6.92423095703125,0.6815883253403008,-9.213679430919886,3.2884535158813
1775719656544244000,6.934243896484375,0.6564240734674036,-9.221612562006712,3.2712939990267156
1775719656554257200,6.944257080078125,0.6307970994535833,-9.22823577953875,3.25762466237545
1775719656564270800,6.954270751953125,0.6065771426934748,-9.233840759938955,3.246325854247808
1775719656574284000,6.964283935546875,0.5863322635767981,-9.238393016415834,3.237077841170132
1775719656584297000,6.974296875,0.5750874506587162,-9.241492735996841,3.2302433189749715
1775719656594311000,6.984310791015625,0.5748737713754177,-9.242906694447994,3.2262372982040044
1775719656604324000,6.994323974609375,0.5838080788614228,-9.242970407333969,3.224444277307391
1775719656614337000,7.0043369140625,0.6000182956345379,-9.242142139816284,3.2238395894125103
1775719656624351000,7.01435107421875,0.6218537684109061,-9.240416046676039,3.224650905795395
1775719656634364200,7.0243642578125,0.6440812361795455,-9.238201877757906,3.2266350653499365
1775719656644377000,7.034377197265625,0.6625954555787146,-9.235586726823449,3.2303722060516473
1775719656654391000,7.04439111328125,0.6762466720513999,-9.232502204811572,3.2363533262878654
1775719656664404200,7.054404296875,0.6848878052771091,-9.228257406848668,3.2466254217162724
1775719656674417000,7.0644169921875,0.690642934737727,-9.221941647830604,3.263307384186983
1775719656684431000,7.07443115234375,0.6975909272447228,-9.212908446547388,3.287257876355946
1775719656694444000,7.084444091796875,0.7079878911618143,-9.201747001063824,3.3161732974559066
1775719656704457000,7.09445703125,0.7184124737381935,-9.190278097066283,3.345597252599895
1775719656714471200,7.10447119140625,0.7231223319295793,-9.180663881024717,3.3708851308524608
1775719656724483800,7.11448388671875,0.719846744325012,-9.174515879788995,3.3882840094208717
1775719656734497000,7.1244970703125,0.7060807423662394,-9.172151488745213,3.397567678333819
1775719656744511200,7.13451123046875,0.6812644271481781,-9.172261963382363,3.4023344543442127
1775719656754524000,7.14452392578125,0.6500060231186449,-9.17316329613626,3.4060151886835692
1775719656764537000,7.154537109375,0.6180033765930683,-9.172857591187954,3.4127935967773197
1775719656774551000,7.164551025390625,0.5896590699119493,-9.169553288945556,3.4266602095663545
1775719656784564000,7.17456396484375,0.5666158653136343,-9.162758806499838,3.448651384361088
1775719656794577200,7.1845771484375,0.5523517411069944,-9.15305691217482,3.4766149115636944
1775719656804590000,7.194590087890625,0.5474884093869478,-9.141609635487198,3.5073701153114434
1775719656814604000,7.20460400390625,0.5496408016478642,-9.130019735458493,3.537093637923896
1775719656824617200,7.2146171875,0.5552147293226793,-9.11933876696825,3.5636741863355037
1775719656834630000,7.2246298828125,0.5616399035319686,-9.109737994930148,3.5871436169892545
1775719656844644000,7.23464404296875,0.5694359277030453,-9.100481506285071,3.609340835750103
1775719656854657300,7.2446572265625,0.5800048141209408,-9.09184694893062,3.629368601517379
1775719656864670000,7.254669921875,0.5952821339581161,-9.083630909249186,3.6474224368631836
1775719656874684200,7.26468408203125,0.6142500154089182,-9.075302056843041,3.6649674459040162
1775719656884697000,7.274697021484375,0.6351310370046646,-9.067119919431208,3.681623104889691
1775719656894710000,7.2847099609375,0.6560791324872524,-9.060181644600629,3.695000472857058
1775719656904724200,7.29472412109375,0.6749892924014479,-9.056190529137849,3.701380529282987
1775719656914737000,7.30473681640625,0.6894109087247401,-9.056012834483385,3.6991482401862736
1775719656924750000,7.31475,0.6973337376132607,-9.059677786731719,3.6886753614887593
1775719656934764000,7.324763916015625,0.7010845415141433,-9.06654182728231,3.6710561181679364
1775719656944777000,7.33477685546875,0.7044273491360247,-9.075411946958303,3.648431029383838
1775719656954790100,7.3447900390625,0.7079271008852869,-9.085378629699349,3.6228567354053256
1775719656964804000,7.35480419921875,0.7114348167452961,-9.096906570407748,3.593124152703583
1775719656974817000,7.364817138671875,0.7145208000618964,-9.110663877603411,3.557476500739157
1775719656984830200,7.374830322265625,0.7160686870910227,-9.126929368227719,3.5152234591603277
1775719656994844000,7.384843994140625,0.7144223811887204,-9.145600166428089,3.4666929447472095
1775719657004857000,7.394857177734375,0.7053184527568519,-9.165755650228261,3.4149422992438074
1775719657014870300,7.404870361328125,0.6863618964176624,-9.185607182645796,3.3651039171025157
1775719657024884000,7.414884033203125,0.6580128039635718,-9.204354553213715,3.319228885634243
1775719657034897200,7.424897216796875,0.6225316676724701,-9.221907745561003,3.277078719907999
1775719657044910000,7.43491015625,0.5822380165331066,-9.238104847124218,3.238640268181264
1775719657054924000,7.444924072265625,0.5410899039888755,-9.253059839671849,3.202884771928191
1775719657064937200,7.454937255859375,0.5026329302247613,-9.26682065399885,3.169187961770594
1775719657074950000,7.464949951171875,0.46800578041449187,-9.279499518308043,3.1372336113661525
1775719657084964000,7.474964111328125,0.43747225659340616,-9.29123788689673,3.1067543019503354
1775719657094977000,7.48497705078125,0.4144718316908926,-9.30158567790985,3.078820877625048
1775719657104990000,7.494989990234375,0.40050468113683163,-9.31046514993608,3.0537220922037958
1775719657115004200,7.505004150390625,0.3939969797432422,-9.318368470406531,3.030372488537431
1775719657125017000,7.51501708984375,0.39385534278284756,-9.324631622454524,3.011066315042972
1775719657135030000,7.525030029296875,0.3992074444005266,-9.328808031356335,2.997389087346196
1775719657145044000,7.5350439453125,0.4076491825966164,-9.330543476846813,2.9908497487053274
1775719657155057700,7.5450576171875,0.4171329406589269,-9.329605319213867,2.9924641981646416
1775719657165070800,7.55507080078125,0.42877164826542136,-9.326554114949703,3.0003184187963603
1775719657175083800,7.565083740234375,0.44326293229144065,-9.322464799809456,3.010902941174805
1775719657185097700,7.57509765625,0.4595534477591514,-9.317982685959338,3.0223151465490457
1775719657195111000,7.58511083984375,0.47665761769730597,-9.313574806389212,3.0332357690140603
1775719657205123600,7.59512353515625,0.491838856748864,-9.309819837769865,3.042324499876797
1775719657215137800,7.6051376953125,0.5040704156819731,-9.306820655953883,3.0494892769396302
1775719657225150700,7.615150634765625,0.5138436582101509,-9.304560309806465,3.0547549423828717
1775719657235163600,7.62516357421875,0.52044488310609,-9.303086730122565,3.058121496206522
1775719657245177900,7.635177734375,0.5255402700163424,-9.302383550289273,3.0593896164461967
1775719657255190800,7.645190673828125,0.5312201057510451,-9.302541371199489,3.057930357548594
1775719657265203700,7.65520361328125,0.5363675151094794,-9.303549671459198,3.053962038439512
1775719657275217700,7.6652177734375,0.5417872751358896,-9.305312004956603,3.0476223140239713
1775719657285230800,7.67523095703125,0.5493972021503374,-9.307720235142112,3.038900370647013
1775719657295243800,7.685243896484375,0.5583626719595864,-9.31093101388216,3.0274089625567195
1775719657305257700,7.6952578125,0.5672100683471187,-9.314505365237594,3.0147344821617006
1775719657315270700,7.705270751953125,0.5759015800531954,-9.318283714732527,3.001384002201259
1775719657325283800,7.715283935546875,0.585178125105612,-9.322571767315267,2.9862343638643623
1775719657335297800,7.7252978515625,0.5950120117798448,-9.327691594547034,2.9682506711453196
1775719657345310700,7.735310791015625,0.6045220002619549,-9.333933119285106,2.946633298099041
1775719657355324000,7.745323974609375,0.6131137048553675,-9.341354209196567,2.9212311458170412
1775719657365337900,7.755337890625,0.61866666280739,-9.34983386825025,2.8927924023181197
1775719657375350800,7.765350830078125,0.6186411630399525,-9.3589728679955,2.8630922605812548
1775719657385363700,7.77536376953125,0.6119176634712145,-9.3682053912431,2.834197297747433
1775719657395378000,7.7853779296875,0.599308539929986,-9.376973219588399,2.8077693095490335
1775719657405390800,7.795390869140625,0.5851422866072505,-9.38459772311747,2.7852000426053998
1775719657415403800,7.80540380859375,0.5726627807950601,-9.391132677844165,2.765695423929393
1775719657425417700,7.815417724609375,0.5633570461807772,-9.396915937420726,2.747906669260561
1775719657435430700,7.8254306640625,0.5584660227362066,-9.402423302665353,2.7300065631717443
1775719657445443800,7.83544384765625,0.55756333827544,-9.407791551700234,2.7116394240930677
1775719657455456800,7.845456787109375,0.5584642326379194,-9.413046988010406,2.693154796114564
1775719657465470700,7.855470703125,0.5570287199420854,-9.417650682413578,2.6773051928147673
1775719657475483600,7.865483642578125,0.5469500647265464,-9.421670439448953,2.665214649787545
1775719657485496800,7.875496826171875,0.5245128631973639,-9.425923420718311,2.6546616915911434
1775719657495510800,7.8855107421875,0.49204628895446656,-9.430881919908524,2.643244810041785
1775719657505523700,7.895523681640625,0.4548675549652427,-9.436382270890475,2.630240659300983
1775719657515537000,7.905536865234375,0.4197880217449739,-9.442052133220434,2.6156886945962903
1775719657525550800,7.91555078125,0.3927573184130713,-9.44773017885685,2.5993288036867974
1775719657535563800,7.925563720703125,0.37731235039141026,-9.453198381134866,2.581678872966766
1775719657545576700,7.93557666015625,0.37412378348316994,-9.457990291586517,2.5645386453345416
1775719657555591000,7.9455908203125,0.3800467437913641,-9.461620757043361,2.550230133996904
1775719657565603800,7.955603759765625,0.3907313290107995,-9.463816805782914,2.540454005391896
1775719657575616800,7.96561669921875,0.40185503629986197,-9.464525830835104,2.536070675741136
1775719657585630700,7.975630615234375,0.40790184218343345,-9.464266303116082,2.5360733060896394
1775719657595643600,7.9856435546875,0.4044281381908804,-9.464130109515786,2.5371362591460347
1775719657605656800,7.99565673828125,0.3899206702150404,-9.465205045270919,2.5353946761757133
1775719657615670800,8.0056708984375,0.3657547451971099,-9.46800256703496,2.52854729449898
1775719657625683700,8.01568359375,0.3379016926316544,-9.472472990447283,2.5156492344811556
1775719657635696600,8.025696533203124,0.3119687214085832,-9.478137592080236,2.497595691396296
1775719657645710600,8.035710693359375,0.2908291402081959,-9.4840962082237,2.4774437147274613
1775719657655723800,8.045723876953126,0.27555689840493724,-9.489476732218264,2.4585116352424023
1775719657665736700,8.05573681640625,0.2685497778555378,-9.493469601246714,2.443829614417255
1775719657675750000,8.06575,0.2719761173087172,-9.49519569438696,2.4367292808927594
1775719657685763800,8.075763916015624,0.2845487812970765,-9.49440775887966,2.4383709106199443
1775719657695776800,8.08577685546875,0.3012876067878678,-9.491329082086681,2.448320934487134
1775719657705789700,8.095789794921876,0.3168966793300584,-9.486410914906859,2.4653522949174045
1775719657715804000,8.105803955078125,0.327146745589748,-9.480448791632055,2.486853055846691
1775719657725816800,8.11581689453125,0.32781806898005306,-9.474740350857376,2.5084274665340778
1775719657735829800,8.125829833984374,0.31806287356521934,-9.470726439040899,2.5247896955311298
1775719657745844000,8.135843994140625,0.30203095423476767,-9.46904593860805,2.5330446059182283
1775719657755856600,8.145856689453124,0.28297616168549283,-9.469441075405477,2.533767074973881
1775719657765869800,8.155869873046875,0.26345044542253016,-9.471392209473251,2.5285768128544093
1775719657775883800,8.1658837890625,0.2481359536464326,-9.47400736040771,2.520316349509358
1775719657785896700,8.175896728515625,0.23991826999718321,-9.47620925436616,2.5128175181865693
1775719657795910000,8.185909912109375,0.23818881585607304,-9.47713747512698,2.509484866632521
1775719657805923600,8.195923583984374,0.23993122081030158,-9.47689899019599,2.510217564821243
1775719657815936800,8.205936767578125,0.2410290625169873,-9.47601870023012,2.513433019736409
1775719657825949700,8.21594970703125,0.23742798755140973,-9.47482686009705,2.5182664312422274
1775719657835963600,8.225963623046875,0.22751106223622336,-9.473694641196728,2.523438865444064
1775719657845976800,8.235976806640625,0.21190862036421892,-9.473439205130934,2.525757079258561
1775719657855989800,8.24598974609375,0.19600224537588654,-9.474507126623392,2.523032914991677
1775719657866003700,8.256003662109375,0.18484662684490902,-9.47665173743665,2.515807055391371
1775719657876017000,8.266016845703126,0.18009904872532934,-9.47924759914875,2.506350367999077
1775719657886029800,8.27602978515625,0.18105390176475047,-9.482170208597182,2.495206165911257
1775719657896042800,8.286042724609375,0.18622717621680349,-9.484988188627362,2.484090605396032
1775719657906057000,8.296056884765624,0.1928342828642577,-9.48739934142232,2.4743626998469233
1775719657916069600,8.306069580078125,0.19854971963530404,-9.4895030357033,2.4658280957356093
1775719657926082800,8.316082763671876,0.2035592914256267,-9.491550031360983,2.4575214551612734
1775719657936096800,8.3260966796875,0.20953935221591963,-9.49327261736989,2.450356385837495
1775719657946109700,8.336109619140625,0.2160880797396414,-9.494534600129724,2.4448951978221536
1775719657956123000,8.346122802734374,0.2220620030500926,-9.495702474865316,2.4398132183827457
1775719657966136600,8.356136474609375,0.2265223069272004,-9.49696270405948,2.4344929001428186
1775719657976149800,8.366149658203126,0.22866012267349287,-9.498546173858642,2.428111236281693
1775719657986162700,8.37616259765625,0.22946736566945908,-9.500465159222482,2.4205114288024605
1775719657996176600,8.3861767578125,0.2301502881660126,-9.502529106014967,2.412334698218107
1775719658006189800,8.39618994140625,0.23331647884566337,-9.504594806373118,2.403878712300956
1775719658016202800,8.40620263671875,0.2399630772532895,-9.506647647249698,2.395086480166763
1775719658026216700,8.416216796875,0.24799002410341053,-9.50851168755591,2.386856119699031
1775719658036230000,8.42622998046875,0.25460836453093216,-9.509736260914803,2.381282849611342
1775719658046242800,8.436242919921876,0.2572099070651457,-9.510237780696153,2.378998391935974
1775719658056256800,8.4462568359375,0.2560250629284419,-9.51050432267785,2.378052927779406
1775719658066270000,8.45627001953125,0.25304871399877593,-9.510907642781733,2.376758357924223
1775719658076282600,8.46628271484375,0.2485063030624762,-9.511702008029818,2.3740625429689883
1775719658086296800,8.476296875,0.2420181831521913,-9.513290154004096,2.36835717093423
1775719658096309800,8.486309814453126,0.23429973599566145,-9.515719426977634,2.359357725790143
1775719658106322700,8.49632275390625,0.22592099829949439,-9.518751926541327,2.347918486278504
1775719658116337000,8.5063369140625,0.21672730922494082,-9.522175471249222,2.3348598288714886
1775719658126349600,8.516349609375,0.20742281671967355,-9.525887185248733,2.3205228220917284
1775719658136362800,8.52636279296875,0.19898736213389784,-9.529739769023656,2.3053933497600254
1775719658146376200,8.536376220703126,0.18963252768088132,-9.53359235279858,2.2902070326745507
1775719658156390000,8.546389892578125,0.17742013010596855,-9.53734264524281,2.275519751152396
1775719658166403000,8.556403076171875,0.1616742611752823,-9.54090121450722,2.2617319026879965
1775719658176416000,8.566416015625,0.14171432734667322,-9.544076337412,2.249652027185261
1775719658186430000,8.576429931640625,0.11692979550636373,-9.547072596618532,2.238334806618094
1775719658196443100,8.586443115234376,0.08817156512895598,-9.550268762311338,2.2259743606083093
1775719658206456000,8.5964560546875,0.05786386312011163,-9.553954172825813,2.211105731169879
1775719658216470000,8.606469970703126,0.028456815728440412,-9.557993803605436,2.1941597109355033
1775719658226483200,8.616483154296875,0.0026579971310406107,-9.562000116637348,2.176821330382675
1775719658236496000,8.626495849609375,-0.01809430663679959,-9.565646948707103,2.160665583743155
1775719658246510000,8.636510009765624,-0.032275147890602235,-9.568587678334117,2.147432154291123
1775719658256523000,8.64652294921875,-0.03924816067442298,-9.57076326880753,2.1376029803246257
1775719658266536000,8.656535888671876,-0.039234976965864185,-9.572281856676936,2.1307902315698564
1775719658276550100,8.666550048828125,-0.033638017758622296,-9.57305751722455,2.1274026349581776
1775719658286562800,8.676562744140625,-0.024543523875379468,-9.572882745179534,2.1283122971490025
1775719658296576000,8.686575927734374,-0.01348490172876045,-9.571972060075401,2.1325003964886067
1775719658306590200,8.696590087890625,-0.00250051357672055,-9.57059434198141,2.138718248090148
1775719658316603000,8.706602783203126,0.00757031823573343,-9.568914426070451,2.146208019323647
1775719658326616000,8.716615966796875,0.0172950026354054,-9.567157353270053,2.153973977150023
1775719658336630000,8.726630126953125,0.02812651291170623,-9.56537163889706,2.161774567898363
1775719658346643000,8.736642822265624,0.0415979934698902,-9.563524549725651,2.169714567117393
1775719658356656000,8.74665625,0.05917479958820622,-9.561415010225772,2.178580887401104
1775719658366669000,8.7566689453125,0.0807282542525325,-9.558888706618546,2.1889539589859544
1775719658376683000,8.76668310546875,0.1062786102330312,-9.555733457458018,2.2015965829379853
1775719658386696200,8.7766962890625,0.1352859017343726,-9.551531329593061,2.2181886751681565
1775719658396708900,8.786708984375,0.16558069402929396,-9.546234392228722,2.23883720318228
1775719658406723000,8.79672314453125,0.19589743329454212,-9.539967733049393,2.2629649516142902
1775719658416736000,8.806736083984376,0.22475169879179446,-9.53314694711864,2.288888059030473
1775719658426749000,8.8167490234375,0.2515705129386857,-9.526251342386006,2.3146581678420306
1775719658436763100,8.82676318359375,0.27648458944279697,-9.5195129740417,2.3394055094771087
1775719658446775800,8.83677587890625,0.2987765555487014,-9.513352697846292,2.361618802589923
1775719658456789000,8.8467890625,0.3183538193358108,-9.508120057889819,2.3800611988618967
1775719658466803200,8.85680322265625,0.33529041415471583,-9.503798687559366,2.394950871088356
1775719658476816000,8.86681591796875,0.3486661746868864,-9.500196863675116,2.4073025492697955
1775719658486829000,8.8768291015625,0.35751525157485153,-9.496980239716171,2.418664778022468
1775719658496843000,8.886843017578125,0.36173403831366446,-9.4941108217597,2.429279987800121
1775719658506856000,8.89685595703125,0.3618980697689578,-9.491509699350594,2.4393995230153203
1775719658516869000,8.906869140625,0.35747608860824254,-9.489379701584577,2.4483196193128824
1775719658526883000,8.916883056640625,0.3489109066955745,-9.488223517286777,2.4540280600875612
1775719658536896000,8.92689599609375,0.3375742142429575,-9.488344513317942,2.4551480040282008
1775719658546909200,8.9369091796875,0.32442382343187925,-9.489856671446562,2.451073448065668
1775719658556921900,8.946921875,0.31208127840496597,-9.492449026027321,2.4426290064558387
1775719658566936000,8.95693603515625,0.302916541430261,-9.495503152900934,2.4318859325148163
1775719658576949000,8.966948974609375,0.29815184777909887,-9.498478369319438,2.4208316006675363
1775719658586962000,8.9769619140625,0.2987318030915223,-9.500965509960055,2.410974077389389
1775719658596976000,8.98697607421875,0.3042666956638917,-9.502649517524242,2.4036318979330358
1775719658606988800,8.99698876953125,0.3128653049221262,-9.503607548901439,2.398739595846832
1775719658617002000,9.007001953125,0.32177944640293715,-9.504232987323403,2.3950839959487316
1775719658627016200,9.01701611328125,0.3295310469103977,-9.504800558078289,2.391765665180981
1775719658637028900,9.02702880859375,0.33605219230744987,-9.505791322681308,2.3869231935858726
1775719658647042000,9.0370419921875,0.34050442247595636,-9.507469485026597,2.379597673003375
1775719658657056000,9.047055908203125,0.3428459441008046,-9.509756134659051,2.3700994845569134
1775719658667069000,9.05706884765625,0.34348033301420505,-9.512584636083245,2.3586339415602384
1775719658677082000,9.06708203125,0.3430028516955673,-9.515702475842833,2.346086448545754
1775719658687096000,9.077095947265626,0.3421491940082982,-9.518684122002124,2.3340935206741094
1775719658697109000,9.08710888671875,0.3410535077260807,-9.521331421640514,2.323428334274888
1775719658707122200,9.0971220703125,0.3410134679766372,-9.523703995990752,2.313687276983261
1775719658717136000,9.107135986328124,0.34380817672908304,-9.52583282471299,2.3044949396155774
1775719658727149000,9.117149169921875,0.34931926830075677,-9.527635490220785,2.296194436521083
1775719658737162200,9.127162353515626,0.3563600536577403,-9.529107316339015,2.288997218493372
1775719658747175000,9.1371748046875,0.3641064300008118,-9.530181083050369,2.283300175895542
1775719658757189000,9.147189208984376,0.3708745358962565,-9.530974279254675,2.2788920040644705
1775719658767201800,9.157201904296874,0.37480891620311885,-9.53178559563756,2.2748545652419327
1775719658777215000,9.167215087890625,0.37522630136497315,-9.532858193305135,2.270289595413953
1775719658787229200,9.177229248046874,0.3718765160130337,-9.534393147787451,2.2643873856328427
1775719658797241900,9.187241943359375,0.366531465190649,-9.536453587448596,2.2565637062698602
1775719658807255000,9.197255126953126,0.3615249621402472,-9.538806288054586,2.2474121393039823
1775719658817269000,9.20726904296875,0.3583308057414368,-9.540980709484218,2.23867426770553
1775719658827282000,9.217281982421875,0.3572705195661634,-9.54276993098855,2.231203639563918
1775719658837295000,9.227295166015624,0.35816122132819145,-9.544121345597505,2.225275564689189
1775719658847309000,9.23730908203125,0.36061515381895004,-9.545065932971239,2.2208298373267055
1775719658857322000,9.247322021484376,0.36369036001320926,-9.545849776825309,2.216950219414383
1775719658867335200,9.257335205078125,0.36595107148680833,-9.54679787133038,2.21249309387505
1775719658877348900,9.267348876953125,0.36680447344575073,-9.547895018917322,2.2076142357923088
1775719658887362000,9.277362060546874,0.3658845821218565,-9.548992166504263,2.2030163866080343
1775719658897375200,9.287375244140625,0.36301026879455894,-9.549846152985095,2.1997861725151537
1775719658907389000,9.297388916015626,0.3587766863454133,-9.550424245133996,2.197971962700039
1775719658917402000,9.307402099609375,0.35469391054380683,-9.550795416533946,2.1970212378464637
1775719658927415000,9.3174150390625,0.3519812175190076,-9.551237315082549,2.1955402055084705
1775719658937429000,9.327428955078124,0.3520466474380344,-9.551898993861675,2.1926436072841287
1775719658947442200,9.337442138671875,0.35505039583127945,-9.552637245008349,2.1889400765910745
1775719658957454800,9.347454833984376,0.3609927184270695,-9.55315805401206,2.1856850203178824
1775719658967468000,9.357468017578125,0.36967034773826596,-9.553340424841641,2.1834425020880994
1775719658977482000,9.36748193359375,0.38013007469326254,-9.553031797283888,2.182997680930048
1775719658987495000,9.377494873046874,0.3904217881375924,-9.55228127117753,2.184458839523792
1775719658997508000,9.387508056640625,0.39874749873857945,-9.551450081050396,2.186597166726738
1775719659007522000,9.39752197265625,0.40461138580329714,-9.55079074035883,2.1883998322345315
1775719659017535000,9.407534912109375,0.4090735163113102,-9.550251811176539,2.189923242409527
1775719659027548200,9.417548095703125,0.4136344675512984,-9.549604745444654,2.191883436566591
1775719659037562000,9.42756201171875,0.4186806084923446,-9.54884895864129,2.194220062820613
1775719659047575000,9.437574951171875,0.4242751405637711,-9.547901448658108,2.1972585537336764
1775719659057588200,9.447588134765626,0.4310645084429532,-9.546680966952442,2.2012426549337802
1775719659067602000,9.457601806640625,0.4401268992880359,-9.545199203962087,2.2058692918211222
1775719659077615000,9.467614990234376,0.4501951061747968,-9.543689383921027,2.210366749370843
1775719659087628000,9.4776279296875,0.4589705698372796,-9.542273087382316,2.214672922132164
1775719659097642000,9.48764208984375,0.4661036000549793,-9.540936285820603,2.218932625403255
1775719659107655200,9.4976552734375,0.47247160071693356,-9.539567335554956,2.223467930745333
1775719659117667800,9.507667724609375,0.4791972557101398,-9.53816389849782,2.2280431297063825
1775719659127682000,9.51768212890625,0.4873878686893731,-9.536564062085747,2.2331080118805167
1775719659137695000,9.527695068359375,0.4993477710742503,-9.534297870719433,2.2401371798649428
1775719659147707400,9.537707275390625,0.5162619348656385,-9.53103857666254,2.2501529624447225
1775719659157720600,9.547720458984376,0.5375254164403304,-9.526703177806734,2.2634838609218595
1775719659167734500,9.557734619140625,0.5637284002438188,-9.521398057135938,2.2793806643642482
1775719659177747500,9.56774755859375,0.5943856600424274,-9.515157116919756,2.2975774153120816
1775719659187760600,9.5777607421875,0.6276144508294761,-9.508056345003842,2.3180517558030784
1775719659197774300,9.5877744140625,0.6610678806852549,-9.50030266213715,2.340436021568626
1775719659207787500,9.59778759765625,0.6925465033367276,-9.492014141741395,2.364828412286192
1775719659217800700,9.60780078125,0.7218357992503792,-9.483215333735941,2.3912274666510522
1775719659227814400,9.617814453125,0.7501376184966415,-9.473600533172487,2.420447569786012
1775719659237827600,9.62782763671875,0.7783496405676007,-9.463146359175443,2.4522262713626026
1775719659247840500,9.637840576171875,0.8074201060988009,-9.451966793513298,2.485712945900857
1775719659257854500,9.6478544921875,0.8369275748077779,-9.440518932303785,2.5192265084460375
1775719659267867600,9.65786767578125,0.8660770969245583,-9.429201419475675,2.551555245120823
1775719659277880300,9.66788037109375,0.8956540506731718,-9.417634900322556,2.5838594318762422
1775719659287894500,9.67789453125,0.9261506034847349,-9.405576798260212,2.616827635498345
1775719659297907700,9.68790771484375,0.9584745178539306,-9.393017176416516,2.6500799167588354
1775719659307920400,9.69792041015625,0.9914291313420981,-9.380406701168418,2.6824241432636975
1775719659317933600,9.70793359375,1.0231924892190842,-9.367900855338572,2.71402251983732
1775719659327947500,9.717947509765626,1.0520182592742144,-9.355778455868363,2.744643868072331
1775719659337960400,9.72796044921875,1.0766422667905688,-9.344495429831742,2.7733775028645993
1775719659347973600,9.7379736328125,1.097590143077448,-9.334300783553719,2.799375867474079
1775719659357987300,9.7479873046875,1.117135751350969,-9.32527167392373,2.821647612775862
1775719659368000500,9.75800048828125,1.1365742459882051,-9.317349648752808,2.839995170371234
1775719659378013700,9.768013671875,1.1561665429476649,-9.310699543213843,2.853865582552552
1775719659388027400,9.77802734375,1.1757354590315372,-9.305568025544286,2.8625910330608484
1775719659398040600,9.78804052734375,1.1940909807376563,-9.302066739425063,2.8663728896871206
1775719659408053800,9.7980537109375,1.2103178929172456,-9.300157106411456,2.865766448226571
1775719659418067500,9.8080673828125,1.2249117240022867,-9.29942470048368,2.8619381221100686
1775719659428080600,9.81808056640625,1.237688861054182,-9.299145883542298,2.857340565186739
1775719659438093300,9.82809326171875,1.2483911645933985,-9.299141207367182,2.8526971232950684
1775719659448107500,9.838107421875,1.257250032223016,-9.299615839141607,2.8472531786754725
1775719659458120700,9.84812060546875,1.2627055211499332,-9.300979528710245,2.8403809548184276
1775719659468133400,9.85813330078125,1.2637329645015298,-9.303934286862612,2.8302298554211855
1775719659478146600,9.868146484375,1.2601004532180726,-9.308999169036746,2.8151506519719955
1775719659488160500,9.878160400390625,1.2524784339070318,-9.316430780342221,2.7938874991908667
1775719659498173400,9.88817333984375,1.2413872771807015,-9.326233796954154,2.765990022961795
1775719659508186600,9.8981865234375,1.2273463307380676,-9.338049906954168,2.7321844917327165
1775719659518200600,9.90820068359375,1.2121242847520857,-9.351208663734793,2.6937024931252003
1775719659528213500,9.918213623046874,1.198004354789108,-9.364971231627464,2.6518808287009596
1775719659538226700,9.928226806640625,1.185106733162701,-9.378961763057113,2.6078756827577947
1775719659548240400,9.938240478515626,1.173023861985281,-9.39313875696957,2.5619030361339448
1775719659558253600,9.948253662109375,1.1610851485189049,-9.407287693831323,2.5149983693569897
1775719659568266800,9.958266845703125,1.1476235363341867,-9.421572824293374,2.4672487761884927
1775719659578280400,9.968280517578124,1.1315462617583572,-9.436227372589707,2.418188246551901
1775719659588293600,9.978293701171875,1.1124044850453734,-9.451296931427716,2.3676915466323494
1775719659598306300,9.988306396484376,1.090397747355327,-9.466629525116085,2.3161107047379015
1775719659608320500,9.998320556640625,1.06664825765118,-9.481840538251399,2.2643727725856007
1775719659618333700,10.008333740234375,1.0433043530732393,-9.496109886622428,2.2149027853652834
1775719659628346400,10.018346435546874,1.023071712383628,-9.508524547037482,2.170636796528846
1775719659638359600,10.028359619140625,1.0091398523386568,-9.51854500579238,2.1329123382903634
1775719659648373500,10.03837353515625,1.003174075802043,-9.526025716936587,2.102114464444667
1775719659658386400,10.048386474609375,1.00437563361153,-9.53111339546442,2.078336990755051
1775719659668399600,10.058399658203125,1.011608215213567,-9.53396820037365,2.0616718332886697
1775719659678413600,10.06841357421875,1.0240213412586598,-9.534713465783,2.052075737425685
1775719659688426500,10.078426513671875,1.0399908446110784,-9.533794012850523,2.0483096628904343
1775719659698439700,10.088439697265626,1.0570862101882696,-9.531661676996945,2.049484844149649
1775719659708453400,10.098453369140625,1.072350414815545,-9.528723285457492,2.0552083363629876
1775719659718466600,10.108466552734376,1.0842353522680699,-9.525687863284348,2.0630327463783322
1775719659728479700,10.118479736328124,1.0928952632594853,-9.522916645005346,2.0712289123155174
1775719659738493400,10.128493408203125,1.0998624719236045,-9.520513090994953,2.078583220601082
1775719659748506600,10.138506591796874,1.1065204685080796,-9.518429854980111,2.0845846529729664
1775719659758519300,10.148519287109375,1.1130796808931975,-9.516377598625422,2.0904510607883333
1775719659768533500,10.158533447265626,1.1176936044294385,-9.514355152887106,2.0971805151738225
1775719659778546700,10.168546630859375,1.1174943555302916,-9.512586389648913,2.1052955786988137
1775719659788559400,10.178559326171875,1.1103227103352546,-9.511227960777282,2.115207170251757
1775719659798572500,10.188572509765624,1.094055173884332,-9.510395601606369,2.127402050436288
1775719659808586500,10.19858642578125,1.0669912258699537,-9.510461068058014,2.140809229020029
1775719659818599400,10.208599365234376,1.0299567226570099,-9.511763382828235,2.153121451973915
1775719659828612600,10.218612548828125,0.9836574013620615,-9.514315405398607,2.163468658465147
1775719659838626600,10.22862646484375,0.9293202464967966,-9.51757119232416,2.1731500945240256
1775719659848639500,10.238639404296874,0.8722991863097995,-9.520772034192085,2.1827480900831517
1775719659858652700,10.248652587890625,0.8183082875989377,-9.523407058870792,2.1921431104160845
1775719659868666400,10.258666259765626,0.7701577124141156,-9.525006895282864,2.2026113129384814
1775719659878679600,10.268679443359375,0.7288475046433508,-9.525299740749597,2.215364996049553
1775719659888692700,10.278692626953125,0.6948719506096095,-9.524066984084248,2.231525857255608
1775719659898706400,10.28870654296875,0.6677672321934253,-9.521219193437695,2.2518619583196937
1775719659908719600,10.2987197265625,0.6452239764738827,-9.517280100423097,2.274963140182942
1775719659918732300,10.308732177734376,0.6256826059840619,-9.51283773406148,2.29887651521191
1775719659928746500,10.31874658203125,0.6093166506599634,-9.508197214779257,2.322349452996999
1775719659938759700,10.328759765625,0.5969525148557498,-9.50360462629199,2.3442514882035552
1775719659948772400,10.3387724609375,0.5879271680854261,-9.49935164502263,2.363687425557524
1775719659958786600,10.34878662109375,0.5802053416617214,-9.495587324053048,2.380662818016857
1775719659968799500,10.358799560546874,0.5735904900992289,-9.492449610549212,2.3947407354690133
1775719659978812400,10.3688125,0.5683041837267577,-9.490024429228901,2.4055894617415965
1775719659988825600,10.37882568359375,0.5620400452980772,-9.488221179199218,2.414152853555977
1775719659998839600,10.388839599609375,0.5528004347225651,-9.486693238979578,2.4222820917367933
1775719660008852500,10.3988525390625,0.5405538974160328,-9.484719893079996,2.4327510249115525
1775719660018865700,10.40886572265625,0.5249693017279728,-9.481903082093597,2.4471024986080825
1775719660028879400,10.41887939453125,0.50678508146815,-9.47844680415988,2.4642668377682564
1775719660038892500,10.428892578125,0.48762456352207806,-9.474987019094824,2.481374916696548
1775719660048905700,10.43890576171875,0.46931408653408285,-9.471733570256829,2.4972736198350787
1775719660058919400,10.44891943359375,0.45459352379683404,-9.468820897680521,2.5110078384160994
1775719660068932600,10.4589326171875,0.4464694001825526,-9.466126251769065,2.522599492010474
1775719660078945500,10.468945556640625,0.44423729374893006,-9.463211825627088,2.5339047298789024
1775719660088959500,10.47895947265625,0.4470308334575966,-9.459835042670369,2.545988550904393
1775719660098972700,10.48897265625,0.45363045091833915,-9.45559842801392,2.560514504384994
1775719660108985300,10.4989853515625,0.4642337145298719,-9.449961298909782,2.579355690716207
1775719660118998500,10.50899853515625,0.47957408966589715,-9.443148111763596,2.6014117474406957
1775719660129012500,10.519012451171875,0.5013902366872877,-9.435312011310458,2.625617383414507
1775719660139025400,10.529025390625,0.5295937831908464,-9.426478716513515,2.651682383519411
1775719660149038000,10.5390380859375,0.5619384115545079,-9.416979651284217,2.6786361491575836
1775719660159052000,10.549052001953125,0.5953828178536147,-9.407229826164246,2.705532631650567
1775719660169065000,10.55906494140625,0.6265712253868579,-9.397738944241404,2.73135739325881
1775719660179078100,10.569078125,0.6522756485510617,-9.388965855199098,2.755405792844295
1775719660189092000,10.579092041015626,0.6738961634024977,-9.380805345097183,2.777902286812663
1775719660199105000,10.58910498046875,0.6948954045504331,-9.372689258658886,2.8000387152969837
1775719660209118200,10.5991181640625,0.7169742576286197,-9.363961177802086,2.8235733201414344
1775719660219132000,10.6091318359375,0.7398043674655258,-9.354206676506996,2.8498981402263044
1775719660229145000,10.61914501953125,0.7641266886215656,-9.343169734185933,2.8795304774239656
1775719660239158300,10.629158203125,0.7909668378174305,-9.330869640061259,2.9119828404784203
1775719660249172000,10.639171875,0.8187886915270238,-9.317996714484691,2.9453245535880326
1775719660259185200,10.64918505859375,0.8451687489304691,-9.305096316379307,2.9784663602113723
1775719660269198000,10.659197998046874,0.8682179814107716,-9.292830124524235,3.0099627377152443
1775719660279211000,10.6692109375,0.8865265952352434,-9.282036927831172,3.0377994236677885
1775719660289225200,10.67922509765625,0.8987574235159903,-9.272278334882856,3.0638983260422945
1775719660299238000,10.68923779296875,0.9062347736593336,-9.263102510258555,3.0893513317286967
1775719660309251000,10.6992509765625,0.9082152068868279,-9.254821004125475,3.1134900399461385
1775719660319265000,10.70926513671875,0.9038448828481137,-9.24748174727857,3.1364839620426297
1775719660329278000,10.71927783203125,0.8952878477092832,-9.240568022367357,3.1592312159016727
1775719660339291100,10.729291015625,0.8837981931846588,-9.233190187075733,3.1839430478319524
1775719660349305000,10.73930517578125,0.8700983152646571,-9.225146581351757,3.210916979475319
1775719660359318000,10.749318115234376,0.8579523157231509,-9.216666922298073,3.238418442124128
1775719660369331200,10.759331298828124,0.8505920891534536,-9.20792539743781,3.265119986566901
1775719660379345200,10.76934521484375,0.8477651220992207,-9.199131850129366,3.2905396745055913
1775719660389358000,10.779358154296874,0.8493461076803505,-9.189884129312635,3.315876944857836
1775719660399371300,10.789371337890625,0.8538160927012562,-9.179855487251281,3.342402255950868
1775719660409385000,10.799385009765626,0.8578533853933215,-9.169533999723196,3.3695860309526324
1775719660419398100,10.809398193359375,0.8583546859789639,-9.160036688059568,3.3951939349398015
1775719660429411000,10.8194111328125,0.8513538673061877,-9.152952282756566,3.4159964844718576
1775719660439425000,10.829425048828124,0.8351211099077016,-9.148240451803803,3.432587846049666
1775719660449438200,10.839438232421875,0.8128144394230097,-9.143994484797119,3.4492136944189666
1775719660459451000,10.849450927734376,0.7897704676397145,-9.139406572484969,3.466684176918864
1775719660469464000,10.859464111328125,0.7696489591743797,-9.13418328487873,3.4849288586616516
1775719660479478000,10.86947802734375,0.7556548475481569,-9.127882138907909,3.5044475058630105
1775719660489491000,10.879490966796874,0.7502864523828029,-9.11982275109291,3.526515545286238
1775719660499504000,10.889504150390625,0.7529237420838326,-9.110034932050109,3.551161033982038
1775719660509518000,10.89951806640625,0.7617148782394826,-9.099573159268498,3.5760210422113534
1775719660519531000,10.909531005859375,0.7740152646251023,-9.089997521671652,3.5976676413521167
1775719660529544200,10.919544189453125,0.7874835988115518,-9.081669253787398,3.615737843310833
1775719660539558100,10.92955810546875,0.7979969556499272,-9.075567429780959,3.6287276732653377
1775719660549571000,10.939571044921875,0.8012642868828028,-9.072461280459166,3.6357679471656676
1775719660559584300,10.949584228515626,0.7979561852481216,-9.071597357106208,3.6386534394741057
1775719660569598000,10.959597900390625,0.7908713415537029,-9.071883188310265,3.639487552210688
1775719660579611100,10.969611083984375,0.7831261342544108,-9.072505119600892,3.639608255980909
1775719660589624000,10.9796240234375,0.7766901098575443,-9.073096071231365,3.6395179473489523
1775719660599638000,10.989637939453125,0.7740021128825842,-9.073581808921695,3.6388740964874624
1775719660609651200,10.999651123046876,0.7772699555721133,-9.074255178138614,3.6365035679638384
1775719660619664000,11.009663818359375,0.7866486823573708,-9.075900607258081,3.630371933341026
1775719660629677000,11.019677001953125,0.7994734579432755,-9.079806967046856,3.6177810395762324
1775719660639691000,11.02969091796875,0.812863758457452,-9.086278793409466,3.598491817216575
1775719660649704000,11.039703857421875,0.8245525157507508,-9.09451470683515,3.5749554588064547
1775719660659717000,11.049717041015626,0.8358767505805939,-9.102854665157198,3.551019871945679
1775719660669731000,11.05973095703125,0.8471149876274168,-9.109127754077315,3.5322231092780827
1775719660679744000,11.069743896484376,0.8582496181692928,-9.11126359706223,3.5240105767279863
1775719660689757200,11.079757080078124,0.8740436918895691,-9.10837196727395,3.527602756001055
1775719660699771100,11.089771240234375,0.8951353605613112,-9.101949240750073,3.5388735070779918
1775719660709784000,11.0997841796875,0.921346491138637,-9.094118985515832,3.5522537976548074
1775719660719797200,11.10979736328125,0.9546699379391967,-9.08643895240724,3.563093756099045
1775719660729811000,11.11981103515625,0.9943293828282505,-9.079941991603373,3.568806288526952
1775719660739824000,11.12982421875,1.0389685888912528,-9.075201519078016,3.5681446097478267
1775719660749837000,11.139837158203125,1.0870200145505369,-9.072160836207866,3.5615541254416105
1775719660759851000,11.14985107421875,1.1334237460680305,-9.071080055233836,3.5498216020718214
1775719660769864200,11.1598642578125,1.172924347133562,-9.072160251685977,3.5341949938729402
1775719660779876900,11.169876953125,1.2019745735943317,-9.074961280581354,3.517203527061641
1775719660789890000,11.17989013671875,1.2191040606368333,-9.078647275617719,3.5017642581284045
1775719660799904000,11.189904052734375,1.2277674787595867,-9.082382370492816,3.4890272338911887
1775719660809917000,11.1999169921875,1.2329464888326822,-9.084970048898459,3.4804490828990935
1775719660819930000,11.20993017578125,1.2390636565387247,-9.08567556681931,3.4764313716903326
1775719660829944000,11.219944091796876,1.2482830280438064,-9.085155926859379,3.4744998191058634
1775719660839957000,11.22995703125,1.2617236705057322,-9.08386471800506,3.4730151335060593
1775719660849970200,11.23997021484375,1.2806497586414216,-9.08245075955391,3.469783896499872
1775719660859984100,11.249984130859374,1.301123222349584,-9.08299144230187,3.4607425119101998
1775719660869997000,11.2599970703125,1.3171888064876198,-9.086946901929378,3.444242628008127
1775719660880010200,11.27001025390625,1.3265883568651973,-9.094518213966488,3.420570368258655
1775719660890024000,11.28002392578125,1.3275902273841202,-9.105992963182926,3.3895077059969303
1775719660900037000,11.290037109375,1.318941495373845,-9.120600165206193,3.3534181554839013
1775719660910050000,11.300050048828124,1.2989241048701106,-9.13761501289308,3.3146845202028747
1775719660920064000,11.31006396484375,1.271133011624962,-9.156315621709822,3.2736046140566466
1775719660930077200,11.3200771484375,1.2369450569495557,-9.176208655181526,3.2307226269245146
1775719660940089900,11.33008984375,1.1960963292106985,-9.19711115795672,3.1863597535848616
1775719660950103000,11.34010302734375,1.1489008627936244,-9.219120745190978,3.139776573847234
1775719660960117000,11.350116943359374,1.0991052238155157,-9.241770383894442,3.0906402024954556
1775719660970130000,11.3601298828125,1.0486055282212794,-9.264293765869736,3.0403441397145388
1775719660980143000,11.37014306640625,0.9959048154514283,-9.287249694043398,2.9875670737728477
1775719660990157000,11.380156982421875,0.9403099156100302,-9.312126361146568,2.92754661257416
1775719661000170000,11.390169921875,0.8812406176563352,-9.339846727243065,2.8567572123408316
1775719661010183200,11.40018310546875,0.8176000662643462,-9.370140743219851,2.7753163619726893
1775719661020197000,11.410197021484375,0.7518708720300347,-9.401770391714573,2.6854788546591997
1775719661030210000,11.4202099609375,0.6879913242504,-9.432356668636203,2.593781690953672
1775719661040223200,11.43022314453125,0.6298694632146508,-9.459857254502177,2.5069416118904946
1775719661050237200,11.4402373046875,0.5841224785728379,-9.483194875469803,2.4286222545437512
1775719661060250000,11.45025,0.5561657829698174,-9.501712528935075,2.3618907513990997
1775719661070263000,11.460262939453125,0.5457860259158537,-9.516212763452529,2.3052543796807528
1775719661080277000,11.470277099609374,0.5483200013728812,-9.528301260653137,2.2541537225186823
1775719661090290200,11.480290283203125,0.5583301944620906,-9.53928033530712,2.204722167612612
1775719661100303000,11.49030322265625,0.5705658450484276,-9.549906358739733,2.155029477552324
1775719661110316000,11.50031591796875,0.5795335068147629,-9.560697801867127,2.104188348109275
1775719661120330000,11.510330078125,0.5813602473178878,-9.572121113157271,2.0510778124295173
1775719661130343000,11.520343017578124,0.5752080082984641,-9.584236498364806,1.9954794054567813
1775719661140356000,11.530356201171875,0.5614600534530356,-9.596681553918122,1.938769091719389
1775719661150370600,11.54037060546875,0.5430393575562164,-9.608923780375719,1.882571549809724
1775719661160383500,11.550383544921875,0.524155610724911,-9.620286301389337,1.8291385041773318
1775719661170396700,11.560396728515625,0.5067162905482575,-9.630676762500405,1.778680528832972
1775719661180410600,11.57041064453125,0.49165418436434116,-9.640259998881817,1.7303301932923494
1775719661190423600,11.580423583984375,0.4800454700373113,-9.649082772284746,1.6837858842603861
1775719661200436500,11.5904365234375,0.4715257712341845,-9.657051559206844,1.6399376824446021
1775719661210450400,11.600450439453125,0.4627166975630447,-9.664232995143532,1.5996370901077985
1775719661220463600,11.610463623046876,0.4507114947317168,-9.670780224829912,1.5630993574358523
1775719661230476500,11.6204765625,0.4371913207601756,-9.67665759243071,1.5302181014448404
1775719661240490500,11.630490478515625,0.423460317049548,-9.681820674282312,1.5011439826518296
1775719661250503400,11.64050341796875,0.40808472446966915,-9.68642846033871,1.4754486926421522
1775719661260516400,11.650516357421875,0.39281628205869346,-9.690733464056253,1.4511260061599314
1775719661270530600,11.660530517578126,0.38364403763096777,-9.694761404398083,1.4264588901542126
1775719661280543500,11.67054345703125,0.3825098825018853,-9.698332248622178,1.402301623366773
1775719661290556400,11.680556396484375,0.3861036326775327,-9.70136708627343,1.3801464901819824
1775719661300569600,11.690569580078124,0.3892008680405095,-9.70370225122273,1.3627549181371927
1775719661310583600,11.70058349609375,0.385971676860936,-9.705482704898714,1.3509396849200128
1775719661320596500,11.710596435546876,0.372433930700086,-9.707171973159909,1.342580437375605
1775719661330609700,11.720609619140625,0.34673400104790925,-9.709310738754272,1.3339581549808381
1775719661340623600,11.73062353515625,0.3131669912824407,-9.711954531261325,1.3229650518015026
1775719661350636500,11.740636474609374,0.28140204423656684,-9.714683663964271,1.3100081012032925
1775719661360649500,11.7506494140625,0.2595280660807155,-9.717141578510404,1.2962266824796795
1775719661370663400,11.760663330078126,0.2514427949057892,-9.718901573920249,1.2845663475632667
1775719661380676600,11.770676513671875,0.2571332798986696,-9.719767250838876,1.2768778388872741
1775719661390689500,11.780689453125,0.2717874628688209,-9.719671389248967,1.2745567024633289
1775719661400703500,11.790703369140624,0.28769352732989933,-9.71878817667365,1.277805913517624
1775719661410716400,11.80071630859375,0.29685163363441824,-9.71750047495067,1.2854736716665327
1775719661420729600,11.8107294921875,0.29317782222619276,-9.716302789598704,1.295328126204759
1775719661430742500,11.820742431640625,0.27392140615759414,-9.715686119005083,1.3041570370875297
1775719661440756500,11.830756591796876,0.2431889987635426,-9.716157828170061,1.306727618227899
1775719661450769400,11.840769287109374,0.21009145140703767,-9.717850019040704,1.2998600705459713
1775719661460782600,11.850782470703125,0.1838109636542387,-9.720401457089185,1.2846682005025445
1775719661470796500,11.860796630859374,0.1700247226250358,-9.723166830149292,1.265499097391218
1775719661480809500,11.8708095703125,0.16956755344206467,-9.725440035778284,1.2479688475281
1775719661490822700,11.88082275390625,0.17948146481625735,-9.726793203952909,1.235989948181808
1775719661500836600,11.890836669921875,0.1934443958529271,-9.727209383538364,1.2305933498352766
1775719661510849500,11.900849609375,0.20426086382372305,-9.726942841556667,1.2309617447562515
1775719661520862500,11.910862548828124,0.20328536985507234,-9.72634195305407,1.2358451328836382
1775719661530876700,11.920876708984375,0.1833216640336439,-9.725927527034282,1.2422145217850804
1775719661540889600,11.9308896484375,0.14429896441185847,-9.726190561884641,1.245313072322309
1775719661550902500,11.940902587890625,0.08980457315826788,-9.727296477299928,1.2417810988038778
1775719661560916500,11.95091650390625,0.02712488213808974,-9.72919383535385,1.2298159357219933
1775719661570929400,11.960929443359374,-0.03127722974430071,-9.731776837584375,1.2091024527128784
1775719661580942600,11.970942626953125,-0.07551388973826542,-9.734767251572013,1.1827872041739522
1775719661590955500,11.98095556640625,-0.10301311476421542,-9.737878077068924,1.1547745771326123
1775719661600969500,11.990969482421875,-0.11608448552233167,-9.740825820958614,1.1283641245909035
1775719661610982400,12.000982421875,-0.12038230144726111,-9.743548523920774,1.1041603883132338
1775719661620995600,12.01099560546875,-0.12464693662179634,-9.746081841790675,1.0810856560654938
1775719661631009500,12.021009521484375,-0.13661058360002934,-9.748368491423129,1.0588003936950117
1775719661641022500,12.0310224609375,-0.15980454004695638,-9.750571554425358,1.034989017735794
1775719661651035600,12.04103564453125,-0.19275031264154238,-9.752878662323951,1.0072659482255577
1775719661661049600,12.051049560546875,-0.2308458874810487,-9.7553979516685,0.9743260939151048
1775719661671062500,12.0610625,-0.26630689429957416,-9.758154556900262,0.9369592900078744
1775719661681075500,12.071075439453125,-0.29442380369929594,-9.761018129637836,0.8979168079733848
1775719661691089700,12.081089599609374,-0.3144394954362884,-9.76365899953544,0.861659280482307
1775719661701102600,12.0911025390625,-0.3262250276349485,-9.765853294709324,0.8319202680397778
1775719661711115500,12.101115478515625,-0.33006361941713835,-9.767490540522337,0.8109130627810954
1775719661721129500,12.11112939453125,-0.32664000164400786,-9.768564891755581,0.7992745743703097
1775719661731142400,12.121142333984375,-0.317963650974445,-9.769196175396441,0.7950448278460651
1775719661741155600,12.131155517578126,-0.30899244554415345,-9.76948025303483,0.7950855251826345
1775719661751168500,12.14116845703125,-0.306639087351039,-9.769470316162705,0.7961237091239541
1775719661761182500,12.151182373046876,-0.3166226481616497,-9.769134216076136,0.7963437816154211
1775719661771195400,12.1611953125,-0.3423096452670172,-9.768461431381105,0.7939698190256953
1775719661781208600,12.17120849609375,-0.38010157925114035,-9.767543147492407,0.7880508042402565
1775719661791222500,12.181222412109374,-0.41853034983407705,-9.766672794398664,0.7793083295319229
1775719661801235500,12.1912353515625,-0.44867827187106013,-9.765960846737027,0.7714207180872559
1775719661811248600,12.20124853515625,-0.4676381892111152,-9.765334239271283,0.7680906238164752
1775719661821262600,12.2112626953125,-0.4744713596994057,-9.764715230590104,0.7717599599789827
1775719661831275500,12.221275634765625,-0.4726350476503372,-9.76388696307242,0.7832806672289967
1775719661841288400,12.231288330078126,-0.4696526343060657,-9.762484110537171,0.8023064163468777
1775719661851302700,12.241302734375,-0.47418388452753424,-9.760446467229723,0.8241353132519871
1775719661861315600,12.251315673828126,-0.4924287854660302,-9.757408706969022,0.8490290045551955
1775719661871328500,12.26132861328125,-0.5268127011049538,-9.75317910657525,0.8765605700813234
1775719661881342500,12.271342529296875,-0.5737422465948387,-9.747890352517366,0.9054461074996739
1775719661891355400,12.28135546875,-0.6263146933425218,-9.742038119357824,0.9331737801197916
1775719661901368600,12.29136865234375,-0.6799772368818521,-9.73593045013249,0.9589987609237431
1775719661911381500,12.301381591796876,-0.7313898095373064,-9.72980933690369,0.9829832284275442
1775719661921395500,12.3113955078125,-0.7775423427727073,-9.723940152609348,1.0053780886523425
1775719661931408400,12.321408447265625,-0.8181093309607357,-9.718365567347407,1.026866720752418
1775719661941421600,12.331421630859374,-0.8540424488030374,-9.713101363208889,1.0472199190817773
1775719661951435500,12.341435546875,-0.8863446627970785,-9.708332249110937,1.0644431488223374
1775719661961448400,12.351448486328126,-0.9168990832757205,-9.704126029592752,1.0768601473249495
1775719661971461600,12.361461669921875,-0.9483674037288874,-9.700494395092129,1.0823141749471425
1775719661981475600,12.3714755859375,-0.9821150672908872,-9.697381816029548,1.0801031478341667
1775719661991488500,12.381488525390624,-1.0158928337302058,-9.694793553102016,1.072063049241528
1775719662001501400,12.39150146484375,-1.0438444512993097,-9.69303238864839,1.0610817095652223
1775719662011515600,12.401515625,-1.0615300378546118,-9.692309335070847,1.05007735433951
1775719662021528600,12.411528564453125,-1.0687076743990183,-9.692597504362464,1.0400959124207496
1775719662031541500,12.42154150390625,-1.0663072621937841,-9.693756611269713,1.031735715028271
1775719662041555500,12.431555419921875,-1.0580650651577859,-9.695342419156432,1.02528916923739
1775719662051568400,12.441568359375,-1.049851655824855,-9.696833534497022,1.0196204759512095
1775719662061581600,12.45158154296875,-1.0456461669590325,-9.697801502746342,1.014719771362841
1775719662071594500,12.461594482421875,-1.047662036826089,-9.69782605266571,1.0124090832676738
1775719662081608400,12.4716083984375,-1.0569705479193479,-9.696759884738922,1.0129389523606747
1775719662091621600,12.48162158203125,-1.0707355269648133,-9.69498819889128,1.0154353722862899
1775719662101634600,12.491634521484375,-1.0834682403530924,-9.693195470255613,1.0190318624082952
1775719662111648500,12.5016484375,-1.0915357384093105,-9.691890817397832,1.0228397302586585
1775719662121661400,12.511661376953125,-1.0937857092931866,-9.69122270887792,1.0267584380723536
1775719662131674600,12.521674560546876,-1.0911990538008511,-9.691095867627858,1.03069775028266
1775719662141688600,12.5316884765625,-1.0858907913248985,-9.691153735294938,1.035745608256757
1775719662151701800,12.54170166015625,-1.079942769640684,-9.691077162927389,1.0426508576005697
1775719662161714700,12.551714599609374,-1.0730385432101786,-9.691026309522986,1.0502254575733094
1775719662171729000,12.56172900390625,-1.065428725793585,-9.691085930755733,1.0573938878979534
1775719662181741800,12.571741943359376,-1.0592507678110152,-9.690987731078266,1.0644914449434726
1775719662191754800,12.581754638671875,-1.0554084131691603,-9.690554015836119,1.072222185325995
1775719662201769000,12.59176904296875,-1.0516906347550452,-9.690037298485636,1.08051457817927
1775719662211781600,12.60178173828125,-1.0468456058766693,-9.689556821492314,1.0894905693825334
1775719662221794800,12.611794921875,-1.0408473883751779,-9.68913538120985,1.0989525905370712
1775719662231807700,12.621807861328126,-1.034366574988514,-9.688841366699338,1.1076229498572647
1775719662241821700,12.63182177734375,-1.0288958154272287,-9.688580085414648,1.1149867566235363
1775719662251835000,12.6418349609375,-1.0264250413995235,-9.688083241808414,1.121542681073025
1775719662261847800,12.651847900390624,-1.0284538438133894,-9.687240361243486,1.1269656559698282
1775719662271861800,12.66186181640625,-1.036275842675939,-9.685867903846502,1.1315781912665814
1775719662281874700,12.671874755859376,-1.0500590880304574,-9.68391443169117,1.1355943681053817
1775719662291887900,12.681887939453125,-1.0678840830564498,-9.68148749680519,1.1396541648901999
1775719662301901800,12.69190185546875,-1.0861411128241567,-9.67885890186727,1.1447229925870894
1775719662311914800,12.701914794921874,-1.1028520821936427,-9.676164840477705,1.151498989528045
1775719662321927700,12.711927734375,-1.1165490375041962,-9.673682376012206,1.1591261234056205
1775719662331942000,12.72194189453125,-1.1265347172066569,-9.671615506610273,1.1666964125294237
1775719662341954800,12.731954833984375,-1.1324888033054767,-9.670093996131419,1.173514275850728
1775719662351967700,12.7419677734375,-1.1345470510095357,-9.66906816021502,1.1799661554038523
1775719662361982000,12.75198193359375,-1.133322404585406,-9.66839654456377,1.1866266362063587
1775719662371994600,12.76199462890625,-1.1303450692750512,-9.667841248768568,1.1939603400953114
1775719662382007800,12.7720078125,-1.1269166291963308,-9.66716320337653,1.2026646016851066
1775719662392020700,12.782020751953125,-1.1246418891973793,-9.666142043635249,1.2129594934672117
1775719662402034700,12.79203466796875,-1.1231764197546987,-9.664906364360451,1.2241066181644797
