time,seconds_elapsed,z,y,x
1775719649665080600,0.05508056640625,-0.2305452823638916,0.11590460687875748,0.3125986158847809
1775719649675094500,0.065094482421875,-0.22123122215270996,0.15387830138206482,0.28654372692108154
1775719649685107700,0.075107666015625,-0.21817763149738312,0.11305097490549088,0.28034335374832153
1775719649695121400,0.085121337890625,-0.22410902380943298,0.025055602192878723,0.2848376929759979
1775719649705134600,0.095134521484375,-0.23050276935100555,-0.07267364859580994,0.29152029752731323
1775719649715147800,0.105147705078125,-0.23544853925704956,-0.15916875004768372,0.30754968523979187
1775719649725161500,0.115161376953125,-0.2304452508687973,-0.2461651712656021,0.3152720630168915
1775719649735174700,0.125174560546875,-0.2153754085302353,-0.2866532802581787,0.30517712235450745
1775719649745187800,0.135187744140625,-0.1835985779762268,-0.32758525013923645,0.30637019872665405
1775719649755201500,0.145201416015625,-0.17646920680999756,-0.35560131072998047,0.3241872489452362
1775719649765214700,0.155214599609375,-0.1755187213420868,-0.35998034477233887,0.3463785946369171
1775719649775227600,0.1652275390625,-0.11966846883296967,-0.2863425612449646,0.4161907434463501
1775719649785241600,0.17524169921875,-0.06276284903287888,-0.06278243660926819,0.5167440176010132
1775719649795254800,0.1852548828125,-0.08268920332193375,0.0523911751806736,0.5483110547065735
1775719649805267500,0.195267333984375,-0.21148154139518738,-0.15432125329971313,0.5286363959312439
1775719649815281700,0.20528173828125,-0.3612283170223236,-0.6301225423812866,0.5534816384315491
1775719649825294800,0.215294921875,-0.48541951179504395,-1.358075737953186,0.6131057739257812
1775719649835307500,0.2253076171875,-0.5778342485427856,-1.9487078189849854,0.7423657774925232
1775719649845321700,0.23532177734375,-0.5538221597671509,-2.2317519187927246,0.8997676372528076
1775719649855334700,0.245334716796875,-0.4438978433609009,-2.281421661376953,0.9906595349311829
1775719649865348600,0.2553486328125,-0.33100536465644836,-2.3508188724517822,1.0040520429611206
1775719649875361800,0.26536181640625,-0.2695813775062561,-2.520329475402832,0.9721264243125916
1775719649885374500,0.27537451171875,-0.26027387380599976,-2.58109974861145,0.9190515279769897
1775719649895388700,0.285388671875,-0.20578373968601227,-2.4570915699005127,0.8461701273918152
1775719649905401600,0.295401611328125,-0.05729598179459572,-2.2196383476257324,0.7969598174095154
1775719649915414500,0.30541455078125,0.07814833521842957,-2.0290846824645996,0.797331690788269
1775719649925428700,0.3154287109375,0.26184412837028503,-1.6758571863174438,1.0029059648513794
1775719649935441700,0.325441650390625,0.3920157253742218,-1.4137303829193115,1.2611204385757446
1775719649945454600,0.33545458984375,0.4746924936771393,-1.3400417566299438,1.4894872903823853
1775719649955468500,0.345468505859375,0.4841218590736389,-1.3994946479797363,1.6989692449569702
1775719649965481700,0.355481689453125,0.36657819151878357,-1.4046497344970703,1.9233821630477905
1775719649975494700,0.36549462890625,0.17536309361457825,-1.4437259435653687,2.0994813442230225
1775719649985508600,0.375508544921875,-0.04928839951753616,-1.576417326927185,2.170485734939575
1775719649995521500,0.385521484375,-0.30327123403549194,-1.6658358573913574,2.1111397743225098
1775719650005534700,0.39553466796875,-0.5675327181816101,-1.6156057119369507,1.9849674701690674
1775719650015548700,0.405548583984375,-0.833671510219574,-1.4611684083938599,1.8577691316604614
1775719650025561600,0.4155615234375,-1.0398552417755127,-1.409745454788208,1.7354369163513184
1775719650035574800,0.42557470703125,-1.153410792350769,-1.4327945709228516,1.6354241371154785
1775719650045588700,0.435588623046875,-1.20651376247406,-1.3680083751678467,1.5493558645248413
1775719650055601700,0.4456015625,-1.1877926588058472,-1.1710243225097656,1.4435666799545288
1775719650065615600,0.45561572265625,-1.1072429418563843,-0.9052701592445374,1.33326256275177
1775719650075628800,0.46562890625,-0.9914186000823975,-0.6553131341934204,1.192809820175171
1775719650085641700,0.475641845703125,-0.846136748790741,-0.5054762363433838,1.0516321659088135
1775719650095655700,0.48565576171875,-0.8091930747032166,-0.5465065240859985,1.0018914937973022
1775719650105668600,0.495668701171875,-0.9257602095603943,-0.700326681137085,1.078560709953308
1775719650115681500,0.505681640625,-1.081093668937683,-0.8246890902519226,1.1339831352233887
1775719650125695700,0.51569580078125,-1.196163535118103,-0.9156807661056519,1.1491724252700806
1775719650135708700,0.525708740234375,-1.2345519065856934,-0.9643304944038391,1.1378625631332397
1775719650145721600,0.5357216796875,-1.2207313776016235,-1.0295627117156982,1.1372604370117188
1775719650155735800,0.54573583984375,-1.203675627708435,-0.9741385579109192,1.0825393199920654
1775719650165748500,0.55574853515625,-1.146543025970459,-0.7891817092895508,0.9797146320343018
1775719650175761700,0.56576171875,-1.073665738105774,-0.5881749987602234,0.795566976070404
1775719650185775900,0.57577587890625,-0.9846814870834351,-0.44448599219322205,0.5662387013435364
1775719650195788500,0.58578857421875,-0.881292462348938,-0.3515172004699707,0.37719303369522095
1775719650205801700,0.5958017578125,-0.8279349207878113,-0.3785291016101837,0.29597008228302
1775719650215815700,0.605815673828125,-0.8299046754837036,-0.471330463886261,0.28173431754112244
1775719650225828600,0.61582861328125,-0.8360432386398315,-0.5357627272605896,0.3362303078174591
1775719650235841800,0.625841796875,-0.8308287262916565,-0.5879883766174316,0.41620802879333496
1775719650245855500,0.63585546875,-0.7416972517967224,-0.6005273461341858,0.5342292189598083
1775719650255868700,0.64586865234375,-0.63249272108078,-0.4905325174331665,0.716168224811554
1775719650265882600,0.655882568359375,-0.580123782157898,-0.40862032771110535,0.907286524772644
1775719650275895600,0.6658955078125,-0.6475141048431396,-0.4551151394844055,1.0441303253173828
1775719650285908700,0.67590869140625,-0.871177613735199,-0.6976321935653687,1.0653634071350098
1775719650295922700,0.685922607421875,-1.010545015335083,-0.9890601634979248,1.005423665046692
1775719650305935600,0.695935546875,-0.9119594097137451,-1.0790801048278809,0.9608253836631775
1775719650315948800,0.70594873046875,-0.6435418128967285,-1.0388271808624268,0.9784743785858154
1775719650325962800,0.715962646484375,-0.3601125180721283,-0.9929825067520142,0.9886215329170227
1775719650335975700,0.7259755859375,-0.13291725516319275,-0.8649565577507019,0.9324570894241333
1775719650345988900,0.73598876953125,-0.1057165265083313,-0.7868713140487671,0.8634462952613831
1775719650356002600,0.74600244140625,-0.20915457606315613,-0.7479910850524902,0.7256675958633423
1775719650366015700,0.756015625,-0.3092007339000702,-0.623992383480072,0.5269733667373657
1775719650376028700,0.766028564453125,-0.3482520282268524,-0.49655503034591675,0.3250621557235718
1775719650386042600,0.776042724609375,-0.32698801159858704,-0.5053613185882568,0.23363077640533447
1775719650396055800,0.786055908203125,-0.2691565155982971,-0.6354242563247681,0.24951030313968658
1775719650406068700,0.79606884765625,-0.1712280958890915,-0.7483808994293213,0.2870451509952545
1775719650416082700,0.806082763671875,-0.02881157211959362,-0.7019869685173035,0.3147548735141754
1775719650426095600,0.816095703125,0.08549662679433823,-0.560515820980072,0.278474897146225
1775719650436108500,0.826108642578125,0.15330757200717926,-0.34358781576156616,0.15085665881633759
1775719650446122800,0.836122802734375,0.20433373749256134,-0.09871678799390793,-0.06888449937105179
1775719650456135700,0.8461357421875,0.23350739479064941,0.12153305113315582,-0.3329029977321625
1775719650466149600,0.856149658203125,0.24826982617378235,0.25892579555511475,-0.5783801078796387
1775719650476162600,0.86616259765625,0.23543643951416016,0.2516687512397766,-0.7435204386711121
1775719650486175700,0.87617578125,0.16886432468891144,0.20823951065540314,-0.7768714427947998
1775719650496189700,0.886189697265625,0.09135688841342926,0.18700899183750153,-0.7492560744285583
1775719650506202600,0.89620263671875,0.07170648872852325,0.24451994895935059,-0.7333175539970398
1775719650516215800,0.9062158203125,0.09339982271194458,0.35154667496681213,-0.7393806576728821
1775719650526229500,0.9162294921875,0.13343219459056854,0.4269964098930359,-0.7474798560142517
1775719650536242700,0.92624267578125,0.20293673872947693,0.4709204435348511,-0.7472835183143616
1775719650546255600,0.936255615234375,0.26214760541915894,0.5222843289375305,-0.7215746641159058
1775719650556269600,0.94626953125,0.25554221868515015,0.5582930445671082,-0.6562634706497192
1775719650566282800,0.95628271484375,0.19915297627449036,0.5216026306152344,-0.5904666185379028
1775719650576295700,0.966295654296875,0.11940135061740875,0.4388195872306824,-0.5569912791252136
1775719650586309600,0.9763095703125,0.0541086308658123,0.3749055862426758,-0.5189682841300964
1775719650596322800,0.98632275390625,-0.0002813669852912426,0.3243637681007385,-0.4490496814250946
1775719650606335700,0.996335693359375,-0.027622977271676064,0.2597597539424896,-0.35502997040748596
1775719650616349700,1.006349609375,-0.041211746633052826,0.2560237646102905,-0.2669508159160614
1775719650626363000,1.01636279296875,-0.03377407044172287,0.29956886172294617,-0.2153933346271515
1775719650636375600,1.02637548828125,-0.02378425933420658,0.3900456130504608,-0.18822282552719116
1775719650646389800,1.0363896484375,-0.0072372411377727985,0.4926023483276367,-0.12426409870386124
1775719650656402700,1.046402587890625,-0.04082489013671875,0.5324949622154236,-0.00979400984942913
1775719650666415600,1.05641552734375,-0.1138990968465805,0.4293656647205353,0.10236714780330658
1775719650676429800,1.066429931640625,-0.211205393075943,0.2671552896499634,0.19172805547714233
1775719650686442500,1.0764423828125,-0.3012644648551941,0.1361416131258011,0.23082512617111206
1775719650696455700,1.08645556640625,-0.33417975902557373,0.07263945788145065,0.19813627004623413
1775719650706470000,1.096469970703125,-0.3101479411125183,0.10715721547603607,0.12225056439638138
1775719650716482600,1.106482666015625,-0.280997097492218,0.21293585002422333,0.024409648030996323
1775719650726496800,1.116496826171875,-0.22833013534545898,0.33505162596702576,-0.06878288090229034
1775719650736509700,1.126509765625,-0.15442068874835968,0.4204631745815277,-0.11811469495296478
1775719650746522600,1.136522705078125,-0.10475033521652222,0.4441474676132202,-0.13876298069953918
1775719650756536800,1.146536865234375,-0.11093559116125107,0.3703363239765167,-0.1542387157678604
1775719650766549500,1.156549560546875,-0.13250453770160675,0.27851399779319763,-0.1269088238477707
1775719650776562700,1.166562744140625,-0.15900109708309174,0.24139390885829926,-0.07182920724153519
1775719650786576600,1.17657666015625,-0.1882103830575943,0.259397953748703,-0.010353593155741692
1775719650796589600,1.186589599609375,-0.22112514078617096,0.3072126805782318,0.038446612656116486
1775719650806602800,1.196602783203125,-0.23230081796646118,0.33116915822029114,0.06249282509088516
1775719650816616700,1.20661669921875,-0.22346465289592743,0.3817671239376068,0.09017623215913773
1775719650826629600,1.216629638671875,-0.19758938252925873,0.39784756302833557,0.08831148594617844
1775719650836642800,1.226642822265625,-0.1409057080745697,0.3712550103664398,0.06388906389474869
1775719650846656800,1.23665673828125,-0.05470317229628563,0.3493630290031433,0.07429003715515137
1775719650856669700,1.246669677734375,0.04566233977675438,0.31210339069366455,0.09226784110069275
1775719650866683000,1.256682861328125,0.15222100913524628,0.21856653690338135,0.09218262135982513
1775719650876696600,1.266696533203125,0.2001306116580963,0.09948151558637619,0.07244563102722168
1775719650886709800,1.276709716796875,0.19196456670761108,0.0028332688380032778,0.025167327374219894
1775719650896722700,1.28672265625,0.16005581617355347,-0.02362067997455597,-0.06230610981583595
1775719650906736600,1.296736572265625,0.12412898242473602,0.07922074943780899,-0.1657795011997223
1775719650916749800,1.306749755859375,0.07676920294761658,0.22942642867565155,-0.30267003178596497
1775719650926762500,1.316762451171875,0.049009207636117935,0.3612680733203888,-0.47846105694770813
1775719650936776700,1.326776611328125,0.04770529642701149,0.46263933181762695,-0.6700356602668762
1775719650946789600,1.33678955078125,0.060965437442064285,0.580768883228302,-0.8230555653572083
1775719650956802600,1.346802490234375,0.13331004977226257,0.6318109035491943,-0.900532066822052
1775719650966816800,1.356816650390625,0.21612396836280823,0.5804824829101562,-0.8741531372070312
1775719650976829700,1.36682958984375,0.20691020786762238,0.43087682127952576,-0.7944100499153137
1775719650986843600,1.37684375,0.15569283068180084,0.22155581414699554,-0.7165634632110596
1775719650996856600,1.386856689453125,0.09351775050163269,0.1230836883187294,-0.6341378688812256
1775719651006869800,1.396869873046875,0.04169289767742157,0.12325733155012131,-0.5929653644561768
1775719651016883700,1.4068837890625,-0.00963409524410963,0.2560625970363617,-0.6204814910888672
1775719651026896600,1.416896728515625,-0.06093376874923706,0.475970983505249,-0.6508175730705261
1775719651036909600,1.42690966796875,-0.16879726946353912,0.5865078568458557,-0.7013145089149475
1775719651046923500,1.436923583984375,-0.2809504270553589,0.5638201236724854,-0.6938768029212952
1775719651056936700,1.446936767578125,-0.3814425766468048,0.47002074122428894,-0.5722595453262329
1775719651066949600,1.45694970703125,-0.48116570711135864,0.43408218026161194,-0.3849315047264099
1775719651076963600,1.466963623046875,-0.6190349459648132,0.5053166747093201,-0.20400764048099518
1775719651086976800,1.476976806640625,-0.7400298118591309,0.4894980192184448,-0.03666231781244278
1775719651096989700,1.48698974609375,-0.8211450576782227,0.3649933338165283,0.16960301995277405
1775719651107003600,1.497003662109375,-0.8996854424476624,0.16561366617679596,0.3990119695663452
1775719651117016800,1.507016845703125,-0.9798296093940735,-0.052651796489953995,0.5912628173828125
1775719651127029800,1.51702978515625,-0.9560864567756653,-0.1181008443236351,0.7107498049736023
1775719651137043000,1.52704296875,-0.8341463208198547,-0.010546687990427017,0.7791308760643005
1775719651147056000,1.53705615234375,-0.6503349542617798,0.08794419467449188,0.767892599105835
1775719651157069000,1.547069091796875,-0.5391390323638916,0.09040679037570953,0.710304856300354
1775719651167083000,1.5570830078125,-0.530582845211029,-0.022459836676716805,0.6240245699882507
1775719651177096200,1.56709619140625,-0.5738665461540222,-0.10558939725160599,0.5572194457054138
1775719651187109000,1.577109130859375,-0.5892673134803772,-0.0783202275633812,0.5261691212654114
1775719651197123000,1.587123046875,-0.5906022191047668,-0.0880802795290947,0.5489125847816467
1775719651207136000,1.597135986328125,-0.5461072325706482,-0.2856868505477905,0.6442343592643738
1775719651217149000,1.60714892578125,-0.4606940448284149,-0.6239322423934937,0.7748841047286987
1775719651227163100,1.6171630859375,-0.34008559584617615,-0.9440284967422485,0.8335192203521729
1775719651237176000,1.627176025390625,-0.18015380203723907,-1.0151575803756714,0.844667375087738
1775719651247190000,1.63718994140625,-0.08074811846017838,-0.9243632555007935,0.7991424798965454
1775719651257203200,1.647203125,-0.036605678498744965,-0.768221914768219,0.7014393210411072
1775719651267216000,1.6572158203125,0.033186186105012894,-0.5561121106147766,0.6061468720436096
1775719651277230000,1.66722998046875,0.0949874073266983,-0.34531450271606445,0.5743935108184814
1775719651287243000,1.677242919921875,0.11801176518201828,-0.24197132885456085,0.5818317532539368
1775719651297256000,1.687255859375,0.07952778041362762,-0.25528037548065186,0.603085994720459
1775719651307270100,1.697270263671875,0.05129721015691757,-0.3161567747592926,0.580657958984375
1775719651317282800,1.70728271484375,0.07485318928956985,-0.2983914911746979,0.4950936734676361
1775719651327296000,1.7172958984375,0.08730559796094894,-0.14776070415973663,0.3554247319698334
1775719651337310000,1.72731005859375,0.08177176862955093,0.005508266855031252,0.20882144570350647
1775719651347323000,1.737322998046875,0.0911032184958458,0.07812388241291046,0.08981995284557343
1775719651357336000,1.747336181640625,0.09644409269094467,0.0441589318215847,-0.02784932404756546
1775719651367350000,1.75735009765625,0.1057310700416565,-0.04005634784698486,-0.12694421410560608
1775719651377363000,1.767363037109375,0.1385352611541748,-0.06434056162834167,-0.1600203961133957
1775719651387376000,1.777376220703125,0.20962248742580414,-0.09612058848142624,-0.1866365671157837
1775719651397390000,1.78739013671875,0.2563263475894928,-0.09963401407003403,-0.24417248368263245
1775719651407403000,1.797403076171875,0.28839266300201416,-0.05042332410812378,-0.35590860247612
1775719651417416200,1.807416259765625,0.31252315640449524,0.032657183706760406,-0.5034734606742859
1775719651427430000,1.817429931640625,0.2864731550216675,0.10368528962135315,-0.6330263614654541
1775719651437443000,1.827443115234375,0.21415528655052185,0.16331638395786285,-0.7025074362754822
1775719651447456000,1.8374560546875,0.1455485224723816,0.20136390626430511,-0.7219170928001404
1775719651457470000,1.847469970703125,0.14391979575157166,0.1678878366947174,-0.7086786031723022
1775719651467483100,1.857483154296875,0.21016140282154083,0.09174485504627228,-0.6616852283477783
1775719651477497000,1.8674970703125,0.339150607585907,0.013487836346030235,-0.6082039475440979
1775719651487510000,1.877510009765625,0.48086488246917725,-0.0003017447888851166,-0.5898832678794861
1775719651497523000,1.88752294921875,0.6002450585365295,0.0449461005628109,-0.6057035326957703
1775719651507537200,1.897537109375,0.704807460308075,0.14599788188934326,-0.6335332989692688
1775719651517550000,1.907550048828125,0.740192711353302,0.2776150107383728,-0.6529241800308228
1775719651527563000,1.91756298828125,0.6833081245422363,0.34680604934692383,-0.6249708533287048
1775719651537577000,1.927576904296875,0.5740775465965271,0.33349138498306274,-0.5288503170013428
1775719651547590100,1.937590087890625,0.47154900431632996,0.2410365790128708,-0.38322097063064575
1775719651557603000,1.94760302734375,0.412402868270874,0.0854634940624237,-0.21312671899795532
1775719651567617000,1.957616943359375,0.37854450941085815,-0.036917544901371,-0.04343116283416748
1775719651577630000,1.9676298828125,0.35526326298713684,-0.04663462191820145,0.06165483221411705
1775719651587643000,1.977642822265625,0.35067009925842285,-0.01172430906444788,0.09020311385393143
1775719651597657000,1.987656982421875,0.3803534507751465,-0.008962078019976616,0.07111389935016632
1775719651607670000,1.997669921875,0.43735095858573914,-0.05225442349910736,0.004637138918042183
1775719651617683000,2.007682861328125,0.4793469309806824,-0.0632941722869873,-0.08127891272306442
1775719651627697000,2.01769677734375,0.49916377663612366,-0.03223719075322151,-0.1592581421136856
1775719651637710000,2.0277099609375,0.5003348588943481,0.004537425935268402,-0.2260092943906784
1775719651647723000,2.037722900390625,0.48335644602775574,0.07406244426965714,-0.26663848757743835
1775719651657737000,2.047737060546875,0.4612750709056854,0.14816512167453766,-0.2898154854774475
1775719651667750100,2.057750244140625,0.43779051303863525,0.17091278731822968,-0.32101869583129883
1775719651677763000,2.06776318359375,0.43138864636421204,0.13879913091659546,-0.3617955148220062
1775719651687777000,2.077777099609375,0.4689485430717468,0.08794845640659332,-0.3868723511695862
1775719651697790000,2.0877900390625,0.5248134732246399,0.06867209076881409,-0.3819746971130371
1775719651707803100,2.09780322265625,0.5834485292434692,0.08495758473873138,-0.3502101004123688
1775719651717817000,2.107817138671875,0.6435368061065674,0.10652250051498413,-0.308372437953949
1775719651727830000,2.117830078125,0.6680906414985657,0.1317405104637146,-0.2571771740913391
1775719651737843000,2.127843017578125,0.6559937596321106,0.1521640121936798,-0.1778373122215271
1775719651747857200,2.137857177734375,0.621520459651947,0.13280150294303894,-0.07796958088874817
1775719651757870000,2.1478701171875,0.5750232338905334,0.05878477543592453,0.028536245226860046
1775719651767883000,2.157883056640625,0.4978639781475067,-0.022499429062008858,0.12455092370510101
1775719651777897200,2.167897216796875,0.3984076976776123,-0.1405046582221985,0.21074625849723816
1775719651787910000,2.177909912109375,0.30558428168296814,-0.21231386065483093,0.2676020860671997
1775719651797924000,2.187924072265625,0.2733655273914337,-0.23482562601566315,0.27790969610214233
1775719651807937000,2.19793701171875,0.25711438059806824,-0.2531292736530304,0.2131035178899765
1775719651817950000,2.207949951171875,0.2413211315870285,-0.24884940683841705,0.08034251630306244
1775719651827964200,2.217964111328125,0.24952474236488342,-0.20697972178459167,-0.08194012939929962
1775719651837976800,2.227976806640625,0.2439374327659607,-0.15748095512390137,-0.22274072468280792
1775719651847990000,2.237989990234375,0.2164754569530487,-0.10325286537408829,-0.2924441695213318
1775719651858004000,2.24800390625,0.16071757674217224,-0.06949921697378159,-0.25244706869125366
1775719651868017000,2.258016845703125,0.05554375797510147,-0.2076064944267273,-0.10668347775936127
1775719651878030000,2.268030029296875,-0.08957516402006149,-0.44623634219169617,0.10666204243898392
1775719651888044000,2.2780439453125,-0.21187950670719147,-0.7135194540023804,0.2809837758541107
1775719651898057000,2.288056884765625,-0.28027936816215515,-0.8920840620994568,0.36642518639564514
1775719651908070100,2.298070068359375,-0.2999470829963684,-0.9578458070755005,0.3417925238609314
1775719651918083800,2.308083740234375,-0.28328046202659607,-0.9244412779808044,0.1872445046901703
1775719651928097000,2.318096923828125,-0.25744301080703735,-0.8012293577194214,-0.03275870159268379
1775719651938110200,2.328110107421875,-0.26521992683410645,-0.6043250560760498,-0.24221473932266235
1775719651948124000,2.3381240234375,-0.28494489192962646,-0.3769172132015228,-0.4092859923839569
1775719651958137000,2.34813720703125,-0.27950021624565125,-0.16847780346870422,-0.5207490921020508
1775719651968150000,2.35814990234375,-0.26768404245376587,-0.07008224725723267,-0.5566455721855164
1775719651978164000,2.3681640625,-0.23399114608764648,-0.11971847712993622,-0.49921002984046936
1775719651988177200,2.37817724609375,-0.20599626004695892,-0.2561199963092804,-0.3651246726512909
1775719651998189800,2.38818994140625,-0.1572975218296051,-0.4237121641635895,-0.19620947539806366
1775719652008204000,2.3982041015625,-0.10122226923704147,-0.5608229041099548,-0.047856222838163376
1775719652018217000,2.408217041015625,-0.058282386511564255,-0.6350729465484619,0.0182392168790102
1775719652028230000,2.41822998046875,-0.04942870885133743,-0.5655953288078308,0.012132321484386921
1775719652038244000,2.428244140625,-0.0541214756667614,-0.37630507349967957,-0.04616188630461693
1775719652048257000,2.438257080078125,-0.059153784066438675,-0.12491942942142487,-0.13562652468681335
1775719652058270000,2.44827001953125,-0.06427507847547531,0.13581706583499908,-0.2426222711801529
1775719652068284200,2.4582841796875,-0.06644847989082336,0.33021876215934753,-0.3153761029243469
1775719652078296800,2.468296875,-0.06816508620977402,0.39411497116088867,-0.2842327058315277
1775719652088310000,2.47831005859375,-0.10405170917510986,0.30388015508651733,-0.16116884350776672
1775719652098324000,2.488323974609375,-0.13956032693386078,0.10244928300380707,0.019678009673953056
1775719652108337000,2.4983369140625,-0.16610191762447357,-0.12188182026147842,0.2263784557580948
1775719652118351000,2.50835107421875,-0.2027668058872223,-0.2844831943511963,0.3944776654243469
1775719652128364000,2.518364013671875,-0.22867989540100098,-0.35521942377090454,0.481967031955719
1775719652138377700,2.528377685546875,-0.23185457289218903,-0.33767035603523254,0.5145438313484192
1775719652148391700,2.5383916015625,-0.24249470233917236,-0.2797684371471405,0.5212805271148682
1775719652158404600,2.548404541015625,-0.22970393300056458,-0.20958270132541656,0.4996718168258667
1775719652168417800,2.558417724609375,-0.18537215888500214,-0.10341446101665497,0.43002137541770935
1775719652178431700,2.568431640625,-0.12976805865764618,-0.017566721886396408,0.32658466696739197
1775719652188444700,2.578444580078125,-0.0798492357134819,0.025652652606368065,0.20992863178253174
1775719652198457600,2.58845751953125,-0.0484108105301857,0.02474777027964592,0.120460644364357
1775719652208471600,2.598471435546875,-0.014493858441710472,-0.03222443535923958,0.07461512088775635
1775719652218484700,2.608484619140625,0.036390312016010284,-0.037587184458971024,0.07911987602710724
1775719652228497700,2.61849755859375,0.08254556357860565,-0.02197546884417534,0.11228714883327484
1775719652238511600,2.62851171875,0.12276215106248856,-0.009434315375983715,0.16462114453315735
1775719652248524500,2.638524658203125,0.16177186369895935,0.001545364735648036,0.22948402166366577
1775719652258537500,2.648537353515625,0.18693101406097412,0.06963147222995758,0.29489099979400635
1775719652268551700,2.6585517578125,0.18296095728874207,0.1028146743774414,0.3270626664161682
1775719652278564600,2.668564697265625,0.1487814486026764,0.09833171218633652,0.360688716173172
1775719652288577500,2.67857763671875,0.087740458548069,0.12485173344612122,0.38398846983909607
1775719652298591500,2.688591552734375,0.03354249522089958,0.15842381119728088,0.37787654995918274
1775719652308604700,2.698604736328125,0.000536076258867979,0.14087755978107452,0.3554495573043823
1775719652318617600,2.70861767578125,-0.015405339188873768,0.10115652531385422,0.3458866775035858
1775719652328631600,2.718631591796875,-0.02688649483025074,0.07884083688259125,0.3363072872161865
1775719652338644700,2.728644775390625,-0.030513130128383636,0.06545403599739075,0.30679166316986084
1775719652348657700,2.73865771484375,-0.030391158536076546,0.08037599921226501,0.26688873767852783
1775719652358671600,2.748671630859375,-0.02542189322412014,0.13486886024475098,0.22792039811611176
1775719652368684500,2.7586845703125,-0.01656634919345379,0.17150142788887024,0.1902742236852646
1775719652378697700,2.76869775390625,-0.019134169444441795,0.1795409917831421,0.16204524040222168
1775719652388711700,2.778711669921875,-0.041390739381313324,0.17184551060199738,0.12628617882728577
1775719652398724600,2.788724609375,-0.09162284433841705,0.14444543421268463,0.08288174122571945
1775719652408737500,2.798737548828125,-0.14837533235549927,0.08905967324972153,0.04197239130735397
1775719652418751700,2.808751708984375,-0.18109777569770813,0.04439994692802429,0.005566688254475594
1775719652428764700,2.8187646484375,-0.18928459286689758,0.012003124691545963,-0.0120282843708992
1775719652438777600,2.828777587890625,-0.1770411729812622,-0.010037403553724289,-0.02297455631196499
1775719652448791800,2.838791748046875,-0.14235803484916687,-0.003978977911174297,-0.04615897312760353
1775719652458804500,2.848804443359375,-0.09479978680610657,0.03836442530155182,-0.08184827119112015
1775719652468817700,2.858817626953125,-0.05587848275899887,0.09385991096496582,-0.1315828114748001
1775719652478831600,2.86883154296875,-0.03059166669845581,0.14308370649814606,-0.18411241471767426
1775719652488844500,2.878844482421875,-0.015568243339657784,0.16735973954200745,-0.21408496797084808
1775719652498858800,2.888858642578125,0.004986980464309454,0.1634688675403595,-0.21568110585212708
1775719652508871700,2.89887158203125,0.014416435733437538,0.14728298783302307,-0.20527905225753784
1775719652518884600,2.908884521484375,0.0075275711715221405,0.131535142660141,-0.1831621527671814
1775719652528898800,2.91889892578125,-0.00781383365392685,0.12220688909292221,-0.14247570931911469
1775719652538911500,2.928911376953125,-0.018642595037817955,0.12868212163448334,-0.10871992260217667
1775719652548924700,2.938924560546875,-0.022550517693161964,0.1306520700454712,-0.09551117569208145
1775719652558938600,2.948938720703125,-0.020135728642344475,0.11840425431728363,-0.0956159383058548
1775719652568951600,2.95895166015625,-0.010390689596533775,0.0890522226691246,-0.09789560735225677
1775719652578964700,2.96896484375,0.0045389449223876,0.05024363473057747,-0.09958403557538986
1775719652588978400,2.978978515625,0.01278249453753233,0.03291870653629303,-0.09927164763212204
1775719652598991600,2.98899169921875,0.026078950613737106,0.022887788712978363,-0.10562890768051147
1775719652609004800,2.9990048828125,0.04181556776165962,0.01510949432849884,-0.12464041262865067
1775719652619018500,3.0090185546875,0.04597526043653488,0.034190159291028976,-0.14577262103557587
1775719652629031700,3.01903173828125,0.03866248577833176,0.07512054592370987,-0.16610053181648254
1775719652639044900,3.029044921875,0.003321503521874547,0.12471815943717957,-0.17199335992336273
1775719652649058600,3.03905859375,-0.04877631738781929,0.17360927164554596,-0.15018340945243835
1775719652659071700,3.04907177734375,-0.09393929690122604,0.20357583463191986,-0.11228035390377045
1775719652669084700,3.059084716796875,-0.14077843725681305,0.19435730576515198,-0.07816233485937119
1775719652679098600,3.0690986328125,-0.1838936060667038,0.15529820322990417,-0.0398477241396904
1775719652689111800,3.07911181640625,-0.20136447250843048,0.12717388570308685,0.010582960210740566
1775719652699124500,3.08912451171875,-0.19167783856391907,0.10131374001502991,0.05149959400296211
1775719652709138700,3.099138671875,-0.1692018359899521,0.09634028375148773,0.06722769141197205
1775719652719151600,3.109151611328125,-0.14806558191776276,0.10767866671085358,0.06194030120968819
1775719652729164500,3.11916455078125,-0.12095113098621368,0.16166546940803528,0.05058138445019722
1775719652739178800,3.1291787109375,-0.10135744512081146,0.22968357801437378,0.04179208353161812
1775719652749191700,3.139191650390625,-0.0825110524892807,0.27721700072288513,0.02440217323601246
1775719652759204600,3.14920458984375,-0.06125960871577263,0.3065701723098755,-0.00044058007188141346
1775719652769218600,3.159218505859375,-0.039344992488622665,0.29038453102111816,-0.015141495503485203
1775719652779231500,3.1692314453125,-0.030729031190276146,0.2432250678539276,-0.01937015913426876
1775719652789244700,3.17924462890625,-0.029835807159543037,0.20300227403640747,-0.025169724598526955
1775719652799258600,3.189258544921875,-0.0302281454205513,0.19521108269691467,-0.04719477891921997
1775719652809271600,3.199271484375,-0.013693111017346382,0.21958966553211212,-0.0786733403801918
1775719652819284700,3.20928466796875,0.012818575836718082,0.32605114579200745,-0.12530267238616943
1775719652829298700,3.219298583984375,0.04081825166940689,0.48377180099487305,-0.1877862960100174
1775719652839311600,3.2293115234375,0.07221727073192596,0.5802493095397949,-0.26941826939582825
1775719652849324800,3.23932470703125,0.09016724675893784,0.6239579319953918,-0.3155548572540283
1775719652859338800,3.2493388671875,0.10751372575759888,0.6151041388511658,-0.3285493552684784
1775719652869351700,3.2593515625,0.11972405016422272,0.5787858366966248,-0.33632418513298035
1775719652879364600,3.269364501953125,0.13974221050739288,0.5700003504753113,-0.34795519709587097
1775719652889378600,3.279378662109375,0.15346388518810272,0.5890419483184814,-0.357180655002594
1775719652899391700,3.289391845703125,0.1664852350950241,0.61186683177948,-0.32962700724601746
1775719652909404700,3.29940478515625,0.17598126828670502,0.6592292785644531,-0.24468469619750977
1775719652919418600,3.309418701171875,0.18354712426662445,0.7017602324485779,-0.11799248307943344
1775719652929431600,3.319431640625,0.2009543478488922,0.713036298751831,0.005093758460134268
1775719652939445800,3.32944580078125,0.21239334344863892,0.6924208998680115,0.10322172939777374
1775719652949458700,3.339458740234375,0.21880464255809784,0.6850149035453796,0.15989860892295837
1775719652959471600,3.3494716796875,0.23985940217971802,0.6789560317993164,0.17228801548480988
1775719652969485800,3.35948583984375,0.2688106298446655,0.681151270866394,0.17450562119483948
1775719652979498800,3.369498779296875,0.24190804362297058,0.6818541288375854,0.1747892051935196
1775719652989511700,3.37951171875,0.14392422139644623,0.6745021939277649,0.16419781744480133
1775719652999525600,3.389525634765625,0.002165471203625202,0.6537851691246033,0.15188537538051605
1775719653009538600,3.39953857421875,-0.12249283492565155,0.6456422805786133,0.14059942960739136
1775719653019551700,3.4095517578125,-0.19981320202350616,0.6366559267044067,0.13649947941303253
1775719653029565700,3.419565673828125,-0.24081683158874512,0.5824113488197327,0.1690470278263092
1775719653039578600,3.42957861328125,-0.26460543274879456,0.46878793835639954,0.25096994638442993
1775719653049591600,3.439591552734375,-0.2734481990337372,0.3299109935760498,0.33988115191459656
1775719653059605500,3.44960546875,-0.30320221185684204,0.19706745445728302,0.41047805547714233
1775719653069618700,3.45961865234375,-0.3276239335536957,0.0978684350848198,0.4584519863128662
1775719653079631600,3.469631591796875,-0.3308543562889099,0.04439465329051018,0.47115612030029297
1775719653089645600,3.4796455078125,-0.3384994864463806,-0.0036434493958950043,0.4530324935913086
1775719653099658800,3.48965869140625,-0.3584412932395935,-0.03358347713947296,0.4118485748767853
1775719653109671700,3.499671630859375,-0.4197826683521271,-0.02207489125430584,0.3501298129558563
1775719653119685600,3.509685546875,-0.47481828927993774,0.003748775226995349,0.27193859219551086
1775719653129698800,3.51969873046875,-0.48986250162124634,0.01480089407414198,0.22309142351150513
1775719653139711700,3.529711669921875,-0.4821239411830902,-0.0460786409676075,0.20673775672912598
1775719653149725700,3.5397255859375,-0.43733808398246765,-0.15168815851211548,0.20099465548992157
1775719653159738600,3.549738525390625,-0.3562763035297394,-0.19658145308494568,0.18528373539447784
1775719653169751600,3.55975146484375,-0.2777354121208191,-0.12264330685138702,0.1534389853477478
1775719653179765800,3.569765869140625,-0.2074933499097824,-0.04435782507061958,0.10300334542989731
1775719653189778700,3.57977880859375,-0.1400434672832489,-0.009389989078044891,0.060924071818590164
1775719653199791600,3.58979150390625,-0.11261691153049469,-0.026125026866793633,0.047148339450359344
1775719653209805800,3.599805908203125,-0.11322624236345291,-0.1023593470454216,0.043290216475725174
1775719653219818500,3.609818603515625,-0.12334277480840683,-0.23373140394687653,0.0378500372171402
1775719653229831700,3.619831787109375,-0.11387763172388077,-0.3231661915779114,0.05313311889767647
1775719653239845600,3.629845703125,-0.08197516202926636,-0.32108914852142334,0.05309978500008583
1775719653249858600,3.639858642578125,-0.027458660304546356,-0.22732669115066528,0.022325098514556885
1775719653259871700,3.649871826171875,0.013511915691196918,-0.06011252477765083,-0.008497127331793308
1775719653269885400,3.659885498046875,0.034690972417593,0.09353349357843399,-0.019388124346733093
1775719653279898600,3.669898681640625,0.03659062087535858,0.16431480646133423,0.015794221311807632
1775719653289911800,3.679911865234375,-0.004756552167236805,0.12818795442581177,0.08672752231359482
1775719653299925500,3.689925537109375,-0.08434246480464935,0.0016442269552499056,0.17632165551185608
1775719653309938700,3.699938720703125,-0.12844175100326538,-0.13927294313907623,0.26591306924819946
1775719653319951600,3.70995166015625,-0.14089307188987732,-0.2202879637479782,0.3617745339870453
1775719653329965600,3.719965576171875,-0.13231423497200012,-0.2937597930431366,0.4519613981246948
1775719653339978800,3.729978759765625,-0.1138433963060379,-0.30574819445610046,0.504461407661438
1775719653349991700,3.73999169921875,-0.09564521908760071,-0.2181704193353653,0.49053654074668884
1775719653360005600,3.750005615234375,-0.06154586374759674,-0.08217782527208328,0.401398241519928
1775719653370018800,3.760018798828125,-0.0281535517424345,0.078349269926548,0.2853504717350006
1775719653380031500,3.770031494140625,-0.029777271673083305,0.180746927857399,0.18328183889389038
1775719653390045700,3.780045654296875,-0.05603257939219475,0.1501900851726532,0.097001813352108
1775719653400058600,3.79005859375,-0.10739374905824661,0.01216531079262495,0.06142031028866768
1775719653410071600,3.800071533203125,-0.1640692949295044,-0.16438335180282593,0.11515358835458755
1775719653420085800,3.810085693359375,-0.21220046281814575,-0.2995372712612152,0.22261163592338562
1775719653430098400,3.820098388671875,-0.26439550518989563,-0.3329141438007355,0.30871376395225525
1775719653440111600,3.830111572265625,-0.2673929035663605,-0.37230968475341797,0.34986764192581177
1775719653450125600,3.84012548828125,-0.22166268527507782,-0.40826529264450073,0.34721648693084717
1775719653460138500,3.850138427734375,-0.19508984684944153,-0.48089566826820374,0.3037387430667877
1775719653470151700,3.860151611328125,-0.21037718653678894,-0.5718194842338562,0.24218538403511047
1775719653480165600,3.87016552734375,-0.22392770648002625,-0.6007855534553528,0.15929177403450012
1775719653490178600,3.880178466796875,-0.24323348701000214,-0.5970233082771301,0.056356608867645264
1775719653500191700,3.890191650390625,-0.23761001229286194,-0.5850983262062073,-0.031760651618242264
1775719653510205700,3.900205810546875,-0.21115443110466003,-0.6118098497390747,-0.09409726411104202
1775719653520218600,3.910218505859375,-0.18110264837741852,-0.7053506374359131,-0.13972336053848267
1775719653530231800,3.920231689453125,-0.13860739767551422,-0.7146059274673462,-0.1624758094549179
1775719653540245500,3.93024560546875,-0.10648395866155624,-0.6494423151016235,-0.18875418603420258
1775719653550258700,3.9402587890625,-0.05388732999563217,-0.5526321530342102,-0.25100237131118774
1775719653560271600,3.950271728515625,0.05895151197910309,-0.38880184292793274,-0.31211256980895996
1775719653570285600,3.96028564453125,0.18934999406337738,-0.27182888984680176,-0.34384679794311523
1775719653580298800,3.970298828125,0.2896805703639984,-0.2564835548400879,-0.30373698472976685
1775719653590311400,3.9803115234375,0.327970415353775,-0.34087488055229187,-0.23134642839431763
1775719653600325600,3.99032568359375,0.3463470935821533,-0.40592172741889954,-0.15678739547729492
1775719653610338600,4.000338623046875,0.36331063508987427,-0.39402323961257935,-0.07722412794828415
1775719653620351500,4.0103515625,0.3574025630950928,-0.35057497024536133,-0.014426283538341522
1775719653630365700,4.02036572265625,0.373564749956131,-0.31374505162239075,0.04865281656384468
1775719653640378600,4.030378662109375,0.39041829109191895,-0.259531170129776,0.12756668031215668
1775719653650392600,4.040392578125,0.3918084502220154,-0.2095649540424347,0.19451294839382172
1775719653660405800,4.05040576171875,0.3911324143409729,-0.2112729549407959,0.2620922923088074
1775719653670418700,4.060418701171875,0.36147570610046387,-0.25059691071510315,0.3141877055168152
1775719653680432600,4.0704326171875,0.32915621995925903,-0.24667952954769135,0.3067534863948822
1775719653690445600,4.080445556640625,0.28454694151878357,-0.21703216433525085,0.2703976333141327
1775719653700458500,4.09045849609375,0.20751424133777618,-0.26972270011901855,0.2202826887369156
1775719653710472700,4.10047265625,0.11291876435279846,-0.31281715631484985,0.18140719830989838
1775719653720485600,4.110485595703125,0.06519526243209839,-0.30213090777397156,0.12265399098396301
1775719653730498600,4.12049853515625,0.04805515334010124,-0.2171611487865448,0.040889620780944824
1775719653740512500,4.130512451171875,0.06645303964614868,-0.11227958649396896,-0.025636272504925728
1775719653750525700,4.140525634765625,0.08041146397590637,-0.09358899295330048,-0.06084778904914856
1775719653760538600,4.15053857421875,0.06112600490450859,-0.14861206710338593,-0.0661357119679451
1775719653770552600,4.160552490234375,0.0197796281427145,-0.22117947041988373,-0.07302824407815933
1775719653780565800,4.170565673828125,-0.023631613701581955,-0.24409185349941254,-0.09267095476388931
1775719653790578700,4.18057861328125,-0.045469000935554504,-0.19423241913318634,-0.11535336077213287
1775719653800592600,4.190592529296875,-0.042165812104940414,-0.13627438247203827,-0.14746837317943573
1775719653810605600,4.20060546875,-0.033011458814144135,-0.09637010842561722,-0.18162474036216736
1775719653820618800,4.21061865234375,-0.014519545249640942,-0.05805671215057373,-0.2002478986978531
1775719653830632700,4.2206328125,0.018035734072327614,-0.005245962180197239,-0.20975512266159058
1775719653840645600,4.230645751953125,0.035757336765527725,-0.0011306684464216232,-0.19231989979743958
1775719653850658600,4.240658447265625,0.01352020725607872,-0.0418354868888855,-0.14246685802936554
1775719653860672800,4.2506728515625,-0.048855818808078766,-0.06993156671524048,-0.07636746019124985
1775719653870685700,4.260685791015625,-0.11616694927215576,-0.05436086654663086,-0.012048127129673958
1775719653880698600,4.27069873046875,-0.16995403170585632,-0.04364504665136337,0.04058292508125305
1775719653890712800,4.280712890625,-0.21133263409137726,-0.055859632790088654,0.08888840675354004
1775719653900725500,4.2907255859375,-0.2148047834634781,-0.06349074095487595,0.1648978739976883
1775719653910738700,4.30073876953125,-0.190154030919075,-0.057295434176921844,0.2464638352394104
1775719653920752600,4.310752685546875,-0.14287546277046204,-0.06337741017341614,0.2966023087501526
1775719653930765600,4.320765625,-0.08437167853116989,-0.05098199471831322,0.3022335469722748
1775719653940778800,4.33077880859375,-0.05476252734661102,0.008478312753140926,0.25215551257133484
1775719653950792400,4.34079248046875,-0.04004936292767525,0.08035516738891602,0.1778368055820465
1775719653960805600,4.3508056640625,-0.05131329223513603,0.15225504338741302,0.10933766514062881
1775719653970818800,4.36081884765625,-0.07254987210035324,0.1846449375152588,0.05275215208530426
1775719653980832500,4.37083251953125,-0.08638650178909302,0.1516406238079071,0.024411102756857872
1775719653990845700,4.380845703125,-0.07445181906223297,0.10048449039459229,0.02675122395157814
1775719654000858600,4.390858642578125,-0.04103316739201546,0.0890657976269722,0.05157655104994774
1775719654010872600,4.40087255859375,-0.005259458441287279,0.1212378516793251,0.0746280699968338
1775719654020885800,4.4108857421875,0.03125910088419914,0.14811763167381287,0.07459259033203125
1775719654030898700,4.420898681640625,0.06041432544589043,0.145283505320549,0.05161697044968605
1775719654040912600,4.43091259765625,0.05867622420191765,0.12664629518985748,0.027500152587890625
1775719654050925800,4.44092578125,0.03784764185547829,0.08166603744029999,0.008609551005065441
1775719654060938500,4.4509384765625,0.0072181676514446735,0.04137406125664711,-0.007134140469133854
1775719654070952700,4.46095263671875,-0.02261269837617874,0.06419016420841217,0.0021240725181996822
1775719654080965600,4.470965576171875,-0.026475898921489716,0.11075452715158463,0.010184993967413902
1775719654090978600,4.480978515625,-0.011623448692262173,0.11459027975797653,-0.008298675529658794
1775719654100992800,4.49099267578125,0.021699288859963417,0.1034473180770874,0.003849487518891692
1775719654111005400,4.50100537109375,0.060492753982543945,0.06311134248971939,0.06425291299819946
1775719654121018600,4.5110185546875,0.07506047934293747,-0.011312850750982761,0.1460006982088089
1775719654131032800,4.52103271484375,0.046877309679985046,-0.07041051983833313,0.23557133972644806
1775719654141045000,4.531044921875,-0.027860678732395172,-0.12380041927099228,0.3105310797691345
1775719654151058000,4.541057861328125,-0.11082320660352707,-0.19837532937526703,0.34572023153305054
1775719654161072000,4.551072021484375,-0.17630165815353394,-0.29220104217529297,0.3433837890625
1775719654171085000,4.5610849609375,-0.22308167815208435,-0.33621615171432495,0.280845582485199
1775719654181098000,4.571097900390625,-0.23449251055717468,-0.3111080527305603,0.1301470249891281
1775719654191112000,4.58111181640625,-0.20991021394729614,-0.1947857141494751,-0.08343609422445297
1775719654201125000,4.591125,-0.1514354795217514,-0.04879388213157654,-0.3188909888267517
1775719654211138000,4.601137939453125,-0.08786795288324356,0.055818282067775726,-0.5035250186920166
1775719654221152000,4.611152099609375,-0.02646475099027157,0.10963475704193115,-0.5567007660865784
1775719654231165200,4.621165283203125,0.023796556517481804,0.07968298345804214,-0.4625162184238434
1775719654241178000,4.63117822265625,0.03636058792471886,-0.056957509368658066,-0.2851390540599823
1775719654251192000,4.641192138671875,0.029687507078051567,-0.18697915971279144,-0.09190435707569122
1775719654261205000,4.651205078125,0.02681855484843254,-0.2471494823694229,0.05907782167196274
1775719654271218200,4.66121826171875,0.004556126892566681,-0.24436569213867188,0.12617136538028717
1775719654281232100,4.671232177734375,-0.008105486631393433,-0.20449696481227875,0.10746242851018906
1775719654291245000,4.6812451171875,0.004498455673456192,-0.1484246402978897,0.027838438749313354
1775719654301258000,4.691258056640625,0.021614085882902145,-0.0887923464179039,-0.07249895483255386
1775719654311272200,4.701272216796875,0.045798785984516144,-0.03343720734119415,-0.1880820095539093
1775719654321285000,4.71128515625,0.06868426501750946,0.035367242991924286,-0.308615118265152
1775719654331298000,4.721298095703125,0.0864611342549324,0.09819840639829636,-0.413813978433609
1775719654341312300,4.731312255859375,0.1108795627951622,0.128632590174675,-0.47792527079582214
1775719654351325000,4.741324951171875,0.12978826463222504,0.10734355449676514,-0.4667045772075653
1775719654361338000,4.751338134765625,0.13471823930740356,0.05191556364297867,-0.35743048787117004
1775719654371352000,4.76135205078125,0.11839201301336288,-0.037465713918209076,-0.16059227287769318
1775719654381365000,4.771364990234375,0.06486143171787262,-0.13810992240905762,0.049282271414995193
1775719654391378200,4.781378173828125,0.0024358737282454967,-0.25543972849845886,0.21487629413604736
1775719654401391900,4.791391845703125,-0.04046556353569031,-0.3348873555660248,0.29267123341560364
1775719654411405000,4.801405029296875,-0.05216216668486595,-0.3462103307247162,0.24659030139446259
1775719654421418000,4.81141796875,-0.038063377141952515,-0.2805629372596741,0.09829503297805786
1775719654431432000,4.821431884765625,-0.011103399097919464,-0.1513412892818451,-0.11697360128164291
1775719654441445000,4.831445068359375,0.010326544754207134,-0.033342134207487106,-0.351660817861557
1775719654451458000,4.8414580078125,0.04458065330982208,0.08842504769563675,-0.5484660267829895
1775719654461472000,4.851471923828125,0.08468915522098541,0.17167863249778748,-0.7015962600708008
1775719654471485200,4.861485107421875,0.12743155658245087,0.21151898801326752,-0.7577428817749023
1775719654481498000,4.871498046875,0.16995197534561157,0.17243683338165283,-0.6700672507286072
1775719654491512000,4.881511962890625,0.1860169619321823,0.04995192587375641,-0.44865870475769043
1775719654501525200,4.891525146484375,0.16170035302639008,-0.141976460814476,-0.18130053579807281
1775719654511538000,4.901537841796875,0.10699023306369781,-0.3516237139701843,0.03855113312602043
1775719654521552100,4.91155224609375,0.015046996995806694,-0.49559685587882996,0.1756778359413147
1775719654531565000,4.92156494140625,-0.08483725786209106,-0.5493743419647217,0.2132427841424942
1775719654541578000,4.931577880859375,-0.14775636792182922,-0.508905291557312,0.15363898873329163
1775719654551592200,4.94159228515625,-0.1689988076686859,-0.392059326171875,0.04465391859412193
1775719654561604900,4.95160498046875,-0.14809758961200714,-0.26782315969467163,-0.07632721215486526
1775719654571618000,4.9616181640625,-0.09129875153303146,-0.17233338952064514,-0.1856909841299057
1775719654581632300,4.97163232421875,-0.022677522152662277,-0.10897330939769745,-0.2600787580013275
1775719654591645000,4.98164501953125,0.024883871898055077,-0.08282026648521423,-0.2844994068145752
1775719654601658000,4.991658203125,0.056139785796403885,-0.07349446415901184,-0.26674556732177734
1775719654611672000,5.001672119140625,0.08423187583684921,-0.07116472721099854,-0.22129075229167938
1775719654621685000,5.01168505859375,0.11662723869085312,-0.07781410962343216,-0.1570519506931305
1775719654631698200,5.0216982421875,0.14291609823703766,-0.08023892343044281,-0.08881137520074844
1775719654641711900,5.0317119140625,0.1505299061536789,-0.09659368544816971,-0.03427084907889366
1775719654651725000,5.04172509765625,0.11871045082807541,-0.09398086369037628,0.0023303027264773846
1775719654661738200,5.05173828125,0.08840180933475494,-0.07457511872053146,0.015550837852060795
1775719654671752000,5.061751953125,0.08448109775781631,-0.04879838228225708,-0.0045813280157744884
1775719654681765000,5.07176513671875,0.10085802525281906,-0.013066778890788555,-0.02723732590675354
1775719654691778000,5.081778076171875,0.1357686072587967,0.031066594645380974,-0.05225159972906113
1775719654701792000,5.0917919921875,0.18801772594451904,0.09043644368648529,-0.09460192918777466
1775719654711805200,5.10180517578125,0.2315707802772522,0.1613239347934723,-0.15186922252178192
1775719654721817900,5.11181787109375,0.2628719210624695,0.20209015905857086,-0.21103310585021973
1775719654731832000,5.12183203125,0.2830089032649994,0.2144341766834259,-0.26852065324783325
1775719654741845200,5.13184521484375,0.27200737595558167,0.22955968976020813,-0.2937809228897095
1775719654751858000,5.14185791015625,0.24576936662197113,0.2209121286869049,-0.2862234115600586
1775719654761872100,5.1518720703125,0.22883866727352142,0.20952017605304718,-0.2681431770324707
1775719654771885000,5.161885009765625,0.24076324701309204,0.2048598974943161,-0.26977860927581787
1775719654781898000,5.17189794921875,0.27630874514579773,0.22387684881687164,-0.2632361352443695
1775719654791912200,5.181912109375,0.32687872648239136,0.24174265563488007,-0.22622647881507874
1775719654801924900,5.1919248046875,0.37148845195770264,0.2223297655582428,-0.1492260843515396
1775719654811938000,5.20193798828125,0.41526123881340027,0.1531437784433365,-0.048079490661621094
1775719654821952000,5.211951904296875,0.4354266822338104,0.11096648126840591,0.011316458694636822
1775719654831965000,5.22196484375,0.4215492308139801,0.13274529576301575,-0.004541333764791489
1775719654841978000,5.23197802734375,0.3938920199871063,0.2212018221616745,-0.07073134183883667
1775719654851992000,5.241991943359375,0.35116612911224365,0.31084463000297546,-0.1381380707025528
1775719654862005000,5.2520048828125,0.31827133893966675,0.330605149269104,-0.19627928733825684
1775719654872018200,5.26201806640625,0.3016074001789093,0.3088068962097168,-0.20798228681087494
1775719654882032000,5.2720322265625,0.26919233798980713,0.26939013600349426,-0.16623960435390472
1775719654892045000,5.282045166015625,0.23338931798934937,0.22056879103183746,-0.11508239805698395
1775719654902058200,5.292058349609375,0.2190839946269989,0.2031741440296173,-0.065961554646492
1775719654912072000,5.302072021484375,0.21508871018886566,0.1969226449728012,-0.005827379412949085
1775719654922085000,5.312085205078125,0.2034069001674652,0.15737034380435944,0.04925801232457161
1775719654932098000,5.32209814453125,0.19266477227210999,0.10975036770105362,0.08339574187994003
1775719654942112000,5.332112060546875,0.19878129661083221,0.07917023450136185,0.08124756067991257
1775719654952125200,5.342125244140625,0.1951572746038437,0.08248426765203476,0.04497930034995079
1775719654962138000,5.35213818359375,0.17623421549797058,0.11590294539928436,-0.012156370095908642
1775719654972152000,5.362152099609375,0.16031517088413239,0.16126243770122528,-0.07273156195878983
1775719654982165000,5.3721650390625,0.15393224358558655,0.20012186467647552,-0.1009724885225296
1775719654992178000,5.382177978515625,0.14528149366378784,0.23057910799980164,-0.09584856778383255
1775719655002192100,5.392192138671875,0.14079125225543976,0.21643613278865814,-0.07510004192590714
1775719655012205000,5.402205078125,0.13371923565864563,0.18227922916412354,-0.029727764427661896
1775719655022218000,5.412218017578125,0.13135389983654022,0.1258259415626526,0.035689566284418106
1775719655032232000,5.42223193359375,0.13522879779338837,0.08260071277618408,0.10680609196424484
1775719655042245000,5.4322451171875,0.13164611160755157,0.06758566200733185,0.14463061094284058
1775719655052258000,5.442258056640625,0.12560899555683136,0.0813044011592865,0.14865651726722717
1775719655062272000,5.45227197265625,0.11566217988729477,0.11537919193506241,0.1347856968641281
1775719655072285200,5.46228515625,0.10030532628297806,0.16629138588905334,0.1063828095793724
1775719655082298000,5.472298095703125,0.08641423285007477,0.23254449665546417,0.06353149563074112
1775719655092312000,5.48231201171875,0.0782119631767273,0.27721691131591797,0.016765054315328598
1775719655102325000,5.492324951171875,0.0761573538184166,0.29875048995018005,-0.02086794748902321
1775719655112338200,5.502338134765625,0.06396700441837311,0.30169543623924255,-0.04021554812788963
1775719655122352000,5.51235205078125,0.052802786231040955,0.2933814227581024,-0.030205925926566124
1775719655132365000,5.522364990234375,0.05657488852739334,0.2777595818042755,0.002560274675488472
1775719655142379000,5.53237890625,0.06604910641908646,0.2410496026277542,0.04846024885773659
1775719655152393200,5.542393310546875,0.04654490947723389,0.22525252401828766,0.10495202243328094
1775719655162406000,5.552406005859375,0.012118530459702015,0.1987152248620987,0.15912209451198578
1775719655172419000,5.562419189453125,-0.00662532914429903,0.1716359257698059,0.2056800127029419
1775719655182433000,5.57243310546875,-0.0014503207057714462,0.14950406551361084,0.22815391421318054
1775719655192446000,5.582446044921875,-0.0032823090441524982,0.1739012748003006,0.23222242295742035
1775719655202459100,5.592459228515625,-0.02761542797088623,0.20985105633735657,0.21279434859752655
1775719655212472000,5.60247216796875,-0.05192156508564949,0.21803520619869232,0.17981164157390594
1775719655222486000,5.612486083984375,-0.05497925356030464,0.20999062061309814,0.14923444390296936
1775719655232499200,5.622499267578125,-0.04249914735555649,0.19578611850738525,0.12483270466327667
1775719655242512000,5.632511962890625,-0.03234507516026497,0.1939372420310974,0.09878633171319962
1775719655252526000,5.642526123046875,-0.033694762736558914,0.23392434418201447,0.0626877099275589
1775719655262539000,5.6525390625,-0.03839613497257233,0.2676693797111511,0.026247167959809303
1775719655272552000,5.662552001953125,-0.03529195487499237,0.27207478880882263,0.009683107025921345
1775719655282566100,5.672566162109375,-0.007767623756080866,0.23525843024253845,0.01950383186340332
1775719655292578800,5.682578857421875,0.029329676181077957,0.1926361322402954,0.04271914064884186
1775719655302592000,5.692592041015625,0.031032823026180267,0.1433495283126831,0.05626849830150604
1775719655312606200,5.702606201171875,0.015538551844656467,0.09482113271951675,0.046053409576416016
1775719655322619000,5.712618896484375,0.01625319942831993,0.0631570890545845,0.026454973965883255
1775719655332632000,5.722632080078125,0.030293649062514305,0.0337081253528595,0.0036979960277676582
1775719655342646000,5.73264599609375,0.03143724799156189,0.019791806116700172,-0.026055311784148216
1775719655352659000,5.742658935546875,0.033096663653850555,0.023886948823928833,-0.0517798513174057
1775719655362672000,5.752672119140625,0.03184353560209274,0.015384037047624588,-0.07627597451210022
1775719655372685800,5.762685791015625,0.020298199728131294,-0.019879676401615143,-0.10045614093542099
1775719655382699000,5.772698974609375,0.008329899981617928,-0.058265265077352524,-0.11602037400007248
1775719655392712200,5.782712158203125,0.0020653458777815104,-0.07167348265647888,-0.11144719272851944
1775719655402726000,5.792725830078125,-0.0033439109101891518,-0.08121940493583679,-0.09556401520967484
1775719655412739000,5.802739013671875,-0.0013907486572861671,-0.09876777231693268,-0.08673589676618576
1775719655422752000,5.812751953125,0.004666455090045929,-0.09826008975505829,-0.07632914930582047
1775719655432766000,5.822765869140625,-0.00039008865132927895,-0.08007335662841797,-0.06585866957902908
1775719655442779100,5.832779052734375,-0.015921570360660553,-0.07842492312192917,-0.06867145746946335
1775719655452791800,5.842791748046875,-0.03406675159931183,-0.09828171879053116,-0.08059283345937729
1775719655462806000,5.852805908203125,-0.04283180087804794,-0.11005327105522156,-0.09170372039079666
1775719655472819200,5.862819091796875,-0.04376097768545151,-0.11931707710027695,-0.10993119329214096
1775719655482832000,5.872831787109375,-0.03713487833738327,-0.11475319415330887,-0.12331022322177887
1775719655492846000,5.88284619140625,-0.04778645932674408,-0.09326520562171936,-0.13632643222808838
1775719655502859000,5.89285888671875,-0.06505098193883896,-0.08282449096441269,-0.143011212348938
1775719655512872000,5.902871826171875,-0.09176541864871979,-0.07573142647743225,-0.13003896176815033
1775719655522886100,5.91288623046875,-0.11188118904829025,-0.07689443230628967,-0.10560455918312073
1775719655532898800,5.92289892578125,-0.11655503511428833,-0.07488162070512772,-0.07113979011774063
1775719655542912000,5.932912109375,-0.10818386822938919,-0.06682809442281723,-0.045264068990945816
1775719655552926000,5.942926025390625,-0.08721946179866791,-0.05137590691447258,-0.01970251277089119
1775719655562939000,5.95293896484375,-0.07767372578382492,-0.04828483611345291,0.0012079216539859772
1775719655572952000,5.9629521484375,-0.0693497508764267,-0.053125929087400436,0.02000371366739273
1775719655582966000,5.972966064453125,-0.047884877771139145,-0.05138514190912247,0.03799142315983772
1775719655592979000,5.98297900390625,-0.03218713775277138,-0.02444300428032875,0.0441739521920681
1775719655602992000,5.9929921875,-0.017240038141608238,0.017802957445383072,0.024302080273628235
1775719655613006000,6.003006103515625,0.0058330572210252285,0.05635114759206772,0.003742209170013666
1775719655623019000,6.01301904296875,0.03200459107756615,0.07069401443004608,0.0024050669744610786
1775719655633032200,6.0230322265625,0.04418082907795906,0.07719665765762329,0.02012813650071621
1775719655643046000,6.0330458984375,0.06510771065950394,0.08029510080814362,0.03543371707201004
1775719655653059000,6.04305908203125,0.08178682625293732,0.08424323797225952,0.055144838988780975
1775719655663072000,6.053072021484375,0.08294860273599625,0.07471000403165817,0.07102198153734207
1775719655673086000,6.0630859375,0.08247882127761841,0.05969403684139252,0.08241631835699081
1775719655683099100,6.07309912109375,0.07700736820697784,0.0650731548666954,0.09726648777723312
1775719655693112000,6.083112060546875,0.07573091238737106,0.06160278245806694,0.10351027548313141
1775719655703126000,6.0931259765625,0.08156270533800125,0.06615797430276871,0.1127065122127533
1775719655713139000,6.103138916015625,0.1057593822479248,0.07588809728622437,0.11103404313325882
1775719655723152000,6.11315185546875,0.11870713531970978,0.09366052597761154,0.10004378110170364
1775719655733166000,6.123166015625,0.11900274455547333,0.11333862692117691,0.08959886431694031
1775719655743179000,6.133178955078125,0.10635299980640411,0.1280125379562378,0.08889731764793396
1775719655753192000,6.14319189453125,0.07933922857046127,0.12078472971916199,0.09855127334594727
1775719655763206000,6.153205810546875,0.05001961067318916,0.10793622583150864,0.10260821878910065
1775719655773219000,6.163218994140625,0.008977369405329227,0.11294350028038025,0.09878524392843246
1775719655783232000,6.17323193359375,-0.027130410075187683,0.12405408918857574,0.08690539002418518
1775719655793246000,6.183245849609375,-0.05254974961280823,0.1457631140947342,0.06496813893318176
1775719655803259100,6.193259033203125,-0.07719382643699646,0.16659870743751526,0.039217621088027954
1775719655813272000,6.20327197265625,-0.11471004039049149,0.17181824147701263,0.03157728165388107
1775719655823286000,6.2132861328125,-0.16542860865592957,0.1612928956747055,0.04222539812326431
1775719655833299000,6.223298828125,-0.22763286530971527,0.1350216120481491,0.04790112376213074
1775719655843312000,6.23331201171875,-0.2813098430633545,0.11661770939826965,0.05392703413963318
1775719655853326000,6.243326171875,-0.3153913915157318,0.0895719826221466,0.07375853508710861
1775719655863339000,6.253339111328125,-0.3442140817642212,0.0649433583021164,0.10750366002321243
1775719655873352000,6.26335205078125,-0.37170082330703735,0.043313171714544296,0.12456946074962616
1775719655883366100,6.2733662109375,-0.4063810110092163,0.045736733824014664,0.1283872425556183
1775719655893379000,6.283379150390625,-0.44624826312065125,0.053555507212877274,0.11837933957576752
1775719655903392000,6.29339208984375,-0.490413099527359,0.06657170504331589,0.08957267552614212
1775719655913405000,6.303405029296875,-0.5192335844039917,0.0814175009727478,0.055290333926677704
1775719655923419000,6.3134189453125,-0.5222445726394653,0.10199515521526337,0.03443446755409241
1775719655933432000,6.32343212890625,-0.5138620138168335,0.13720613718032837,0.0274796225130558
1775719655943446000,6.333446044921875,-0.4989039897918701,0.1681370735168457,0.028662899509072304
1775719655953459000,6.343458984375,-0.486096054315567,0.17406047880649567,0.056160036474466324
1775719655963472100,6.35347216796875,-0.46943509578704834,0.14874602854251862,0.10384488850831985
1775719655973485000,6.363485107421875,-0.4460972845554352,0.08482857048511505,0.15384919941425323
1775719655983499000,6.3734990234375,-0.4198445677757263,-0.003566661849617958,0.19805285334587097
1775719655993512000,6.383511962890625,-0.3794308304786682,-0.06789398193359375,0.22273848950862885
1775719656003525000,6.393525146484375,-0.35099777579307556,-0.08328761905431747,0.21616771817207336
1775719656013539000,6.4035390625,-0.3301268517971039,-0.05697399005293846,0.17225699126720428
1775719656023552000,6.413552001953125,-0.30274465680122375,0.0064973654225468636,0.1024620309472084
1775719656033565000,6.42356494140625,-0.26360976696014404,0.0776495710015297,0.03353516757488251
1775719656043579100,6.4335791015625,-0.2422845959663391,0.16621613502502441,0.008336428552865982
1775719656053592000,6.443592041015625,-0.2311624437570572,0.22654098272323608,0.02024075947701931
1775719656063605000,6.45360498046875,-0.22668397426605225,0.26693010330200195,0.05804190784692764
1775719656073619200,6.463619140625,-0.22861237823963165,0.27341410517692566,0.10895808786153793
1775719656083631900,6.4736318359375,-0.22725065052509308,0.25294622778892517,0.16840508580207825
1775719656093645000,6.48364501953125,-0.22577686607837677,0.19977408647537231,0.21712255477905273
1775719656103659000,6.493658935546875,-0.21390977501869202,0.17974209785461426,0.2461089938879013
1775719656113672000,6.503671875,-0.1828344166278839,0.2255529910326004,0.23830166459083557
1775719656123685000,6.51368505859375,-0.14874982833862305,0.2925014793872833,0.18671588599681854
1775719656133698800,6.52369873046875,-0.11713863909244537,0.34304243326187134,0.1184670552611351
1775719656143711000,6.5337109375,-0.09820608049631119,0.41507813334465027,0.05422317236661911
1775719656153724000,6.543723876953125,-0.09842313081026077,0.48389580845832825,-0.008980562910437584
1775719656163738000,6.553738037109375,-0.11163438856601715,0.5220279097557068,-0.06347126513719559
1775719656173751000,6.5637509765625,-0.13301877677440643,0.5233480334281921,-0.09614585340023041
1775719656183764000,6.573763916015625,-0.15109331905841827,0.5116844773292542,-0.08698712289333344
1775719656193778000,6.58377783203125,-0.15998055040836334,0.48909157514572144,-0.04062362387776375
1775719656203791000,6.593791015625,-0.15628895163536072,0.4452887177467346,0.022953707724809647
1775719656213804000,6.603803955078125,-0.13687504827976227,0.4013122022151947,0.08791859447956085
1775719656223818000,6.61381787109375,-0.1149669885635376,0.3654438555240631,0.11635154485702515
1775719656233831200,6.6238310546875,-0.10274148732423782,0.3619076907634735,0.10687068849802017
1775719656243844000,6.633843994140625,-0.09489714354276657,0.3653615415096283,0.07064317911863327
1775719656253858000,6.643858154296875,-0.0990293025970459,0.36360013484954834,0.028923161327838898
1775719656263871000,6.65387109375,-0.10591781139373779,0.38722488284111023,-0.01070348173379898
1775719656273884200,6.66388427734375,-0.09710408002138138,0.4121699333190918,-0.05258621647953987
1775719656283898000,6.673898193359375,-0.09287259727716446,0.4217783808708191,-0.0671541690826416
1775719656293911000,6.6839111328125,-0.08752204477787018,0.39799317717552185,-0.03976063430309296
1775719656303924000,6.693924072265625,-0.07080040127038956,0.36697882413864136,0.010879327543079853
1775719656313938200,6.703938232421875,-0.044080641120672226,0.34212353825569153,0.048106856644153595
1775719656323951000,6.713951171875,-0.008299336768686771,0.30379900336265564,0.053256385028362274
1775719656333964000,6.723964111328125,0.02164258435368538,0.26792195439338684,0.03735838085412979
1775719656343978200,6.733978271484375,0.05224325507879257,0.2532435953617096,0.013372709043323994
1775719656353991000,6.743990966796875,0.09939372539520264,0.22557787597179413,-0.008304091170430183
1775719656364004000,6.754004150390625,0.14791615307331085,0.21487775444984436,-0.012698745355010033
1775719656374018000,6.76401806640625,0.19470949470996857,0.23815059661865234,-0.02087145484983921
1775719656384031000,6.774031005859375,0.23344950377941132,0.26954033970832825,-0.05394367873668671
1775719656394044200,6.784044189453125,0.25634709000587463,0.29443663358688354,-0.10457143932580948
1775719656404057000,6.79405712890625,0.26484766602516174,0.32046276330947876,-0.14754913747310638
1775719656414071000,6.804071044921875,0.2729434072971344,0.3327881395816803,-0.17174209654331207
1775719656424084000,6.814083984375,0.29203081130981445,0.3249448537826538,-0.16241143643856049
1775719656434097200,6.82409716796875,0.2988388240337372,0.27138417959213257,-0.12039591372013092
1775719656444111000,6.834111083984375,0.30281269550323486,0.19760246574878693,-0.05006926879286766
1775719656454124000,6.8441240234375,0.29989999532699585,0.14295946061611176,0.014378964900970459
1775719656464137000,6.854136962890625,0.29774799942970276,0.11883094906806946,0.02632893994450569
1775719656474151200,6.864151123046875,0.30444398522377014,0.13364025950431824,-0.00003662065137177706
1775719656484164000,6.8741640625,0.3089596629142761,0.1622728854417801,-0.04171755909919739
1775719656494177000,6.884177001953125,0.31673794984817505,0.1671438068151474,-0.09722955524921417
1775719656504191200,6.894191162109375,0.3035720884799957,0.16278047859668732,-0.16153185069561005
1775719656514204000,6.904203857421875,0.25951820611953735,0.1876140981912613,-0.22068540751934052
1775719656524217000,6.914217041015625,0.22708620131015778,0.2092612385749817,-0.2893975079059601
1775719656534231000,6.92423095703125,0.19107148051261902,0.24514201283454895,-0.34953033924102783
1775719656544244000,6.934243896484375,0.14289627969264984,0.3015426695346832,-0.3875568211078644
1775719656554257200,6.944257080078125,0.10963339358568192,0.33962079882621765,-0.39278700947761536
1775719656564270800,6.954270751953125,0.09130526334047318,0.30760258436203003,-0.35695183277130127
1775719656574284000,6.964283935546875,0.07211904972791672,0.24331441521644592,-0.26430657505989075
1775719656584297000,6.974296875,0.04830453544855118,0.18801572918891907,-0.12751652300357819
1775719656594311000,6.984310791015625,0.02079019695520401,0.13345962762832642,0.006108290050178766
1775719656604324000,6.994323974609375,0.00691211549565196,0.07204930484294891,0.11199313402175903
1775719656614337000,7.0043369140625,-0.0041144369170069695,0.05984989181160927,0.19356229901313782
1775719656624351000,7.01435107421875,-0.022335462272167206,0.10470057278871536,0.21411381661891937
1775719656634364200,7.0243642578125,-0.043398935347795486,0.17697077989578247,0.16292093694210052
1775719656644377000,7.034377197265625,-0.06776687502861023,0.2446494996547699,0.08931976556777954
1775719656654391000,7.04439111328125,-0.10344231128692627,0.29237309098243713,0.01751774549484253
1775719656664404200,7.054404296875,-0.16300801932811737,0.2677311301231384,-0.02329103834927082
1775719656674417000,7.0644169921875,-0.23301586508750916,0.15528397262096405,0.005793343298137188
1775719656684431000,7.07443115234375,-0.29352498054504395,-0.008987437933683395,0.0977601408958435
1775719656694444000,7.084444091796875,-0.31325259804725647,-0.15409483015537262,0.1802012324333191
1775719656704457000,7.09445703125,-0.28817689418792725,-0.23682430386543274,0.17790473997592926
1775719656714471200,7.10447119140625,-0.22057417035102844,-0.21676191687583923,0.08911334723234177
1775719656724483800,7.11448388671875,-0.13224665820598602,-0.09541449695825577,-0.04979874566197395
1775719656734497000,7.1244970703125,-0.070281021296978,0.016761304810643196,-0.22187437117099762
1775719656744511200,7.13451123046875,-0.044705308973789215,0.08451978862285614,-0.3458400070667267
1775719656754524000,7.14452392578125,-0.0546807125210762,0.09484273195266724,-0.392890065908432
1775719656764537000,7.154537109375,-0.11142996698617935,0.06536441296339035,-0.35563698410987854
1775719656774551000,7.164551025390625,-0.19270750880241394,-0.049779221415519714,-0.26551321148872375
1775719656784564000,7.17456396484375,-0.26872527599334717,-0.1656472086906433,-0.14810317754745483
1775719656794577200,7.1845771484375,-0.3144986033439636,-0.22466552257537842,-0.01463512983173132
1775719656804590000,7.194590087890625,-0.3221942186355591,-0.24945254623889923,0.08731970191001892
1775719656814604000,7.20460400390625,-0.29632988572120667,-0.2347942441701889,0.14221704006195068
1775719656824617200,7.2146171875,-0.2570003569126129,-0.23288388550281525,0.15791665017604828
1775719656834630000,7.2246298828125,-0.23670680820941925,-0.19783802330493927,0.15414002537727356
1775719656844644000,7.23464404296875,-0.2261943817138672,-0.1415114551782608,0.15233522653579712
1775719656854657300,7.2446572265625,-0.19972096383571625,-0.08158233761787415,0.17334330081939697
1775719656864670000,7.254669921875,-0.1895231157541275,-0.07224251329898834,0.22123830020427704
1775719656874684200,7.26468408203125,-0.1823195368051529,-0.12715637683868408,0.27393588423728943
1775719656884697000,7.274697021484375,-0.16040168702602386,-0.19838204979896545,0.3166317343711853
1775719656894710000,7.2847099609375,-0.09562908113002777,-0.26031145453453064,0.3299792408943176
1775719656904724200,7.29472412109375,-0.0026027983985841274,-0.2782079577445984,0.30383166670799255
1775719656914737000,7.30473681640625,0.09284862875938416,-0.26736995577812195,0.2343045324087143
1775719656924750000,7.31475,0.1762004792690277,-0.24955004453659058,0.15500611066818237
1775719656934764000,7.324763916015625,0.2424953430891037,-0.19965171813964844,0.11761107295751572
1775719656944777000,7.33477685546875,0.28033193945884705,-0.17135731875896454,0.1077098473906517
1775719656954790100,7.3447900390625,0.3140251934528351,-0.19370363652706146,0.11596750468015671
1775719656964804000,7.35480419921875,0.37445664405822754,-0.23480185866355896,0.13356730341911316
1775719656974817000,7.364817138671875,0.44701337814331055,-0.25807708501815796,0.12863007187843323
1775719656984830200,7.374830322265625,0.5166349411010742,-0.24725380539894104,0.1020563542842865
1775719656994844000,7.384843994140625,0.5794650316238403,-0.2704927921295166,0.05277855694293976
1775719657004857000,7.394857177734375,0.5864989757537842,-0.34600934386253357,-0.020222673192620277
1775719657014870300,7.404870361328125,0.5451477766036987,-0.3899802565574646,-0.113655686378479
1775719657024884000,7.414884033203125,0.5028116703033447,-0.35273683071136475,-0.22448863089084625
1775719657034897200,7.424897216796875,0.4511290490627289,-0.24325987696647644,-0.3280640244483948
1775719657044910000,7.43491015625,0.40824881196022034,-0.14437420666217804,-0.39905861020088196
1775719657054924000,7.444924072265625,0.379392147064209,-0.08318302035331726,-0.4052842855453491
1775719657064937200,7.454937255859375,0.35691556334495544,-0.08271042257547379,-0.3645673394203186
1775719657074950000,7.464949951171875,0.3435899019241333,-0.12272921204566956,-0.3138029873371124
1775719657084964000,7.474964111328125,0.32374677062034607,-0.15458911657333374,-0.24431464076042175
1775719657094977000,7.48497705078125,0.28825613856315613,-0.1541358381509781,-0.14645971357822418
1775719657104990000,7.494989990234375,0.26728662848472595,-0.14115935564041138,-0.05967912822961807
1775719657115004200,7.505004150390625,0.2386419028043747,-0.1210426315665245,0.004560044500976801
1775719657125017000,7.51501708984375,0.1810007244348526,-0.09269177168607712,0.060838427394628525
1775719657135030000,7.525030029296875,0.115313321352005,-0.0693235993385315,0.1027216911315918
1775719657145044000,7.5350439453125,0.02844197303056717,-0.05511622875928879,0.11338508874177933
1775719657155057700,7.5450576171875,-0.05644628405570984,-0.026761019602417946,0.11825840175151825
1775719657165070800,7.55507080078125,-0.10745728760957718,0.027747200801968575,0.1327044516801834
1775719657175083800,7.565083740234375,-0.123423732817173,0.05166425183415413,0.15013617277145386
1775719657185097700,7.57509765625,-0.12491249293088913,0.04567814618349075,0.16912619769573212
1775719657195111000,7.58511083984375,-0.11237699538469315,0.05006170645356178,0.16343741118907928
1775719657205123600,7.59512353515625,-0.09034524857997894,0.05071539431810379,0.12781397998332977
1775719657215137800,7.6051376953125,-0.07057660818099976,0.059342171996831894,0.10033442825078964
1775719657225150700,7.615150634765625,-0.04731262847781181,0.045625265687704086,0.07337832450866699
1775719657235163600,7.62516357421875,-0.027898713946342468,0.014767220243811607,0.050845321267843246
1775719657245177900,7.635177734375,-0.0014919211389496922,0.014171143993735313,0.05407967045903206
1775719657255190800,7.645190673828125,0.02763693407177925,0.03250914067029953,0.05000769719481468
1775719657265203700,7.65520361328125,0.05297386646270752,0.040045738220214844,0.03973904624581337
1775719657275217700,7.6652177734375,0.07738279551267624,0.05322066321969032,0.049226291477680206
1775719657285230800,7.67523095703125,0.10635441541671753,0.05012553557753563,0.07678058743476868
1775719657295243800,7.685243896484375,0.13269546627998352,0.010375726968050003,0.09354092180728912
1775719657305257700,7.6952578125,0.1408839076757431,-0.04226076602935791,0.10666031390428543
1775719657315270700,7.705270751953125,0.15326787531375885,-0.057092443108558655,0.11440105736255646
1775719657325283800,7.715283935546875,0.17750559747219086,-0.037884362041950226,0.11480032652616501
1775719657335297800,7.7252978515625,0.2095934897661209,-0.0077403089962899685,0.10872432589530945
1775719657345310700,7.735310791015625,0.2517658770084381,0.006595782935619354,0.0954398438334465
1775719657355324000,7.745323974609375,0.28685304522514343,0.041678402572870255,0.07129348814487457
1775719657365337900,7.755337890625,0.3119312524795532,0.06704945117235184,0.010027986019849777
1775719657375350800,7.765350830078125,0.30776581168174744,0.1122446209192276,-0.06696905940771103
1775719657385363700,7.77536376953125,0.29109787940979004,0.11897283047437668,-0.14613205194473267
1775719657395378000,7.7853779296875,0.25490885972976685,0.10674265027046204,-0.18388772010803223
1775719657405390800,7.795390869140625,0.21558742225170135,0.08702061325311661,-0.17142581939697266
1775719657415403800,7.80540380859375,0.19102482497692108,0.05104077607393265,-0.13297083973884583
1775719657425417700,7.815417724609375,0.18619318306446075,0.0037773007061332464,-0.0774817243218422
1775719657435430700,7.8254306640625,0.19464366137981415,-0.04539930075407028,-0.014807690866291523
1775719657445443800,7.83544384765625,0.20287704467773438,-0.07392241060733795,0.02726420946419239
1775719657455456800,7.845456787109375,0.193752259016037,-0.08020240813493729,0.03130635619163513
1775719657465470700,7.855470703125,0.15049831569194794,-0.07631123065948486,-0.025209534913301468
1775719657475483600,7.865483642578125,0.11683329939842224,-0.06028379499912262,-0.1553504914045334
1775719657485496800,7.875496826171875,0.11389251798391342,-0.012810967862606049,-0.2952221632003784
1775719657495510800,7.8855107421875,0.1260027140378952,0.042387306690216064,-0.39358335733413696
1775719657505523700,7.895523681640625,0.14199323952198029,0.07204584032297134,-0.41595086455345154
1775719657515537000,7.905536865234375,0.1581897884607315,0.07081998884677887,-0.3581397533416748
1775719657525550800,7.91555078125,0.18012206256389618,0.04078349471092224,-0.23888015747070312
1775719657535563800,7.925563720703125,0.187419131398201,-0.017345856875181198,-0.09198339283466339
1775719657545576700,7.93557666015625,0.17397239804267883,-0.09158496558666229,0.049976248294115067
1775719657555591000,7.9455908203125,0.13578081130981445,-0.177292138338089,0.14324307441711426
1775719657565603800,7.955603759765625,0.08364727348089218,-0.22848902642726898,0.18529273569583893
1775719657575616800,7.96561669921875,0.027952052652835846,-0.22156879305839539,0.16095995903015137
1775719657585630700,7.975630615234375,-0.007438199128955603,-0.17635075747966766,0.06828590482473373
1775719657595643600,7.9856435546875,-0.00019120518118143082,-0.09558932483196259,-0.06822693347930908
1775719657605656800,7.99565673828125,0.04097948223352432,0.005417689681053162,-0.21289193630218506
1775719657615670800,8.0056708984375,0.09852693229913712,0.10863808542490005,-0.31791555881500244
1775719657625683700,8.01568359375,0.159306600689888,0.1883573830127716,-0.3426593542098999
1775719657635696600,8.025696533203124,0.20100878179073334,0.218640998005867,-0.3085019290447235
1775719657645710600,8.035710693359375,0.20460818707942963,0.19034764170646667,-0.2439838945865631
1775719657655723800,8.045723876953126,0.17841947078704834,0.12428342550992966,-0.15546442568302155
1775719657665736700,8.05573681640625,0.11904342472553253,0.0061737908981740475,-0.0222963597625494
1775719657675750000,8.06575,0.030685070902109146,-0.13360275328159332,0.12616927921772003
1775719657685763800,8.075763916015624,-0.055415064096450806,-0.25874239206314087,0.2327367663383484
1775719657695776800,8.08577685546875,-0.135686993598938,-0.35507744550704956,0.2714087963104248
1775719657705789700,8.095789794921876,-0.1998864859342575,-0.37147247791290283,0.24249371886253357
1775719657715804000,8.105803955078125,-0.2287365198135376,-0.3090154826641083,0.146768257021904
1775719657725816800,8.11581689453125,-0.2061583548784256,-0.20615480840206146,0.0035199872218072414
1775719657735829800,8.125829833984374,-0.13235123455524445,-0.08339107036590576,-0.1227540597319603
1775719657745844000,8.135843994140625,-0.04902084916830063,0.03429265692830086,-0.1956559121608734
1775719657755856600,8.145856689453124,0.019336901605129242,0.07531146705150604,-0.2294975072145462
1775719657765869800,8.155869873046875,0.06644556671380997,0.05551663413643837,-0.20393815636634827
1775719657775883800,8.1658837890625,0.08054514229297638,-0.0009580955374985933,-0.12094686180353165
1775719657785896700,8.175896728515625,0.05532863363623619,-0.0921141654253006,-0.02049686200916767
1775719657795910000,8.185909912109375,0.010801112279295921,-0.17846183478832245,0.05711404234170914
1775719657805923600,8.195923583984374,-0.01985378935933113,-0.23270894587039948,0.08640117943286896
1775719657815936800,8.205936767578125,-0.03975452855229378,-0.2505263090133667,0.059602316468954086
1775719657825949700,8.21594970703125,-0.051893021911382675,-0.2159705013036728,-0.011968123726546764
1775719657835963600,8.225963623046875,-0.044917937368154526,-0.12270447611808777,-0.10720676183700562
1775719657845976800,8.235976806640625,-0.002697111340239644,-0.021236350759863853,-0.1731000542640686
1775719657855989800,8.24598974609375,0.05553556978702545,0.040058963000774384,-0.159620463848114
1775719657866003700,8.256003662109375,0.0895727276802063,0.025151267647743225,-0.09079934656620026
1775719657876017000,8.266016845703126,0.10876905918121338,-0.01405099406838417,-0.012698953971266747
1775719657886029800,8.27602978515625,0.12072920799255371,-0.04800035059452057,0.049336474388837814
1775719657896042800,8.286042724609375,0.1114928349852562,-0.0864071249961853,0.09242455661296844
1775719657906057000,8.296056884765624,0.09566003084182739,-0.10751276463270187,0.09655706584453583
1775719657916069600,8.306069580078125,0.08824605494737625,-0.08559175580739975,0.07484830915927887
1775719657926082800,8.316082763671876,0.08483235538005829,-0.02910253033041954,0.0640505999326706
1775719657936096800,8.3260966796875,0.06296540051698685,0.038323383778333664,0.060154929757118225
1775719657946109700,8.336109619140625,0.05026642233133316,0.08304160833358765,0.04558616876602173
1775719657956123000,8.346122802734374,0.050167884677648544,0.1140541285276413,0.030018925666809082
1775719657966136600,8.356136474609375,0.05662555247545242,0.11499371379613876,0.0038664760068058968
1775719657976149800,8.366149658203126,0.07056081295013428,0.11132974177598953,-0.013369236141443253
1775719657986162700,8.37616259765625,0.08131901174783707,0.08561573177576065,-0.01888679713010788
1775719657996176600,8.3861767578125,0.08506421744823456,0.0598834790289402,0.001036045141518116
1775719658006189800,8.39618994140625,0.09026611596345901,0.04878987371921539,0.041463110595941544
1775719658016202800,8.40620263671875,0.09127039462327957,0.035122260451316833,0.07498963922262192
1775719658026216700,8.416216796875,0.07660079747438431,0.02598338946700096,0.07562203705310822
1775719658036230000,8.42622998046875,0.03844328969717026,0.029362674802541733,0.043491799384355545
1775719658046242800,8.436242919921876,0.011945094913244247,0.030458001419901848,-0.0037308400496840477
1775719658056256800,8.4462568359375,0.007502675522118807,0.040072280913591385,-0.03476625680923462
1775719658066270000,8.45627001953125,0.016440439969301224,0.04871935397386551,-0.04998759552836418
1775719658076282600,8.46628271484375,0.039185699075460434,0.03368554636836052,-0.06765180826187134
1775719658086296800,8.476296875,0.07848502695560455,0.015539299696683884,-0.07952967286109924
1775719658096309800,8.486309814453126,0.10972550511360168,0.010292340070009232,-0.08779985457658768
1775719658106322700,8.49632275390625,0.1298203021287918,0.009115607477724552,-0.09373808652162552
1775719658116337000,8.5063369140625,0.14318591356277466,0.0058750733733177185,-0.10090119391679764
1775719658126349600,8.516349609375,0.15601980686187744,0.010992040857672691,-0.09423413127660751
1775719658136362800,8.52636279296875,0.1607743501663208,0.007679068483412266,-0.09007853269577026
1775719658146376200,8.536376220703126,0.15793921053409576,-0.010386602953076363,-0.10825788229703903
1775719658156390000,8.546389892578125,0.15196973085403442,-0.01728232577443123,-0.14009250700473785
1775719658166403000,8.556403076171875,0.13562533259391785,-0.006532417144626379,-0.18336594104766846
1775719658176416000,8.566416015625,0.1183914840221405,0.01487034372985363,-0.23667018115520477
1775719658186430000,8.576429931640625,0.12018194794654846,0.04109164699912071,-0.2942478656768799
1775719658196443100,8.586443115234376,0.13967707753181458,0.08029364794492722,-0.33172813057899475
1775719658206456000,8.5964560546875,0.16878701746463776,0.11870379745960236,-0.3452339172363281
1775719658216470000,8.606469970703126,0.18115340173244476,0.1535046547651291,-0.32711565494537354
1775719658226483200,8.616483154296875,0.17901942133903503,0.1823870837688446,-0.2870711088180542
1775719658236496000,8.626495849609375,0.1568901538848877,0.1917174607515335,-0.22818993031978607
1775719658246510000,8.636510009765624,0.12072647362947464,0.1776762455701828,-0.1497817188501358
1775719658256523000,8.64652294921875,0.08759701251983643,0.12869031727313995,-0.06535739451646805
1775719658266536000,8.656535888671876,0.054590459913015366,0.08066385239362717,0.015981703996658325
1775719658276550100,8.666550048828125,0.013893894851207733,0.055572886019945145,0.06726832687854767
1775719658286562800,8.676562744140625,-0.030242104083299637,0.07651947438716888,0.09277880936861038
1775719658296576000,8.686575927734374,-0.05674374848604202,0.11586235463619232,0.09262141585350037
1775719658306590200,8.696590087890625,-0.07240483164787292,0.14155718684196472,0.07781346142292023
1775719658316603000,8.706602783203126,-0.0808664932847023,0.15602001547813416,0.06704923510551453
1775719658326616000,8.716615966796875,-0.08054850250482559,0.16654500365257263,0.06737060099840164
1775719658336630000,8.726630126953125,-0.08194639533758163,0.1705400049686432,0.08609848469495773
1775719658346643000,8.736642822265624,-0.08660595864057541,0.17474721372127533,0.12207575887441635
1775719658356656000,8.74665625,-0.10176467150449753,0.19705864787101746,0.160647913813591
1775719658366669000,8.7566689453125,-0.11816646158695221,0.2111722081899643,0.19730469584465027
1775719658376683000,8.76668310546875,-0.15231192111968994,0.22766010463237762,0.23650483787059784
1775719658386696200,8.7766962890625,-0.20031167566776276,0.22190307080745697,0.26285696029663086
1775719658396708900,8.786708984375,-0.2395019680261612,0.18028691411018372,0.27741539478302
1775719658406723000,8.79672314453125,-0.2688120901584625,0.13387371599674225,0.2820759117603302
1775719658416736000,8.806736083984376,-0.2757381796836853,0.08550912141799927,0.2700682580471039
1775719658426749000,8.8167490234375,-0.26719948649406433,0.05282846465706825,0.2608383893966675
1775719658436763100,8.82676318359375,-0.24940024316310883,0.021300900727510452,0.24448150396347046
1775719658446775800,8.83677587890625,-0.2133617103099823,-0.023127667605876923,0.22495438158512115
1775719658456789000,8.8467890625,-0.1730228066444397,-0.05611491575837135,0.20724914968013763
1775719658466803200,8.85680322265625,-0.13485783338546753,-0.08082442730665207,0.18159638345241547
1775719658476816000,8.86681591796875,-0.11802399903535843,-0.09645212441682816,0.14368228614330292
1775719658486829000,8.8768291015625,-0.11139442771673203,-0.11766533553600311,0.09718199819326401
1775719658496843000,8.886843017578125,-0.10390428453683853,-0.13409064710140228,0.05757146701216698
1775719658506856000,8.89685595703125,-0.0974041149020195,-0.14944690465927124,0.01723065972328186
1775719658516869000,8.906869140625,-0.07489827275276184,-0.16253234446048737,-0.030567491427063942
1775719658526883000,8.916883056640625,-0.03395441919565201,-0.13673296570777893,-0.06993550807237625
1775719658536896000,8.92689599609375,0.020629994571208954,-0.09854856878519058,-0.10728021711111069
1775719658546909200,8.9369091796875,0.07120396196842194,-0.07031861692667007,-0.12086640298366547
1775719658556921900,8.946921875,0.10851485282182693,-0.07393012940883636,-0.09691605716943741
1775719658566936000,8.95693603515625,0.12064585089683533,-0.09688282012939453,-0.05056421831250191
1775719658576949000,8.966948974609375,0.11661089211702347,-0.11525437235832214,0.005791200790554285
1775719658586962000,8.9769619140625,0.09589990973472595,-0.1212448850274086,0.06516334414482117
1775719658596976000,8.98697607421875,0.06731487065553665,-0.1270015835762024,0.11223392188549042
1775719658606988800,8.99698876953125,0.04752693697810173,-0.13143810629844666,0.13232842087745667
1775719658617002000,9.007001953125,0.037687890231609344,-0.14653955399990082,0.12475519627332687
1775719658627016200,9.01701611328125,0.04434623569250107,-0.1344742476940155,0.11133822053670883
1775719658637028900,9.02702880859375,0.06821002066135406,-0.11344007402658463,0.0879703089594841
1775719658647042000,9.0370419921875,0.0921054258942604,-0.0830172523856163,0.0559810996055603
1775719658657056000,9.047055908203125,0.11212201416492462,-0.04370632767677307,0.02677660807967186
1775719658667069000,9.05706884765625,0.1287688910961151,-0.014706901274621487,0.0032877945341169834
1775719658677082000,9.06708203125,0.1321561634540558,-0.001409205375239253,-0.006788541562855244
1775719658687096000,9.077095947265626,0.11868612468242645,-0.004723450168967247,-0.010652244091033936
1775719658697109000,9.08710888671875,0.10483049601316452,-0.010243384167551994,-0.00559596624225378
1775719658707122200,9.0971220703125,0.10014374554157257,-0.004933573305606842,0.013205313123762608
1775719658717136000,9.107135986328124,0.09261472523212433,-0.001367334509268403,0.04734517261385918
1775719658727149000,9.117149169921875,0.08314105123281479,-0.022898903116583824,0.07286738604307175
1775719658737162200,9.127162353515626,0.07051873207092285,-0.040183085948228836,0.08919122815132141
1775719658747175000,9.1371748046875,0.053039535880088806,-0.03762837126851082,0.08967793732881546
1775719658757189000,9.147189208984376,0.04231179133057594,-0.017995551228523254,0.06314300000667572
1775719658767201800,9.157201904296874,0.04287200793623924,0.019284207373857498,0.019651077687740326
1775719658777215000,9.167215087890625,0.050660423934459686,0.04685245081782341,-0.02779500186443329
1775719658787229200,9.177229248046874,0.06989753991365433,0.05570349469780922,-0.06351245939731598
1775719658797241900,9.187241943359375,0.08911730349063873,0.051471468061208725,-0.06976503133773804
1775719658807255000,9.197255126953126,0.09491992741823196,0.03513661399483681,-0.052637405693531036
1775719658817269000,9.20726904296875,0.08452054858207703,0.024585437029600143,-0.027044694870710373
1775719658827282000,9.217281982421875,0.07060761749744415,0.021113799884915352,-0.005250704940408468
1775719658837295000,9.227295166015624,0.05199744924902916,0.011752787977457047,0.015051370486617088
1775719658847309000,9.23730908203125,0.04036075994372368,-0.001721505424939096,0.03347085416316986
1775719658857322000,9.247322021484376,0.04344869405031204,-0.011721675284206867,0.03171423450112343
1775719658867335200,9.257335205078125,0.048393312841653824,0.005225942004472017,0.015301395207643509
1775719658877348900,9.267348876953125,0.05179230496287346,0.031309738755226135,-0.005999632179737091
1775719658887362000,9.277362060546874,0.0384981594979763,0.041917260736227036,-0.02944878861308098
1775719658897375200,9.287375244140625,0.02451949566602707,0.03260178864002228,-0.04695134609937668
1775719658907389000,9.297388916015626,0.011838927865028381,0.026122376322746277,-0.05190284922719002
1775719658917402000,9.307402099609375,0.008904390968382359,0.02319715917110443,-0.04314690828323364
1775719658927415000,9.3174150390625,0.021253790706396103,0.013985936529934406,-0.019528744742274284
1775719658937429000,9.327428955078124,0.03658108040690422,-0.0016886303201317787,0.01725856401026249
1775719658947442200,9.337442138671875,0.039056941866874695,-0.030584964901208878,0.053039148449897766
1775719658957454800,9.347454833984376,0.031105006113648415,-0.05063430592417717,0.08911006897687912
1775719658967468000,9.357468017578125,0.017845943570137024,-0.04571482539176941,0.11253482848405838
1775719658977482000,9.36748193359375,-0.005512375850230455,-0.016622453927993774,0.11868992447853088
1775719658987495000,9.377494873046874,-0.021491946652531624,-0.0016724737361073494,0.10092846304178238
1775719658997508000,9.387508056640625,-0.02129247598350048,-0.011799409985542297,0.07616639137268066
1775719659007522000,9.39752197265625,-0.014254090376198292,-0.032585885375738144,0.058435551822185516
1775719659017535000,9.407534912109375,-0.016302593052387238,-0.03659927099943161,0.05251587554812431
1775719659027548200,9.417548095703125,-0.022613948211073875,-0.015214677900075912,0.05457108095288277
1775719659037562000,9.42756201171875,-0.027320818975567818,0.010335955768823624,0.053416334092617035
1775719659047575000,9.437574951171875,-0.03782344609498978,0.016839899122714996,0.05971795320510864
1775719659057588200,9.447588134765626,-0.046649958938360214,0.015732023864984512,0.07924291491508484
1775719659067602000,9.457601806640625,-0.05098104849457741,0.04444492235779762,0.0964067280292511
1775719659077615000,9.467614990234376,-0.04899033531546593,0.07121901214122772,0.08490586280822754
1775719659087628000,9.4776279296875,-0.048656538128852844,0.08968596905469894,0.06133440136909485
1775719659097642000,9.48764208984375,-0.050756439566612244,0.09779289364814758,0.04508805274963379
1775719659107655200,9.4976552734375,-0.05357969552278519,0.09265882521867752,0.044424332678318024
1775719659117667800,9.507667724609375,-0.05286224186420441,0.09387029707431793,0.05341942608356476
1775719659127682000,9.51768212890625,-0.0652492493391037,0.10470633953809738,0.0757562518119812
1775719659137695000,9.527695068359375,-0.09545588493347168,0.13574548065662384,0.11999455094337463
1775719659147707400,9.537707275390625,-0.13049377501010895,0.13117265701293945,0.16924260556697845
1775719659157720600,9.547720458984376,-0.1605728417634964,0.09487830102443695,0.2251996099948883
1775719659167734500,9.557734619140625,-0.1794283092021942,0.04419701546430588,0.28962594270706177
1775719659177747500,9.56774755859375,-0.20432007312774658,0.004480759613215923,0.34015515446662903
1775719659187760600,9.5777607421875,-0.2229168713092804,-0.015799447894096375,0.3591196537017822
1775719659197774300,9.5877744140625,-0.2457990199327469,0.0037931615952402353,0.3445788025856018
1775719659207787500,9.59778759765625,-0.26706013083457947,0.028044765815138817,0.31028738617897034
1775719659217800700,9.60780078125,-0.29641908407211304,0.06472261995077133,0.28542837500572205
1775719659227814400,9.617814453125,-0.33037349581718445,0.0982234999537468,0.27112963795661926
1775719659237827600,9.62782763671875,-0.3575159013271332,0.13594157993793488,0.2653612196445465
1775719659247840500,9.637840576171875,-0.3720758855342865,0.17611637711524963,0.2676118016242981
1775719659257854500,9.6478544921875,-0.36445367336273193,0.1924343705177307,0.2596340477466583
1775719659267867600,9.65786767578125,-0.35642704367637634,0.18461200594902039,0.2597651183605194
1775719659277880300,9.66788037109375,-0.3609775900840759,0.16000652313232422,0.2727096676826477
1775719659287894500,9.67789453125,-0.3677372634410858,0.13939301669597626,0.2956449091434479
1775719659297907700,9.68790771484375,-0.36364853382110596,0.1381479799747467,0.31229764223098755
1775719659307920400,9.69792041015625,-0.3554447889328003,0.15570814907550812,0.3045038878917694
1775719659317933600,9.70793359375,-0.35241249203681946,0.18105772137641907,0.2744405269622803
1775719659327947500,9.717947509765626,-0.3399912714958191,0.19449472427368164,0.22959819436073303
1775719659337960400,9.72796044921875,-0.3176044523715973,0.20492179691791534,0.1803552806377411
1775719659347973600,9.7379736328125,-0.28519153594970703,0.21700888872146606,0.14600951969623566
1775719659357987300,9.7479873046875,-0.24532455205917358,0.2325367033481598,0.13849301636219025
1775719659368000500,9.75800048828125,-0.20179472863674164,0.22901782393455505,0.1379745900630951
1775719659378013700,9.768013671875,-0.14948758482933044,0.23553776741027832,0.14087077975273132
1775719659388027400,9.77802734375,-0.0969802513718605,0.2515491843223572,0.12951068580150604
1775719659398040600,9.78804052734375,-0.04807689040899277,0.26014000177383423,0.10540029406547546
1775719659408053800,9.7980537109375,-0.0023487412836402655,0.249106302857399,0.08763951808214188
1775719659418067500,9.8080673828125,0.018559737130999565,0.23890027403831482,0.07621322572231293
1775719659428080600,9.81808056640625,0.01993565261363983,0.2185567170381546,0.05861715227365494
1775719659438093300,9.82809326171875,0.0230488870292902,0.22304414212703705,0.0391121581196785
1775719659448107500,9.838107421875,0.03141793608665466,0.24464811384677887,0.005623629782348871
1775719659458120700,9.84812060546875,0.05282921716570854,0.2527049779891968,-0.04092789068818092
1775719659468133400,9.85813330078125,0.09959577023983002,0.25622469186782837,-0.0924132838845253
1775719659478146600,9.868146484375,0.15463104844093323,0.27246516942977905,-0.14364024996757507
1775719659488160500,9.878160400390625,0.22366096079349518,0.30148908495903015,-0.1915694922208786
1775719659498173400,9.88817333984375,0.28722554445266724,0.34997084736824036,-0.24002836644649506
1775719659508186600,9.8981865234375,0.3372741937637329,0.3945006728172302,-0.2778167128562927
1775719659518200600,9.90820068359375,0.37783199548721313,0.4233595132827759,-0.2802465856075287
1775719659528213500,9.918213623046874,0.40554875135421753,0.4108006954193115,-0.25941264629364014
1775719659538226700,9.928226806640625,0.4346299469470978,0.36129119992256165,-0.23317092657089233
1775719659548240400,9.938240478515626,0.45656725764274597,0.3111300468444824,-0.20984451472759247
1775719659558253600,9.948253662109375,0.4694034457206726,0.2598322331905365,-0.2004299759864807
1775719659568266800,9.958266845703125,0.48308807611465454,0.23552288115024567,-0.21740175783634186
1775719659578280400,9.968280517578124,0.4966001510620117,0.25833794474601746,-0.2521038055419922
1775719659588293600,9.978293701171875,0.5038975477218628,0.30051347613334656,-0.2942159175872803
1775719659598306300,9.988306396484376,0.5095450282096863,0.34214267134666443,-0.32798534631729126
1775719659608320500,9.998320556640625,0.497792512178421,0.37150856852531433,-0.3413005471229553
1775719659618333700,10.008333740234375,0.4549230933189392,0.3963465392589569,-0.32652321457862854
1775719659628346400,10.018346435546874,0.3857920169830322,0.4185130298137665,-0.2816694676876068
1775719659638359600,10.028359619140625,0.3150443434715271,0.4409552216529846,-0.2026904970407486
1775719659648373500,10.03837353515625,0.2413298487663269,0.4198969602584839,-0.11443086713552475
1775719659658386400,10.048386474609375,0.1745726615190506,0.3606914281845093,-0.033299520611763
1775719659668399600,10.058399658203125,0.10319051146507263,0.31650310754776,0.03801283240318298
1775719659678413600,10.06841357421875,0.0364045612514019,0.28527435660362244,0.0905894935131073
1775719659688426500,10.078426513671875,-0.016645701602101326,0.2678334414958954,0.12120760977268219
1775719659698439700,10.088439697265626,-0.06718290597200394,0.25507688522338867,0.11902888119220734
1775719659708453400,10.098453369140625,-0.10592721402645111,0.2560451626777649,0.08857438713312149
1775719659718466600,10.108466552734376,-0.11363706737756729,0.24857740104198456,0.05165259540081024
1775719659728479700,10.118479736328124,-0.11002019047737122,0.22505301237106323,0.030727200210094452
1775719659738493400,10.128493408203125,-0.0885428637266159,0.1784152090549469,0.02981693111360073
1775719659748506600,10.138506591796874,-0.07731250673532486,0.1507408320903778,0.03709825500845909
1775719659758519300,10.148519287109375,-0.08388305455446243,0.16043873131275177,0.029234476387500763
1775719659768533500,10.158533447265626,-0.09626150876283646,0.16598744690418243,-0.007624519523233175
1775719659778546700,10.168546630859375,-0.1128665879368782,0.1653195321559906,-0.07019522786140442
1775719659788559400,10.178559326171875,-0.1356903463602066,0.16201363503932953,-0.15439993143081665
1775719659798572500,10.188572509765624,-0.16179198026657104,0.18705347180366516,-0.26845645904541016
1775719659808586500,10.19858642578125,-0.16525991261005402,0.24379773437976837,-0.3947741389274597
1775719659818599400,10.208599365234376,-0.15393614768981934,0.32819676399230957,-0.511466383934021
1775719659828612600,10.218612548828125,-0.1387891173362732,0.3629482090473175,-0.6166477799415588
1775719659838626600,10.22862646484375,-0.1368173062801361,0.35328546166419983,-0.6785138249397278
1775719659848639500,10.238639404296874,-0.12899738550186157,0.3347700834274292,-0.6674997210502625
1775719659858652700,10.248652587890625,-0.1261453926563263,0.2903498709201813,-0.605890154838562
1775719659868666400,10.258666259765626,-0.13965603709220886,0.23914338648319244,-0.5245403051376343
1775719659878679600,10.268679443359375,-0.1633022427558899,0.19214631617069244,-0.44047123193740845
1775719659888692700,10.278692626953125,-0.20518788695335388,0.17312771081924438,-0.3576444089412689
1775719659898706400,10.28870654296875,-0.24283060431480408,0.16668951511383057,-0.2940278649330139
1775719659908719600,10.2987197265625,-0.25905606150627136,0.1371125429868698,-0.25276973843574524
1775719659918732300,10.308732177734376,-0.2572627067565918,0.10380172729492188,-0.21525885164737701
1775719659928746500,10.31874658203125,-0.2439144402742386,0.07263152301311493,-0.16910259425640106
1775719659938759700,10.328759765625,-0.2232017070055008,0.05778386816382408,-0.12266665697097778
1775719659948772400,10.3387724609375,-0.19380414485931396,0.04099263995885849,-0.09579803049564362
1775719659958786600,10.34878662109375,-0.16558241844177246,0.022646980360150337,-0.08325911313295364
1775719659968799500,10.358799560546874,-0.13237205147743225,0.01262787263840437,-0.06414300948381424
1775719659978812400,10.3688125,-0.0989680141210556,0.000050295377150177956,-0.05398091301321983
1775719659988825600,10.37882568359375,-0.08217234909534454,-0.027768433094024658,-0.07380253821611404
1775719659998839600,10.388839599609375,-0.09157197922468185,-0.03338024765253067,-0.10544994473457336
1775719660008852500,10.3988525390625,-0.1276436299085617,-0.015917515382170677,-0.14305944740772247
1775719660018865700,10.40886572265625,-0.17164571583271027,-0.004882174544036388,-0.1795431524515152
1775719660028879400,10.41887939453125,-0.18544428050518036,0.008406762033700943,-0.2021295726299286
1775719660038892500,10.428892578125,-0.1770278960466385,0.028959175571799278,-0.20851875841617584
1775719660048905700,10.43890576171875,-0.15999731421470642,0.038701433688402176,-0.19158205389976501
1775719660058919400,10.44891943359375,-0.1332796812057495,0.04461365193128586,-0.13440105319023132
1775719660068932600,10.4589326171875,-0.11989347636699677,0.06395669281482697,-0.06867845356464386
1775719660078945500,10.468945556640625,-0.12680065631866455,0.07749514281749725,-0.015181666240096092
1775719660088959500,10.47895947265625,-0.13963226974010468,0.07106709480285645,0.03367647901177406
1775719660098972700,10.48897265625,-0.1766776442527771,0.022211937233805656,0.08166184276342392
1775719660108985300,10.4989853515625,-0.21828961372375488,-0.05347329378128052,0.15009371936321259
1775719660118998500,10.50899853515625,-0.2395309954881668,-0.12057562917470932,0.22743244469165802
1775719660129012500,10.519012451171875,-0.26021382212638855,-0.12703049182891846,0.3028997480869293
1775719660139025400,10.529025390625,-0.27660584449768066,-0.1138952448964119,0.3589089810848236
1775719660149038000,10.5390380859375,-0.2822020351886749,-0.08659609407186508,0.3807482421398163
1775719660159052000,10.549052001953125,-0.27799156308174133,-0.05560888350009918,0.36692458391189575
1775719660169065000,10.55906494140625,-0.2647499442100525,-0.0258598942309618,0.3138400912284851
1775719660179078100,10.569078125,-0.24650144577026367,0.0016979638021439314,0.24434755742549896
1775719660189092000,10.579092041015626,-0.23767100274562836,0.058127179741859436,0.20498333871364594
1775719660199105000,10.58910498046875,-0.2482629269361496,0.1133563444018364,0.19608144462108612
1775719660209118200,10.5991181640625,-0.2727264165878296,0.1274988204240799,0.20072846114635468
1775719660219132000,10.6091318359375,-0.30657893419265747,0.10469204932451248,0.21658678352832794
1775719660229145000,10.61914501953125,-0.3407355844974518,0.0792737752199173,0.24860037863254547
1775719660239158300,10.629158203125,-0.36216551065444946,0.057167407125234604,0.28091463446617126
1775719660249172000,10.639171875,-0.3589000701904297,0.024929042905569077,0.2876477539539337
1775719660259185200,10.64918505859375,-0.3526941239833832,0.002973410999402404,0.26833584904670715
1775719660269198000,10.659197998046874,-0.3173382878303528,-0.02236434817314148,0.2328350991010666
1775719660279211000,10.6692109375,-0.2782447040081024,-0.06836619228124619,0.18596826493740082
1775719660289225200,10.67922509765625,-0.26800498366355896,-0.10909980535507202,0.1407305747270584
1775719660299238000,10.68923779296875,-0.25535497069358826,-0.12750332057476044,0.09806621819734573
1775719660309251000,10.6992509765625,-0.2412649393081665,-0.13960228860378265,0.03343934193253517
1775719660319265000,10.70926513671875,-0.23178115487098694,-0.1276628077030182,-0.03157161548733711
1775719660329278000,10.71927783203125,-0.24364368617534637,-0.08548795431852341,-0.07743098586797714
1775719660339291100,10.729291015625,-0.2790195047855377,-0.037386734038591385,-0.1290731430053711
1775719660349305000,10.73930517578125,-0.30013149976730347,0.02187051996588707,-0.15637212991714478
1775719660359318000,10.749318115234376,-0.30348870158195496,0.07448127120733261,-0.13410331308841705
1775719660369331200,10.759331298828124,-0.28789958357810974,0.07047847658395767,-0.07796846330165863
1775719660379345200,10.76934521484375,-0.27163273096084595,-0.012706955894827843,-0.004090249538421631
1775719660389358000,10.779358154296874,-0.2687573730945587,-0.13216958940029144,0.09077802300453186
1775719660399371300,10.789371337890625,-0.27302002906799316,-0.24816063046455383,0.14129339158535004
1775719660409385000,10.799385009765626,-0.2728457450866699,-0.21810154616832733,0.11475621908903122
1775719660419398100,10.809398193359375,-0.25242459774017334,-0.08514375239610672,0.00236789183691144
1775719660429411000,10.8194111328125,-0.20108968019485474,0.06868096441030502,-0.15265387296676636
1775719660439425000,10.829425048828124,-0.1892244964838028,0.14971056580543518,-0.27886560559272766
1775719660449438200,10.839438232421875,-0.2027851641178131,0.16695356369018555,-0.31859835982322693
1775719660459451000,10.849450927734376,-0.2053423374891281,0.12069685012102127,-0.2876758575439453
1775719660469464000,10.859464111328125,-0.20842072367668152,0.03070603311061859,-0.20479613542556763
1775719660479478000,10.86947802734375,-0.2169114202260971,-0.09758829325437546,-0.07041674852371216
1775719660489491000,10.879490966796874,-0.2394852638244629,-0.23837688565254211,0.08175742626190186
1775719660499504000,10.889504150390625,-0.2511445879936218,-0.3417397737503052,0.2004268318414688
1775719660509518000,10.89951806640625,-0.22970353066921234,-0.34834322333335876,0.2585964798927307
1775719660519531000,10.909531005859375,-0.1946858912706375,-0.2884593605995178,0.25984230637550354
1775719660529544200,10.919544189453125,-0.15861421823501587,-0.20236310362815857,0.2245257943868637
1775719660539558100,10.92955810546875,-0.0938863456249237,-0.1495710015296936,0.13895122706890106
1775719660549571000,10.939571044921875,-0.04123647138476372,-0.10113343596458435,0.03638644888997078
1775719660559584300,10.949584228515626,-0.013145450502634048,-0.04803133010864258,-0.04507991299033165
1775719660569598000,10.959597900390625,-0.003471750533208251,-0.008472027257084846,-0.08300280570983887
1775719660579611100,10.969611083984375,-0.0016352345701307058,0.02123660035431385,-0.0907512679696083
1775719660589624000,10.9796240234375,-0.0018059432040899992,0.03055420331656933,-0.06764275580644608
1775719660599638000,10.989637939453125,0.011914892122149467,0.02549789473414421,-0.009223179891705513
1775719660609651200,10.999651123046876,0.04119081422686577,0.0031070716213434935,0.06921089440584183
1775719660619664000,11.009663818359375,0.10468696057796478,-0.06390631943941116,0.157427579164505
1775719660629677000,11.019677001953125,0.19238291680812836,-0.150847390294075,0.20769116282463074
1775719660639691000,11.02969091796875,0.2538148760795593,-0.14910967648029327,0.20131662487983704
1775719660649704000,11.039703857421875,0.2780633568763733,-0.08676242083311081,0.15390053391456604
1775719660659717000,11.049717041015626,0.24140040576457977,0.05688342824578285,0.10693968087434769
1775719660669731000,11.05973095703125,0.14725717902183533,0.09951285272836685,0.07586696743965149
1775719660679744000,11.069743896484376,0.012168599292635918,0.09220034629106522,0.1053907722234726
1775719660689757200,11.079757080078124,-0.09882526844739914,0.06619442999362946,0.179200679063797
1775719660699771100,11.089771240234375,-0.14489422738552094,-0.03160723298788071,0.26992976665496826
1775719660709784000,11.0997841796875,-0.12535345554351807,-0.14130258560180664,0.3789079785346985
1775719660719797200,11.10979736328125,-0.07390705496072769,-0.19670727849006653,0.4840357303619385
1775719660729811000,11.11981103515625,-0.0004893508739769459,-0.2541859745979309,0.5650661587715149
1775719660739824000,11.12982421875,0.0766373872756958,-0.2973214387893677,0.6340159177780151
1775719660749837000,11.139837158203125,0.14018510282039642,-0.3191685080528259,0.6580260396003723
1775719660759851000,11.14985107421875,0.19431039690971375,-0.3191317617893219,0.6057449579238892
1775719660769864200,11.1598642578125,0.22176048159599304,-0.27250686287879944,0.49069878458976746
1775719660779876900,11.169876953125,0.20886865258216858,-0.1981162279844284,0.3293812572956085
1775719660789890000,11.17989013671875,0.17233923077583313,-0.11567287147045135,0.17599566280841827
1775719660799904000,11.189904052734375,0.12760424613952637,-0.040394362062215805,0.08071762323379517
1775719660809917000,11.1999169921875,0.06749865412712097,-0.008810632862150669,0.05970852077007294
1775719660819930000,11.20993017578125,0.03578120470046997,-0.04842914640903473,0.10085143148899078
1775719660829944000,11.219944091796876,0.03956519067287445,-0.15931764245033264,0.18310697376728058
1775719660839957000,11.22995703125,0.0556701235473156,-0.27451348304748535,0.28248924016952515
1775719660849970200,11.23997021484375,0.10798505693674088,-0.33476823568344116,0.3608168959617615
1775719660859984100,11.249984130859374,0.20097464323043823,-0.4057771861553192,0.36186033487319946
1775719660869997000,11.2599970703125,0.2834121882915497,-0.42961543798446655,0.3082653880119324
1775719660880010200,11.27001025390625,0.36167556047439575,-0.4065394103527069,0.21252872049808502
1775719660890024000,11.28002392578125,0.4264979362487793,-0.33921217918395996,0.09088525176048279
1775719660900037000,11.290037109375,0.45268985629081726,-0.27876535058021545,-0.05566690117120743
1775719660910050000,11.300050048828124,0.4690006673336029,-0.20783141255378723,-0.1931985467672348
1775719660920064000,11.31006396484375,0.4741874635219574,-0.09480765461921692,-0.30176842212677
1775719660930077200,11.3200771484375,0.48267900943756104,-0.04083064943552017,-0.3906899094581604
1775719660940089900,11.33008984375,0.5045970678329468,-0.07596147060394287,-0.45256686210632324
1775719660950103000,11.34010302734375,0.5494232177734375,-0.18982937932014465,-0.46671822667121887
1775719660960117000,11.350116943359374,0.5808261632919312,-0.31956928968429565,-0.4305684566497803
1775719660970130000,11.3601298828125,0.5983569622039795,-0.4341307580471039,-0.40795743465423584
1775719660980143000,11.37014306640625,0.6433092355728149,-0.4256821274757385,-0.4441037178039551
1775719660990157000,11.380156982421875,0.7267153859138489,-0.280316561460495,-0.5242784023284912
1775719661000170000,11.390169921875,0.8255876302719116,-0.09362178295850754,-0.6259118318557739
1775719661010183200,11.40018310546875,0.915090024471283,0.06419489532709122,-0.7180613279342651
1775719661020197000,11.410197021484375,0.9660072922706604,0.19262583553791046,-0.7492088675498962
1775719661030210000,11.4202099609375,0.9368473887443542,0.22782032191753387,-0.7171362638473511
1775719661040223200,11.43022314453125,0.8701240420341492,0.14953723549842834,-0.603196382522583
1775719661050237200,11.4402373046875,0.7634111642837524,0.05803598463535309,-0.40872687101364136
1775719661060250000,11.45025,0.6395507454872131,-0.009319622069597244,-0.19316290318965912
1775719661070263000,11.460262939453125,0.5575692057609558,-0.031340502202510834,-0.021798232570290565
1775719661080277000,11.470277099609374,0.5224684476852417,-0.023401087149977684,0.08184773474931717
1775719661090290200,11.480290283203125,0.5158957839012146,0.012675957754254341,0.12364684790372849
1775719661100303000,11.49030322265625,0.5186809301376343,0.06980369240045547,0.10591471940279007
1775719661110316000,11.50031591796875,0.533264696598053,0.11942537128925323,0.03350535035133362
1775719661120330000,11.510330078125,0.5591764450073242,0.16861554980278015,-0.05812709778547287
1775719661130343000,11.520343017578124,0.5737221837043762,0.2196943759918213,-0.15220487117767334
1775719661140356000,11.530356201171875,0.5768926739692688,0.25525715947151184,-0.22552275657653809
1775719661150370600,11.54037060546875,0.5603016018867493,0.23443080484867096,-0.24638567864894867
1775719661160383500,11.550383544921875,0.52655428647995,0.17565058171749115,-0.22295518219470978
1775719661170396700,11.560396728515625,0.5042197108268738,0.12648385763168335,-0.19521942734718323
1775719661180410600,11.57041064453125,0.4848436117172241,0.12765619158744812,-0.16308492422103882
1775719661190423600,11.580423583984375,0.4643957316875458,0.1213257685303688,-0.12102898955345154
1775719661200436500,11.5904365234375,0.4307065010070801,0.11707456409931183,-0.10112665593624115
1775719661210450400,11.600450439453125,0.39117029309272766,0.1076928973197937,-0.12414103001356125
1775719661220463600,11.610463623046876,0.35416778922080994,0.10547634959220886,-0.1551833599805832
1775719661230476500,11.6204765625,0.3119516968727112,0.16184164583683014,-0.16507557034492493
1775719661240490500,11.630490478515625,0.2729502320289612,0.1903316229581833,-0.1765013337135315
1775719661250503400,11.64050341796875,0.24428915977478027,0.16418404877185822,-0.1923244595527649
1775719661260516400,11.650516357421875,0.24980428814888,0.10807604342699051,-0.15332859754562378
1775719661270530600,11.660530517578126,0.250277578830719,0.0411529615521431,-0.05544757470488548
1775719661280543500,11.67054345703125,0.2454575151205063,-0.048578254878520966,0.028376219794154167
1775719661290556400,11.680556396484375,0.2110520750284195,-0.08992066234350204,0.059230953454971313
1775719661300569600,11.690569580078124,0.1514052450656891,-0.07316112518310547,0.019634542986750603
1775719661310583600,11.70058349609375,0.09661746770143509,0.0013935938477516174,-0.0812213271856308
1775719661320596500,11.710596435546876,0.07552017271518707,0.09404470026493073,-0.21488884091377258
1775719661330609700,11.720609619140625,0.0950760766863823,0.13907603919506073,-0.34070509672164917
1775719661340623600,11.73062353515625,0.11936197429895401,0.14813637733459473,-0.3748473525047302
1775719661350636500,11.740636474609374,0.13886362314224243,0.1160595715045929,-0.30395904183387756
1775719661360649500,11.7506494140625,0.13581536710262299,0.03718499839305878,-0.16118457913398743
1775719661370663400,11.760663330078126,0.10304886847734451,-0.07635410875082016,0.0019342490704730153
1775719661380676600,11.770676513671875,0.056304533034563065,-0.1526603251695633,0.13791976869106293
1775719661390689500,11.780689453125,-0.00018298462964594364,-0.1815645843744278,0.19661325216293335
1775719661400703500,11.790703369140624,-0.054495226591825485,-0.19291125237941742,0.16734644770622253
1775719661410716400,11.80071630859375,-0.08832761645317078,-0.1990010142326355,0.06497876346111298
1775719661420729600,11.8107294921875,-0.10030438750982285,-0.178510382771492,-0.09426122903823853
1775719661430742500,11.820742431640625,-0.06546498835086823,-0.11848440021276474,-0.25460976362228394
1775719661440756500,11.830756591796876,0.021193740889430046,-0.03996935114264488,-0.3423031270503998
1775719661450769400,11.840769287109374,0.11984163522720337,-0.0217735692858696,-0.31671181321144104
1775719661460782600,11.850782470703125,0.18871258199214935,-0.09786754101514816,-0.19907601177692413
1775719661470796500,11.860796630859374,0.20157717168331146,-0.242879256606102,-0.03940170258283615
1775719661480809500,11.8708095703125,0.16344469785690308,-0.41028982400894165,0.11150898039340973
1775719661490822700,11.88082275390625,0.09784962236881256,-0.5437748432159424,0.20589110255241394
1775719661500836600,11.890836669921875,0.03430979698896408,-0.5852605104446411,0.21482308208942413
1775719661510849500,11.900849609375,-0.019496744498610497,-0.4718536138534546,0.12970945239067078
1775719661520862500,11.910862548828124,-0.06032167002558708,-0.317273885011673,-0.060199230909347534
1775719661530876700,11.920876708984375,-0.05496096611022949,-0.17365320026874542,-0.2859360873699188
1775719661540889600,11.9308896484375,-0.002239431720227003,-0.06101134419441223,-0.48111650347709656
1775719661550902500,11.940902587890625,0.07659474015235901,-0.02351205237209797,-0.6180477738380432
1775719661560916500,11.95091650390625,0.16931003332138062,-0.054716043174266815,-0.64018714427948
1775719661570929400,11.960929443359374,0.24817104637622833,-0.1356603056192398,-0.5222606658935547
1775719661580942600,11.970942626953125,0.28397780656814575,-0.2921660542488098,-0.3305191695690155
1775719661590955500,11.98095556640625,0.2766176164150238,-0.47172409296035767,-0.1447295993566513
1775719661600969500,11.990969482421875,0.2503696382045746,-0.6157621741294861,-0.002142193727195263
1775719661610982400,12.000982421875,0.2302369922399521,-0.6972943544387817,0.05310001224279404
1775719661620995600,12.01099560546875,0.22186774015426636,-0.6854521036148071,0.006468326784670353
1775719661631009500,12.021009521484375,0.22048869729042053,-0.5567446947097778,-0.11952380836009979
1775719661641022500,12.0310224609375,0.2542293667793274,-0.35838747024536133,-0.2543356716632843
1775719661651035600,12.04103564453125,0.3034326434135437,-0.2000170797109604,-0.35605594515800476
1775719661661049600,12.051049560546875,0.3582865595817566,-0.10662853717803955,-0.3795205354690552
1775719661671062500,12.0610625,0.3936525285243988,-0.07572947442531586,-0.3214857280254364
1775719661681075500,12.071075439453125,0.390349417924881,-0.1259646862745285,-0.23553511500358582
1775719661691089700,12.081089599609374,0.33117103576660156,-0.22181273996829987,-0.14143911004066467
1775719661701102600,12.0911025390625,0.24922075867652893,-0.3343656659126282,-0.0496833473443985
1775719661711115500,12.101115478515625,0.14715763926506042,-0.424816370010376,0.03514096140861511
1775719661721129500,12.11112939453125,0.05583439767360687,-0.469530314207077,0.10736136138439178
1775719661731142400,12.121142333984375,-0.005769259296357632,-0.4638054668903351,0.1419176459312439
1775719661741155600,12.131155517578126,-0.029720664024353027,-0.43391069769859314,0.10705235600471497
1775719661751168500,12.14116845703125,-0.028709527105093002,-0.37548547983169556,0.0027250340208411217
1775719661761182500,12.151182373046876,-0.012033077888190746,-0.29690998792648315,-0.1548166424036026
1775719661771195400,12.1611953125,0.018149573355913162,-0.21810804307460785,-0.322938472032547
1775719661781208600,12.17120849609375,0.05898408591747284,-0.15926523506641388,-0.3999786674976349
1775719661791222500,12.181222412109374,0.0713329166173935,-0.1650313138961792,-0.3474700152873993
1775719661801235500,12.1912353515625,0.038789089769124985,-0.25926780700683594,-0.23335300385951996
1775719661811248600,12.20124853515625,-0.02908346988260746,-0.37710872292518616,-0.10163898020982742
1775719661821262600,12.2112626953125,-0.11275066435337067,-0.4755585789680481,0.024454772472381592
1775719661831275500,12.221275634765625,-0.19087877869606018,-0.5327231287956238,0.08570468425750732
1775719661841288400,12.231288330078126,-0.24410924315452576,-0.5247024893760681,0.05062419921159744
1775719661851302700,12.241302734375,-0.2701144814491272,-0.4583244025707245,-0.07004609704017639
1775719661861315600,12.251315673828126,-0.28831347823143005,-0.3349513113498688,-0.2395365983247757
1775719661871328500,12.26132861328125,-0.30785074830055237,-0.21246764063835144,-0.41122013330459595
1775719661881342500,12.271342529296875,-0.30259764194488525,-0.11242707073688507,-0.5111086368560791
1775719661891355400,12.28135546875,-0.2807566225528717,-0.047522757202386856,-0.546238124370575
1775719661901368600,12.29136865234375,-0.2597421705722809,-0.03153100609779358,-0.5427001118659973
1775719661911381500,12.301381591796876,-0.24054960906505585,-0.030782511457800865,-0.501656711101532
1775719661921395500,12.3113955078125,-0.23003491759300232,-0.05738695710897446,-0.43671470880508423
