time,gFx,gFy,gFz,ax,ay,az,wx,wy,wz,yaw,pitch,roll,Weight,Reps,RPE,Set,Lift,Week
2026-04-04T05:17:03.704Z,-0.0082,-0.9844,-0.1957,-0.004,0.0486,0.0056,0.0012,-0.0029,-0.0056,44.37,78.75,-2.54,135,8,6,2,Bench,2
2026-04-04T05:17:03.708Z,-0.0083,-0.985,-0.1964,-0.0029,0.0423,0.0184,0.0017,-0.0002,-0.0062,44.37,78.74,-2.54,135,8,6,2,Bench,2
2026-04-04T05:17:03.716Z,-0.0083,-0.9852,-0.1973,-0.0073,0.0376,0.0305,0.0046,0.0003,-0.0049,44.37,78.74,-2.54,135,8,6,2,Bench,2
2026-04-04T05:17:03.726Z,-0.0079,-0.9846,-0.1979,-0.0086,0.0403,0.0145,0.0041,-0.0005,-0.0031,44.37,78.74,-2.54,135,8,6,2,Bench,2
2026-04-04T05:17:03.737Z,-0.0079,-0.9849,-0.1963,0.0039,0.0369,0.0073,0.0022,-0.0045,-0.0061,44.37,78.74,-2.54,135,8,6,2,Bench,2
2026-04-04T05:17:03.746Z,-0.0091,-0.9843,-0.1955,-0.0034,0.0415,-0.0059,0.0028,-0.0045,-0.0039,44.37,78.74,-2.54,135,8,6,2,Bench,2
2026-04-04T05:17:03.756Z,-0.0082,-0.985,-0.1944,-0.0061,0.0391,0.0099,0.0058,-0.0034,-0.0027,44.37,78.74,-2.54,135,8,6,2,Bench,2
2026-04-04T05:17:03.766Z,-0.0079,-0.9847,-0.1962,-0.0038,0.0341,0.0188,0.0041,0,-0.0033,44.37,78.74,-2.54,135,8,6,2,Bench,2
2026-04-04T05:17:03.776Z,-0.0084,-0.9844,-0.197,-0.0042,0.039,0.0181,0.0057,-0.0022,-0.0018,44.37,78.74,-2.54,135,8,6,2,Bench,2
2026-04-04T05:17:03.787Z,-0.0084,-0.9848,-0.1967,-0.0027,0.0352,0.0105,0.0048,-0.0025,-0.0053,44.37,78.74,-2.54,135,8,6,2,Bench,2
2026-04-04T05:17:03.796Z,-0.0083,-0.9844,-0.196,-0.0027,0.0399,0.0176,0.0055,-0.0035,-0.0028,44.37,78.74,-2.54,135,8,6,2,Bench,2
2026-04-04T05:17:03.806Z,-0.0084,-0.9848,-0.1969,-0.004,0.0364,0.0183,0.0058,-0.0034,-0.0048,44.37,78.74,-2.54,135,8,6,2,Bench,2
2026-04-04T05:17:03.816Z,-0.0083,-0.9846,-0.1965,-0.0022,0.0373,0.008,0.0043,-0.002,-0.0034,44.37,78.74,-2.55,135,8,6,2,Bench,2
2026-04-04T05:17:03.826Z,-0.0086,-0.9845,-0.1956,0.0028,0.0329,0,0.0057,-0.0029,-0.0045,44.37,78.75,-2.55,135,8,6,2,Bench,2
2026-04-04T05:17:03.837Z,-0.0089,-0.9841,-0.1948,-0.0062,0.0418,0.0185,0.0069,-0.0031,-0.0036,44.37,78.75,-2.55,135,8,6,2,Bench,2
2026-04-04T05:17:03.846Z,-0.0081,-0.9851,-0.1969,-0.0117,0.0428,0.0123,0.0051,-0.0043,-0.0061,44.37,78.75,-2.55,135,8,6,2,Bench,2
2026-04-04T05:17:03.856Z,-0.0076,-0.9854,-0.1959,-0.0091,0.051,-0.0009,0.0051,-0.0055,-0.0046,44.38,78.75,-2.55,135,8,6,2,Bench,2
2026-04-04T05:17:03.866Z,-0.008,-0.9861,-0.1945,-0.0045,0.0466,-0.0016,0.0072,-0.0027,-0.0021,44.38,78.75,-2.55,135,8,6,2,Bench,2
2026-04-04T05:17:03.876Z,-0.0084,-0.9855,-0.1947,-0.0037,0.0471,0.0059,0.0064,-0.0007,-0.0045,44.38,78.75,-2.56,135,8,6,2,Bench,2
2026-04-04T05:17:03.888Z,-0.0082,-0.986,-0.1954,-0.0107,0.0439,0.0053,0.0078,-0.0033,-0.0037,44.38,78.75,-2.56,135,8,6,2,Bench,2
2026-04-04T05:17:03.896Z,-0.0075,-0.9852,-0.1949,-0.0033,0.0431,0.0024,0.0054,-0.0038,-0.0042,44.38,78.76,-2.56,135,8,6,2,Bench,2
2026-04-04T05:17:03.907Z,-0.0084,-0.9852,-0.195,0.0014,0.0395,0.0058,0.0061,-0.0062,-0.0027,44.38,78.76,-2.56,135,8,6,2,Bench,2
2026-04-04T05:17:03.916Z,-0.0088,-0.9846,-0.1954,-0.0003,0.0396,0.0207,0.0058,-0.0011,-0.0041,44.38,78.76,-2.56,135,8,6,2,Bench,2
2026-04-04T05:17:03.926Z,-0.0087,-0.9848,-0.1965,0.0042,0.0449,0.0073,0.0042,-0.0014,-0.0031,44.38,78.76,-2.56,135,8,6,2,Bench,2
2026-04-04T05:17:03.938Z,-0.0092,-0.9854,-0.1953,-0.0024,0.0417,0.0074,0.0052,-0.004,-0.0047,44.38,78.76,-2.56,135,8,6,2,Bench,2
2026-04-04T05:17:03.946Z,-0.0084,-0.9851,-0.1953,-0.0026,0.0402,0.0058,0.0032,-0.0042,-0.0035,44.38,78.76,-2.56,135,8,6,2,Bench,2
2026-04-04T05:17:03.956Z,-0.0083,-0.9848,-0.195,-0.006,0.0387,0.0077,0.0037,-0.0018,-0.0055,44.39,78.77,-2.56,135,8,6,2,Bench,2
2026-04-04T05:17:03.966Z,-0.0081,-0.9849,-0.1952,-0.0051,0.043,0.0106,0.0039,-0.0031,-0.0033,44.39,78.77,-2.56,135,8,6,2,Bench,2
2026-04-04T05:17:03.976Z,-0.0082,-0.9852,-0.1956,0.0005,0.0421,0.0078,0.006,-0.0017,-0.005,44.39,78.77,-2.57,135,8,6,2,Bench,2
2026-04-04T05:17:03.990Z,-0.0086,-0.9852,-0.1953,0.0004,0.0428,0.0028,0.0046,0.0015,-0.0044,44.39,78.77,-2.57,135,8,6,2,Bench,2
2026-04-04T05:17:03.996Z,-0.0089,-0.9853,-0.1947,-0.0015,0.0452,0.0081,0.0046,0.0015,-0.0044,44.39,78.77,-2.57,135,8,6,2,Bench,2
2026-04-04T05:17:04.008Z,-0.0085,-0.9855,-0.1951,0,0.0398,0.0025,0.003,-0.0058,-0.0048,44.39,78.77,-2.57,135,8,6,2,Bench,2
2026-04-04T05:17:04.016Z,-0.0086,-0.985,-0.1949,-0.0025,0.0507,-0.0032,0.0045,-0.0022,-0.0033,44.39,78.77,-2.57,135,8,6,2,Bench,2
2026-04-04T05:17:04.026Z,-0.0084,-0.9861,-0.1939,-0.0004,0.0514,0.0029,0.0027,-0.0032,-0.0077,44.39,78.77,-2.57,135,8,6,2,Bench,2
2026-04-04T05:17:04.040Z,-0.0086,-0.9861,-0.1953,-0.0083,0.0432,0.0143,0.0031,-0.0002,-0.0043,44.39,78.77,-2.57,135,8,6,2,Bench,2
2026-04-04T05:17:04.046Z,-0.0079,-0.985,-0.196,-0.0065,0.0387,0.0116,0.0031,-0.0002,-0.0043,44.39,78.77,-2.57,135,8,6,2,Bench,2
2026-04-04T05:17:04.056Z,-0.0082,-0.9847,-0.1955,-0.0067,0.0412,0.0133,0.0003,-0.0015,-0.0046,44.39,78.77,-2.57,135,8,6,2,Bench,2
2026-04-04T05:17:04.066Z,-0.0079,-0.985,-0.1957,-0.0087,0.0358,0.0129,0.0034,-0.0022,-0.0053,44.39,78.77,-2.56,135,8,6,2,Bench,2
2026-04-04T05:17:04.076Z,-0.0079,-0.9844,-0.1956,-0.0135,0.0425,-0.0015,0.0019,-0.0018,-0.0057,44.39,78.77,-2.56,135,8,6,2,Bench,2
2026-04-04T05:17:04.088Z,-0.0071,-0.9855,-0.1944,-0.0091,0.0477,0.0069,0.0009,-0.0047,-0.0049,44.38,78.77,-2.56,135,8,6,2,Bench,2
2026-04-04T05:17:04.096Z,-0.008,-0.9856,-0.1954,-0.0039,0.0457,0.0093,0.0019,0.0003,-0.0065,44.38,78.77,-2.56,135,8,6,2,Bench,2
2026-04-04T05:17:04.106Z,-0.0082,-0.9856,-0.1955,-0.0048,0.0492,0.0116,0.0028,-0.0011,-0.0047,44.38,78.77,-2.56,135,8,6,2,Bench,2
2026-04-04T05:17:04.116Z,-0.0083,-0.9859,-0.1954,-0.0067,0.0453,0.0093,0.0011,-0.0022,-0.0042,44.38,78.77,-2.56,135,8,6,2,Bench,2
2026-04-04T05:17:04.126Z,-0.0081,-0.9855,-0.1957,-0.0021,0.0446,0.0048,-0.0003,0.0001,-0.0041,44.38,78.77,-2.55,135,8,6,2,Bench,2
2026-04-04T05:17:04.138Z,-0.0082,-0.9853,-0.195,-0.0062,0.0388,0.0057,0.0023,-0.0003,-0.0048,44.37,78.77,-2.55,135,8,6,2,Bench,2
2026-04-04T05:17:04.146Z,-0.0081,-0.9847,-0.1953,-0.0047,0.0409,0.0083,0.001,-0.0019,-0.0043,44.37,78.77,-2.55,135,8,6,2,Bench,2
2026-04-04T05:17:04.156Z,-0.0081,-0.9851,-0.1955,-0.005,0.0435,0.0084,-0.0004,0.0004,-0.0024,44.37,78.77,-2.55,135,8,6,2,Bench,2
2026-04-04T05:17:04.166Z,-0.0082,-0.9853,-0.1955,-0.0082,0.0475,0.0055,0.0005,-0.0024,-0.0066,44.37,78.77,-2.54,135,8,6,2,Bench,2
2026-04-04T05:17:04.176Z,-0.0078,-0.9857,-0.1953,-0.0069,0.0501,0.0104,-0.0009,-0.0037,-0.0028,44.36,78.77,-2.54,135,8,6,2,Bench,2
2026-04-04T05:17:04.187Z,-0.0082,-0.9857,-0.196,-0.0044,0.0449,0.0113,0.0016,-0.0026,-0.0023,44.36,78.77,-2.54,135,8,6,2,Bench,2
2026-04-04T05:17:04.196Z,-0.0082,-0.9854,-0.1958,-0.0073,0.0392,-0.0006,0.0008,-0.0015,-0.0045,44.36,78.77,-2.54,135,8,6,2,Bench,2
2026-04-04T05:17:04.207Z,-0.0078,-0.9849,-0.1946,-0.0102,0.0382,0.0012,-0.0007,-0.0046,-0.0048,44.36,78.76,-2.54,135,8,6,2,Bench,2
2026-04-04T05:17:04.216Z,-0.0076,-0.9848,-0.1952,0.0004,0.0387,0.006,0.0007,-0.0021,-0.0069,44.36,78.76,-2.53,135,8,6,2,Bench,2
2026-04-04T05:17:04.226Z,-0.0087,-0.9849,-0.195,0.002,0.0338,0.006,0.0021,-0.0011,-0.0027,44.36,78.76,-2.53,135,8,6,2,Bench,2
2026-04-04T05:17:04.240Z,-0.0087,-0.9844,-0.1956,-0.0064,0.0322,0.0131,-0.0004,0.0003,-0.0053,44.36,78.76,-2.53,135,8,6,2,Bench,2
2026-04-04T05:17:04.246Z,-0.008,-0.9842,-0.1962,-0.0062,0.0335,0.0124,-0.0004,0.0003,-0.0053,44.36,78.76,-2.53,135,8,6,2,Bench,2
2026-04-04T05:17:04.256Z,-0.008,-0.984,-0.1963,-0.0023,0.0469,0.0078,-0.0009,-0.003,-0.0034,44.36,78.76,-2.53,135,8,6,2,Bench,2
2026-04-04T05:17:04.266Z,-0.0085,-0.9859,-0.1956,-0.0012,0.0442,0.0029,-0.0003,-0.0019,-0.0063,44.36,78.76,-2.53,135,8,6,2,Bench,2
2026-04-04T05:17:04.276Z,-0.0082,-0.985,-0.1954,-0.0053,0.0442,0.0154,0.0027,-0.0016,-0.0008,44.36,78.75,-2.53,135,8,6,2,Bench,2
2026-04-04T05:17:04.287Z,-0.008,-0.9854,-0.1966,-0.0051,0.0396,0.019,0.0015,0.0001,-0.0063,44.36,78.75,-2.53,135,8,6,2,Bench,2
2026-04-04T05:17:04.296Z,-0.0083,-0.9848,-0.1968,0.0037,0.0314,0.0071,0.0024,-0.0034,-0.0062,44.35,78.75,-2.53,135,8,6,2,Bench,2
2026-04-04T05:17:04.306Z,-0.009,-0.9841,-0.1958,-0.0036,0.0422,0.018,0.0008,-0.0001,-0.0033,44.35,78.75,-2.53,135,8,6,2,Bench,2
2026-04-04T05:17:04.316Z,-0.0079,-0.9852,-0.1967,-0.0058,0.0418,0.0064,0.0034,-0.0034,-0.0047,44.35,78.75,-2.53,135,8,6,2,Bench,2
2026-04-04T05:17:04.326Z,-0.0081,-0.9852,-0.1954,-0.0043,0.0409,0.005,0.0008,0.0002,-0.002,44.35,78.75,-2.53,135,8,6,2,Bench,2
2026-04-04T05:17:04.341Z,-0.0081,-0.985,-0.1955,0.0056,0.0397,-0.0018,0.0014,-0.003,-0.0018,44.35,78.75,-2.52,135,8,6,2,Bench,2
2026-04-04T05:17:04.346Z,-0.0091,-0.9848,-0.1949,-0.0027,0.0352,0.0059,0.0014,-0.003,-0.0018,44.35,78.75,-2.52,135,8,6,2,Bench,2
2026-04-04T05:17:04.356Z,-0.0082,-0.9842,-0.1956,-0.0059,0.0367,0.007,0.0032,-0.0017,-0.0037,44.35,78.75,-2.52,135,8,6,2,Bench,2
2026-04-04T05:17:04.366Z,-0.0079,-0.9847,-0.1958,-0.0019,0.0427,0.0012,0.0022,-0.004,-0.006,44.35,78.75,-2.52,135,8,6,2,Bench,2
2026-04-04T05:17:04.376Z,-0.0085,-0.9854,-0.1953,-0.0034,0.0486,0.0103,0.0027,-0.0012,-0.0012,44.35,78.75,-2.52,135,8,6,2,Bench,2
2026-04-04T05:17:04.387Z,-0.0082,-0.9856,-0.196,-0.0067,0.0458,0.0123,0.0032,-0.0027,-0.0043,44.36,78.75,-2.52,135,8,6,2,Bench,2
2026-04-04T05:17:04.396Z,-0.0078,-0.9854,-0.1963,-0.0092,0.0407,0.0019,0.0027,-0.0017,-0.0053,44.36,78.74,-2.52,135,8,6,2,Bench,2
2026-04-04T05:17:04.407Z,-0.0077,-0.985,-0.1949,-0.002,0.0453,0.0075,0.005,0.0004,-0.0054,44.36,78.74,-2.52,135,8,6,2,Bench,2
2026-04-04T05:17:04.416Z,-0.0084,-0.9857,-0.1959,-0.0031,0.0528,0.0099,0.0047,-0.0041,-0.0065,44.36,78.74,-2.53,135,8,6,2,Bench,2
2026-04-04T05:17:04.426Z,-0.0083,-0.9858,-0.1959,-0.0013,0.0346,-0.0022,0.0043,-0.0045,-0.0035,44.36,78.74,-2.53,135,8,6,2,Bench,2
2026-04-04T05:17:04.439Z,-0.0086,-0.9841,-0.1948,-0.0039,0.0331,0.0123,0.0047,-0.0033,-0.0069,44.36,78.74,-2.53,135,8,6,2,Bench,2
2026-04-04T05:17:04.446Z,-0.0082,-0.9843,-0.1964,-0.0033,0.036,0.0159,0.0047,-0.0033,-0.0069,44.36,78.74,-2.53,135,8,6,2,Bench,2
2026-04-04T05:17:04.460Z,-0.0084,-0.9846,-0.1966,-0.0008,0.0375,0.005,0.005,-0.0031,-0.0048,44.36,78.75,-2.53,135,8,6,2,Bench,2
2026-04-04T05:17:04.466Z,-0.0083,-0.9847,-0.1953,-0.0071,0.0421,0.0029,0.005,-0.0031,-0.0048,44.36,78.75,-2.53,135,8,6,2,Bench,2
2026-04-04T05:17:04.476Z,-0.0079,-0.9851,-0.1953,-0.0061,0.0468,-0.0002,0.0062,-0.0027,-0.0046,44.36,78.75,-2.53,135,8,6,2,Bench,2
2026-04-04T05:17:04.491Z,-0.008,-0.9854,-0.195,-0.0038,0.0362,0.0051,0.0037,-0.0031,-0.0049,44.36,78.75,-2.52,135,8,6,2,Bench,2
2026-04-04T05:17:04.496Z,-0.0084,-0.9844,-0.1953,0.0034,0.04,0.0107,0.0037,-0.0031,-0.0049,44.36,78.75,-2.52,135,8,6,2,Bench,2
2026-04-04T05:17:04.506Z,-0.0088,-0.9849,-0.196,0.0005,0.0377,0.0038,0.0067,-0.0031,-0.002,44.36,78.75,-2.52,135,8,6,2,Bench,2
2026-04-04T05:17:04.516Z,-0.0089,-0.9849,-0.1951,0.0005,0.0367,0.005,0.0027,-0.001,-0.0064,44.36,78.75,-2.52,135,8,6,2,Bench,2
2026-04-04T05:17:04.527Z,-0.0086,-0.9844,-0.1954,0.0024,0.0371,0.0017,0.0039,-0.0015,-0.0041,44.35,78.75,-2.52,135,8,6,2,Bench,2
2026-04-04T05:17:04.539Z,-0.0087,-0.9849,-0.1948,-0.0038,0.0489,0.0017,0.0069,-0.0047,-0.0028,44.35,78.75,-2.52,135,8,6,2,Bench,2
2026-04-04T05:17:04.546Z,-0.008,-0.9857,-0.1951,-0.0074,0.0436,0.0139,0.0069,-0.0047,-0.0028,44.35,78.75,-2.52,135,8,6,2,Bench,2
2026-04-04T05:17:04.560Z,-0.0078,-0.9852,-0.1961,0.0018,0.0377,0.0062,0.0034,-0.0026,-0.003,44.35,78.76,-2.52,135,8,6,2,Bench,2
2026-04-04T05:17:04.566Z,-0.0089,-0.9848,-0.1953,0.0007,0.0366,0.0103,0.0034,-0.0026,-0.003,44.35,78.76,-2.52,135,8,6,2,Bench,2
2026-04-04T05:17:04.577Z,-0.0086,-0.9846,-0.1962,-0.0024,0.038,0.0161,0.0045,-0.0031,-0.0044,44.35,78.76,-2.52,135,8,6,2,Bench,2
2026-04-04T05:17:04.591Z,-0.0083,-0.9848,-0.1963,0.0005,0.039,0.0038,0.0053,-0.0041,-0.0041,44.35,78.76,-2.52,135,8,6,2,Bench,2
2026-04-04T05:17:04.596Z,-0.0086,-0.9848,-0.1949,-0.0012,0.0344,-0.0065,0.0053,-0.0041,-0.0041,44.36,78.76,-2.52,135,8,6,2,Bench,2
2026-04-04T05:17:04.606Z,-0.0086,-0.9845,-0.1942,0.0002,0.0488,0.0021,0.0039,-0.0022,-0.0055,44.36,78.76,-2.52,135,8,6,2,Bench,2
2026-04-04T05:17:04.617Z,-0.0087,-0.9859,-0.1949,-0.0017,0.0496,0.0087,0.0042,-0.0028,-0.0056,44.36,78.76,-2.52,135,8,6,2,Bench,2
2026-04-04T05:17:04.626Z,-0.0086,-0.9861,-0.1955,-0.0001,0.0496,0.0167,0.0039,-0.0014,-0.0051,44.36,78.76,-2.53,135,8,6,2,Bench,2
2026-04-04T05:17:04.639Z,-0.0087,-0.9857,-0.1964,-0.0006,0.0369,0.009,0.0039,-0.002,-0.0058,44.36,78.76,-2.53,135,8,6,2,Bench,2
2026-04-04T05:17:04.646Z,-0.0085,-0.9844,-0.1954,-0.0037,0.0382,-0.0018,0.0039,-0.002,-0.0058,44.36,78.76,-2.53,135,8,6,2,Bench,2
2026-04-04T05:17:04.660Z,-0.0083,-0.9848,-0.1945,-0.001,0.0406,-0.0005,0.0048,-0.002,-0.0042,44.36,78.77,-2.53,135,8,6,2,Bench,2
2026-04-04T05:17:04.666Z,-0.0084,-0.9849,-0.1945,0.002,0.0392,-0.0041,0.0048,-0.002,-0.0042,44.36,78.77,-2.53,135,8,6,2,Bench,2
2026-04-04T05:17:04.676Z,-0.0089,-0.9848,-0.1943,0.0001,0.0413,0.0069,0.0028,0,-0.0042,44.36,78.77,-2.53,135,8,6,2,Bench,2
2026-04-04T05:17:04.690Z,-0.0086,-0.985,-0.1952,0.0005,0.0398,-0.0015,0.0022,-0.0036,-0.0061,44.36,78.77,-2.53,135,8,6,2,Bench,2
2026-04-04T05:17:04.696Z,-0.0087,-0.985,-0.1944,-0.0077,0.0492,0.0029,0.0022,-0.0036,-0.0061,44.36,78.77,-2.53,135,8,6,2,Bench,2
2026-04-04T05:17:04.706Z,-0.0079,-0.986,-0.1951,-0.0057,0.0518,0.01,0.0031,-0.003,-0.0032,44.36,78.77,-2.53,135,8,6,2,Bench,2
2026-04-04T05:17:04.716Z,-0.0081,-0.9861,-0.1956,-0.0077,0.0467,0.0071,0.0018,-0.0035,-0.0032,44.36,78.77,-2.53,135,8,6,2,Bench,2
2026-04-04T05:17:04.727Z,-0.0077,-0.9856,-0.1952,-0.0114,0.0422,0.003,0.0019,-0.0011,-0.0052,44.36,78.77,-2.53,135,8,6,2,Bench,2
2026-04-04T05:17:04.739Z,-0.0075,-0.9851,-0.1949,0.0073,0.0332,0.003,0.004,-0.0019,-0.005,44.36,78.77,-2.53,135,8,6,2,Bench,2
2026-04-04T05:17:04.746Z,-0.0095,-0.9844,-0.1946,0.0069,0.0346,0.0107,0.004,-0.0019,-0.005,44.36,78.77,-2.53,135,8,6,2,Bench,2
2026-04-04T05:17:04.756Z,-0.0092,-0.9845,-0.1958,-0.0043,0.0424,0.0122,0.0018,-0.0022,-0.0042,44.36,78.77,-2.53,135,8,6,2,Bench,2
2026-04-04T05:17:04.767Z,-0.0082,-0.9851,-0.1958,-0.0031,0.041,0.0091,0.0037,0.0003,-0.005,44.36,78.77,-2.53,135,8,6,2,Bench,2
2026-04-04T05:17:04.776Z,-0.0083,-0.9851,-0.1954,0.0101,0.04,0.002,-0.0006,-0.0014,-0.0037,44.35,78.77,-2.52,135,8,6,2,Bench,2
2026-04-04T05:17:04.789Z,-0.0096,-0.9849,-0.1948,0.0034,0.046,0.0091,0.0004,-0.0008,-0.0039,44.35,78.77,-2.53,135,8,6,2,Bench,2
2026-04-04T05:17:04.796Z,-0.0087,-0.9857,-0.1955,-0.008,0.0389,0.02,0.0004,-0.0008,-0.0039,44.36,78.77,-2.53,135,8,6,2,Bench,2
2026-04-04T05:17:04.810Z,-0.0077,-0.9846,-0.1967,-0.004,0.0346,0.002,-0.0003,-0.0016,-0.0056,44.36,78.77,-2.53,135,8,6,2,Bench,2
2026-04-04T05:17:04.816Z,-0.0083,-0.9842,-0.1949,-0.0011,0.0333,0.0088,-0.0003,-0.0016,-0.0056,44.36,78.77,-2.53,135,8,6,2,Bench,2
2026-04-04T05:17:04.826Z,-0.0084,-0.9844,-0.1957,-0.0119,0.0442,0.009,0.0009,-0.0015,-0.004,44.36,78.77,-2.53,135,8,6,2,Bench,2
2026-04-04T05:17:04.840Z,-0.0074,-0.9855,-0.1956,-0.0076,0.0417,0.0117,-0.0007,-0.0028,-0.0049,44.36,78.77,-2.53,135,8,6,2,Bench,2
2026-04-04T05:17:04.846Z,-0.0079,-0.9851,-0.1959,-0.0005,0.0457,0.0038,-0.0007,-0.0028,-0.0049,44.36,78.77,-2.53,135,8,6,2,Bench,2
2026-04-04T05:17:04.856Z,-0.0087,-0.9856,-0.1949,0.0034,0.0532,0.009,0.0001,-0.0015,-0.0017,44.36,78.76,-2.53,135,8,6,2,Bench,2
2026-04-04T05:17:04.866Z,-0.0089,-0.9861,-0.1959,-0.002,0.0379,0.0072,0.0008,-0.0019,-0.0042,44.36,78.76,-2.53,135,8,6,2,Bench,2
2026-04-04T05:17:04.876Z,-0.0084,-0.9847,-0.1955,-0.008,0.0429,0.0059,0.0032,-0.0026,-0.0049,44.36,78.76,-2.53,135,8,6,2,Bench,2
2026-04-04T05:17:04.889Z,-0.0081,-0.9853,-0.1959,-0.0027,0.0452,0.0099,0.0015,-0.0022,-0.0019,44.37,78.76,-2.53,135,8,6,2,Bench,2
2026-04-04T05:17:04.896Z,-0.0081,-0.9853,-0.1959,-0.0099,0.0343,0.0151,-0.0013,-0.0027,-0.0052,44.37,78.76,-2.53,135,8,6,2,Bench,2
2026-04-04T05:17:04.909Z,-0.0075,-0.9842,-0.1966,-0.004,0.0415,0.0148,0.001,0,-0.0032,44.37,78.76,-2.53,135,8,6,2,Bench,2
2026-04-04T05:17:04.916Z,-0.0083,-0.9852,-0.1961,0,0.0501,0.0085,0.001,0,-0.0032,44.37,78.76,-2.53,135,8,6,2,Bench,2
2026-04-04T05:17:04.926Z,-0.0085,-0.9859,-0.1961,0.005,0.0419,0.0126,0.003,-0.0027,-0.0021,44.37,78.76,-2.53,135,8,6,2,Bench,2
2026-04-04T05:17:04.939Z,-0.0091,-0.9848,-0.1959,-0.005,0.0384,0.0158,0.0015,-0.0026,-0.0014,44.37,78.76,-2.53,135,8,6,2,Bench,2
2026-04-04T05:17:04.946Z,-0.0078,-0.9848,-0.1966,-0.0038,0.0506,0.0093,0.0015,-0.0026,-0.0014,44.37,78.75,-2.53,135,8,6,2,Bench,2
2026-04-04T05:17:04.956Z,-0.0082,-0.9859,-0.1958,-0.0024,0.0424,0.0002,0.002,-0.0036,-0.0044,44.37,78.75,-2.53,135,8,6,2,Bench,2
2026-04-04T05:17:04.966Z,-0.0084,-0.985,-0.1946,-0.0022,0.0388,-0.0002,0.0024,-0.0018,-0.0034,44.37,78.75,-2.53,135,8,6,2,Bench,2
2026-04-04T05:17:04.976Z,-0.0085,-0.9847,-0.1949,-0.0026,0.0404,0.0079,0.0019,-0.0029,-0.0038,44.37,78.75,-2.53,135,8,6,2,Bench,2
2026-04-04T05:17:04.991Z,-0.0082,-0.9849,-0.1957,-0.0036,0.0415,0.0133,-0.0009,-0.001,-0.0044,44.37,78.75,-2.53,135,8,6,2,Bench,2
2026-04-04T05:17:04.996Z,-0.0083,-0.9851,-0.1962,-0.0017,0.0436,0.0069,-0.0009,-0.001,-0.0044,44.37,78.75,-2.53,135,8,6,2,Bench,2
2026-04-04T05:17:05.006Z,-0.0083,-0.9852,-0.1958,-0.0055,0.0452,0.0084,0.0044,-0.0008,-0.0031,44.37,78.75,-2.53,135,8,6,2,Bench,2
2026-04-04T05:17:05.016Z,-0.008,-0.9854,-0.1957,-0.0088,0.0443,0.0049,0.0058,-0.0012,-0.0026,44.37,78.75,-2.53,135,8,6,2,Bench,2
2026-04-04T05:17:05.028Z,-0.0078,-0.9852,-0.1953,-0.0032,0.0431,0.0008,0.0057,-0.0031,-0.0038,44.37,78.75,-2.53,135,8,6,2,Bench,2
2026-04-04T05:17:05.039Z,-0.0082,-0.9852,-0.1951,-0.0058,0.0386,0.0101,0.0009,-0.0032,-0.0031,44.37,78.75,-2.53,135,8,6,2,Bench,2
2026-04-04T05:17:05.046Z,-0.0079,-0.9845,-0.1958,-0.0065,0.0408,0.0059,0.0009,-0.0032,-0.0031,44.37,78.75,-2.53,135,8,6,2,Bench,2
2026-04-04T05:17:05.056Z,-0.0081,-0.9852,-0.1953,-0.0003,0.0386,0.0097,0.0034,-0.0029,-0.0068,44.37,78.75,-2.53,135,8,6,2,Bench,2
2026-04-04T05:17:05.066Z,-0.0085,-0.9848,-0.1961,-0.0057,0.0457,0.0095,0.003,-0.0016,-0.0038,44.37,78.75,-2.53,135,8,6,2,Bench,2
2026-04-04T05:17:05.078Z,-0.008,-0.9853,-0.1958,-0.0102,0.0452,0.0064,0.0025,-0.0009,-0.0066,44.37,78.75,-2.53,135,8,6,2,Bench,2
2026-04-04T05:17:05.089Z,-0.0076,-0.9855,-0.1954,-0.0051,0.0455,0.0016,0.003,-0.002,-0.0034,44.37,78.75,-2.54,135,8,6,2,Bench,2
2026-04-04T05:17:05.096Z,-0.0081,-0.9853,-0.1952,-0.0075,0.0391,0.0018,0.003,-0.002,-0.0034,44.37,78.75,-2.54,135,8,6,2,Bench,2
2026-04-04T05:17:05.109Z,-0.0082,-0.9846,-0.1961,-0.0022,0.0382,0.0137,0.0044,-0.0022,-0.0022,44.37,78.75,-2.54,135,8,6,2,Bench,2
2026-04-04T05:17:05.116Z,-0.0082,-0.9846,-0.1961,-0.0078,0.0383,0.0137,0.0044,-0.0022,-0.0022,44.38,78.75,-2.54,135,8,6,2,Bench,2
2026-04-04T05:17:05.126Z,-0.0078,-0.9849,-0.1964,-0.0071,0.045,0.0118,0.0061,-0.003,-0.004,44.38,78.75,-2.54,135,8,6,2,Bench,2
2026-04-04T05:17:05.139Z,-0.008,-0.9855,-0.1959,-0.0021,0.0391,0.0075,0.0046,-0.002,-0.0063,44.38,78.76,-2.54,135,8,6,2,Bench,2
2026-04-04T05:17:05.146Z,-0.0084,-0.9849,-0.1957,-0.002,0.0443,0.0152,0.004,-0.0004,-0.0028,44.38,78.76,-2.54,135,8,6,2,Bench,2
2026-04-04T05:17:05.159Z,-0.0087,-0.9846,-0.1946,-0.0009,0.039,0.0023,0.0042,-0.0026,-0.0032,44.38,78.76,-2.54,135,8,6,2,Bench,2
2026-04-04T05:17:05.166Z,-0.0087,-0.9846,-0.1946,0.0058,0.0416,0.0038,0.0042,-0.0026,-0.0032,44.38,78.76,-2.54,135,8,6,2,Bench,2
2026-04-04T05:17:05.178Z,-0.0091,-0.9853,-0.195,-0.0031,0.0438,0.0102,0.0049,-0.0027,-0.0023,44.38,78.76,-2.54,135,8,6,2,Bench,2
2026-04-04T05:17:05.189Z,-0.0082,-0.9852,-0.1959,-0.0047,0.0395,0.0186,0.0049,-0.0018,-0.0049,44.38,78.76,-2.54,135,8,6,2,Bench,2
2026-04-04T05:17:05.196Z,-0.0083,-0.9848,-0.1966,-0.0029,0.0457,0.0053,0.0049,-0.0018,-0.0049,44.38,78.76,-2.54,135,8,6,2,Bench,2
2026-04-04T05:17:05.209Z,-0.0079,-0.9851,-0.1955,-0.008,0.041,0.0095,0.0053,-0.0056,-0.0027,44.38,78.76,-2.54,135,8,6,2,Bench,2
2026-04-04T05:17:05.216Z,-0.0079,-0.9851,-0.1955,0,0.0468,0.0041,0.0053,-0.0056,-0.0027,44.38,78.76,-2.54,135,8,6,2,Bench,2
2026-04-04T05:17:05.227Z,-0.0085,-0.9856,-0.1952,-0.0044,0.0507,0.0069,0.0037,-0.0037,-0.0038,44.38,78.76,-2.54,135,8,6,2,Bench,2
2026-04-04T05:17:05.241Z,-0.0081,-0.9857,-0.1952,0,0.0419,-0.002,0.0058,-0.0013,-0.0054,44.38,78.76,-2.54,135,8,6,2,Bench,2
2026-04-04T05:17:05.246Z,-0.0085,-0.9849,-0.1945,0.0005,0.0409,0.0111,0.0058,-0.0013,-0.0054,44.38,78.76,-2.54,135,8,6,2,Bench,2
2026-04-04T05:17:05.259Z,-0.0086,-0.9842,-0.1951,-0.0017,0.0321,0.0069,0.0028,-0.0007,-0.0025,44.38,78.77,-2.54,135,8,6,2,Bench,2
2026-04-04T05:17:05.267Z,-0.0086,-0.9842,-0.1951,-0.0009,0.0382,-0.0096,0.0044,-0.0026,-0.005,44.38,78.77,-2.54,135,8,6,2,Bench,2
2026-04-04T05:17:05.278Z,-0.0087,-0.9848,-0.1939,-0.002,0.0425,0.0117,0.0069,-0.0057,-0.0041,44.38,78.77,-2.54,135,8,6,2,Bench,2
2026-04-04T05:17:05.290Z,-0.0084,-0.9855,-0.1959,-0.0003,0.0571,0.0004,0.0048,-0.003,-0.0062,44.38,78.77,-2.54,135,8,6,2,Bench,2
2026-04-04T05:17:05.298Z,-0.0087,-0.9866,-0.1945,-0.0024,0.0426,0.0155,0.0017,-0.0012,-0.0031,44.38,78.77,-2.54,135,8,6,2,Bench,2
2026-04-04T05:17:05.306Z,-0.0083,-0.985,-0.1963,-0.0027,0.0338,0.0078,0.0017,-0.0012,-0.0031,44.38,78.77,-2.54,135,8,6,2,Bench,2
2026-04-04T05:17:05.318Z,-0.0084,-0.9844,-0.1952,-0.0045,0.0413,0.0068,0.0022,-0.0033,-0.0053,44.38,78.77,-2.54,135,8,6,2,Bench,2
2026-04-04T05:17:05.327Z,-0.0083,-0.9848,-0.1952,-0.0022,0.0386,0.0051,0.0026,0,-0.0025,44.38,78.77,-2.54,135,8,6,2,Bench,2
2026-04-04T05:17:05.339Z,-0.0085,-0.9849,-0.195,0.0016,0.0383,0.0064,0.0022,-0.003,-0.0031,44.38,78.77,-2.54,135,8,6,2,Bench,2
2026-04-04T05:17:05.348Z,-0.0087,-0.9846,-0.1952,-0.0028,0.041,-0.0032,-0.0009,-0.0032,-0.0034,44.38,78.77,-2.54,135,8,6,2,Bench,2
2026-04-04T05:17:05.359Z,-0.0084,-0.9856,-0.1962,-0.0015,0.0507,0.0151,0.0001,-0.0025,-0.0045,44.38,78.77,-2.54,135,8,6,2,Bench,2
2026-04-04T05:17:05.367Z,-0.0084,-0.9856,-0.1962,-0.0062,0.0407,0.0169,0.0029,-0.0034,-0.0022,44.38,78.77,-2.54,135,8,6,2,Bench,2
2026-04-04T05:17:05.377Z,-0.0079,-0.9849,-0.1964,-0.0055,0.0417,0.0108,0.0037,-0.0015,-0.0043,44.38,78.77,-2.54,135,8,6,2,Bench,2
2026-04-04T05:17:05.391Z,-0.0082,-0.9851,-0.1953,0.0016,0.0541,-0.0304,0.0022,-0.0007,-0.0051,44.38,78.77,-2.55,135,8,6,2,Bench,2
2026-04-04T05:17:05.397Z,-0.0087,-0.9861,-0.1912,-0.0014,0.0329,-0.0254,0.0007,-0.0023,-0.0044,44.38,78.77,-2.55,135,8,6,2,Bench,2
2026-04-04T05:17:05.409Z,-0.008,-0.9855,-0.1975,-0.0067,0.0433,0.0254,0.0031,-0.0029,-0.0043,44.39,78.77,-2.55,135,8,6,2,Bench,2
2026-04-04T05:17:05.418Z,-0.008,-0.9855,-0.1975,-0.0066,0.0378,0.0246,0.001,-0.0046,-0.0043,44.39,78.77,-2.55,135,8,6,2,Bench,2
2026-04-04T05:17:05.427Z,-0.0081,-0.9846,-0.197,-0.002,0.0334,-0.0005,0.0001,-0.0044,-0.0036,44.39,78.77,-2.55,135,8,6,2,Bench,2
2026-04-04T05:17:05.440Z,-0.0086,-0.9845,-0.194,0.0001,0.0508,-0.033,-0.0003,-0.0038,-0.0057,44.39,78.77,-2.55,135,8,6,2,Bench,2
2026-04-04T05:17:05.447Z,-0.0087,-0.9859,-0.1915,-0.0074,0.0458,0.003,0.0032,-0.0012,-0.002,44.39,78.76,-2.55,135,8,6,2,Bench,2
2026-04-04T05:17:05.459Z,-0.0065,-0.9834,-0.1986,-0.0227,0.0275,0.039,0.0035,-0.0011,-0.0037,44.39,78.76,-2.55,135,8,6,2,Bench,2
2026-04-04T05:17:05.467Z,-0.0065,-0.9834,-0.1986,-0.0109,0.0397,0.0196,0.0007,-0.0009,-0.0043,44.39,78.76,-2.55,135,8,6,2,Bench,2
2026-04-04T05:17:05.477Z,-0.0079,-0.985,-0.1966,-0.0002,0.0536,-0.0028,-0.0004,-0.0019,-0.0032,44.39,78.76,-2.56,135,8,6,2,Bench,2
2026-04-04T05:17:05.489Z,-0.0086,-0.9865,-0.1941,-0.0079,0.0461,0.0093,0.0022,0.0004,-0.0026,44.39,78.76,-2.56,135,8,6,2,Bench,2
2026-04-04T05:17:05.497Z,-0.0079,-0.9852,-0.1959,-0.0083,0.0326,0.0147,0.0021,-0.0024,-0.0047,44.39,78.76,-2.56,135,8,6,2,Bench,2
2026-04-04T05:17:05.508Z,-0.0075,-0.9843,-0.1972,-0.0113,0.0361,0.0255,0.0036,-0.0044,-0.0035,44.39,78.76,-2.56,135,8,6,2,Bench,2
2026-04-04T05:17:05.517Z,-0.0075,-0.9843,-0.1972,-0.0105,0.0392,-0.0105,0.0003,-0.0025,-0.0034,44.39,78.76,-2.56,135,8,6,2,Bench,2
2026-04-04T05:17:05.527Z,-0.0077,-0.9852,-0.1934,0.0031,0.0584,-0.0107,-0.0004,-0.0027,-0.0075,44.39,78.76,-2.56,135,8,6,2,Bench,2
2026-04-04T05:17:05.544Z,-0.0085,-0.9833,-0.1953,0.0002,0.036,0.02,0.0032,-0.0049,-0.0016,44.39,78.76,-2.55,135,8,6,2,Bench,2
2026-04-04T05:17:05.547Z,-0.0085,-0.9833,-0.1953,0.0002,0.036,0.02,0.0016,-0.004,-0.0035,44.39,78.76,-2.55,135,8,6,2,Bench,2
2026-04-04T05:17:05.558Z,-0.0087,-0.9858,-0.1945,-0.0003,0.0495,-0.0021,0.0021,-0.0008,-0.0039,44.39,78.76,-2.55,135,8,6,2,Bench,2
2026-04-04T05:17:05.568Z,-0.0087,-0.9858,-0.1945,-0.0006,0.0383,0.0065,0.0004,-0.0013,-0.0024,44.39,78.76,-2.55,135,8,6,2,Bench,2
2026-04-04T05:17:05.577Z,-0.0086,-0.9846,-0.1953,-0.0064,0.0356,0.0074,0.0006,-0.0024,-0.0052,44.39,78.75,-2.55,135,8,6,2,Bench,2
2026-04-04T05:17:05.590Z,-0.0082,-0.9855,-0.196,-0.0055,0.0463,0.01,0.0046,-0.0028,-0.0046,44.39,78.75,-2.55,135,8,6,2,Bench,2
2026-04-04T05:17:05.598Z,-0.0082,-0.9855,-0.196,0.0027,0.0463,0.004,0.004,-0.0015,-0.0047,44.39,78.75,-2.55,135,8,6,2,Bench,2
2026-04-04T05:17:05.609Z,-0.0086,-0.9854,-0.1953,0.0001,0.0456,0.001,0.0033,-0.0016,-0.0063,44.4,78.75,-2.56,135,8,6,2,Bench,2
2026-04-04T05:17:05.617Z,-0.0086,-0.9854,-0.1953,0.0003,0.0335,0.0128,0.003,-0.0009,-0.0039,44.4,78.75,-2.56,135,8,6,2,Bench,2
2026-04-04T05:17:05.627Z,-0.0087,-0.9844,-0.1965,-0.0111,0.0359,0.0377,0.0041,-0.0024,-0.0077,44.4,78.75,-2.56,135,8,6,2,Bench,2
2026-04-04T05:17:05.642Z,-0.0083,-0.9846,-0.1957,-0.0042,0.036,0.0106,0.0029,-0.0011,-0.0042,44.4,78.75,-2.56,135,8,6,2,Bench,2
2026-04-04T05:17:05.647Z,-0.0083,-0.9846,-0.1957,0.0067,0.0365,-0.0032,0.0018,-0.0026,-0.0039,44.4,78.75,-2.56,135,8,6,2,Bench,2
2026-04-04T05:17:05.658Z,-0.0092,-0.9845,-0.196,0.0048,0.0367,0.0096,0.0036,0.0001,-0.003,44.4,78.75,-2.56,135,8,6,2,Bench,2
2026-04-04T05:17:05.668Z,-0.0092,-0.9845,-0.196,-0.008,0.0337,0.0182,0.0065,-0.0023,-0.0049,44.4,78.75,-2.55,135,8,6,2,Bench,2
2026-04-04T05:17:05.677Z,-0.0077,-0.984,-0.197,0,0.0368,0.0174,0.0043,-0.0023,-0.0065,44.4,78.75,-2.55,135,8,6,2,Bench,2
2026-04-04T05:17:05.690Z,-0.0078,-0.9844,-0.1956,-0.0088,0.0396,0.0072,0.0007,-0.0022,-0.0044,44.39,78.75,-2.55,135,8,6,2,Bench,2
2026-04-04T05:17:05.697Z,-0.0078,-0.9844,-0.1956,-0.0003,0.0333,-0.0136,0.0026,-0.0027,-0.0068,44.39,78.75,-2.55,135,8,6,2,Bench,2
2026-04-04T05:17:05.708Z,-0.0075,-0.9847,-0.1946,-0.0089,0.0385,-0.0026,0.0019,-0.0032,-0.0033,44.39,78.75,-2.55,135,8,6,2,Bench,2
2026-04-04T05:17:05.717Z,-0.0075,-0.9847,-0.1946,-0.0058,0.0359,0.024,0.0055,-0.0014,-0.0037,44.39,78.75,-2.54,135,8,6,2,Bench,2
2026-04-04T05:17:05.727Z,-0.0081,-0.9845,-0.1974,-0.0016,0.0439,-0.0071,0.005,-0.0026,-0.0026,44.39,78.75,-2.54,135,8,6,2,Bench,2
2026-04-04T05:17:05.742Z,-0.0089,-0.9843,-0.1947,0.0038,0.0346,-0.0002,0.0035,-0.0018,-0.0034,44.39,78.75,-2.54,135,8,6,2,Bench,2
2026-04-04T05:17:05.746Z,-0.0089,-0.9843,-0.1947,0.002,0.0502,-0.004,0.0044,-0.0033,-0.0036,44.39,78.75,-2.54,135,8,6,2,Bench,2
2026-04-04T05:17:05.758Z,-0.0083,-0.9847,-0.1965,-0.0023,0.0412,0.0155,0.0058,-0.0016,-0.0026,44.39,78.75,-2.54,135,8,6,2,Bench,2
2026-04-04T05:17:05.767Z,-0.0083,-0.9847,-0.1965,-0.0016,0.0276,0.0265,0.0049,0.0004,-0.0032,44.39,78.75,-2.54,135,8,6,2,Bench,2
2026-04-04T05:17:05.777Z,-0.0086,-0.984,-0.1971,-0.0012,0.0462,0,0.002,-0.0009,-0.0053,44.39,78.75,-2.54,135,8,6,2,Bench,2
2026-04-04T05:17:05.790Z,-0.0085,-0.9854,-0.1959,0.0003,0.0447,0.0126,0.0047,-0.0051,-0.0047,44.39,78.76,-2.54,135,8,6,2,Bench,2
2026-04-04T05:17:05.797Z,-0.0085,-0.9854,-0.1959,-0.0053,0.0442,0.0124,0.0042,-0.0042,-0.0045,44.39,78.76,-2.54,135,8,6,2,Bench,2
2026-04-04T05:17:05.808Z,-0.008,-0.9845,-0.1964,-0.0071,0.0364,0.0163,0.0044,-0.0049,-0.0047,44.39,78.76,-2.54,135,8,6,2,Bench,2
2026-04-04T05:17:05.817Z,-0.008,-0.9845,-0.1964,0.0014,0.0383,0.0148,0.0037,-0.0031,-0.0053,44.39,78.76,-2.55,135,8,6,2,Bench,2
2026-04-04T05:17:05.827Z,-0.0089,-0.9848,-0.196,-0.0028,0.0362,0.0065,0.0045,-0.0033,-0.0036,44.39,78.76,-2.55,135,8,6,2,Bench,2
2026-04-04T05:17:05.840Z,-0.0084,-0.9848,-0.1948,-0.0004,0.0375,0.0008,0.003,-0.0029,-0.0064,44.39,78.76,-2.55,135,8,6,2,Bench,2
2026-04-04T05:17:05.847Z,-0.0084,-0.9848,-0.1948,-0.0126,0.0502,0.01,0.0038,-0.0022,-0.0028,44.4,78.76,-2.55,135,8,6,2,Bench,2
2026-04-04T05:17:05.859Z,-0.0089,-0.9841,-0.195,0.0012,0.0306,0.0035,0.0034,-0.0039,-0.0047,44.4,78.76,-2.55,135,8,6,2,Bench,2
2026-04-04T05:17:05.867Z,-0.0089,-0.9841,-0.195,0.0017,0.0538,-0.005,0.0019,0.0007,-0.0049,44.4,78.76,-2.55,135,8,6,2,Bench,2
2026-04-04T05:17:05.878Z,-0.0081,-0.9856,-0.1951,-0.0052,0.049,0.0009,0.0029,0.0001,-0.0007,44.39,78.76,-2.55,135,8,6,2,Bench,2
2026-04-04T05:17:05.892Z,-0.0083,-0.9853,-0.1942,-0.0036,0.0446,-0.0033,0.0054,-0.0014,-0.0038,44.39,78.76,-2.55,135,8,6,2,Bench,2
2026-04-04T05:17:05.896Z,-0.0083,-0.9853,-0.1942,0.0054,0.049,0.011,0.0037,-0.0012,-0.0051,44.39,78.76,-2.55,135,8,6,2,Bench,2
2026-04-04T05:17:05.908Z,-0.0091,-0.9852,-0.1958,0.0053,0.0424,0.015,0.0034,-0.0009,-0.0039,44.39,78.76,-2.55,135,8,6,2,Bench,2
2026-04-04T05:17:05.918Z,-0.0082,-0.9852,-0.1942,-0.0038,0.044,-0.0069,0.002,-0.0011,-0.0028,44.39,78.76,-2.55,135,8,6,2,Bench,2
2026-04-04T05:17:05.927Z,-0.0082,-0.9852,-0.1942,-0.0034,0.0386,0.0095,0.0029,-0.0052,-0.0044,44.39,78.76,-2.55,135,8,6,2,Bench,2
2026-04-04T05:17:05.941Z,-0.0082,-0.9856,-0.1955,-0.0053,0.0462,0.0099,0.0014,-0.0012,-0.0056,44.39,78.76,-2.54,135,8,6,2,Bench,2
2026-04-04T05:17:05.947Z,-0.0082,-0.9856,-0.1955,0.0054,0.0379,0.0069,0.0005,-0.0017,-0.0043,44.39,78.76,-2.54,135,8,6,2,Bench,2
2026-04-04T05:17:05.958Z,-0.0084,-0.9851,-0.1954,-0.0036,0.0412,0.0073,0.0026,-0.0007,-0.0029,44.39,78.76,-2.54,135,8,6,2,Bench,2
2026-04-04T05:17:05.968Z,-0.0084,-0.9843,-0.1958,-0.0035,0.0351,0.0133,0.0025,-0.0029,-0.0033,44.39,78.76,-2.54,135,8,6,2,Bench,2
2026-04-04T05:17:05.977Z,-0.0084,-0.9843,-0.1958,-0.0004,0.0361,0.0117,0.0026,-0.0052,-0.0037,44.39,78.76,-2.54,135,8,6,2,Bench,2
2026-04-04T05:17:05.989Z,-0.0083,-0.9856,-0.1951,-0.0028,0.046,0.0079,0.0018,-0.0011,-0.0038,44.39,78.76,-2.54,135,8,6,2,Bench,2
2026-04-04T05:17:05.998Z,-0.0084,-0.9846,-0.1952,-0.004,0.0375,0.0024,0.0025,-0.0029,-0.0031,44.39,78.76,-2.54,135,8,6,2,Bench,2
2026-04-04T05:17:06.010Z,-0.0087,-0.9856,-0.195,-0.0007,0.0471,0.0075,0.0034,-0.0015,-0.0055,44.39,78.76,-2.54,135,8,6,2,Bench,2
2026-04-04T05:17:06.016Z,-0.0087,-0.9856,-0.195,-0.0038,0.0465,-0.0042,0.0019,-0.0031,-0.0038,44.39,78.76,-2.54,135,8,6,2,Bench,2
2026-04-04T05:17:06.028Z,-0.0088,-0.9852,-0.1951,0.0026,0.0436,0.0026,0.0034,-0.0055,-0.0047,44.39,78.76,-2.54,135,8,6,2,Bench,2
2026-04-04T05:17:06.041Z,-0.0084,-0.9851,-0.1951,-0.0013,0.0415,0.0061,0.0009,-0.0032,-0.0054,44.39,78.76,-2.54,135,8,6,2,Bench,2
2026-04-04T05:17:06.046Z,-0.0084,-0.9851,-0.1951,-0.0047,0.0487,-0.0004,0.0011,-0.0033,-0.0041,44.39,78.76,-2.54,135,8,6,2,Bench,2
2026-04-04T05:17:06.058Z,-0.0085,-0.9851,-0.1943,-0.0003,0.0438,-0.0055,0.0019,-0.002,-0.006,44.39,78.76,-2.54,135,8,6,2,Bench,2
2026-04-04T05:17:06.068Z,-0.0082,-0.985,-0.1962,-0.0052,0.0389,0.015,0.0028,-0.0027,-0.0025,44.39,78.76,-2.54,135,8,6,2,Bench,2
2026-04-04T05:17:06.077Z,-0.0082,-0.985,-0.1962,-0.0027,0.0418,0.0034,0.0034,-0.0027,-0.005,44.39,78.76,-2.54,135,8,6,2,Bench,2
2026-04-04T05:17:06.090Z,-0.0082,-0.9855,-0.1951,-0.0034,0.0458,0.002,0.0022,-0.0025,-0.0035,44.38,78.76,-2.54,135,8,6,2,Bench,2
2026-04-04T05:17:06.096Z,-0.0086,-0.9852,-0.1943,0.0001,0.0448,-0.002,0.0022,-0.0025,-0.0035,44.38,78.76,-2.54,135,8,6,2,Bench,2
2026-04-04T05:17:06.107Z,-0.0085,-0.9847,-0.1947,-0.0018,0.037,-0.0002,0.0012,-0.0019,-0.0065,44.38,78.76,-2.54,135,8,6,2,Bench,2
2026-04-04T05:17:06.118Z,-0.0091,-0.9859,-0.1948,0.0046,0.0496,-0.0006,0.0002,-0.005,-0.0038,44.38,78.76,-2.53,135,8,6,2,Bench,2
2026-04-04T05:17:06.128Z,-0.008,-0.9849,-0.1962,-0.0047,0.0426,0.0136,0.0016,-0.0043,-0.005,44.38,78.76,-2.53,135,8,6,2,Bench,2
2026-04-04T05:17:06.140Z,-0.0083,-0.9848,-0.1967,-0.0036,0.0381,0.0186,0.0012,-0.0023,-0.0036,44.38,78.76,-2.53,135,8,6,2,Bench,2
2026-04-04T05:17:06.146Z,-0.0091,-0.9859,-0.1964,0.0042,0.0489,0.0153,0.0012,-0.0023,-0.0036,44.38,78.76,-2.53,135,8,6,2,Bench,2
2026-04-04T05:17:06.157Z,-0.0079,-0.985,-0.1957,-0.0059,0.0413,0.0104,0.0026,-0.0034,-0.0039,44.38,78.76,-2.53,135,8,6,2,Bench,2
2026-04-04T05:17:06.167Z,-0.0085,-0.9857,-0.1955,-0.0004,0.0473,0.0048,0.0014,-0.0044,-0.003,44.38,78.76,-2.53,135,8,6,2,Bench,2
2026-04-04T05:17:06.177Z,-0.0081,-0.9852,-0.1959,-0.0058,0.0438,0.0087,0.0026,-0.0023,-0.0039,44.38,78.76,-2.53,135,8,6,2,Bench,2
2026-04-04T05:17:06.189Z,-0.0082,-0.9856,-0.195,-0.0052,0.0465,0.0033,0.0007,-0.0021,-0.0044,44.38,78.76,-2.53,135,8,6,2,Bench,2
2026-04-04T05:17:06.198Z,-0.0085,-0.9846,-0.1955,-0.0019,0.0391,0.0065,0.0012,-0.0018,-0.0062,44.38,78.76,-2.53,135,8,6,2,Bench,2
2026-04-04T05:17:06.207Z,-0.0085,-0.9846,-0.1955,-0.0021,0.041,0.0114,0.0036,-0.0044,-0.0047,44.38,78.76,-2.53,135,8,6,2,Bench,2
2026-04-04T05:17:06.217Z,-0.0079,-0.9868,-0.1941,-0.0072,0.0554,-0.0035,0.0018,-0.0005,-0.0043,44.38,78.76,-2.54,135,8,6,2,Bench,2
2026-04-04T05:17:06.227Z,-0.0081,-0.9836,-0.1981,-0.0072,0.0313,0.0311,0.0022,-0.0047,-0.0053,44.38,78.76,-2.54,135,8,6,2,Bench,2
2026-04-04T05:17:06.242Z,-0.0088,-0.9843,-0.193,0.0006,0.0335,-0.016,0.0037,-0.0024,-0.0033,44.38,78.76,-2.54,135,8,6,2,Bench,2
2026-04-04T05:17:06.246Z,-0.0088,-0.9843,-0.193,-0.0103,0.05,0.0074,0.0063,-0.0037,-0.0019,44.38,78.76,-2.54,135,8,6,2,Bench,2
2026-04-04T05:17:06.258Z,-0.0074,-0.9838,-0.1951,-0.0151,0.0293,0.0107,0.0009,-0.001,-0.0043,44.38,78.76,-2.54,135,8,6,2,Bench,2
2026-04-04T05:17:06.267Z,-0.0088,-0.9857,-0.1958,0.0004,0.0469,-0.0011,0.0045,-0.0007,-0.0044,44.38,78.76,-2.54,135,8,6,2,Bench,2
2026-04-04T05:17:06.277Z,-0.0086,-0.9848,-0.197,0.0008,0.0399,0.0306,0.0038,-0.002,-0.0052,44.38,78.76,-2.54,135,8,6,2,Bench,2
2026-04-04T05:17:06.289Z,-0.0078,-0.9848,-0.1952,-0.0073,0.0345,0.0014,0.004,-0.0023,-0.0045,44.38,78.76,-2.54,135,8,6,2,Bench,2
2026-04-04T05:17:06.297Z,-0.0083,-0.9853,-0.1959,-0.0041,0.0464,0.0138,0.0049,-0.0006,-0.0059,44.38,78.76,-2.54,135,8,6,2,Bench,2
2026-04-04T05:17:06.307Z,-0.008,-0.983,-0.1956,-0.0054,0.0228,0.0057,0.0028,-0.0035,-0.0039,44.38,78.76,-2.54,135,8,6,2,Bench,2
2026-04-04T05:17:06.317Z,-0.0086,-0.9849,-0.195,-0.0034,0.0397,0.0041,0.0023,-0.0018,-0.0034,44.38,78.76,-2.54,135,8,6,2,Bench,2
2026-04-04T05:17:06.327Z,-0.0086,-0.9849,-0.195,-0.0111,0.0349,0.0155,0.0067,-0.0026,-0.0045,44.38,78.76,-2.54,135,8,6,2,Bench,2
2026-04-04T05:17:06.339Z,-0.0086,-0.9848,-0.1962,-0.0037,0.0361,0.021,0.0019,-0.0034,-0.0036,44.38,78.76,-2.54,135,8,6,2,Bench,2
2026-04-04T05:17:06.347Z,-0.0082,-0.9846,-0.1954,-0.0021,0.039,0.003,0.0043,-0.0036,-0.0029,44.38,78.76,-2.54,135,8,6,2,Bench,2
2026-04-04T05:17:06.357Z,-0.0083,-0.985,-0.1968,-0.0068,0.0399,0.018,0.0038,-0.0044,-0.0027,44.38,78.76,-2.54,135,8,6,2,Bench,2
2026-04-04T05:17:06.367Z,-0.0084,-0.985,-0.1934,-0.0025,0.0408,-0.0096,0.0025,-0.0019,-0.0051,44.38,78.76,-2.54,135,8,6,2,Bench,2
2026-04-04T05:17:06.377Z,-0.0091,-0.9837,-0.1974,0.0046,0.0264,0.023,0.0055,-0.0025,-0.0037,44.38,78.76,-2.54,135,8,6,2,Bench,2
2026-04-04T05:17:06.391Z,-0.0081,-0.9851,-0.1953,-0.0053,0.0427,0.0081,0.003,-0.0038,-0.0049,44.38,78.76,-2.54,135,8,6,2,Bench,2
2026-04-04T05:17:06.397Z,-0.0078,-0.9858,-0.1948,-0.0075,0.045,-0.001,0.003,-0.003,-0.0054,44.38,78.76,-2.54,135,8,6,2,Bench,2
2026-04-04T05:17:06.407Z,-0.0076,-0.9852,-0.196,-0.013,0.046,0.0159,0.0078,-0.0024,-0.0023,44.38,78.76,-2.54,135,8,6,2,Bench,2
2026-04-04T05:17:06.419Z,-0.0083,-0.9836,-0.195,-0.0026,0.0251,0.0035,0.0027,-0.0024,-0.0031,44.38,78.76,-2.54,135,8,6,2,Bench,2
2026-04-04T05:17:06.427Z,-0.0076,-0.9853,-0.1957,-0.0111,0.0462,0.0064,0.0031,-0.0022,-0.0017,44.38,78.76,-2.54,135,8,6,2,Bench,2
2026-04-04T05:17:06.438Z,-0.0082,-0.9853,-0.1965,-0.0042,0.0411,0.023,0.0053,-0.005,-0.0017,44.38,78.76,-2.54,135,8,6,2,Bench,2
2026-04-04T05:17:06.447Z,-0.0085,-0.9844,-0.1949,0.0004,0.0378,0.0044,0.0001,-0.0016,-0.0037,44.38,78.76,-2.54,135,8,6,2,Bench,2
2026-04-04T05:17:06.458Z,-0.0085,-0.9848,-0.1952,-0.0005,0.0378,0,0.0051,-0.0017,-0.0031,44.38,78.76,-2.54,135,8,6,2,Bench,2
2026-04-04T05:17:06.467Z,-0.0072,-0.9851,-0.1957,-0.0153,0.042,0.0124,0.0041,-0.0047,-0.005,44.38,78.76,-2.54,135,8,6,2,Bench,2
2026-04-04T05:17:06.477Z,-0.0094,-0.9855,-0.196,0.0054,0.0461,0.0142,0.0029,-0.0018,-0.004,44.38,78.77,-2.54,135,8,6,2,Bench,2
2026-04-04T05:17:06.489Z,-0.0085,-0.9847,-0.1968,-0.0001,0.0392,0.0204,0.0037,-0.0038,-0.0052,44.38,78.77,-2.54,135,8,6,2,Bench,2
2026-04-04T05:17:06.497Z,-0.0086,-0.9854,-0.1956,-0.002,0.0437,0.0107,0.0029,-0.0029,-0.0009,44.38,78.77,-2.54,135,8,6,2,Bench,2
2026-04-04T05:17:06.508Z,-0.0084,-0.9857,-0.1946,-0.0004,0.0473,-0.0001,0.0035,-0.0047,-0.0038,44.39,78.77,-2.55,135,8,6,2,Bench,2
2026-04-04T05:17:06.517Z,-0.0086,-0.9853,-0.1957,-0.0005,0.0426,0.0126,0.0041,-0.0016,-0.0054,44.39,78.77,-2.55,135,8,6,2,Bench,2
2026-04-04T05:17:06.527Z,-0.0088,-0.9841,-0.1947,-0.0006,0.0336,0.0008,0.0034,-0.0046,-0.0044,44.39,78.77,-2.55,135,8,6,2,Bench,2
2026-04-04T05:17:06.538Z,-0.0087,-0.9849,-0.1957,-0.0008,0.0357,0.0074,0.0036,-0.0035,-0.0038,44.39,78.77,-2.55,135,8,6,2,Bench,2
2026-04-04T05:17:06.546Z,-0.0094,-0.9844,-0.1963,0.0042,0.0372,0.0222,0.0021,-0.0027,-0.0053,44.39,78.77,-2.56,135,8,6,2,Bench,2
2026-04-04T05:17:06.558Z,-0.0097,-0.9851,-0.1955,0.01,0.0396,0.0067,0.0044,-0.0033,-0.0038,44.39,78.77,-2.56,135,8,6,2,Bench,2
2026-04-04T05:17:06.567Z,-0.0084,-0.9846,-0.1962,-0.0002,0.0367,0.0163,0.0018,-0.0032,-0.0039,44.39,78.77,-2.56,135,8,6,2,Bench,2
2026-04-04T05:17:06.577Z,-0.008,-0.9846,-0.1956,-0.0071,0.0385,0.0137,0.0024,-0.0009,-0.0054,44.39,78.77,-2.56,135,8,6,2,Bench,2
2026-04-04T05:17:06.590Z,-0.0085,-0.9851,-0.1953,-0.0037,0.0397,0.008,0.0035,-0.0039,-0.0064,44.39,78.77,-2.56,135,8,6,2,Bench,2
2026-04-04T05:17:06.597Z,-0.0084,-0.9848,-0.1951,-0.0025,0.04,0.005,0.0043,-0.0025,-0.0027,44.39,78.77,-2.56,135,8,6,2,Bench,2
2026-04-04T05:17:06.607Z,-0.0084,-0.985,-0.1961,-0.0035,0.0424,0.0162,0.0003,-0.0034,-0.0029,44.39,78.77,-2.56,135,8,6,2,Bench,2
2026-04-04T05:17:06.618Z,-0.0085,-0.9853,-0.195,0.0007,0.0435,0.0042,0.0025,-0.0016,-0.0036,44.39,78.77,-2.56,135,8,6,2,Bench,2
2026-04-04T05:17:06.627Z,-0.0085,-0.9853,-0.195,-0.0081,0.0417,0.016,0.0025,-0.0057,-0.0047,44.39,78.77,-2.56,135,8,6,2,Bench,2
2026-04-04T05:17:06.638Z,-0.0084,-0.9839,-0.1941,-0.0039,0.0304,-0.0012,0.0024,-0.0013,-0.0041,44.39,78.77,-2.56,135,8,6,2,Bench,2
2026-04-04T05:17:06.646Z,-0.0086,-0.9852,-0.1957,-0.0012,0.0423,0.0097,0.001,-0.0036,-0.0022,44.39,78.77,-2.56,135,8,6,2,Bench,2
2026-04-04T05:17:06.658Z,-0.0082,-0.985,-0.1949,-0.0028,0.041,0.004,0.002,-0.0016,-0.0052,44.39,78.77,-2.56,135,8,6,2,Bench,2
2026-04-04T05:17:06.666Z,-0.0081,-0.986,-0.1948,-0.0046,0.0495,0.0007,0.0006,-0.0012,-0.0035,44.39,78.77,-2.56,135,8,6,2,Bench,2
2026-04-04T05:17:06.676Z,-0.0083,-0.9854,-0.1955,-0.0044,0.0471,0.011,0.0033,-0.0019,-0.0042,44.39,78.77,-2.56,135,8,6,2,Bench,2
2026-04-04T05:17:06.688Z,-0.0078,-0.9856,-0.1946,-0.0101,0.0467,0.0007,0.0035,-0.0038,-0.0059,44.39,78.77,-2.56,135,8,6,2,Bench,2
2026-04-04T05:17:06.697Z,-0.0085,-0.985,-0.1953,0.0009,0.0403,0.0059,0.0009,-0.0033,-0.005,44.39,78.77,-2.56,135,8,6,2,Bench,2
2026-04-04T05:17:06.707Z,-0.0076,-0.9845,-0.1962,-0.0117,0.0353,0.0156,0.0011,-0.0015,-0.0051,44.39,78.77,-2.55,135,8,6,2,Bench,2
2026-04-04T05:17:06.717Z,-0.0078,-0.9852,-0.1953,-0.0086,0.0427,0.0087,-0.0005,0.0012,-0.0032,44.39,78.77,-2.55,135,8,6,2,Bench,2
2026-04-04T05:17:06.726Z,-0.0087,-0.9851,-0.1954,0.0009,0.0427,0.0077,0.0036,-0.0019,-0.0052,44.39,78.77,-2.55,135,8,6,2,Bench,2
2026-04-04T05:17:06.738Z,-0.0087,-0.9849,-0.1957,0.0009,0.0378,0.0101,0.0017,-0.004,-0.0056,44.38,78.77,-2.55,135,8,6,2,Bench,2
2026-04-04T05:17:06.746Z,-0.0086,-0.9843,-0.1963,-0.0016,0.0337,0.0155,0.0024,-0.0009,-0.0046,44.38,78.77,-2.55,135,8,6,2,Bench,2
2026-04-04T05:17:06.757Z,-0.009,-0.985,-0.1959,0.0067,0.0424,0.0121,0.003,-0.0018,-0.0029,44.38,78.77,-2.55,135,8,6,2,Bench,2
2026-04-04T05:17:06.766Z,-0.0075,-0.9852,-0.1955,-0.0094,0.0414,0.0075,0.0038,-0.0018,-0.0034,44.38,78.77,-2.55,135,8,6,2,Bench,2
2026-04-04T05:17:06.776Z,-0.0087,-0.9856,-0.1959,-0.0003,0.0463,0.0146,0.0025,-0.0029,-0.0057,44.38,78.77,-2.54,135,8,6,2,Bench,2
2026-04-04T05:17:06.788Z,-0.0082,-0.9853,-0.1956,-0.0014,0.0448,0.0092,-0.0004,-0.002,-0.0047,44.38,78.77,-2.54,135,8,6,2,Bench,2
2026-04-04T05:17:06.797Z,-0.0077,-0.9841,-0.1953,-0.0076,0.0329,0.0046,0.0044,-0.0046,-0.0076,44.37,78.77,-2.54,135,8,6,2,Bench,2
2026-04-04T05:17:06.808Z,-0.0084,-0.9847,-0.1956,-0.0047,0.0357,0.0108,0.0025,-0.0011,-0.0056,44.37,78.77,-2.54,135,8,6,2,Bench,2
2026-04-04T05:17:06.816Z,-0.0089,-0.9852,-0.195,0.0031,0.0427,0.0066,0.0019,-0.0026,-0.004,44.37,78.77,-2.53,135,8,6,2,Bench,2
2026-04-04T05:17:06.826Z,-0.0081,-0.9851,-0.1947,-0.0019,0.0421,-0.0002,0.0014,-0.0016,-0.0031,44.37,78.77,-2.53,135,8,6,2,Bench,2
2026-04-04T05:17:06.841Z,-0.0077,-0.9852,-0.1949,-0.0048,0.0436,0.0094,0.0022,-0.003,-0.0038,44.36,78.77,-2.53,135,8,6,2,Bench,2
2026-04-04T05:17:06.846Z,-0.0079,-0.9854,-0.1958,-0.0048,0.0436,0.0094,0.0005,-0.0003,-0.0076,44.36,78.77,-2.53,135,8,6,2,Bench,2
2026-04-04T05:17:06.857Z,-0.0079,-0.9853,-0.1961,-0.0065,0.0434,0.0152,0.003,-0.0028,-0.0032,44.36,78.77,-2.53,135,8,6,2,Bench,2
2026-04-04T05:17:06.866Z,-0.0081,-0.9854,-0.1953,-0.0047,0.0454,0.0058,0.0027,-0.0036,-0.0054,44.36,78.77,-2.52,135,8,6,2,Bench,2
2026-04-04T05:17:06.876Z,-0.008,-0.9849,-0.1961,-0.0066,0.04,0.0133,0.0038,-0.0026,-0.0052,44.36,78.77,-2.52,135,8,6,2,Bench,2
2026-04-04T05:17:06.892Z,-0.0086,-0.9852,-0.196,-0.002,0.0512,0.0087,0.0028,-0.0021,-0.0036,44.35,78.77,-2.52,135,8,6,2,Bench,2
2026-04-04T05:17:06.896Z,-0.0081,-0.9856,-0.1958,-0.002,0.0512,0.0087,0.0017,-0.0035,-0.0034,44.35,78.77,-2.52,135,8,6,2,Bench,2
2026-04-04T05:17:06.907Z,-0.0076,-0.9843,-0.1952,-0.0101,0.0335,0.0088,0.0013,-0.0022,-0.0035,44.35,78.77,-2.52,135,8,6,2,Bench,2
2026-04-04T05:17:06.918Z,-0.0085,-0.9858,-0.1946,-0.0002,0.0488,-0.0018,0.004,-0.0056,-0.0057,44.35,78.77,-2.52,135,8,6,2,Bench,2
2026-04-04T05:17:06.926Z,-0.0081,-0.9851,-0.1957,-0.0036,0.0455,0.0098,0.0037,-0.0029,-0.0048,44.35,78.77,-2.51,135,8,6,2,Bench,2
2026-04-04T05:17:06.938Z,-0.0079,-0.9848,-0.1948,-0.0047,0.0386,0.0045,0.0035,-0.0017,-0.0037,44.35,78.77,-2.51,135,8,6,2,Bench,2
2026-04-04T05:17:06.946Z,-0.008,-0.9854,-0.1958,-0.0058,0.0445,0.0101,0.002,-0.0025,-0.0036,44.35,78.77,-2.51,135,8,6,2,Bench,2
2026-04-04T05:17:06.959Z,-0.0079,-0.9855,-0.1956,-0.0075,0.0478,0.0126,0.0025,-0.0039,-0.0039,44.35,78.77,-2.51,135,8,6,2,Bench,2
2026-04-04T05:17:06.966Z,-0.0084,-0.9838,-0.1958,-0.001,0.0338,0.009,0.0031,-0.0037,-0.0058,44.35,78.77,-2.51,135,8,6,2,Bench,2
2026-04-04T05:17:06.976Z,-0.0085,-0.9843,-0.1958,-0.0014,0.0305,0.0123,0.0027,-0.0037,-0.0051,44.35,78.77,-2.51,135,8,6,2,Bench,2
2026-04-04T05:17:06.992Z,-0.0085,-0.9855,-0.1954,0.001,0.0388,0.0158,0.0048,-0.0008,-0.004,44.35,78.77,-2.51,135,8,6,2,Bench,2
2026-04-04T05:17:06.996Z,-0.0087,-0.9848,-0.1963,0.001,0.0388,0.0158,0.0048,-0.0019,-0.0028,44.35,78.77,-2.51,135,8,6,2,Bench,2
2026-04-04T05:17:07.007Z,-0.0083,-0.9852,-0.1959,-0.0006,0.0428,0.0126,0.0013,-0.0036,-0.0053,44.35,78.77,-2.51,135,8,6,2,Bench,2
2026-04-04T05:17:07.016Z,-0.0083,-0.9854,-0.1959,-0.0035,0.0454,0.0133,0.0012,-0.0023,-0.0051,44.35,78.77,-2.51,135,8,6,2,Bench,2
2026-04-04T05:17:07.026Z,-0.0081,-0.9852,-0.1955,-0.0053,0.0406,0.0104,0.0032,-0.0034,-0.0019,44.35,78.77,-2.51,135,8,6,2,Bench,2
2026-04-04T05:17:07.038Z,-0.0093,-0.9848,-0.1957,0.0064,0.042,0.01,0.0033,-0.0032,-0.0034,44.35,78.77,-2.51,135,8,6,2,Bench,2
2026-04-04T05:17:07.046Z,-0.0085,-0.9839,-0.1956,0.0011,0.0265,0.0098,0.0027,-0.0054,-0.0043,44.35,78.77,-2.51,135,8,6,2,Bench,2
2026-04-04T05:17:07.059Z,-0.0084,-0.9855,-0.196,-0.0014,0.0445,0.0149,0.003,0.0001,-0.0031,44.35,78.77,-2.52,135,8,6,2,Bench,2
2026-04-04T05:17:07.066Z,-0.0087,-0.9848,-0.1951,0.0017,0.04,0.0067,0.005,-0.0048,-0.0048,44.35,78.77,-2.52,135,8,6,2,Bench,2
2026-04-04T05:17:07.076Z,-0.0085,-0.9862,-0.1941,-0.001,0.0512,-0.0017,0.0008,-0.002,-0.0044,44.35,78.77,-2.52,135,8,6,2,Bench,2
2026-04-04T05:17:07.090Z,-0.0085,-0.9849,-0.1956,-0.0056,0.0515,0.004,0.0018,-0.0018,-0.0042,44.35,78.77,-2.52,135,8,6,2,Bench,2
2026-04-04T05:17:07.096Z,-0.0078,-0.9861,-0.195,-0.0056,0.0515,0.004,0.001,-0.0006,-0.0021,44.35,78.77,-2.52,135,8,6,2,Bench,2
2026-04-04T05:17:07.107Z,-0.0078,-0.9848,-0.1958,-0.0069,0.0383,0.0123,0.0028,-0.0001,-0.0058,44.36,78.77,-2.52,135,8,6,2,Bench,2
2026-04-04T05:17:07.116Z,-0.0077,-0.9854,-0.1954,-0.0095,0.0445,0.0094,0.0062,0.0019,-0.0055,44.36,78.77,-2.52,135,8,6,2,Bench,2
2026-04-04T05:17:07.126Z,-0.009,-0.9856,-0.1951,0.0068,0.0441,0.0061,0.0039,-0.0016,-0.0045,44.36,78.77,-2.52,135,8,6,2,Bench,2
2026-04-04T05:17:07.141Z,-0.0082,-0.9851,-0.1951,-0.0003,0.036,0.0077,0.0033,-0.0008,-0.0043,44.36,78.77,-2.52,135,8,6,2,Bench,2
2026-04-04T05:17:07.147Z,-0.0083,-0.9848,-0.1954,-0.0003,0.036,0.0077,0.0036,-0.0019,-0.0032,44.36,78.77,-2.52,135,8,6,2,Bench,2
2026-04-04T05:17:07.156Z,-0.008,-0.9843,-0.1957,-0.0072,0.0347,0.0097,0.004,-0.0014,-0.0044,44.36,78.77,-2.52,135,8,6,2,Bench,2
2026-04-04T05:17:07.166Z,-0.0082,-0.9857,-0.1952,-0.004,0.0447,0.0094,0.0036,-0.0019,-0.0029,44.36,78.77,-2.52,135,8,6,2,Bench,2
2026-04-04T05:17:07.176Z,-0.0077,-0.985,-0.1953,-0.0078,0.0418,0.0059,0.0028,-0.0037,-0.0057,44.36,78.77,-2.52,135,8,6,2,Bench,2
2026-04-04T05:17:07.187Z,-0.0078,-0.9854,-0.1953,-0.0072,0.0427,0.006,0.0034,-0.0032,-0.0031,44.36,78.77,-2.52,135,8,6,2,Bench,2
2026-04-04T05:17:07.196Z,-0.0081,-0.9844,-0.197,-0.0027,0.0381,0.0228,0.0045,-0.0041,-0.004,44.36,78.77,-2.52,135,8,6,2,Bench,2
2026-04-04T05:17:07.207Z,-0.008,-0.9842,-0.196,-0.0047,0.034,0.0162,0.0022,-0.0017,-0.0075,44.36,78.77,-2.52,135,8,6,2,Bench,2
2026-04-04T05:17:07.216Z,-0.0076,-0.9848,-0.1954,-0.0097,0.038,0.0066,0.0017,-0.002,-0.0022,44.36,78.77,-2.52,135,8,6,2,Bench,2
2026-04-04T05:17:07.226Z,-0.0079,-0.9848,-0.1966,-0.0064,0.0415,0.0194,0.0032,-0.0028,-0.0074,44.36,78.77,-2.52,135,8,6,2,Bench,2
2026-04-04T05:17:07.237Z,-0.0078,-0.9842,-0.1957,-0.0078,0.0313,0.0126,0.0047,-0.0058,-0.0015,44.36,78.77,-2.52,135,8,6,2,Bench,2
2026-04-04T05:17:07.246Z,-0.0085,-0.9857,-0.1946,-0.0028,0.0448,0.0014,0.0012,-0.0031,-0.004,44.36,78.77,-2.52,135,8,6,2,Bench,2
2026-04-04T05:17:07.259Z,-0.0087,-0.9851,-0.1951,0.0017,0.043,0.004,0.0047,-0.0022,-0.0044,44.36,78.77,-2.52,135,8,6,2,Bench,2
2026-04-04T05:17:07.266Z,-0.008,-0.9839,-0.197,-0.0051,0.0309,0.023,0.0032,-0.003,-0.0057,44.36,78.77,-2.52,135,8,6,2,Bench,2
2026-04-04T05:17:07.277Z,-0.0083,-0.9844,-0.1954,-0.002,0.0337,0.0107,0.0039,-0.0001,-0.005,44.36,78.77,-2.52,135,8,6,2,Bench,2
2026-04-04T05:17:07.287Z,-0.0083,-0.9851,-0.195,-0.0002,0.0424,0.0031,0.0034,-0.0032,-0.0027,44.36,78.77,-2.52,135,8,6,2,Bench,2
2026-04-04T05:17:07.296Z,-0.0084,-0.9852,-0.1946,-0.0011,0.0416,0.0036,0.0016,-0.0009,-0.0046,44.36,78.77,-2.52,135,8,6,2,Bench,2
2026-04-04T05:17:07.307Z,-0.0081,-0.9855,-0.1951,-0.0035,0.0455,0.0025,0.0033,-0.0032,-0.0027,44.36,78.77,-2.52,135,8,6,2,Bench,2
2026-04-04T05:17:07.317Z,-0.0083,-0.9852,-0.196,-0.004,0.0413,0.012,0.0021,0.0002,-0.0031,44.36,78.77,-2.52,135,8,6,2,Bench,2
2026-04-04T05:17:07.326Z,-0.0085,-0.9852,-0.1954,-0.0022,0.0422,0.0105,0.0009,-0.0024,-0.0042,44.36,78.77,-2.52,135,8,6,2,Bench,2
2026-04-04T05:17:07.341Z,-0.0089,-0.9847,-0.1951,0,0.0417,0.0084,0.0011,-0.0035,-0.0037,44.36,78.77,-2.52,135,8,6,2,Bench,2
2026-04-04T05:17:07.346Z,-0.0084,-0.9851,-0.1955,0,0.0417,0.0084,0.0051,-0.0036,-0.0067,44.36,78.77,-2.52,135,8,6,2,Bench,2
2026-04-04T05:17:07.357Z,-0.0088,-0.9851,-0.1962,0.0002,0.0415,0.0138,0.0043,-0.002,-0.0068,44.36,78.77,-2.52,135,8,6,2,Bench,2
2026-04-04T05:17:07.366Z,-0.0088,-0.9846,-0.1954,0.0031,0.0361,0.0112,0.0003,-0.0018,-0.0042,44.35,78.77,-2.52,135,8,6,2,Bench,2
2026-04-04T05:17:07.376Z,-0.0088,-0.9858,-0.196,0.0036,0.0481,0.0114,-0.0009,-0.0014,-0.0036,44.35,78.77,-2.52,135,8,6,2,Bench,2
2026-04-04T05:17:07.388Z,-0.0086,-0.985,-0.1956,0.0022,0.0413,0.0109,0.0007,0.0001,-0.0052,44.35,78.77,-2.52,135,8,6,2,Bench,2
2026-04-04T05:17:07.397Z,-0.0089,-0.9845,-0.1968,0.0028,0.0385,0.0236,0.0043,-0.0033,-0.0032,44.35,78.77,-2.52,135,8,6,2,Bench,2
2026-04-04T05:17:07.407Z,-0.0085,-0.9849,-0.1937,0.0015,0.0389,-0.0052,0.0035,-0.0007,-0.0043,44.35,78.77,-2.51,135,8,6,2,Bench,2
2026-04-04T05:17:07.416Z,-0.0083,-0.9851,-0.1955,-0.0014,0.0393,0.0052,0.0038,-0.0013,-0.0034,44.35,78.77,-2.51,135,8,6,2,Bench,2
2026-04-04T05:17:07.427Z,-0.0085,-0.9851,-0.196,-0.0002,0.0432,0.0148,0.0013,-0.0046,-0.0051,44.35,78.77,-2.51,135,8,6,2,Bench,2
2026-04-04T05:17:07.439Z,-0.0086,-0.9839,-0.1969,-0.0018,0.0472,-0.0043,0.003,-0.0012,-0.0025,44.34,78.77,-2.51,135,8,6,2,Bench,2
2026-04-04T05:17:07.446Z,-0.0084,-0.9858,-0.1938,-0.0018,0.0472,-0.0043,0.0057,-0.0033,-0.0063,44.34,78.77,-2.51,135,8,6,2,Bench,2
2026-04-04T05:17:07.458Z,-0.0086,-0.9858,-0.1926,0.0004,0.0511,-0.0219,0.0017,-0.0056,-0.0057,44.34,78.77,-2.51,135,8,6,2,Bench,2
2026-04-04T05:17:07.466Z,-0.0081,-0.9855,-0.1953,-0.0014,0.0459,0.0051,0.0023,-0.003,-0.0059,44.34,78.77,-2.51,135,8,6,2,Bench,2
2026-04-04T05:17:07.477Z,-0.0076,-0.9841,-0.1964,-0.0077,0.0348,0.018,0.0041,-0.0048,-0.0056,44.34,78.77,-2.51,135,8,6,2,Bench,2
2026-04-04T05:17:07.491Z,-0.0072,-0.9847,-0.1957,-0.0118,0.0438,0,0.0023,-0.0031,-0.0038,44.34,78.77,-2.51,135,8,6,2,Bench,2
2026-04-04T05:17:07.496Z,-0.0072,-0.9855,-0.1945,-0.0118,0.0438,0,0.0021,-0.0055,-0.0044,44.34,78.77,-2.51,135,8,6,2,Bench,2
2026-04-04T05:17:07.507Z,-0.0079,-0.9853,-0.1947,-0.0061,0.0456,-0.0019,0.0019,-0.0037,-0.0043,44.34,78.77,-2.5,135,8,6,2,Bench,2
2026-04-04T05:17:07.516Z,-0.0085,-0.9852,-0.1961,-0.0003,0.0447,0.011,0.0027,-0.0023,-0.0045,44.34,78.77,-2.5,135,8,6,2,Bench,2
2026-04-04T05:17:07.527Z,-0.0085,-0.9848,-0.1967,0.0008,0.0396,0.021,0.0018,-0.0012,-0.0037,44.34,78.77,-2.5,135,8,6,2,Bench,2
2026-04-04T05:17:07.539Z,-0.0076,-0.9859,-0.1957,-0.0144,0.0392,0.0043,0.0015,-0.0036,-0.0046,44.34,78.77,-2.5,135,8,6,2,Bench,2
2026-04-04T05:17:07.546Z,-0.0071,-0.9849,-0.1953,-0.0144,0.0392,0.0043,0.003,-0.0023,-0.0068,44.34,78.77,-2.5,135,8,6,2,Bench,2
2026-04-04T05:17:07.559Z,-0.0069,-0.9853,-0.1971,-0.019,0.0461,0.0221,0.005,-0.002,-0.0017,44.33,78.77,-2.5,135,8,6,2,Bench,2
2026-04-04T05:17:07.566Z,-0.0087,-0.9845,-0.1958,0.0009,0.036,0.0126,0.0034,-0.0044,-0.005,44.33,78.77,-2.5,135,8,6,2,Bench,2
2026-04-04T05:17:07.577Z,-0.0092,-0.9851,-0.1951,0.0065,0.0435,0.0055,0.0014,-0.0004,-0.0035,44.33,78.77,-2.5,135,8,6,2,Bench,2
2026-04-04T05:17:07.590Z,-0.0081,-0.9845,-0.1964,-0.0055,0.0351,0.0224,0.0041,0.0013,-0.0054,44.33,78.77,-2.5,135,8,6,2,Bench,2
2026-04-04T05:17:07.596Z,-0.0079,-0.9843,-0.197,-0.0055,0.0351,0.0224,0.0048,-0.0008,-0.0058,44.33,78.77,-2.5,135,8,6,2,Bench,2
2026-04-04T05:17:07.606Z,-0.008,-0.9836,-0.1975,-0.0042,0.0251,0.0318,0.0047,-0.0035,-0.0036,44.33,78.77,-2.5,135,8,6,2,Bench,2
2026-04-04T05:17:07.616Z,-0.0079,-0.9857,-0.1943,-0.007,0.0462,-0.0019,0.0036,-0.0047,-0.0053,44.33,78.77,-2.5,135,8,6,2,Bench,2
2026-04-04T05:17:07.626Z,-0.0087,-0.9866,-0.1951,0.0024,0.0562,0.005,0.002,-0.0043,-0.0047,44.33,78.77,-2.5,135,8,6,2,Bench,2
2026-04-04T05:17:07.639Z,-0.009,-0.9862,-0.1958,0.0049,0.0409,0.0215,0.0027,-0.0022,-0.0061,44.33,78.77,-2.49,135,8,6,2,Bench,2
2026-04-04T05:17:07.646Z,-0.009,-0.9851,-0.1968,0.0049,0.0409,0.0215,0.0029,-0.0022,-0.0039,44.33,78.77,-2.49,135,8,6,2,Bench,2
2026-04-04T05:17:07.659Z,-0.0085,-0.9843,-0.1948,0.002,0.0427,-0.01,0.0021,-0.0029,-0.0032,44.33,78.77,-2.49,135,8,6,2,Bench,2
2026-04-04T05:17:07.666Z,-0.0088,-0.9853,-0.1941,0.002,0.0427,-0.01,0.0023,-0.002,-0.0036,44.33,78.77,-2.49,135,8,6,2,Bench,2
2026-04-04T05:17:07.677Z,-0.0086,-0.9839,-0.1964,0.0024,0.0305,0.0195,0.0035,-0.002,-0.0033,44.33,78.77,-2.49,135,8,6,2,Bench,2
2026-04-04T05:17:07.687Z,-0.0087,-0.9863,-0.1956,0.0026,0.0504,0.0079,0.0037,0.0003,-0.0045,44.33,78.77,-2.49,135,8,6,2,Bench,2
2026-04-04T05:17:07.696Z,-0.0087,-0.9855,-0.1959,0.002,0.0501,0.0117,0.0071,-0.0007,-0.0052,44.33,78.77,-2.49,135,8,6,2,Bench,2
2026-04-04T05:17:07.710Z,-0.0087,-0.9851,-0.1957,-0.0015,0.044,0.0096,0.0029,-0.003,-0.0061,44.33,78.77,-2.49,135,8,6,2,Bench,2
2026-04-04T05:17:07.716Z,-0.0081,-0.9848,-0.1956,-0.0015,0.044,0.0096,0.0034,-0.0043,-0.0035,44.33,78.77,-2.49,135,8,6,2,Bench,2
2026-04-04T05:17:07.726Z,-0.0075,-0.9838,-0.1959,-0.0083,0.0247,0.0117,0.0021,0.0003,-0.0024,44.33,78.77,-2.49,135,8,6,2,Bench,2
2026-04-04T05:17:07.740Z,-0.0086,-0.9845,-0.1953,-0.0018,0.0438,0.0092,0.0048,-0.0021,-0.0056,44.33,78.77,-2.49,135,8,6,2,Bench,2
2026-04-04T05:17:07.746Z,-0.0081,-0.9857,-0.1956,-0.0018,0.0438,0.0092,0.0031,-0.001,-0.0025,44.33,78.77,-2.49,135,8,6,2,Bench,2
2026-04-04T05:17:07.756Z,-0.0083,-0.9857,-0.1954,-0.0035,0.0512,0.0079,0.0016,-0.0032,-0.0051,44.33,78.77,-2.49,135,8,6,2,Bench,2
2026-04-04T05:17:07.766Z,-0.0086,-0.9855,-0.1958,0.0019,0.044,0.0148,0.0033,-0.0043,-0.0024,44.33,78.77,-2.49,135,8,6,2,Bench,2
2026-04-04T05:17:07.776Z,-0.0073,-0.9828,-0.1956,-0.0107,0.0227,0.0104,0.0042,-0.0009,-0.0047,44.33,78.77,-2.49,135,8,6,2,Bench,2
2026-04-04T05:17:07.787Z,-0.0085,-0.9852,-0.1951,-0.0032,0.0383,0.0054,0.0038,-0.0027,-0.0018,44.33,78.77,-2.49,135,8,6,2,Bench,2
2026-04-04T05:17:07.796Z,-0.0087,-0.9856,-0.1942,0.0033,0.0485,-0.002,0.0046,-0.003,-0.0049,44.33,78.77,-2.49,135,8,6,2,Bench,2
2026-04-04T05:17:07.806Z,-0.0084,-0.9855,-0.1949,-0.0021,0.0457,0.0029,0.005,-0.0019,-0.0033,44.33,78.77,-2.5,135,8,6,2,Bench,2
2026-04-04T05:17:07.817Z,-0.0087,-0.9836,-0.1953,0,0.0286,0.0055,0.0023,-0.0047,-0.0032,44.33,78.77,-2.5,135,8,6,2,Bench,2
2026-04-04T05:17:07.826Z,-0.0076,-0.986,-0.1952,-0.0085,0.0466,0.0073,0.0017,0.0024,-0.006,44.33,78.77,-2.5,135,8,6,2,Bench,2
2026-04-04T05:17:07.839Z,-0.0074,-0.9836,-0.1947,-0.0035,0.0443,0.0056,0.0029,-0.0032,-0.0037,44.34,78.77,-2.5,135,8,6,2,Bench,2
2026-04-04T05:17:07.846Z,-0.0083,-0.9856,-0.1952,-0.0035,0.0443,0.0056,0.0006,-0.0036,-0.0024,44.34,78.77,-2.5,135,8,6,2,Bench,2
2026-04-04T05:17:07.856Z,-0.0085,-0.9855,-0.1959,0.0013,0.0471,0.01,0.0005,-0.0014,-0.0048,44.34,78.77,-2.5,135,8,6,2,Bench,2
2026-04-04T05:17:07.867Z,-0.0089,-0.985,-0.196,0.0021,0.0395,0.0148,0.0021,0.0001,-0.0047,44.34,78.77,-2.51,135,8,6,2,Bench,2
2026-04-04T05:17:07.876Z,-0.0086,-0.985,-0.195,0.0018,0.0402,0.0072,0.0018,-0.0018,-0.0052,44.34,78.77,-2.51,135,8,6,2,Bench,2
2026-04-04T05:17:07.891Z,-0.0077,-0.9849,-0.1965,-0.0004,0.0365,0.026,0.0032,0.0015,-0.0068,44.34,78.77,-2.51,135,8,6,2,Bench,2
2026-04-04T05:17:07.896Z,-0.0084,-0.9847,-0.1969,-0.0004,0.0365,0.026,0.0047,-0.0009,-0.0016,44.34,78.77,-2.51,135,8,6,2,Bench,2
2026-04-04T05:17:07.906Z,-0.0085,-0.9849,-0.1951,-0.0016,0.0404,0.0068,0.0009,-0.0029,-0.0047,44.35,78.77,-2.51,135,8,6,2,Bench,2
2026-04-04T05:17:07.916Z,-0.0086,-0.9842,-0.1957,-0.0014,0.035,0.0102,0.0009,-0.0016,-0.0016,44.35,78.77,-2.51,135,8,6,2,Bench,2
2026-04-04T05:17:07.926Z,-0.0092,-0.9845,-0.195,0.0067,0.0328,0.0044,0.0041,-0.0021,-0.005,44.35,78.77,-2.51,135,8,6,2,Bench,2
2026-04-04T05:17:07.939Z,-0.0088,-0.9859,-0.1957,-0.0073,0.0443,0.0094,0.0018,-0.0008,-0.0044,44.35,78.77,-2.51,135,8,6,2,Bench,2
2026-04-04T05:17:07.946Z,-0.0077,-0.9854,-0.1954,-0.0073,0.0443,0.0094,0.0008,-0.0006,-0.003,44.35,78.77,-2.51,135,8,6,2,Bench,2
2026-04-04T05:17:07.956Z,-0.0072,-0.9854,-0.1937,-0.0111,0.0449,-0.0085,0.0025,-0.0034,-0.0016,44.35,78.77,-2.51,135,8,6,2,Bench,2
2026-04-04T05:17:07.966Z,-0.0084,-0.985,-0.1943,-0.0044,0.043,-0.0043,0.0033,-0.0017,-0.0032,44.35,78.77,-2.51,135,8,6,2,Bench,2
2026-04-04T05:17:07.976Z,-0.0099,-0.9848,-0.1946,0.0132,0.0392,0.0011,0.0033,-0.0029,-0.0039,44.35,78.77,-2.51,135,8,6,2,Bench,2
2026-04-04T05:17:07.990Z,-0.0094,-0.9855,-0.1948,0.003,0.0346,0.0123,0.0037,-0.0007,-0.0039,44.35,78.77,-2.51,135,8,6,2,Bench,2
2026-04-04T05:17:07.996Z,-0.0088,-0.9841,-0.1959,0.003,0.0346,0.0123,0.0043,-0.0035,-0.0041,44.35,78.77,-2.51,135,8,6,2,Bench,2
2026-04-04T05:17:08.006Z,-0.0078,-0.9851,-0.1951,-0.0063,0.041,0.0065,0.0006,-0.0027,-0.0038,44.35,78.77,-2.51,135,8,6,2,Bench,2
2026-04-04T05:17:08.016Z,-0.0078,-0.9853,-0.1948,-0.0061,0.0437,0.0009,0.0013,-0.0006,-0.0048,44.35,78.77,-2.51,135,8,6,2,Bench,2
2026-04-04T05:17:08.026Z,-0.0072,-0.9845,-0.1954,-0.012,0.0338,0.0079,0.0028,-0.0019,-0.0057,44.35,78.77,-2.51,135,8,6,2,Bench,2
2026-04-04T05:17:08.040Z,-0.0088,-0.9859,-0.1958,0.0081,0.0475,0.0183,0.0019,-0.0031,-0.004,44.35,78.77,-2.51,135,8,6,2,Bench,2
2026-04-04T05:17:08.046Z,-0.0094,-0.9854,-0.1966,0.0081,0.0475,0.0183,0.0017,-0.0039,-0.0049,44.35,78.77,-2.51,135,8,6,2,Bench,2
2026-04-04T05:17:08.060Z,-0.0086,-0.9836,-0.1962,-0.0063,0.0301,0.0012,0.0026,-0.0007,-0.0053,44.35,78.77,-2.51,135,8,6,2,Bench,2
2026-04-04T05:17:08.066Z,-0.0078,-0.9842,-0.1947,-0.0063,0.0301,0.0012,0.0024,-0.0021,-0.0031,44.35,78.77,-2.51,135,8,6,2,Bench,2
2026-04-04T05:17:08.076Z,-0.0073,-0.9855,-0.1957,-0.0114,0.0452,0.0094,0.0037,-0.0028,-0.002,44.35,78.77,-2.51,135,8,6,2,Bench,2
2026-04-04T05:17:08.090Z,-0.0072,-0.9868,-0.1955,-0.0168,0.0525,0.0067,0.0027,-0.0051,-0.0027,44.35,78.77,-2.51,135,8,6,2,Bench,2
2026-04-04T05:17:08.096Z,-0.0067,-0.9859,-0.1954,-0.0168,0.0525,0.0067,0.0027,-0.0018,-0.0047,44.35,78.77,-2.51,135,8,6,2,Bench,2
2026-04-04T05:17:08.106Z,-0.0082,-0.9841,-0.1958,-0.005,0.0348,0.0132,0.0035,-0.0043,-0.0021,44.35,78.77,-2.51,135,8,6,2,Bench,2
2026-04-04T05:17:08.116Z,-0.0088,-0.984,-0.1941,0.0011,0.0314,-0.0029,0.0026,-0.0008,-0.0043,44.35,78.77,-2.51,135,8,6,2,Bench,2
2026-04-04T05:17:08.126Z,-0.0085,-0.9837,-0.1954,0.0009,0.0261,0.0051,0.0031,0.0005,-0.0079,44.35,78.77,-2.51,135,8,6,2,Bench,2
2026-04-04T05:17:08.139Z,-0.0076,-0.9855,-0.1955,-0.0072,0.0538,0.0069,0.002,-0.0038,-0.0033,44.35,78.77,-2.51,135,8,6,2,Bench,2
2026-04-04T05:17:08.146Z,-0.0079,-0.9862,-0.1954,-0.0072,0.0538,0.0069,0.0038,-0.0001,-0.0048,44.35,78.77,-2.51,135,8,6,2,Bench,2
2026-04-04T05:17:08.159Z,-0.0076,-0.9853,-0.1969,0.0038,0.0421,0.0045,0.0043,-0.0037,-0.0035,44.35,78.77,-2.51,135,8,6,2,Bench,2
2026-04-04T05:17:08.166Z,-0.0092,-0.9853,-0.1948,0.0038,0.0421,0.0045,0.0051,-0.0007,-0.0058,44.35,78.77,-2.51,135,8,6,2,Bench,2
2026-04-04T05:17:08.178Z,-0.0095,-0.9854,-0.1946,-0.0024,0.0274,0.0032,0.0035,-0.0032,-0.0056,44.35,78.77,-2.51,135,8,6,2,Bench,2
2026-04-04T05:17:08.190Z,-0.0079,-0.9835,-0.195,-0.0137,0.0327,0.0065,0.0036,-0.0032,-0.0035,44.34,78.77,-2.5,135,8,6,2,Bench,2
2026-04-04T05:17:08.196Z,-0.0073,-0.9844,-0.1954,-0.0137,0.0327,0.0065,0.0023,-0.0012,-0.0043,44.34,78.77,-2.5,135,8,6,2,Bench,2
2026-04-04T05:17:08.208Z,-0.0081,-0.9849,-0.1954,-0.0018,0.0448,0.0036,0.0011,-0.0031,-0.0042,44.34,78.77,-2.5,135,8,6,2,Bench,2
2026-04-04T05:17:08.216Z,-0.0083,-0.9854,-0.195,-0.0018,0.0448,0.0036,0.0015,-0.0008,-0.0054,44.34,78.77,-2.5,135,8,6,2,Bench,2
2026-04-04T05:17:08.228Z,-0.0088,-0.9854,-0.1962,0.0052,0.0421,0.018,0.0058,-0.0058,-0.0042,44.34,78.77,-2.5,135,8,6,2,Bench,2
2026-04-04T05:17:08.238Z,-0.0092,-0.9853,-0.1967,0.0088,0.0448,0.0176,0.0028,-0.0014,-0.0049,44.34,78.77,-2.5,135,8,6,2,Bench,2
2026-04-04T05:17:08.246Z,-0.0093,-0.9852,-0.1963,0.0088,0.0448,0.0176,0.0029,-0.0037,-0.0034,44.34,78.77,-2.5,135,8,6,2,Bench,2
2026-04-04T05:17:08.256Z,-0.0071,-0.9833,-0.1961,-0.0113,0.0268,0.0143,0.0033,-0.0016,-0.003,44.34,78.77,-2.5,135,8,6,2,Bench,2
2026-04-04T05:17:08.268Z,-0.0074,-0.9849,-0.1959,0.0056,0.0404,0.014,0.0031,-0.0032,-0.0031,44.34,78.77,-2.5,135,8,6,2,Bench,2
2026-04-04T05:17:08.278Z,-0.0092,-0.985,-0.1959,0.0012,0.0371,0.0146,0.002,-0.0014,-0.0046,44.34,78.77,-2.5,135,8,6,2,Bench,2
2026-04-04T05:17:08.290Z,-0.0087,-0.9848,-0.1958,0.0015,0.0507,0.0013,0.0031,-0.001,-0.0028,44.34,78.77,-2.5,135,8,6,2,Bench,2
2026-04-04T05:17:08.296Z,-0.0088,-0.9857,-0.1948,0.0015,0.0507,0.0013,0.0066,-0.0017,-0.002,44.34,78.77,-2.5,135,8,6,2,Bench,2
2026-04-04T05:17:08.308Z,-0.0082,-0.9852,-0.1961,0.0011,0.0405,0.014,0.0028,-0.0011,-0.0051,44.34,78.77,-2.5,135,8,6,2,Bench,2
2026-04-04T05:17:08.319Z,-0.0086,-0.985,-0.1956,-0.004,0.0368,0.0004,0.0008,-0.0011,-0.0043,44.34,78.77,-2.5,135,8,6,2,Bench,2
2026-04-04T05:17:08.328Z,-0.0081,-0.9845,-0.1947,-0.0116,0.0441,0.0056,0.0027,-0.003,-0.0031,44.34,78.77,-2.5,135,8,6,2,Bench,2
2026-04-04T05:17:08.339Z,-0.007,-0.9854,-0.1953,-0.0134,0.0445,0.0118,0.0037,-0.0034,-0.0053,44.34,78.77,-2.5,135,8,6,2,Bench,2
2026-04-04T05:17:08.348Z,-0.0076,-0.9853,-0.1955,0.0061,0.0469,0.0055,0.003,-0.0047,-0.003,44.34,78.77,-2.5,135,8,6,2,Bench,2
2026-04-04T05:17:08.358Z,-0.0091,-0.9857,-0.1954,-0.0028,0.0399,0.0132,0.0028,-0.003,-0.0058,44.34,78.77,-2.5,135,8,6,2,Bench,2
2026-04-04T05:17:08.368Z,-0.0081,-0.9849,-0.1958,0.001,0.0447,0.0032,0.001,-0.0015,-0.0058,44.34,78.77,-2.5,135,8,6,2,Bench,2
2026-04-04T05:17:08.379Z,-0.0087,-0.9856,-0.1948,-0.0046,0.0451,0.0127,-0.0001,-0.0015,-0.0037,44.35,78.77,-2.5,135,8,6,2,Bench,2
2026-04-04T05:17:08.389Z,-0.008,-0.9851,-0.1962,-0.0115,0.0449,0.0145,0.0033,-0.0037,-0.0062,44.35,78.77,-2.5,135,8,6,2,Bench,2
2026-04-04T05:17:08.398Z,-0.0072,-0.9857,-0.196,-0.0111,0.0374,0.0178,0.0009,-0.0019,-0.003,44.34,78.77,-2.5,135,8,6,2,Bench,2
2026-04-04T05:17:08.408Z,-0.0077,-0.9843,-0.1963,0.0013,0.04,0.016,0.0008,-0.0014,-0.0031,44.34,78.77,-2.5,135,8,6,2,Bench,2
2026-04-04T05:17:08.418Z,-0.0087,-0.9849,-0.1965,0.006,0.041,0.0018,0.0024,-0.0033,-0.0042,44.34,78.77,-2.5,135,8,6,2,Bench,2
2026-04-04T05:17:08.428Z,-0.0092,-0.9852,-0.1947,-0.0084,0.0416,0.0227,0.0018,-0.0033,-0.0078,44.34,78.77,-2.5,135,8,6,2,Bench,2
2026-04-04T05:17:08.439Z,-0.0076,-0.9849,-0.1971,-0.0003,0.042,0.01,0.0008,-0.0024,-0.0037,44.34,78.77,-2.5,135,8,6,2,Bench,2
2026-04-04T05:17:08.448Z,-0.0084,-0.9851,-0.1956,-0.0037,0.036,0.0036,0.0035,0.0007,-0.0033,44.34,78.77,-2.5,135,8,6,2,Bench,2
2026-04-04T05:17:08.457Z,-0.0082,-0.9846,-0.195,-0.0049,0.0428,0.0137,0.0056,-0.003,-0.0041,44.34,78.77,-2.5,135,8,6,2,Bench,2
2026-04-04T05:17:08.468Z,-0.0079,-0.9852,-0.1958,-0.0003,0.0408,0.0041,0.0015,-0.0011,-0.0032,44.34,78.77,-2.5,135,8,6,2,Bench,2
2026-04-04T05:17:08.478Z,-0.0087,-0.9849,-0.1953,0.0043,0.0403,0.0117,0.0025,-0.003,-0.0051,44.34,78.77,-2.5,135,8,6,2,Bench,2
2026-04-04T05:17:08.491Z,-0.0089,-0.985,-0.1957,0.0002,0.0499,0.004,0.0032,-0.0032,-0.0031,44.34,78.77,-2.5,135,8,6,2,Bench,2
2026-04-04T05:17:08.498Z,-0.0083,-0.986,-0.1949,-0.0004,0.038,0.0059,0.0037,-0.0023,-0.002,44.34,78.77,-2.5,135,8,6,2,Bench,2
2026-04-04T05:17:08.508Z,-0.0087,-0.9847,-0.1954,-0.0026,0.0479,0.0132,0.0002,-0.0034,-0.0031,44.34,78.77,-2.5,135,8,6,2,Bench,2
2026-04-04T05:17:08.518Z,-0.0083,-0.9857,-0.1959,-0.001,0.0426,0.0047,0.0037,-0.0022,-0.0038,44.34,78.77,-2.5,135,8,6,2,Bench,2
2026-04-04T05:17:08.528Z,-0.0084,-0.9849,-0.1949,0.0006,0.0398,0.0058,0.0008,-0.0016,-0.0042,44.34,78.77,-2.5,135,8,6,2,Bench,2
2026-04-04T05:17:08.539Z,-0.0085,-0.9849,-0.1952,0.0009,0.0482,0.0127,0.0019,0.0008,-0.0035,44.34,78.77,-2.5,135,8,6,2,Bench,2
2026-04-04T05:17:08.547Z,-0.0086,-0.986,-0.1959,0.0022,0.0494,0.0142,0.0026,-0.0025,-0.004,44.34,78.77,-2.5,135,8,6,2,Bench,2
2026-04-04T05:17:08.558Z,-0.0088,-0.9861,-0.1962,-0.0013,0.039,0.0121,0.0034,-0.0054,-0.0047,44.34,78.77,-2.5,135,8,6,2,Bench,2
2026-04-04T05:17:08.567Z,-0.0086,-0.9845,-0.196,0.0009,0.0287,0.0186,0.0018,-0.0044,-0.0031,44.34,78.77,-2.5,135,8,6,2,Bench,2
2026-04-04T05:17:08.577Z,-0.0084,-0.9838,-0.1965,-0.0021,0.0356,0.012,0.0012,-0.0026,-0.0053,44.34,78.77,-2.51,135,8,6,2,Bench,2
2026-04-04T05:17:08.591Z,-0.0082,-0.9845,-0.1957,-0.0036,0.0399,0.0124,0.0049,-0.0034,-0.006,44.34,78.77,-2.51,135,8,6,2,Bench,2
2026-04-04T05:17:08.597Z,-0.0083,-0.9851,-0.196,-0.0018,0.0483,0.0227,0.0037,-0.0012,-0.0067,44.34,78.77,-2.51,135,8,6,2,Bench,2
2026-04-04T05:17:08.607Z,-0.0083,-0.9859,-0.1971,-0.0007,0.0509,0.0206,0.0028,-0.0011,-0.0055,44.34,78.77,-2.51,135,8,6,2,Bench,2
2026-04-04T05:17:08.618Z,-0.0084,-0.9857,-0.1966,-0.0031,0.0466,0.0051,0.0016,-0.0022,-0.0047,44.34,78.77,-2.5,135,8,6,2,Bench,2
2026-04-04T05:17:08.628Z,-0.0083,-0.9855,-0.1952,-0.0019,0.0406,0.0117,0.0015,-0.003,-0.005,44.34,78.76,-2.5,135,8,6,2,Bench,2
2026-04-04T05:17:08.644Z,-0.0083,-0.9852,-0.1958,0.0033,0.0457,0.0013,0.0022,-0.0011,-0.0059,44.34,78.76,-2.5,135,8,6,2,Bench,2
2026-04-04T05:17:08.647Z,-0.0089,-0.9855,-0.1949,-0.0002,0.0453,0.0102,0.0022,-0.0011,-0.0059,44.34,78.76,-2.5,135,8,6,2,Bench,2
2026-04-04T05:17:08.657Z,-0.0083,-0.9857,-0.1957,-0.0023,0.0501,0.0044,0.0031,-0.0023,-0.0072,44.34,78.76,-2.5,135,8,6,2,Bench,2
2026-04-04T05:17:08.667Z,-0.0083,-0.9858,-0.1953,-0.0052,0.0469,0.0079,0.0047,-0.0023,-0.0062,44.34,78.76,-2.5,135,8,6,2,Bench,2
2026-04-04T05:17:08.677Z,-0.0076,-0.9855,-0.1953,-0.0077,0.0544,0.004,0.0031,-0.0019,-0.0025,44.34,78.76,-2.5,135,8,6,2,Bench,2
2026-04-04T05:17:08.689Z,-0.0078,-0.9864,-0.1953,-0.0039,0.0466,0.004,0.0032,-0.0018,-0.0042,44.33,78.76,-2.5,135,8,6,2,Bench,2
2026-04-04T05:17:08.697Z,-0.0082,-0.9855,-0.1952,-0.0074,0.0336,0.0153,0.0023,-0.004,-0.0057,44.33,78.76,-2.49,135,8,6,2,Bench,2
2026-04-04T05:17:08.707Z,-0.0077,-0.9843,-0.1963,-0.0026,0.0371,0.0091,0.0036,-0.0007,-0.0045,44.33,78.76,-2.49,135,8,6,2,Bench,2
2026-04-04T05:17:08.717Z,-0.0081,-0.9847,-0.1954,-0.004,0.0451,0.0068,0.0018,-0.0021,-0.0042,44.33,78.76,-2.49,135,8,6,2,Bench,2
2026-04-04T05:17:08.727Z,-0.0082,-0.9854,-0.1956,-0.002,0.0464,0.0115,0.0034,-0.0022,-0.0034,44.33,78.76,-2.49,135,8,6,2,Bench,2
2026-04-04T05:17:08.738Z,-0.0082,-0.9855,-0.1957,-0.0033,0.0473,0.011,0.0035,-0.0032,-0.0047,44.33,78.76,-2.49,135,8,6,2,Bench,2
2026-04-04T05:17:08.748Z,-0.0082,-0.9855,-0.1958,-0.0033,0.0422,0.0082,0.0035,-0.0017,-0.0027,44.33,78.76,-2.49,135,8,6,2,Bench,2
2026-04-04T05:17:08.761Z,-0.0081,-0.9851,-0.1955,-0.0096,0.0407,0.0069,0.0004,-0.0034,-0.0047,44.33,78.76,-2.49,135,8,6,2,Bench,2
2026-04-04T05:17:08.767Z,-0.0076,-0.9848,-0.1952,-0.0009,0.0336,-0.0023,0.0034,-0.0042,-0.0044,44.33,78.76,-2.49,135,8,6,2,Bench,2
2026-04-04T05:17:08.777Z,-0.0086,-0.9843,-0.1945,0.0038,0.0439,0.0098,0.005,-0.0044,0.0012,44.33,78.76,-2.49,135,8,6,2,Bench,2
2026-04-04T05:17:08.789Z,-0.0088,-0.9853,-0.1957,-0.0021,0.0371,0.0095,0.0071,-0.0056,-0.004,44.33,78.77,-2.5,135,8,6,2,Bench,2
2026-04-04T05:17:08.797Z,-0.0086,-0.9846,-0.1957,0.0014,0.0409,0.0121,0.0028,-0.0018,-0.0049,44.33,78.77,-2.5,135,8,6,2,Bench,2
2026-04-04T05:17:08.807Z,-0.0085,-0.9852,-0.1959,-0.0008,0.0452,0.0151,0.0052,-0.001,-0.0021,44.34,78.77,-2.5,135,8,6,2,Bench,2
2026-04-04T05:17:08.817Z,-0.0085,-0.9855,-0.1961,0.0098,0.0386,0.0108,0.0048,-0.0001,-0.005,44.34,78.77,-2.5,135,8,6,2,Bench,2
2026-04-04T05:17:08.827Z,-0.0096,-0.9847,-0.1956,0.002,0.0395,-0.0006,0.0021,-0.0033,-0.0043,44.34,78.77,-2.5,135,8,6,2,Bench,2
2026-04-04T05:17:08.843Z,-0.0086,-0.9852,-0.1946,-0.006,0.0439,0.0105,0.0043,-0.0047,-0.0036,44.34,78.77,-2.5,135,8,6,2,Bench,2
2026-04-04T05:17:08.847Z,-0.0081,-0.9851,-0.1958,0.001,0.045,0.0143,0.0043,-0.0047,-0.0036,44.34,78.77,-2.5,135,8,6,2,Bench,2
2026-04-04T05:17:08.857Z,-0.0086,-0.9855,-0.196,0.0043,0.0493,0.0051,0.0037,-0.0035,-0.0056,44.34,78.77,-2.51,135,8,6,2,Bench,2
2026-04-04T05:17:08.867Z,-0.009,-0.9858,-0.1952,-0.0051,0.0356,0.0095,0.0018,-0.0038,-0.0046,44.34,78.77,-2.51,135,8,6,2,Bench,2
2026-04-04T05:17:08.877Z,-0.0079,-0.9846,-0.1955,-0.0049,0.0389,0.0045,0.0006,-0.0026,-0.0033,44.34,78.77,-2.51,135,8,6,2,Bench,2
2026-04-04T05:17:08.888Z,-0.0081,-0.9846,-0.1951,-0.0018,0.0374,0.0154,0.0047,-0.0029,-0.0044,44.34,78.77,-2.51,135,8,6,2,Bench,2
2026-04-04T05:17:08.897Z,-0.0084,-0.9847,-0.1962,0.0009,0.0378,0.013,0.0028,-0.0028,-0.0068,44.34,78.77,-2.51,135,8,6,2,Bench,2
2026-04-04T05:17:08.906Z,-0.0087,-0.9847,-0.1957,0.0005,0.0416,0.0086,0.002,0.0004,-0.0051,44.34,78.77,-2.51,135,8,6,2,Bench,2
2026-04-04T05:17:08.916Z,-0.0086,-0.9852,-0.1955,0.0011,0.0411,0.0167,0.0045,-0.0025,-0.0068,44.34,78.77,-2.5,135,8,6,2,Bench,2
2026-04-04T05:17:08.928Z,-0.0085,-0.9849,-0.1962,-0.0091,0.0417,0.0167,0.0022,-0.0025,-0.0041,44.34,78.77,-2.5,135,8,6,2,Bench,2
2026-04-04T05:17:08.938Z,-0.0075,-0.9851,-0.1961,-0.0052,0.0405,0.0081,0.0007,-0.0031,-0.0075,44.34,78.77,-2.5,135,8,6,2,Bench,2
2026-04-04T05:17:08.947Z,-0.0082,-0.9848,-0.1952,-0.003,0.0475,0.0117,0.0036,-0.0024,-0.0028,44.33,78.77,-2.5,135,8,6,2,Bench,2
2026-04-04T05:17:08.957Z,-0.0083,-0.9856,-0.1959,-0.0006,0.043,0.0129,0.0042,-0.0022,-0.0051,44.33,78.77,-2.5,135,8,6,2,Bench,2
2026-04-04T05:17:08.967Z,-0.0085,-0.9851,-0.1958,0.0077,0.0401,0.014,0.0027,-0.0031,-0.005,44.33,78.77,-2.5,135,8,6,2,Bench,2
2026-04-04T05:17:08.977Z,-0.0093,-0.9852,-0.196,-0.0011,0.0417,0.0134,0.0029,-0.0035,-0.0041,44.33,78.77,-2.5,135,8,6,2,Bench,2
2026-04-04T05:17:08.988Z,-0.0084,-0.9851,-0.1959,-0.0015,0.0432,0.0132,0.0033,-0.0043,-0.0053,44.33,78.77,-2.5,135,8,6,2,Bench,2
2026-04-04T05:17:08.996Z,-0.0083,-0.9855,-0.1959,-0.0081,0.0515,0.0056,0.0008,-0.0018,-0.0037,44.33,78.77,-2.5,135,8,6,2,Bench,2
2026-04-04T05:17:09.007Z,-0.0078,-0.986,-0.195,-0.0047,0.0411,0.0104,0.004,-0.003,-0.0068,44.33,78.77,-2.5,135,8,6,2,Bench,2
2026-04-04T05:17:09.018Z,-0.0081,-0.985,-0.1958,-0.0073,0.0283,0.0068,0.0022,-0.0028,-0.0036,44.33,78.77,-2.5,135,8,6,2,Bench,2
2026-04-04T05:17:09.029Z,-0.0078,-0.9836,-0.195,0.0025,0.0331,0.0044,0.0006,-0.0018,-0.0051,44.33,78.77,-2.5,135,8,6,2,Bench,2
2026-04-04T05:17:09.038Z,-0.0087,-0.9846,-0.1953,0.004,0.0431,0.0093,0.0025,-0.0029,-0.0075,44.33,78.77,-2.5,135,8,6,2,Bench,2
2026-04-04T05:17:09.046Z,-0.0086,-0.9852,-0.1954,0.0024,0.0412,0.0114,0.0026,-0.0046,-0.0022,44.33,78.77,-2.5,135,8,6,2,Bench,2
2026-04-04T05:17:09.056Z,-0.0089,-0.985,-0.1959,0.0033,0.0418,0.0187,0.0027,-0.001,-0.0051,44.32,78.77,-2.49,135,8,6,2,Bench,2
2026-04-04T05:17:09.067Z,-0.0089,-0.9852,-0.1962,-0.001,0.0397,0.0129,0.0015,-0.0042,-0.0033,44.32,78.77,-2.49,135,8,6,2,Bench,2
2026-04-04T05:17:09.077Z,-0.0081,-0.9847,-0.196,-0.0066,0.0353,0.016,0.0045,-0.0014,-0.003,44.32,78.77,-2.49,135,8,6,2,Bench,2
2026-04-04T05:17:09.088Z,-0.0078,-0.9845,-0.1958,-0.0015,0.0388,0.018,0.002,-0.0018,-0.0027,44.32,78.77,-2.49,135,8,6,2,Bench,2
2026-04-04T05:17:09.097Z,-0.0082,-0.9849,-0.1966,0.0014,0.0405,0.0181,0.0021,-0.002,-0.0053,44.32,78.77,-2.49,135,8,6,2,Bench,2
2026-04-04T05:17:09.108Z,-0.0089,-0.9848,-0.1964,0.0028,0.0337,0.0114,0.0007,-0.0048,-0.0042,44.32,78.77,-2.49,135,8,6,2,Bench,2
2026-04-04T05:17:09.117Z,-0.0087,-0.9845,-0.1959,-0.0011,0.0388,0.0135,0.0038,-0.0034,-0.0044,44.32,78.77,-2.49,135,8,6,2,Bench,2
2026-04-04T05:17:09.127Z,-0.0083,-0.9848,-0.1959,0.0004,0.0406,0.0122,0.0037,-0.0029,-0.0065,44.32,78.77,-2.49,135,8,6,2,Bench,2
2026-04-04T05:17:09.142Z,-0.0084,-0.9849,-0.1957,-0.0058,0.0403,0.0096,0.0009,-0.0022,-0.0044,44.32,78.77,-2.49,135,8,6,2,Bench,2
2026-04-04T05:17:09.146Z,-0.0079,-0.9849,-0.1954,-0.0038,0.0392,0.0023,0.0009,-0.0022,-0.0044,44.32,78.77,-2.49,135,8,6,2,Bench,2
2026-04-04T05:17:09.156Z,-0.008,-0.9846,-0.195,-0.0054,0.045,0.0046,0.003,-0.0003,-0.0049,44.32,78.77,-2.49,135,8,6,2,Bench,2
2026-04-04T05:17:09.166Z,-0.008,-0.9856,-0.1951,0.0037,0.0388,0.0077,0.0012,-0.0013,-0.0046,44.32,78.77,-2.49,135,8,6,2,Bench,2
2026-04-04T05:17:09.178Z,-0.0088,-0.9846,-0.1955,-0.0087,0.0452,0.0112,0.0021,-0.0024,-0.0056,44.32,78.77,-2.49,135,8,6,2,Bench,2
2026-04-04T05:17:09.188Z,-0.0076,-0.9856,-0.1958,-0.0071,0.0424,0.0158,0.0025,-0.0016,-0.003,44.32,78.77,-2.49,135,8,6,2,Bench,2
2026-04-04T05:17:09.196Z,-0.008,-0.985,-0.1963,0.0023,0.0411,0.0115,0.0047,-0.0025,-0.0047,44.32,78.77,-2.49,135,8,6,2,Bench,2
2026-04-04T05:17:09.207Z,-0.0087,-0.9851,-0.1958,-0.0013,0.0509,0.0208,0.0035,-0.0017,-0.0041,44.32,78.77,-2.49,135,8,6,2,Bench,2
2026-04-04T05:17:09.216Z,-0.008,-0.986,-0.1967,-0.0037,0.0461,0.0169,0.0019,-0.002,-0.0044,44.32,78.77,-2.49,135,8,6,2,Bench,2
2026-04-04T05:17:09.226Z,-0.0082,-0.9854,-0.1964,-0.0036,0.0348,0.0084,0.0037,-0.0004,-0.0066,44.32,78.77,-2.49,135,8,6,2,Bench,2
2026-04-04T05:17:09.238Z,-0.008,-0.9844,-0.1953,-0.0062,0.0333,0.0128,0.0047,-0.0019,-0.0026,44.32,78.77,-2.49,135,8,6,2,Bench,2
2026-04-04T05:17:09.246Z,-0.0076,-0.9844,-0.1959,-0.0045,0.0399,0.018,0.0035,-0.0009,-0.0036,44.32,78.77,-2.49,135,8,6,2,Bench,2
2026-04-04T05:17:09.256Z,-0.0081,-0.985,-0.1966,-0.0084,0.0402,0.0151,0.0059,-0.0036,-0.0035,44.32,78.77,-2.49,135,8,6,2,Bench,2
2026-04-04T05:17:09.266Z,-0.0078,-0.9851,-0.1961,-0.0015,0.0443,0.0085,0.0038,0.0002,-0.0044,44.31,78.77,-2.49,135,8,6,2,Bench,2
2026-04-04T05:17:09.276Z,-0.0082,-0.9853,-0.1955,0.0041,0.0368,0.0131,0.0022,-0.0025,-0.0037,44.31,78.77,-2.49,135,8,6,2,Bench,2
2026-04-04T05:17:09.288Z,-0.0088,-0.9846,-0.196,-0.0054,0.0437,0.0051,0.001,-0.0028,-0.0038,44.31,78.77,-2.49,135,8,6,2,Bench,2
2026-04-04T05:17:09.296Z,-0.0081,-0.9854,-0.195,-0.0001,0.0442,0.0128,0.0037,-0.004,-0.0041,44.31,78.77,-2.49,135,8,6,2,Bench,2
2026-04-04T05:17:09.306Z,-0.0084,-0.9854,-0.1961,-0.0039,0.0464,0.0132,0.0035,-0.0006,-0.0027,44.31,78.77,-2.48,135,8,6,2,Bench,2
2026-04-04T05:17:09.316Z,-0.0081,-0.9854,-0.1958,-0.0075,0.0401,0.0065,0.0032,-0.0022,-0.0054,44.31,78.77,-2.48,135,8,6,2,Bench,2
2026-04-04T05:17:09.326Z,-0.0077,-0.9849,-0.1951,-0.0101,0.034,0.0071,0.0044,-0.0034,-0.0062,44.31,78.77,-2.48,135,8,6,2,Bench,2
2026-04-04T05:17:09.338Z,-0.0076,-0.9845,-0.1953,0.0044,0.0463,0.0091,0.0039,0.0005,-0.0056,44.31,78.77,-2.48,135,8,6,2,Bench,2
2026-04-04T05:17:09.346Z,-0.009,-0.9857,-0.1958,0.004,0.0501,0.0134,0.0058,-0.003,-0.0044,44.31,78.77,-2.48,135,8,6,2,Bench,2
2026-04-04T05:17:09.356Z,-0.0088,-0.9858,-0.196,0.0051,0.0423,0.0157,0.0028,-0.0003,-0.0032,44.31,78.77,-2.48,135,8,6,2,Bench,2
2026-04-04T05:17:09.366Z,-0.0088,-0.985,-0.1961,-0.0039,0.0396,0.0096,0.0043,-0.0017,-0.0032,44.31,78.77,-2.48,135,8,6,2,Bench,2
2026-04-04T05:17:09.376Z,-0.0082,-0.9849,-0.1956,-0.0007,0.0441,0.0168,0,-0.0016,-0.0056,44.3,78.77,-2.48,135,8,6,2,Bench,2
2026-04-04T05:17:09.387Z,-0.0082,-0.9854,-0.1963,-0.0033,0.039,0.0093,0.0057,-0.0036,-0.0046,44.3,78.77,-2.48,135,8,6,2,Bench,2
2026-04-04T05:17:09.397Z,-0.0082,-0.9848,-0.1954,0.0027,0.046,0.0189,0.0018,0.0002,-0.0035,44.3,78.77,-2.48,135,8,6,2,Bench,2
2026-04-04T05:17:09.409Z,-0.0087,-0.9855,-0.1965,-0.0013,0.0454,0.0094,0.0029,-0.0023,-0.0066,44.3,78.77,-2.47,135,8,6,2,Bench,2
2026-04-04T05:17:09.416Z,-0.0083,-0.9855,-0.1956,0.0026,0.0392,0.0135,0.0026,-0.0022,-0.003,44.3,78.77,-2.47,135,8,6,2,Bench,2
2026-04-04T05:17:09.426Z,-0.0086,-0.9849,-0.1959,0.0011,0.0413,0.0019,0.0021,-0.0033,-0.0039,44.3,78.77,-2.47,135,8,6,2,Bench,2
2026-04-04T05:17:09.438Z,-0.0085,-0.9853,-0.1948,-0.0097,0.045,0.0106,0.0035,-0.0016,-0.0045,44.3,78.77,-2.47,135,8,6,2,Bench,2
2026-04-04T05:17:09.446Z,-0.0074,-0.9853,-0.1956,-0.0059,0.0462,0.0079,0.0025,-0.0002,-0.0045,44.3,78.77,-2.47,135,8,6,2,Bench,2
2026-04-04T05:17:09.456Z,-0.0079,-0.9854,-0.1953,-0.0008,0.0449,0.0093,0.0034,-0.0028,-0.0045,44.3,78.77,-2.47,135,8,6,2,Bench,2
2026-04-04T05:17:09.466Z,-0.0081,-0.9852,-0.1954,-0.0077,0.0408,0.0076,0.003,-0.0018,-0.0044,44.3,78.77,-2.47,135,8,6,2,Bench,2
2026-04-04T05:17:09.476Z,-0.0077,-0.9852,-0.1953,-0.0024,0.044,0.0062,0.002,-0.0024,-0.0039,44.3,78.77,-2.47,135,8,6,2,Bench,2
2026-04-04T05:17:09.492Z,-0.0084,-0.9854,-0.1952,0.0053,0.0421,0.0076,0.0035,-0.0031,-0.0031,44.3,78.77,-2.47,135,8,6,2,Bench,2
2026-04-04T05:17:09.496Z,-0.0089,-0.9851,-0.1953,-0.0066,0.0371,0.0036,0.0035,-0.0031,-0.0031,44.3,78.77,-2.47,135,8,6,2,Bench,2
2026-04-04T05:17:09.506Z,-0.0077,-0.9845,-0.1953,-0.0059,0.0403,0.0134,0.0033,-0.0048,-0.0027,44.3,78.77,-2.47,135,8,6,2,Bench,2
2026-04-04T05:17:09.516Z,-0.0078,-0.9851,-0.1961,0.0004,0.0458,0.0107,0.0048,-0.0043,-0.004,44.3,78.77,-2.47,135,8,6,2,Bench,2
2026-04-04T05:17:09.526Z,-0.0083,-0.9854,-0.1958,-0.003,0.046,0.0134,-0.0004,-0.0014,-0.005,44.3,78.77,-2.47,135,8,6,2,Bench,2
2026-04-04T05:17:09.537Z,-0.0082,-0.9857,-0.1958,-0.0049,0.0446,0.0118,0.0013,-0.0003,-0.0047,44.3,78.77,-2.47,135,8,6,2,Bench,2
2026-04-04T05:17:09.546Z,-0.0078,-0.9853,-0.1957,-0.0037,0.0383,0.0094,0.0035,-0.0023,-0.0057,44.3,78.77,-2.47,135,8,6,2,Bench,2
2026-04-04T05:17:09.557Z,-0.0082,-0.9847,-0.1955,0.0051,0.0328,0.0017,0.0047,-0.0035,-0.0047,44.3,78.77,-2.47,135,8,6,2,Bench,2
2026-04-04T05:17:09.566Z,-0.009,-0.9842,-0.1949,-0.0093,0.0397,0.0121,0.0029,-0.0037,-0.0017,44.3,78.77,-2.47,135,8,6,2,Bench,2
2026-04-04T05:17:09.576Z,-0.0074,-0.9849,-0.1959,-0.0015,0.0417,0.0114,0.0059,-0.0019,-0.0038,44.3,78.77,-2.47,135,8,6,2,Bench,2
2026-04-04T05:17:09.587Z,-0.0082,-0.9853,-0.1958,-0.0007,0.0419,0.0203,0.0035,-0.0036,-0.0005,44.3,78.77,-2.47,135,8,6,2,Bench,2
2026-04-04T05:17:09.596Z,-0.0084,-0.9851,-0.1966,-0.0022,0.0476,0.0053,0.0024,-0.0038,-0.0043,44.3,78.77,-2.47,135,8,6,2,Bench,2
2026-04-04T05:17:09.606Z,-0.0083,-0.9857,-0.1951,-0.0035,0.0483,0.015,0.0038,-0.0043,-0.0048,44.3,78.77,-2.47,135,8,6,2,Bench,2
2026-04-04T05:17:09.619Z,-0.008,-0.9856,-0.196,-0.0004,0.0386,0.004,0.0018,-0.0029,-0.0032,44.3,78.77,-2.47,135,8,6,2,Bench,2
2026-04-04T05:17:09.626Z,-0.0085,-0.9847,-0.1948,-0.008,0.0422,0.0155,0.0031,-0.0017,-0.0016,44.3,78.77,-2.48,135,8,6,2,Bench,2
2026-04-04T05:17:09.637Z,-0.0075,-0.9849,-0.1959,-0.006,0.0353,0.0045,0.0028,-0.002,-0.0052,44.3,78.77,-2.48,135,8,6,2,Bench,2
2026-04-04T05:17:09.646Z,-0.0081,-0.9845,-0.1949,0.0062,0.0484,0.0108,0.0042,-0.0021,-0.0075,44.3,78.77,-2.48,135,8,6,2,Bench,2
2026-04-04T05:17:09.656Z,-0.009,-0.9858,-0.1959,0.0042,0.0412,0.0209,0.0029,-0.001,-0.0065,44.3,78.77,-2.48,135,8,6,2,Bench,2
2026-04-04T05:17:09.666Z,-0.0089,-0.9851,-0.1964,-0.0009,0.0426,0.0066,0.0026,0.0004,-0.0009,44.31,78.77,-2.48,135,8,6,2,Bench,2
2026-04-04T05:17:09.677Z,-0.0085,-0.9853,-0.1952,0.0005,0.0405,0.017,0.004,-0.0019,-0.0054,44.31,78.77,-2.48,135,8,6,2,Bench,2
2026-04-04T05:17:09.687Z,-0.0086,-0.9848,-0.1964,-0.0003,0.0354,0.019,0.0035,-0.0013,-0.005,44.3,78.77,-2.48,135,8,6,2,Bench,2
2026-04-04T05:17:09.696Z,-0.0082,-0.9845,-0.1963,-0.0077,0.0403,0.0072,0.0012,-0.002,-0.0048,44.3,78.77,-2.48,135,8,6,2,Bench,2
2026-04-04T05:17:09.706Z,-0.0077,-0.985,-0.1954,0.0013,0.0353,0.0036,0.0036,0.0013,-0.004,44.3,78.77,-2.48,135,8,6,2,Bench,2
2026-04-04T05:17:09.716Z,-0.0088,-0.9845,-0.195,0.0017,0.0422,0.0087,0.0017,-0.0019,-0.0038,44.3,78.77,-2.48,135,8,6,2,Bench,2
2026-04-04T05:17:09.726Z,-0.0086,-0.9849,-0.1954,0.0001,0.0394,0.0088,0.0037,-0.0029,-0.0052,44.3,78.77,-2.48,135,8,6,2,Bench,2
2026-04-04T05:17:09.737Z,-0.0084,-0.985,-0.1955,0.0009,0.0422,0.0185,0.0005,-0.0019,-0.0009,44.3,78.77,-2.48,135,8,6,2,Bench,2
2026-04-04T05:17:09.746Z,-0.0086,-0.9854,-0.1965,-0.0049,0.0387,0.0207,0.0024,-0.0013,-0.0053,44.3,78.77,-2.48,135,8,6,2,Bench,2
2026-04-04T05:17:09.756Z,-0.0078,-0.9846,-0.1964,-0.0032,0.042,0.0092,0.001,-0.003,-0.0034,44.3,78.77,-2.48,135,8,6,2,Bench,2
2026-04-04T05:17:09.766Z,-0.0083,-0.9854,-0.1956,0,0.0425,0.018,0.0016,-0.0045,-0.0043,44.3,78.77,-2.48,135,8,6,2,Bench,2
2026-04-04T05:17:09.776Z,-0.0084,-0.9849,-0.1962,-0.008,0.0325,0.0072,0.0035,-0.0021,-0.0036,44.3,78.77,-2.48,135,8,6,2,Bench,2
2026-04-04T05:17:09.787Z,-0.0077,-0.9842,-0.1956,-0.0044,0.0359,0.015,0.0016,-0.0018,-0.0034,44.3,78.77,-2.48,135,8,6,2,Bench,2
2026-04-04T05:17:09.796Z,-0.0081,-0.9846,-0.1966,-0.0059,0.0413,0.0197,0.0058,-0.0016,-0.0066,44.3,78.77,-2.48,135,8,6,2,Bench,2
2026-04-04T05:17:09.807Z,-0.0079,-0.9852,-0.1961,-0.0078,0.0461,-0.0029,0.001,-0.0023,-0.0051,44.3,78.77,-2.48,135,8,6,2,Bench,2
2026-04-04T05:17:09.816Z,-0.0079,-0.9853,-0.1947,0.0011,0.0365,0.0071,0.0033,-0.0032,-0.005,44.3,78.77,-2.48,135,8,6,2,Bench,2
2026-04-04T05:17:09.827Z,-0.0085,-0.9848,-0.1953,-0.0048,0.0502,-0.001,0.0031,-0.0006,-0.0046,44.3,78.77,-2.48,135,8,6,2,Bench,2
2026-04-04T05:17:09.840Z,-0.0079,-0.9861,-0.1947,0.0024,0.0367,0.0047,0.0018,-0.0048,-0.0037,44.3,78.77,-2.48,135,8,6,2,Bench,2
2026-04-04T05:17:09.846Z,-0.0086,-0.9845,-0.1948,-0.0018,0.0361,-0.0073,0.0018,-0.0048,-0.0037,44.3,78.77,-2.48,135,8,6,2,Bench,2
2026-04-04T05:17:09.856Z,-0.0083,-0.9847,-0.194,-0.0005,0.0504,0.011,0.0011,-0.002,-0.0012,44.3,78.77,-2.48,135,8,6,2,Bench,2
2026-04-04T05:17:09.866Z,-0.0084,-0.9857,-0.1961,-0.0023,0.0339,0.009,0.0032,-0.0007,-0.0051,44.3,78.77,-2.48,135,8,6,2,Bench,2
2026-04-04T05:17:09.878Z,-0.0081,-0.9842,-0.1953,-0.0056,0.0414,0.0064,0.003,-0.0052,-0.0049,44.3,78.77,-2.48,135,8,6,2,Bench,2
2026-04-04T05:17:09.887Z,-0.0079,-0.9849,-0.1954,-0.0057,0.0326,0.0156,-0.0001,-0.0026,-0.0059,44.3,78.77,-2.48,135,8,6,2,Bench,2
2026-04-04T05:17:09.896Z,-0.0079,-0.9842,-0.1965,0.0011,0.0433,0.0159,0.0043,-0.0026,-0.0041,44.3,78.77,-2.48,135,8,6,2,Bench,2
2026-04-04T05:17:09.906Z,-0.0085,-0.9852,-0.1963,-0.002,0.0341,0.0212,0.0019,-0.0014,-0.0037,44.3,78.77,-2.48,135,8,6,2,Bench,2
2026-04-04T05:17:09.916Z,-0.0084,-0.9844,-0.1965,-0.0019,0.0455,0.0135,0.0019,-0.0016,-0.0045,44.3,78.77,-2.48,135,8,6,2,Bench,2
2026-04-04T05:17:09.926Z,-0.0084,-0.9856,-0.1962,0.0022,0.0407,0.0191,0.0026,-0.0016,-0.0026,44.3,78.77,-2.48,135,8,6,2,Bench,2
2026-04-04T05:17:09.938Z,-0.0088,-0.9848,-0.1964,0.0001,0.0387,0.0014,0.0039,-0.0009,-0.0028,44.3,78.77,-2.48,135,8,6,2,Bench,2
2026-04-04T05:17:09.946Z,-0.0085,-0.9848,-0.1947,0.0035,0.0425,0.0122,0.0031,-0.0057,-0.0034,44.3,78.77,-2.48,135,8,6,2,Bench,2
2026-04-04T05:17:09.956Z,-0.0087,-0.9852,-0.1961,-0.0015,0.0437,0.0189,0.0013,-0.0044,-0.0032,44.3,78.77,-2.48,135,8,6,2,Bench,2
2026-04-04T05:17:09.966Z,-0.0083,-0.9852,-0.1964,0.0107,0.0409,0.007,0.0014,-0.002,-0.0061,44.3,78.77,-2.48,135,8,6,2,Bench,2
2026-04-04T05:17:09.976Z,-0.0094,-0.9851,-0.1953,0.0012,0.0421,0.0032,0.0025,-0.0034,-0.0038,44.3,78.77,-2.48,135,8,6,2,Bench,2
2026-04-04T05:17:09.991Z,-0.0083,-0.985,-0.1951,-0.0012,0.046,0.0093,0.0027,-0.0058,-0.0051,44.3,78.77,-2.48,135,8,6,2,Bench,2
2026-04-04T05:17:09.996Z,-0.0082,-0.9855,-0.1957,0.0048,0.0418,0.0126,0.0027,-0.0058,-0.0051,44.3,78.76,-2.48,135,8,6,2,Bench,2
2026-04-04T05:17:10.006Z,-0.0087,-0.9852,-0.1959,-0.0042,0.0372,0.0127,0.0023,-0.0044,-0.0035,44.3,78.76,-2.48,135,8,6,2,Bench,2
2026-04-04T05:17:10.017Z,-0.0079,-0.9847,-0.1959,-0.0057,0.0391,0.0162,0.0006,-0.0045,-0.0056,44.3,78.76,-2.48,135,8,6,2,Bench,2
2026-04-04T05:17:10.027Z,-0.0081,-0.9847,-0.1965,0.0028,0.0432,0.0069,0.0003,-0.0043,-0.0057,44.3,78.76,-2.48,135,8,6,2,Bench,2
2026-04-04T05:17:10.037Z,-0.0086,-0.9852,-0.1953,-0.0076,0.0362,-0.0036,0.0034,-0.0047,-0.0066,44.3,78.76,-2.48,135,8,6,2,Bench,2
2026-04-04T05:17:10.046Z,-0.0078,-0.9846,-0.1943,0.0021,0.0334,0.0071,0.003,-0.0038,-0.0033,44.3,78.76,-2.48,135,8,6,2,Bench,2
2026-04-04T05:17:10.056Z,-0.0085,-0.9843,-0.1957,-0.0043,0.0383,0.005,0.0039,-0.0024,-0.004,44.29,78.76,-2.47,135,8,6,2,Bench,2
2026-04-04T05:17:10.066Z,-0.0078,-0.9849,-0.1952,-0.0152,0.0458,-0.0009,0.0045,-0.0012,-0.0038,44.29,78.76,-2.47,135,8,6,2,Bench,2
2026-04-04T05:17:10.077Z,-0.007,-0.9854,-0.1949,-0.0006,0.0432,0.0129,0.0032,-0.0023,-0.0062,44.29,78.76,-2.47,135,8,6,2,Bench,2
2026-04-04T05:17:10.090Z,-0.0085,-0.9851,-0.1957,0.0014,0.0462,0.0052,0.0046,-0.004,-0.0043,44.29,78.76,-2.47,135,8,6,2,Bench,2
2026-04-04T05:17:10.096Z,-0.0083,-0.9854,-0.1954,-0.0076,0.0438,0.0161,0.0046,-0.004,-0.0043,44.29,78.76,-2.47,135,8,6,2,Bench,2
2026-04-04T05:17:10.106Z,-0.0078,-0.9852,-0.1962,-0.0025,0.0479,0.0068,0.0032,-0.0045,-0.004,44.29,78.76,-2.47,135,8,6,2,Bench,2
2026-04-04T05:17:10.117Z,-0.0082,-0.9855,-0.1951,-0.0027,0.0425,-0.0017,0.0021,-0.0006,-0.0055,44.28,78.76,-2.47,135,8,6,2,Bench,2
2026-04-04T05:17:10.126Z,-0.0081,-0.9851,-0.1948,-0.0057,0.0431,0.0095,0.0018,-0.004,-0.0055,44.28,78.76,-2.46,135,8,6,2,Bench,2
2026-04-04T05:17:10.137Z,-0.0076,-0.9854,-0.1952,-0.0065,0.0454,0.0052,0.0043,-0.0022,-0.0077,44.28,78.76,-2.46,135,8,6,2,Bench,2
2026-04-04T05:17:10.146Z,-0.0077,-0.9854,-0.1958,0.0071,0.043,0.012,0.0034,-0.0024,-0.0038,44.28,78.76,-2.46,135,8,6,2,Bench,2
2026-04-04T05:17:10.157Z,-0.0089,-0.9852,-0.1959,0.0006,0.0347,0.0094,0.0056,-0.0012,-0.0031,44.28,78.76,-2.46,135,8,6,2,Bench,2
2026-04-04T05:17:10.166Z,-0.0083,-0.9843,-0.1956,-0.0043,0.0529,0.0115,0.0029,-0.0023,-0.0013,44.28,78.76,-2.46,135,8,6,2,Bench,2
2026-04-04T05:17:10.176Z,-0.0079,-0.9864,-0.196,-0.0031,0.0417,0.013,0.0044,-0.0024,-0.0035,44.28,78.76,-2.46,135,8,6,2,Bench,2
2026-04-04T05:17:10.187Z,-0.0081,-0.9849,-0.1961,-0.003,0.0489,0.0055,0.0033,-0.0009,-0.004,44.28,78.77,-2.46,135,8,6,2,Bench,2
2026-04-04T05:17:10.196Z,-0.0082,-0.9855,-0.1951,0.0007,0.0229,0.0104,0.0021,-0.002,-0.004,44.28,78.77,-2.46,135,8,6,2,Bench,2
2026-04-04T05:17:10.206Z,-0.0084,-0.9833,-0.196,0.005,0.0496,0.014,0.0036,0.0004,-0.0041,44.28,78.77,-2.46,135,8,6,2,Bench,2
2026-04-04T05:17:10.216Z,-0.0089,-0.9857,-0.1959,0.0005,0.0334,0.0111,0.0041,-0.0008,-0.003,44.28,78.77,-2.46,135,8,6,2,Bench,2
2026-04-04T05:17:10.226Z,-0.0085,-0.9843,-0.1958,0.0079,0.0435,0.0155,0.0026,-0.0037,-0.0043,44.28,78.77,-2.46,135,8,6,2,Bench,2
2026-04-04T05:17:10.237Z,-0.0092,-0.9851,-0.1962,0.0006,0.0275,0.0243,0.0033,-0.0009,-0.0057,44.28,78.77,-2.46,135,8,6,2,Bench,2
2026-04-04T05:17:10.246Z,-0.0084,-0.9836,-0.1969,0.0018,0.035,0.013,0.0014,-0.0007,-0.0045,44.28,78.77,-2.46,135,8,6,2,Bench,2
2026-04-04T05:17:10.256Z,-0.0084,-0.9843,-0.1961,-0.0009,0.0363,0.0137,0.0079,0.0005,-0.004,44.28,78.77,-2.46,135,8,6,2,Bench,2
2026-04-04T05:17:10.266Z,-0.0083,-0.9849,-0.1958,-0.0012,0.0383,0.0037,0.0018,-0.0048,-0.0046,44.28,78.77,-2.46,135,8,6,2,Bench,2
2026-04-04T05:17:10.276Z,-0.0084,-0.9848,-0.1949,-0.0034,0.0447,0.0007,0.0007,-0.0044,-0.0053,44.28,78.77,-2.46,135,8,6,2,Bench,2
2026-04-04T05:17:10.289Z,-0.008,-0.9855,-0.195,0.0023,0.0399,0.0136,0.0039,-0.0028,-0.003,44.28,78.77,-2.46,135,8,6,2,Bench,2
2026-04-04T05:17:10.296Z,-0.0086,-0.9848,-0.1961,-0.0046,0.0433,0.0136,0.0039,-0.0028,-0.003,44.28,78.77,-2.46,135,8,6,2,Bench,2
2026-04-04T05:17:10.306Z,-0.0079,-0.9852,-0.1957,-0.0046,0.0359,0.009,0.0052,-0.0012,-0.002,44.28,78.77,-2.46,135,8,6,2,Bench,2
2026-04-04T05:17:10.316Z,-0.008,-0.9845,-0.1953,0.0046,0.047,0.0011,0.0016,-0.0019,-0.0032,44.28,78.77,-2.46,135,8,6,2,Bench,2
2026-04-04T05:17:10.326Z,-0.0089,-0.9855,-0.195,-0.0003,0.0459,0.0068,0.0036,0.0005,-0.0054,44.28,78.77,-2.46,135,8,6,2,Bench,2
2026-04-04T05:17:10.339Z,-0.0082,-0.9855,-0.1951,-0.0089,0.0422,0.0048,0.0005,-0.0013,-0.0033,44.28,78.77,-2.46,135,8,6,2,Bench,2
2026-04-04T05:17:10.346Z,-0.0074,-0.9849,-0.1954,-0.0063,0.0443,0.0121,0.0005,-0.0013,-0.0033,44.28,78.77,-2.46,135,8,6,2,Bench,2
2026-04-04T05:17:10.356Z,-0.0079,-0.9853,-0.1957,0.0086,0.034,-0.001,0.0012,0.0005,-0.0029,44.28,78.77,-2.46,135,8,6,2,Bench,2
2026-04-04T05:17:10.366Z,-0.0094,-0.9845,-0.1943,-0.0035,0.0442,0.0074,0.0003,-0.0047,-0.0055,44.28,78.77,-2.46,135,8,6,2,Bench,2
2026-04-04T05:17:10.376Z,-0.0078,-0.9854,-0.1955,-0.0089,0.0319,0.0123,0.003,-0.0039,-0.0027,44.28,78.77,-2.46,135,8,6,2,Bench,2
2026-04-04T05:17:10.389Z,-0.0078,-0.9841,-0.1958,0.001,0.043,0.0146,0.0041,-0.001,-0.0038,44.28,78.77,-2.46,135,8,6,2,Bench,2
2026-04-04T05:17:10.396Z,-0.0086,-0.9851,-0.1962,0.0049,0.0403,0.0145,0.0041,-0.001,-0.0038,44.29,78.77,-2.46,135,8,6,2,Bench,2
2026-04-04T05:17:10.408Z,-0.0086,-0.9852,-0.196,-0.008,0.0445,0.0048,0.0053,-0.0005,-0.0035,44.29,78.77,-2.46,135,8,6,2,Bench,2
2026-04-04T05:17:10.416Z,-0.0075,-0.9854,-0.1951,-0.0107,0.0434,0.0146,0.0019,-0.0026,-0.0031,44.29,78.77,-2.46,135,8,6,2,Bench,2
2026-04-04T05:17:10.426Z,-0.0074,-0.9856,-0.1957,-0.0037,0.046,0.0107,0.0015,0.0004,-0.0041,44.29,78.77,-2.46,135,8,6,2,Bench,2
2026-04-04T05:17:10.440Z,-0.008,-0.9853,-0.1959,0.0012,0.0382,0.0093,0.002,-0.0029,-0.0067,44.29,78.77,-2.47,135,8,6,2,Bench,2
2026-04-04T05:17:10.446Z,-0.0085,-0.9851,-0.1954,0.0049,0.0486,0.018,0.002,-0.0029,-0.0067,44.29,78.77,-2.47,135,8,6,2,Bench,2
2026-04-04T05:17:10.456Z,-0.0089,-0.9857,-0.1964,-0.0007,0.0471,0.0167,0.0012,-0.0031,-0.0029,44.29,78.77,-2.47,135,8,6,2,Bench,2
2026-04-04T05:17:10.466Z,-0.0083,-0.9856,-0.1967,-0.0055,0.0326,0.0089,0.0001,-0.0048,-0.0052,44.29,78.77,-2.47,135,8,6,2,Bench,2
2026-04-04T05:17:10.476Z,-0.0079,-0.9841,-0.1952,-0.0068,0.0429,0.0073,0.0034,-0.0013,-0.0027,44.29,78.77,-2.47,135,8,6,2,Bench,2
2026-04-04T05:17:10.489Z,-0.0083,-0.9857,-0.1948,-0.0016,0.0484,0.0016,0.0028,-0.0041,-0.005,44.29,78.77,-2.47,135,8,6,2,Bench,2
2026-04-04T05:17:10.496Z,-0.0083,-0.9857,-0.1948,0.0054,0.0471,0.0085,0.0021,-0.0004,-0.0059,44.29,78.77,-2.47,135,8,6,2,Bench,2
2026-04-04T05:17:10.510Z,-0.0092,-0.9854,-0.1956,0.0089,0.0399,0.011,0.0059,-0.0023,-0.0059,44.29,78.77,-2.47,135,8,6,2,Bench,2
2026-04-04T05:17:10.516Z,-0.0094,-0.9848,-0.1958,0.0075,0.042,0.0094,0.0059,-0.0023,-0.0059,44.29,78.77,-2.47,135,8,6,2,Bench,2
2026-04-04T05:17:10.526Z,-0.009,-0.9852,-0.1953,0.0053,0.0501,0.0001,-0.0003,-0.0041,-0.003,44.29,78.77,-2.47,135,8,6,2,Bench,2
2026-04-04T05:17:10.538Z,-0.009,-0.9856,-0.1952,0.0037,0.0329,0.016,0.0015,-0.0017,-0.0022,44.29,78.77,-2.47,135,8,6,2,Bench,2
2026-04-04T05:17:10.546Z,-0.0087,-0.9846,-0.196,-0.0077,0.0314,0.017,0.0015,-0.0017,-0.0022,44.29,78.77,-2.47,135,8,6,2,Bench,2
2026-04-04T05:17:10.560Z,-0.0078,-0.9841,-0.1963,-0.0007,0.0443,0.0074,0.0018,-0.0059,-0.0041,44.29,78.77,-2.47,135,8,6,2,Bench,2
2026-04-04T05:17:10.566Z,-0.0083,-0.9852,-0.1959,-0.0075,0.0527,0.0025,0.0018,-0.0059,-0.0041,44.29,78.77,-2.47,135,8,6,2,Bench,2
2026-04-04T05:17:10.576Z,-0.0079,-0.9865,-0.1945,0.0046,0.0453,0.0031,0.0033,-0.0034,-0.0019,44.29,78.77,-2.47,135,8,6,2,Bench,2
2026-04-04T05:17:10.589Z,-0.0089,-0.9852,-0.1951,0.0038,0.0399,0.0078,0.0021,-0.0006,-0.004,44.3,78.76,-2.47,135,8,6,2,Bench,2
2026-04-04T05:17:10.596Z,-0.0088,-0.9851,-0.1958,-0.0048,0.0477,0.0072,0.0021,-0.0006,-0.004,44.3,78.76,-2.47,135,8,6,2,Bench,2
2026-04-04T05:17:10.606Z,-0.0077,-0.9853,-0.1949,-0.0078,0.0339,-0.0041,0.0031,-0.0033,-0.0053,44.3,78.76,-2.47,135,8,6,2,Bench,2
2026-04-04T05:17:10.616Z,-0.0077,-0.9845,-0.1947,0.0022,0.0517,0.0021,0.0021,-0.0025,-0.0048,44.3,78.76,-2.47,135,8,6,2,Bench,2
2026-04-04T05:17:10.626Z,-0.0085,-0.9859,-0.1949,0.0002,0.0223,0.0116,0.0048,-0.0032,-0.003,44.3,78.76,-2.48,135,8,6,2,Bench,2
2026-04-04T05:17:10.639Z,-0.0085,-0.9837,-0.1954,-0.0003,0.0511,0.0245,0.0017,-0.001,-0.0027,44.3,78.76,-2.48,135,8,6,2,Bench,2
2026-04-04T05:17:10.646Z,-0.0084,-0.9857,-0.1977,0.0056,0.0357,-0.0034,0.0017,-0.001,-0.0027,44.3,78.76,-2.48,135,8,6,2,Bench,2
2026-04-04T05:17:10.656Z,-0.0089,-0.9842,-0.1947,-0.004,0.0376,0.0143,0.005,-0.0017,-0.006,44.3,78.76,-2.48,135,8,6,2,Bench,2
2026-04-04T05:17:10.666Z,-0.0079,-0.9846,-0.1953,-0.0032,0.0282,0.0247,0.0018,-0.0035,-0.0055,44.3,78.76,-2.48,135,8,6,2,Bench,2
2026-04-04T05:17:10.678Z,-0.008,-0.9843,-0.1977,-0.0105,0.0581,-0.0006,0.0033,0.0003,-0.006,44.3,78.76,-2.48,135,8,6,2,Bench,2
2026-04-04T05:17:10.689Z,-0.0075,-0.9862,-0.1951,0.0057,0.0369,0.0205,0.0076,-0.0036,-0.0057,44.3,78.76,-2.48,135,8,6,2,Bench,2
2026-04-04T05:17:10.696Z,-0.0089,-0.9843,-0.1962,0.0063,0.0292,0.0079,0.0076,-0.0036,-0.0057,44.3,78.76,-2.48,135,8,6,2,Bench,2
2026-04-04T05:17:10.706Z,-0.0089,-0.9842,-0.1955,0.0041,0.0306,0.0111,0.0029,-0.0021,-0.004,44.3,78.76,-2.48,135,8,6,2,Bench,2
2026-04-04T05:17:10.716Z,-0.0088,-0.984,-0.1957,-0.001,0.0571,0.0082,-0.0025,-0.0026,-0.001,44.3,78.76,-2.48,135,8,6,2,Bench,2
2026-04-04T05:17:10.728Z,-0.0083,-0.986,-0.1964,-0.0035,0.0427,0.0106,0.0045,-0.0052,-0.0043,44.3,78.76,-2.48,135,8,6,2,Bench,2
2026-04-04T05:17:10.740Z,-0.0078,-0.9858,-0.1953,-0.0102,0.0238,0.0267,-0.0011,-0.0003,-0.0023,44.3,78.76,-2.48,135,8,6,2,Bench,2
2026-04-04T05:17:10.746Z,-0.0076,-0.9829,-0.197,0,0.0619,0.0123,-0.0011,-0.0003,-0.0023,44.3,78.76,-2.48,135,8,6,2,Bench,2
2026-04-04T05:17:10.758Z,-0.0085,-0.9875,-0.1965,0.0041,0.0296,0.0005,0.0044,-0.0032,-0.004,44.3,78.76,-2.48,135,8,6,2,Bench,2
2026-04-04T05:17:10.766Z,-0.009,-0.9835,-0.1948,-0.0001,0.0345,0.0255,0.0044,-0.0032,-0.004,44.3,78.76,-2.48,135,8,6,2,Bench,2
2026-04-04T05:17:10.778Z,-0.0087,-0.9844,-0.197,-0.0024,0.0281,0.0184,0.0048,-0.0007,-0.0051,44.3,78.76,-2.48,135,8,6,2,Bench,2
2026-04-04T05:17:10.789Z,-0.0081,-0.9835,-0.1969,-0.0013,0.0504,-0.0068,0.0053,-0.0031,-0.0046,44.3,78.76,-2.48,135,8,6,2,Bench,2
2026-04-04T05:17:10.796Z,-0.0083,-0.9862,-0.1936,-0.0015,0.0286,0.0095,0.0053,-0.0031,-0.0046,44.3,78.76,-2.48,135,8,6,2,Bench,2
2026-04-04T05:17:10.808Z,-0.0081,-0.9836,-0.1954,-0.0004,0.0365,0.0022,0.0035,-0.0035,-0.0042,44.3,78.76,-2.48,135,8,6,2,Bench,2
2026-04-04T05:17:10.818Z,-0.0084,-0.9847,-0.1952,0.0093,0.0443,0.0179,0.0019,-0.0003,-0.0035,44.3,78.76,-2.48,135,8,6,2,Bench,2
2026-04-04T05:17:10.826Z,-0.0095,-0.9858,-0.1964,0.0123,0.0465,0.0123,0.0019,-0.0003,-0.0035,44.3,78.76,-2.47,135,8,6,2,Bench,2
2026-04-04T05:17:10.838Z,-0.0096,-0.9852,-0.1958,0.0044,0.0241,0.0066,0.0025,-0.0023,-0.004,44.3,78.76,-2.47,135,8,6,2,Bench,2
2026-04-04T05:17:10.846Z,-0.0087,-0.9836,-0.1954,-0.0041,0.0436,0.0121,0.0025,-0.0023,-0.004,44.3,78.76,-2.47,135,8,6,2,Bench,2
2026-04-04T05:17:10.859Z,-0.007,-0.9859,-0.1942,-0.0142,0.0467,-0.0033,0.0036,0.0012,-0.0033,44.3,78.76,-2.47,135,8,6,2,Bench,2
2026-04-04T05:17:10.866Z,-0.007,-0.9859,-0.1942,-0.0049,0.0449,0.0042,0.0036,0.0012,-0.0033,44.3,78.76,-2.47,135,8,6,2,Bench,2
2026-04-04T05:17:10.878Z,-0.008,-0.9849,-0.1956,-0.0019,0.0464,0.0236,0.004,-0.0033,-0.0027,44.3,78.76,-2.47,135,8,6,2,Bench,2
2026-04-04T05:17:10.889Z,-0.0083,-0.9858,-0.1966,0.0007,0.0418,0.0142,0.0021,-0.0007,-0.0039,44.3,78.76,-2.47,135,8,6,2,Bench,2
2026-04-04T05:17:10.896Z,-0.0084,-0.9848,-0.1963,-0.0046,0.0458,0.0122,0.0021,-0.0007,-0.0039,44.3,78.76,-2.47,135,8,6,2,Bench,2
2026-04-04T05:17:10.909Z,-0.0077,-0.9847,-0.195,-0.0071,0.0397,0.0036,0.0021,-0.0029,-0.0038,44.3,78.76,-2.47,135,8,6,2,Bench,2
2026-04-04T05:17:10.919Z,-0.0077,-0.9847,-0.195,-0.0006,0.0354,0.0089,0.0029,0.0011,-0.0058,44.3,78.76,-2.47,135,8,6,2,Bench,2
2026-04-04T05:17:10.926Z,-0.0084,-0.9842,-0.1957,-0.0055,0.0405,0.0061,0.0029,0.0011,-0.0058,44.3,78.76,-2.47,135,8,6,2,Bench,2
2026-04-04T05:17:10.939Z,-0.0077,-0.9852,-0.1953,-0.0005,0.0552,0.0086,0.0021,-0.0032,-0.0065,44.3,78.76,-2.47,135,8,6,2,Bench,2
2026-04-04T05:17:10.948Z,-0.0086,-0.9863,-0.1957,0.0036,0.0449,0.0057,0.003,-0.0014,-0.0039,44.3,78.76,-2.47,135,8,6,2,Bench,2
2026-04-04T05:17:10.959Z,-0.0087,-0.9848,-0.1962,0.0032,0.038,0.0145,0.0019,-0.0034,-0.0047,44.3,78.76,-2.47,135,8,6,2,Bench,2
2026-04-04T05:17:10.967Z,-0.0087,-0.9848,-0.1962,-0.0131,0.0469,0.0028,0.0037,-0.0017,-0.004,44.29,78.76,-2.47,135,8,6,2,Bench,2
2026-04-04T05:17:10.977Z,-0.007,-0.9857,-0.1948,-0.0043,0.0405,0.0095,0.0007,-0.0035,-0.0041,44.29,78.76,-2.47,135,8,6,2,Bench,2
2026-04-04T05:17:10.989Z,-0.0082,-0.9848,-0.1959,0.0007,0.0406,0.0089,0.0027,-0.0022,-0.0044,44.29,78.76,-2.47,135,8,6,2,Bench,2
2026-04-04T05:17:10.998Z,-0.0085,-0.9852,-0.1952,-0.0001,0.0489,0.0019,0.0037,-0.0059,-0.0036,44.29,78.76,-2.47,135,8,6,2,Bench,2
2026-04-04T05:17:11.009Z,-0.0083,-0.9847,-0.1955,-0.0006,0.0404,0.008,0.0036,-0.0034,-0.0048,44.29,78.76,-2.47,135,8,6,2,Bench,2
2026-04-04T05:17:11.018Z,-0.0083,-0.9847,-0.1955,-0.0035,0.0393,0.0049,0.0022,-0.002,-0.0083,44.29,78.76,-2.47,135,8,6,2,Bench,2
2026-04-04T05:17:11.027Z,-0.008,-0.9853,-0.1952,0.0031,0.0441,0.0033,0.002,-0.0038,-0.0048,44.29,78.76,-2.47,135,8,6,2,Bench,2
2026-04-04T05:17:11.038Z,-0.0085,-0.9852,-0.195,-0.0063,0.0431,0.0085,0.0046,-0.0041,-0.0045,44.29,78.77,-2.46,135,8,6,2,Bench,2
2026-04-04T05:17:11.047Z,-0.0076,-0.9853,-0.196,-0.0005,0.0364,0.0195,0.0019,-0.0025,-0.0043,44.29,78.77,-2.46,135,8,6,2,Bench,2
2026-04-04T05:17:11.059Z,-0.0072,-0.9858,-0.1966,-0.0111,0.0528,0.0109,0.0034,-0.0017,-0.005,44.29,78.77,-2.46,135,8,6,2,Bench,2
2026-04-04T05:17:11.067Z,-0.0072,-0.9858,-0.1966,0.0002,0.047,0.0093,0.0028,-0.0017,-0.0062,44.29,78.77,-2.46,135,8,6,2,Bench,2
2026-04-04T05:17:11.076Z,-0.0085,-0.9858,-0.1951,0.0058,0.0311,0.0057,0.0028,-0.0017,-0.0062,44.29,78.77,-2.46,135,8,6,2,Bench,2
2026-04-04T05:17:11.088Z,-0.0092,-0.9841,-0.1949,0.0058,0.0389,0.0175,0.0044,-0.0012,-0.0058,44.29,78.77,-2.46,135,8,6,2,Bench,2
2026-04-04T05:17:11.097Z,-0.0086,-0.9846,-0.1969,-0.0045,0.0497,-0.0127,0.003,-0.0007,-0.0047,44.28,78.77,-2.46,135,8,6,2,Bench,2
2026-04-04T05:17:11.109Z,-0.0086,-0.9842,-0.197,-0.0013,0.0359,0.0262,-0.0003,-0.0012,-0.0028,44.28,78.77,-2.46,135,8,6,2,Bench,2
2026-04-04T05:17:11.118Z,-0.0086,-0.9842,-0.197,0.0085,0.0585,-0.0028,0.0018,-0.0038,-0.0042,44.28,78.76,-2.45,135,8,6,2,Bench,2
2026-04-04T05:17:11.127Z,-0.0091,-0.9867,-0.1949,0.0062,0.053,0.0037,0.0026,-0.002,-0.0041,44.28,78.76,-2.45,135,8,6,2,Bench,2
2026-04-04T05:17:11.138Z,-0.0089,-0.9864,-0.1944,0.002,0.036,0.0102,0.003,-0.0017,-0.0036,44.28,78.76,-2.45,135,8,6,2,Bench,2
2026-04-04T05:17:11.147Z,-0.0077,-0.9874,-0.1946,-0.0048,0.0638,-0.0014,0.003,-0.0017,-0.0036,44.27,78.76,-2.45,135,8,6,2,Bench,2
2026-04-04T05:17:11.159Z,-0.0092,-0.9842,-0.1956,0.0059,0.0309,0.0135,0.0016,-0.0026,-0.0066,44.27,78.76,-2.45,135,8,6,2,Bench,2
2026-04-04T05:17:11.167Z,-0.0092,-0.9842,-0.1956,0.0058,0.0341,0.0284,-0.0004,-0.0037,-0.0035,44.27,78.76,-2.45,135,8,6,2,Bench,2
2026-04-04T05:17:11.177Z,-0.0089,-0.9836,-0.1977,0.0058,0.0379,-0.0099,0.0042,-0.0015,-0.0056,44.27,78.76,-2.44,135,8,6,2,Bench,2
2026-04-04T05:17:11.189Z,-0.0086,-0.9854,-0.1939,-0.0005,0.0505,0.0114,0.0052,-0.0034,-0.0054,44.27,78.76,-2.44,135,8,6,2,Bench,2
2026-04-04T05:17:11.197Z,-0.0082,-0.9864,-0.1958,-0.0013,0.0508,0.0239,0.0012,-0.0006,-0.0033,44.27,78.76,-2.44,135,8,6,2,Bench,2
2026-04-04T05:17:11.205Z,-0.0081,-0.9857,-0.1972,-0.0003,0.0375,0.0096,0.0012,-0.0006,-0.0033,44.27,78.76,-2.44,135,8,6,2,Bench,2
2026-04-04T05:17:11.217Z,-0.008,-0.9845,-0.196,0.004,0.0429,-0.0047,0.0035,-0.0018,-0.0028,44.27,78.76,-2.44,135,8,6,2,Bench,2
2026-04-04T05:17:11.227Z,-0.0081,-0.9832,-0.1982,-0.0024,0.0267,0.032,0.0035,-0.0018,-0.0028,44.27,78.76,-2.44,135,8,6,2,Bench,2
2026-04-04T05:17:11.239Z,-0.0081,-0.9832,-0.1982,-0.0084,0.039,0.0084,0.0021,-0.0036,-0.0023,44.27,78.76,-2.44,135,8,6,2,Bench,2
2026-04-04T05:17:11.247Z,-0.0076,-0.9849,-0.1958,-0.0049,0.0387,0.0139,0.0041,-0.005,-0.0036,44.27,78.76,-2.44,135,8,6,2,Bench,2
2026-04-04T05:17:11.259Z,-0.0073,-0.9858,-0.196,-0.0092,0.0453,0.0142,0.0009,-0.0001,-0.0046,44.27,78.76,-2.44,135,8,6,2,Bench,2
2026-04-04T05:17:11.267Z,-0.0073,-0.9858,-0.196,0,0.0638,0.003,0.0037,-0.0016,-0.0043,44.27,78.76,-2.44,135,8,6,2,Bench,2
2026-04-04T05:17:11.277Z,-0.0084,-0.9868,-0.1954,0.0069,0.0334,0.0125,0.0007,-0.0033,-0.0047,44.27,78.76,-2.44,135,8,6,2,Bench,2
2026-04-04T05:17:11.290Z,-0.009,-0.9843,-0.1959,0.0002,0.0361,0.0085,0.0017,-0.0003,-0.004,44.27,78.76,-2.44,135,8,6,2,Bench,2
2026-04-04T05:17:11.297Z,-0.0083,-0.9843,-0.1958,-0.003,0.0424,-0.0004,0.0021,-0.0023,-0.0062,44.27,78.76,-2.44,135,8,6,2,Bench,2
2026-04-04T05:17:11.308Z,-0.0076,-0.9849,-0.196,-0.0052,0.0393,0.0091,0.0009,-0.0029,-0.0059,44.27,78.76,-2.44,135,8,6,2,Bench,2
2026-04-04T05:17:11.318Z,-0.0076,-0.9849,-0.196,-0.0121,0.0412,0.0177,0.0031,-0.0019,-0.0047,44.27,78.76,-2.44,135,8,6,2,Bench,2
2026-04-04T05:17:11.327Z,-0.0072,-0.9848,-0.1967,0.0052,0.0417,0.0044,-0.0003,0.0002,-0.0046,44.27,78.76,-2.44,135,8,6,2,Bench,2
2026-04-04T05:17:11.341Z,-0.0085,-0.9857,-0.1955,0.0046,0.0495,0.0041,0.004,-0.0022,-0.0022,44.27,78.76,-2.44,135,8,6,2,Bench,2
2026-04-04T05:17:11.347Z,-0.0085,-0.9857,-0.1955,-0.0053,0.0387,0.0062,0.0017,0.0011,-0.0021,44.27,78.76,-2.44,135,8,6,2,Bench,2
2026-04-04T05:17:11.358Z,-0.0079,-0.9844,-0.1969,-0.0038,0.037,0.0226,0.0041,-0.001,-0.0045,44.27,78.76,-2.44,135,8,6,2,Bench,2
2026-04-04T05:17:11.367Z,-0.0079,-0.9844,-0.1969,-0.0023,0.0394,0.01,0.0019,-0.0004,-0.0055,44.27,78.76,-2.44,135,8,6,2,Bench,2
2026-04-04T05:17:11.377Z,-0.0078,-0.9851,-0.1958,-0.0079,0.0483,0.0107,0.0023,-0.0039,-0.0059,44.27,78.76,-2.44,135,8,6,2,Bench,2
2026-04-04T05:17:11.389Z,-0.0075,-0.9856,-0.1958,0.0023,0.0387,0.0136,-0.001,-0.0037,-0.0026,44.27,78.76,-2.44,135,8,6,2,Bench,2
2026-04-04T05:17:11.397Z,-0.0087,-0.9846,-0.1961,0.0065,0.0381,0.0033,0.0033,-0.0032,-0.0049,44.27,78.76,-2.44,135,8,6,2,Bench,2
2026-04-04T05:17:11.408Z,-0.0087,-0.9849,-0.1961,0.0015,0.0393,0.0147,0.0043,-0.0011,-0.0029,44.27,78.76,-2.44,135,8,6,2,Bench,2
2026-04-04T05:17:11.416Z,-0.0087,-0.9849,-0.1961,0.0063,0.041,0.013,0.0041,-0.0014,-0.005,44.27,78.76,-2.44,135,8,6,2,Bench,2
2026-04-04T05:17:11.427Z,-0.0087,-0.9849,-0.196,-0.0019,0.0353,0.0143,0.0028,-0.0017,-0.002,44.27,78.76,-2.44,135,8,6,2,Bench,2
2026-04-04T05:17:11.442Z,-0.009,-0.9843,-0.1952,0.0072,0.033,0.0043,0.0035,-0.0021,-0.005,44.27,78.76,-2.44,135,8,6,2,Bench,2
2026-04-04T05:17:11.447Z,-0.009,-0.9843,-0.1952,-0.0008,0.0453,-0.0009,0.0055,-0.0013,-0.0056,44.27,78.76,-2.44,135,8,6,2,Bench,2
2026-04-04T05:17:11.458Z,-0.0088,-0.9846,-0.1944,0.0017,0.037,-0.0031,0.0016,-0.0009,-0.0054,44.27,78.76,-2.44,135,8,6,2,Bench,2
2026-04-04T05:17:11.468Z,-0.0088,-0.9846,-0.1944,0.0103,0.0357,0.0043,0.0043,0.0011,-0.0017,44.27,78.76,-2.44,135,8,6,2,Bench,2
2026-04-04T05:17:11.477Z,-0.0092,-0.9844,-0.1956,0.0022,0.0414,0.0144,0.0028,-0.0034,-0.0028,44.27,78.76,-2.44,135,8,6,2,Bench,2
2026-04-04T05:17:11.490Z,-0.0096,-0.9856,-0.196,0.0114,0.0451,0.0136,0.0038,-0.0043,-0.0029,44.27,78.76,-2.44,135,8,6,2,Bench,2
2026-04-04T05:17:11.496Z,-0.0096,-0.9856,-0.196,0.0122,0.0441,0.0028,0.0023,-0.0009,-0.0032,44.27,78.76,-2.44,135,8,6,2,Bench,2
2026-04-04T05:17:11.508Z,-0.0086,-0.9841,-0.1967,0.0033,0.0315,0.0142,0.0074,-0.0017,-0.0043,44.27,78.76,-2.44,135,8,6,2,Bench,2
2026-04-04T05:17:11.517Z,-0.0086,-0.9841,-0.1967,-0.0016,0.0382,0.0052,0.0016,-0.0012,-0.004,44.27,78.76,-2.44,135,8,6,2,Bench,2
2026-04-04T05:17:11.528Z,-0.0081,-0.9844,-0.1968,-0.0025,0.034,0.0052,0.0018,-0.003,-0.0037,44.27,78.76,-2.44,135,8,6,2,Bench,2
2026-04-04T05:17:11.540Z,-0.0091,-0.9857,-0.1952,0.0069,0.0479,0.01,0.0043,-0.0062,-0.0061,44.28,78.76,-2.44,135,8,6,2,Bench,2
2026-04-04T05:17:11.546Z,-0.0091,-0.9857,-0.1952,-0.0043,0.021,0.0339,0.0052,-0.0016,-0.0034,44.28,78.76,-2.44,135,8,6,2,Bench,2
2026-04-04T05:17:11.558Z,-0.0073,-0.986,-0.194,-0.0129,0.044,0.0019,-0.0034,-0.0032,-0.0033,44.28,78.76,-2.45,135,8,6,2,Bench,2
2026-04-04T05:17:11.567Z,-0.0073,-0.986,-0.194,-0.0014,0.0586,-0.01,0.0048,-0.0044,-0.0026,44.28,78.76,-2.45,135,8,6,2,Bench,2
2026-04-04T05:17:11.576Z,-0.0081,-0.986,-0.195,0.004,0.0313,0.0418,0.0055,-0.003,-0.0041,44.28,78.76,-2.45,135,8,6,2,Bench,2
2026-04-04T05:17:11.590Z,-0.0075,-0.9828,-0.1958,-0.0053,0.018,0.009,0.0037,-0.0035,-0.0046,44.28,78.76,-2.45,135,8,6,2,Bench,2
2026-04-04T05:17:11.596Z,-0.0075,-0.9828,-0.1958,-0.009,0.0543,0.0025,0.003,-0.0048,-0.0036,44.28,78.76,-2.45,135,8,6,2,Bench,2
2026-04-04T05:17:11.609Z,-0.0085,-0.9837,-0.1941,0.0017,0.0256,-0.003,0.0022,-0.0033,-0.0055,44.28,78.76,-2.45,135,8,6,2,Bench,2
2026-04-04T05:17:11.616Z,-0.0085,-0.9837,-0.1941,0.004,0.0481,0.0179,0.0059,0.0002,-0.0037,44.28,78.76,-2.45,135,8,6,2,Bench,2
2026-04-04T05:17:11.626Z,-0.0085,-0.9855,-0.1975,-0.0085,0.0323,0.013,0.0019,-0.005,-0.0049,44.28,78.76,-2.45,135,8,6,2,Bench,2
2026-04-04T05:17:11.641Z,-0.008,-0.9856,-0.1958,-0.0052,0.0478,0.0067,-0.0036,-0.0021,-0.007,44.28,78.76,-2.45,135,8,6,2,Bench,2
2026-04-04T05:17:11.646Z,-0.008,-0.9856,-0.1958,-0.0032,0.0517,-0.0092,0.0012,-0.004,-0.0057,44.28,78.76,-2.45,135,8,6,2,Bench,2
2026-04-04T05:17:11.658Z,-0.0084,-0.9844,-0.1963,0.0019,0.0351,0.0143,0.004,-0.0043,-0.0035,44.28,78.76,-2.45,135,8,6,2,Bench,2
2026-04-04T05:17:11.667Z,-0.008,-0.9845,-0.1971,-0.0018,0.0412,0.0256,0.0035,-0.0024,-0.0049,44.28,78.76,-2.45,135,8,6,2,Bench,2
2026-04-04T05:17:11.678Z,-0.0084,-0.9847,-0.1974,0.002,0.0343,0.0178,0.0048,0.0002,-0.0037,44.28,78.76,-2.45,135,8,6,2,Bench,2
2026-04-04T05:17:11.690Z,-0.008,-0.9851,-0.1947,-0.0028,0.0444,0.0061,0.004,-0.0014,-0.0012,44.28,78.76,-2.45,135,8,6,2,Bench,2
2026-04-04T05:17:11.696Z,-0.008,-0.9851,-0.1947,-0.0022,0.0418,0.0122,0.0011,-0.0022,-0.0045,44.28,78.76,-2.45,135,8,6,2,Bench,2
2026-04-04T05:17:11.708Z,-0.0091,-0.9853,-0.1953,0.0056,0.0487,0.0021,0.0068,-0.0035,-0.0038,44.28,78.76,-2.45,135,8,6,2,Bench,2
2026-04-04T05:17:11.718Z,-0.0081,-0.9847,-0.1934,0,0.0346,-0.0062,0.0016,0.0015,-0.0036,44.28,78.76,-2.45,135,8,6,2,Bench,2
2026-04-04T05:17:11.726Z,-0.0081,-0.9847,-0.1934,0.0017,0.0464,-0.0093,0.0033,-0.0026,-0.0061,44.28,78.76,-2.45,135,8,6,2,Bench,2
2026-04-04T05:17:11.741Z,-0.0093,-0.9841,-0.1947,0.0104,0.0317,0.0014,0.0056,-0.0016,-0.0034,44.28,78.76,-2.45,135,8,6,2,Bench,2
2026-04-04T05:17:11.746Z,-0.0093,-0.9841,-0.1947,0.0068,0.0313,0.0197,0.002,-0.002,-0.0037,44.28,78.76,-2.45,135,8,6,2,Bench,2
2026-04-04T05:17:11.757Z,-0.0079,-0.9861,-0.1948,-0.0043,0.0533,0.0012,0.0024,-0.0005,-0.0024,44.28,78.76,-2.45,135,8,6,2,Bench,2
2026-04-04T05:17:11.767Z,-0.0079,-0.9861,-0.1948,0.0034,0.047,-0.0052,0.0001,-0.0033,-0.005,44.28,78.76,-2.45,135,8,6,2,Bench,2
2026-04-04T05:17:11.777Z,-0.0083,-0.9859,-0.1952,0,0.0569,-0.0006,0.0027,-0.0029,-0.0051,44.28,78.76,-2.45,135,8,6,2,Bench,2
2026-04-04T05:17:11.790Z,-0.0087,-0.9836,-0.195,0.0024,0.0247,0.0025,0.0035,-0.0032,-0.0033,44.28,78.76,-2.45,135,8,6,2,Bench,2
2026-04-04T05:17:11.797Z,-0.0084,-0.9849,-0.1954,-0.0003,0.0422,0.0066,0.006,-0.0032,-0.0053,44.28,78.76,-2.45,135,8,6,2,Bench,2
2026-04-04T05:17:11.807Z,-0.0079,-0.9836,-0.1974,-0.0045,0.0253,0.0263,0.0026,-0.0016,-0.0056,44.28,78.76,-2.45,135,8,6,2,Bench,2
2026-04-04T05:17:11.818Z,-0.0082,-0.9852,-0.1957,-0.0007,0.0421,0.0083,0.0009,-0.0037,-0.0018,44.29,78.76,-2.45,135,8,6,2,Bench,2
2026-04-04T05:17:11.828Z,-0.0081,-0.9846,-0.1967,-0.0029,0.0371,0.0207,0.0034,-0.0062,-0.0057,44.29,78.76,-2.45,135,8,6,2,Bench,2
2026-04-04T05:17:11.839Z,-0.0078,-0.9855,-0.1967,-0.0067,0.0422,0.0197,0.0011,-0.0026,-0.0029,44.29,78.76,-2.45,135,8,6,2,Bench,2
2026-04-04T05:17:11.847Z,-0.008,-0.9867,-0.1937,-0.0048,0.0585,-0.0057,0.0025,-0.0038,-0.0064,44.29,78.76,-2.45,135,8,6,2,Bench,2
2026-04-04T05:17:11.858Z,-0.0076,-0.9847,-0.1946,-0.0087,0.0384,-0.0041,0.0021,-0.0037,-0.0037,44.29,78.76,-2.46,135,8,6,2,Bench,2
2026-04-04T05:17:11.867Z,-0.0077,-0.9848,-0.1963,-0.0066,0.0399,0.0163,0.0049,-0.0042,-0.0058,44.29,78.76,-2.46,135,8,6,2,Bench,2
2026-04-04T05:17:11.877Z,-0.0077,-0.9837,-0.195,-0.0063,0.0284,0.0045,-0.0001,-0.0031,-0.0058,44.29,78.76,-2.45,135,8,6,2,Bench,2
2026-04-04T05:17:11.889Z,-0.0077,-0.9859,-0.1957,-0.0071,0.049,0.0061,0.0035,0.0001,-0.0012,44.29,78.76,-2.45,135,8,6,2,Bench,2
2026-04-04T05:17:11.897Z,-0.008,-0.9847,-0.1967,-0.0038,0.038,0.0213,0.0035,0.0001,-0.0012,44.29,78.76,-2.45,135,8,6,2,Bench,2
2026-04-04T05:17:11.907Z,-0.0085,-0.9857,-0.1949,-0.0005,0.0485,0.0036,0.0014,-0.001,-0.0046,44.28,78.76,-2.45,135,8,6,2,Bench,2
2026-04-04T05:17:11.917Z,-0.0091,-0.9847,-0.1955,0.007,0.0406,0.0059,0.0024,-0.0021,-0.0032,44.28,78.76,-2.45,135,8,6,2,Bench,2
2026-04-04T05:17:11.928Z,-0.0081,-0.9855,-0.1952,-0.0003,0.0454,0.0038,0.0022,-0.0021,-0.0053,44.28,78.76,-2.45,135,8,6,2,Bench,2
2026-04-04T05:17:11.941Z,-0.0081,-0.9849,-0.1944,-0.0017,0.0402,-0.0042,0.0032,-0.0026,-0.0043,44.28,78.76,-2.45,135,8,6,2,Bench,2
2026-04-04T05:17:11.947Z,-0.0079,-0.9843,-0.1967,-0.005,0.0355,0.015,0.0014,-0.0034,-0.0035,44.28,78.76,-2.45,135,8,6,2,Bench,2
2026-04-04T05:17:11.957Z,-0.0085,-0.9849,-0.1968,-0.0002,0.0399,0.0217,0.0036,-0.0042,-0.0017,44.28,78.76,-2.45,135,8,6,2,Bench,2
2026-04-04T05:17:11.967Z,-0.0079,-0.9847,-0.195,-0.0041,0.0378,0.003,0.0017,0.0003,-0.0048,44.28,78.76,-2.45,135,8,6,2,Bench,2
2026-04-04T05:17:11.977Z,-0.0082,-0.9848,-0.1952,-0.0048,0.0393,0.0059,0.0026,-0.0011,-0.004,44.28,78.76,-2.45,135,8,6,2,Bench,2
2026-04-04T05:17:11.991Z,-0.0087,-0.9854,-0.1949,0.0056,0.0447,-0.0005,0.0025,-0.0066,-0.0043,44.28,78.76,-2.45,135,8,6,2,Bench,2
2026-04-04T05:17:11.997Z,-0.0089,-0.9853,-0.1958,0.0044,0.0454,0.0086,0.0034,-0.0011,-0.0051,44.28,78.76,-2.45,135,8,6,2,Bench,2
2026-04-04T05:17:12.007Z,-0.0095,-0.985,-0.195,0.0132,0.0406,0.0045,0.0033,-0.0041,-0.0051,44.28,78.76,-2.45,135,8,6,2,Bench,2
2026-04-04T05:17:12.019Z,-0.0081,-0.9856,-0.1955,-0.0007,0.046,0.0055,0.0028,0.0001,-0.0044,44.28,78.76,-2.45,135,8,6,2,Bench,2
2026-04-04T05:17:12.027Z,-0.0083,-0.9847,-0.1974,-0.0005,0.0416,0.024,0.0046,-0.0012,-0.0039,44.28,78.76,-2.45,135,8,6,2,Bench,2
2026-04-04T05:17:12.040Z,-0.0092,-0.9856,-0.1951,0.0066,0.044,0.0048,0.0032,-0.0018,-0.0055,44.28,78.76,-2.45,135,8,6,2,Bench,2
2026-04-04T05:17:12.047Z,-0.0088,-0.9852,-0.1953,0.0051,0.0448,0.007,0.0048,-0.0017,-0.0034,44.28,78.76,-2.45,135,8,6,2,Bench,2
2026-04-04T05:17:12.057Z,-0.0088,-0.9852,-0.196,0.0041,0.0435,0.0094,0.0017,-0.0029,-0.0045,44.28,78.76,-2.45,135,8,6,2,Bench,2
2026-04-04T05:17:12.067Z,-0.0081,-0.9856,-0.1955,-0.0017,0.0477,0.0093,0.0035,-0.0017,-0.0033,44.28,78.76,-2.45,135,8,6,2,Bench,2
2026-04-04T05:17:12.077Z,-0.0086,-0.9847,-0.197,0.0015,0.0394,0.0204,0.0031,-0.004,-0.0047,44.28,78.76,-2.45,135,8,6,2,Bench,2
2026-04-04T05:17:12.093Z,-0.0085,-0.985,-0.1958,-0.0022,0.0372,0.0104,0.0026,-0.002,-0.0078,44.28,78.76,-2.45,135,8,6,2,Bench,2
2026-04-04T05:17:12.097Z,-0.008,-0.9847,-0.1959,-0.0022,0.0372,0.0104,0.0024,-0.0046,-0.0022,44.28,78.76,-2.45,135,8,6,2,Bench,2
2026-04-04T05:17:12.107Z,-0.0068,-0.9852,-0.1954,-0.0129,0.0416,0.0087,0.0037,-0.0011,-0.004,44.28,78.76,-2.45,135,8,6,2,Bench,2
2026-04-04T05:17:12.119Z,-0.008,-0.985,-0.1956,-0.0048,0.043,0.009,0.0041,-0.0029,-0.0055,44.28,78.76,-2.45,135,8,6,2,Bench,2
2026-04-04T05:17:12.127Z,-0.0084,-0.9843,-0.1961,0.0001,0.0331,0.0153,0.0021,-0.0013,-0.0027,44.28,78.76,-2.45,135,8,6,2,Bench,2
2026-04-04T05:17:12.139Z,-0.0071,-0.9859,-0.1959,-0.0102,0.0509,0.0102,0.004,-0.0017,-0.0047,44.28,78.76,-2.45,135,8,6,2,Bench,2
2026-04-04T05:17:12.148Z,-0.0076,-0.9854,-0.1958,-0.0101,0.0453,0.0086,0.0037,-0.0012,-0.0009,44.28,78.76,-2.45,135,8,6,2,Bench,2
2026-04-04T05:17:12.158Z,-0.0078,-0.9847,-0.1962,-0.0043,0.0378,0.0169,0.0022,0.0006,-0.005,44.28,78.76,-2.45,135,8,6,2,Bench,2
2026-04-04T05:17:12.167Z,-0.0079,-0.9849,-0.196,-0.0068,0.0396,0.0098,0.0028,-0.0019,-0.0036,44.28,78.76,-2.46,135,8,6,2,Bench,2
2026-04-04T05:17:12.178Z,-0.0082,-0.9853,-0.1953,-0.0008,0.0426,0.0079,0.005,-0.0011,-0.0053,44.28,78.76,-2.46,135,8,6,2,Bench,2
2026-04-04T05:17:12.191Z,-0.0085,-0.9853,-0.1953,-0.0012,0.0347,0.0117,0.005,-0.0015,-0.0039,44.29,78.76,-2.46,135,8,6,2,Bench,2
2026-04-04T05:17:12.197Z,-0.0084,-0.9842,-0.1957,-0.0012,0.0347,0.0117,0.0047,-0.0007,-0.0028,44.29,78.76,-2.46,135,8,6,2,Bench,2
2026-04-04T05:17:12.207Z,-0.0082,-0.9841,-0.1953,-0.0023,0.0339,0.0072,0.0042,-0.0034,-0.004,44.29,78.76,-2.46,135,8,6,2,Bench,2
2026-04-04T05:17:12.218Z,-0.008,-0.9844,-0.196,-0.0021,0.0362,0.0114,0.0028,-0.0027,-0.0048,44.29,78.76,-2.46,135,8,6,2,Bench,2
2026-04-04T05:17:12.227Z,-0.0076,-0.9854,-0.1948,-0.0089,0.0428,0.0015,0.0032,-0.0017,-0.0044,44.29,78.76,-2.46,135,8,6,2,Bench,2
2026-04-04T05:17:12.240Z,-0.0082,-0.9848,-0.1951,-0.0019,0.041,0.0047,0.0058,0.0004,-0.0068,44.29,78.76,-2.46,135,8,6,2,Bench,2
2026-04-04T05:17:12.247Z,-0.0085,-0.9854,-0.1956,-0.0001,0.0443,0.01,0.0035,-0.0032,-0.0017,44.29,78.76,-2.46,135,8,6,2,Bench,2
2026-04-04T05:17:12.257Z,-0.0085,-0.9842,-0.1942,0.0017,0.0348,-0.0037,0.0019,-0.0009,-0.0028,44.29,78.76,-2.46,135,8,6,2,Bench,2
2026-04-04T05:17:12.266Z,-0.0086,-0.9846,-0.1948,0.003,0.0368,-0.0003,0.0034,-0.0033,-0.0022,44.29,78.76,-2.46,135,8,6,2,Bench,2
2026-04-04T05:17:12.276Z,-0.0092,-0.9847,-0.1957,0.0056,0.0357,0.01,0.0048,-0.0027,-0.0039,44.29,78.76,-2.46,135,8,6,2,Bench,2
2026-04-04T05:17:12.289Z,-0.0094,-0.9851,-0.1956,0.011,0.0419,0.0095,0.0015,-0.0009,-0.0038,44.29,78.77,-2.46,135,8,6,2,Bench,2
2026-04-04T05:17:12.296Z,-0.0089,-0.9849,-0.1967,0.0047,0.0387,0.0204,0.0006,-0.0021,-0.0029,44.29,78.77,-2.46,135,8,6,2,Bench,2
2026-04-04T05:17:12.307Z,-0.0083,-0.9863,-0.1956,0.0013,0.0519,0.0111,0.0043,-0.0043,-0.0036,44.29,78.77,-2.46,135,8,6,2,Bench,2
2026-04-04T05:17:12.317Z,-0.0081,-0.9848,-0.1964,-0.0021,0.0385,0.0175,0.0008,-0.0028,-0.0031,44.29,78.77,-2.46,135,8,6,2,Bench,2
2026-04-04T05:17:12.327Z,-0.008,-0.9845,-0.1961,-0.0049,0.0354,0.0156,0.0025,-0.0021,-0.0033,44.29,78.77,-2.46,135,8,6,2,Bench,2
2026-04-04T05:17:12.339Z,-0.0097,-0.9845,-0.1948,0.0119,0.036,0.0022,0.0039,-0.0028,-0.0062,44.29,78.77,-2.47,135,8,6,2,Bench,2
2026-04-04T05:17:12.346Z,-0.0087,-0.985,-0.1962,0.0019,0.0391,0.0167,0.0032,-0.0017,-0.0041,44.3,78.77,-2.47,135,8,6,2,Bench,2
2026-04-04T05:17:12.357Z,-0.009,-0.9853,-0.196,0.0071,0.0427,0.0107,0.0023,-0.0065,-0.0044,44.3,78.77,-2.47,135,8,6,2,Bench,2
2026-04-04T05:17:12.366Z,-0.0079,-0.986,-0.1962,-0.0058,0.0492,0.0148,0.0037,-0.0026,-0.0041,44.3,78.77,-2.47,135,8,6,2,Bench,2
2026-04-04T05:17:12.376Z,-0.0086,-0.9852,-0.1958,0.0009,0.0443,0.0153,0.0001,-0.0034,-0.0048,44.3,78.77,-2.47,135,8,6,2,Bench,2
2026-04-04T05:17:12.391Z,-0.0083,-0.9848,-0.1943,-0.0012,0.0389,-0.0048,0.002,-0.0045,-0.0058,44.3,78.77,-2.48,135,8,6,2,Bench,2
2026-04-04T05:17:12.397Z,-0.0084,-0.9851,-0.1967,-0.0002,0.0425,0.0169,0.002,-0.0018,-0.0063,44.3,78.77,-2.48,135,8,6,2,Bench,2
2026-04-04T05:17:12.407Z,-0.0084,-0.9859,-0.1949,-0.0006,0.0485,0.0053,0.0054,-0.0016,-0.0053,44.3,78.77,-2.48,135,8,6,2,Bench,2
2026-04-04T05:17:12.417Z,-0.008,-0.9846,-0.1944,-0.0028,0.0364,-0.0028,0.0025,0.0014,-0.0046,44.3,78.77,-2.48,135,8,6,2,Bench,2
2026-04-04T05:17:12.427Z,-0.0077,-0.9846,-0.1951,-0.0072,0.0389,0.0014,0.0019,-0.0015,-0.0061,44.3,78.77,-2.48,135,8,6,2,Bench,2
2026-04-04T05:17:12.441Z,-0.008,-0.986,-0.1957,-0.0069,0.0328,0.0184,0.003,-0.0013,-0.0025,44.3,78.77,-2.47,135,8,6,2,Bench,2
2026-04-04T05:17:12.447Z,-0.0077,-0.9837,-0.1967,-0.0069,0.0328,0.0184,-0.0003,-0.002,-0.006,44.3,78.77,-2.47,135,8,6,2,Bench,2
2026-04-04T05:17:12.457Z,-0.0073,-0.9857,-0.195,-0.0113,0.0455,0.0065,0.0019,-0.0037,-0.0023,44.3,78.76,-2.47,135,8,6,2,Bench,2
2026-04-04T05:17:12.466Z,-0.008,-0.9837,-0.1959,-0.0038,0.0307,0.009,0.0041,-0.0025,-0.0046,44.3,78.76,-2.47,135,8,6,2,Bench,2
2026-04-04T05:17:12.476Z,-0.008,-0.986,-0.1954,-0.0046,0.0469,0.0093,0.0027,-0.0051,-0.003,44.3,78.76,-2.47,135,8,6,2,Bench,2
2026-04-04T05:17:12.488Z,-0.008,-0.9851,-0.1958,-0.0045,0.0409,0.0095,0.0024,-0.0035,-0.0037,44.3,78.76,-2.47,135,8,6,2,Bench,2
2026-04-04T05:17:12.498Z,-0.0081,-0.9852,-0.1962,-0.0019,0.0454,0.0146,0.0039,-0.004,-0.0053,44.3,78.76,-2.47,135,8,6,2,Bench,2
2026-04-04T05:17:12.507Z,-0.0077,-0.9853,-0.1966,-0.0052,0.0402,0.0191,0.002,-0.0029,-0.0024,44.3,78.76,-2.47,135,8,6,2,Bench,2
2026-04-04T05:17:12.516Z,-0.0072,-0.986,-0.1961,-0.0127,0.0523,0.0166,0.0029,-0.0032,-0.0035,44.3,78.76,-2.47,135,8,6,2,Bench,2
2026-04-04T05:17:12.526Z,-0.0088,-0.9846,-0.1955,0.0025,0.0366,0.0057,0.0019,-0.0046,-0.0032,44.3,78.76,-2.47,135,8,6,2,Bench,2
2026-04-04T05:17:12.537Z,-0.0082,-0.9849,-0.1965,-0.0012,0.0413,0.0165,0.0024,-0.0007,-0.0025,44.3,78.76,-2.48,135,8,6,2,Bench,2
2026-04-04T05:17:12.546Z,-0.0086,-0.984,-0.1952,-0.0005,0.0306,0.0051,0.004,-0.0022,-0.0049,44.3,78.76,-2.48,135,8,6,2,Bench,2
2026-04-04T05:17:12.559Z,-0.0087,-0.9858,-0.1949,0.0022,0.0484,0.0006,0.0046,0.0006,-0.0017,44.3,78.76,-2.48,135,8,6,2,Bench,2
2026-04-04T05:17:12.566Z,-0.0087,-0.985,-0.1955,0.0028,0.0424,0.0049,0.0035,-0.0036,-0.0031,44.3,78.76,-2.48,135,8,6,2,Bench,2
2026-04-04T05:17:12.576Z,-0.0085,-0.9857,-0.1957,0.0007,0.0489,0.0117,0.002,-0.0022,-0.0039,44.3,78.76,-2.48,135,8,6,2,Bench,2
2026-04-04T05:17:12.587Z,-0.0087,-0.985,-0.1953,0.0043,0.0388,0.0065,0.0029,-0.0034,-0.0041,44.3,78.76,-2.48,135,8,6,2,Bench,2
2026-04-04T05:17:12.596Z,-0.0085,-0.985,-0.1949,0.0014,0.042,0.0008,0.0013,-0.0016,-0.0037,44.3,78.76,-2.48,135,8,6,2,Bench,2
2026-04-04T05:17:12.608Z,-0.0088,-0.9851,-0.196,0.0028,0.0433,0.0127,0.0028,0.0006,-0.002,44.3,78.76,-2.48,135,8,6,2,Bench,2
2026-04-04T05:17:12.616Z,-0.0088,-0.9847,-0.1959,0.0021,0.0388,0.0122,0.004,-0.0033,-0.0028,44.31,78.76,-2.48,135,8,6,2,Bench,2
2026-04-04T05:17:12.626Z,-0.0082,-0.9847,-0.1958,-0.0017,0.0399,0.0097,0.0044,-0.0021,-0.0049,44.31,78.76,-2.48,135,8,6,2,Bench,2
2026-04-04T05:17:12.642Z,-0.0091,-0.9843,-0.1954,0.0054,0.0412,0.0093,0.002,-0.0028,-0.0041,44.31,78.76,-2.49,135,8,6,2,Bench,2
2026-04-04T05:17:12.646Z,-0.0088,-0.985,-0.1958,0.0054,0.0412,0.0093,0.0041,-0.0034,-0.0045,44.31,78.76,-2.49,135,8,6,2,Bench,2
2026-04-04T05:17:12.656Z,-0.0084,-0.9843,-0.1957,0.0011,0.0337,0.0114,0.004,-0.0032,-0.0041,44.31,78.76,-2.49,135,8,6,2,Bench,2
2026-04-04T05:17:12.667Z,-0.0082,-0.9845,-0.1957,-0.0001,0.0342,0.0096,0.0031,-0.0036,-0.0045,44.31,78.76,-2.49,135,8,6,2,Bench,2
2026-04-04T05:17:12.677Z,-0.0082,-0.9848,-0.1951,-0.0008,0.0385,0.0054,0.005,-0.0014,-0.0038,44.31,78.76,-2.49,135,8,6,2,Bench,2
2026-04-04T05:17:12.687Z,-0.0079,-0.9843,-0.1957,-0.0051,0.034,0.0088,0.0047,-0.0022,-0.0066,44.31,78.76,-2.49,135,8,6,2,Bench,2
2026-04-04T05:17:12.696Z,-0.0078,-0.9851,-0.1962,-0.0056,0.0419,0.0121,0.003,-0.0012,-0.0022,44.31,78.76,-2.49,135,8,6,2,Bench,2
2026-04-04T05:17:12.706Z,-0.0081,-0.9853,-0.1955,-0.0036,0.0443,0.0106,0.0049,-0.0029,-0.0037,44.31,78.76,-2.49,135,8,6,2,Bench,2
2026-04-04T05:17:12.716Z,-0.0072,-0.985,-0.1943,-0.012,0.0399,-0.005,0.0044,-0.003,-0.0058,44.31,78.76,-2.49,135,8,6,2,Bench,2
2026-04-04T05:17:12.726Z,-0.0079,-0.9846,-0.1956,-0.0044,0.0363,0.0094,0.0036,-0.0027,-0.0029,44.31,78.76,-2.49,135,8,6,2,Bench,2
2026-04-04T05:17:12.741Z,-0.0076,-0.9846,-0.1949,-0.0116,0.042,-0.0004,0.0028,-0.0011,-0.004,44.31,78.76,-2.49,135,8,6,2,Bench,2
2026-04-04T05:17:12.746Z,-0.0073,-0.9852,-0.1946,-0.0116,0.042,-0.0004,0.0046,-0.0013,-0.0057,44.31,78.76,-2.49,135,8,6,2,Bench,2
2026-04-04T05:17:12.757Z,-0.0075,-0.9852,-0.1955,-0.0103,0.0447,0.0088,0.0032,-0.0017,-0.0027,44.31,78.76,-2.49,135,8,6,2,Bench,2
2026-04-04T05:17:12.766Z,-0.0073,-0.9849,-0.1951,-0.0113,0.0408,0.0056,0.0036,-0.0013,-0.0053,44.31,78.77,-2.49,135,8,6,2,Bench,2
2026-04-04T05:17:12.778Z,-0.0084,-0.9849,-0.1957,0.0004,0.0404,0.0073,0.0017,-0.0049,-0.0037,44.31,78.77,-2.49,135,8,6,2,Bench,2
2026-04-04T05:17:12.788Z,-0.0081,-0.9854,-0.1967,-0.0018,0.0441,0.0219,0.0015,-0.0031,-0.006,44.31,78.77,-2.48,135,8,6,2,Bench,2
2026-04-04T05:17:12.796Z,-0.0078,-0.9852,-0.1959,-0.0072,0.0425,0.0118,0.0034,-0.0012,-0.0029,44.31,78.77,-2.48,135,8,6,2,Bench,2
2026-04-04T05:17:12.807Z,-0.0083,-0.9854,-0.1962,-0.0011,0.045,0.0145,0.0038,-0.0033,-0.0065,44.31,78.77,-2.48,135,8,6,2,Bench,2
2026-04-04T05:17:12.816Z,-0.008,-0.9852,-0.1974,-0.0035,0.0426,0.028,0.0041,-0.0011,-0.0051,44.3,78.77,-2.48,135,8,6,2,Bench,2
2026-04-04T05:17:12.826Z,-0.0078,-0.985,-0.1958,-0.0059,0.0413,0.0137,0.0037,-0.005,-0.0037,44.3,78.77,-2.48,135,8,6,2,Bench,2
2026-04-04T05:17:12.837Z,-0.0081,-0.985,-0.1969,-0.006,0.0384,0.0214,0.0011,-0.0022,-0.0043,44.3,78.77,-2.48,135,8,6,2,Bench,2
2026-04-04T05:17:12.846Z,-0.0088,-0.9862,-0.1964,0.0062,0.0534,0.0177,-0.0001,-0.0015,-0.0045,44.3,78.77,-2.48,135,8,6,2,Bench,2
2026-04-04T05:17:12.860Z,-0.009,-0.9847,-0.1963,0.0059,0.0401,0.0154,0.002,-0.0025,-0.0057,44.3,78.77,-2.48,135,8,6,2,Bench,2
2026-04-04T05:17:12.866Z,-0.009,-0.9846,-0.1958,0.0042,0.0362,0.0132,0.0006,-0.0032,-0.004,44.3,78.77,-2.48,135,8,6,2,Bench,2
2026-04-04T05:17:12.876Z,-0.0088,-0.9855,-0.1957,0.0058,0.045,0.0094,0.003,-0.0032,-0.0038,44.3,78.77,-2.48,135,8,6,2,Bench,2
2026-04-04T05:17:12.888Z,-0.0089,-0.9849,-0.1954,0.0045,0.042,0.0074,0.0043,-0.0019,-0.0054,44.3,78.76,-2.48,135,8,6,2,Bench,2
2026-04-04T05:17:12.896Z,-0.0094,-0.9844,-0.196,0.0091,0.034,0.0142,0.0004,0.0011,-0.0053,44.3,78.76,-2.48,135,8,6,2,Bench,2
2026-04-04T05:17:12.907Z,-0.0092,-0.9854,-0.1958,0.0081,0.0457,0.0109,0.0028,-0.0034,-0.0063,44.3,78.76,-2.48,135,8,6,2,Bench,2
2026-04-04T05:17:12.916Z,-0.0079,-0.9849,-0.195,-0.0047,0.0384,0.0044,0.0021,-0.0006,-0.0034,44.3,78.76,-2.48,135,8,6,2,Bench,2
2026-04-04T05:17:12.926Z,-0.0083,-0.9845,-0.1956,-0.0003,0.0377,0.0092,0.0036,-0.0043,-0.0041,44.29,78.76,-2.47,135,8,6,2,Bench,2
2026-04-04T05:17:12.936Z,-0.0083,-0.9849,-0.1965,-0.0015,0.0357,0.0145,0.0037,-0.0008,-0.0026,44.29,78.76,-2.47,135,8,6,2,Bench,2
2026-04-04T05:17:12.947Z,-0.0085,-0.9858,-0.1965,0.0001,0.0511,0.0176,0.0013,-0.002,-0.0045,44.29,78.76,-2.47,135,8,6,2,Bench,2
